time,seconds_elapsed,z,y,x
1772713844353664500,0.06266455078125,-1.172393798828125,-0.41949462890625,0.2467193603515625
1772713844363638500,0.072638427734375,-1.2163848876953125,-0.4688720703125,0.2960968017578125
1772713844373612500,0.082612548828125,-1.0396881103515625,-0.4750518798828125,0.19903564453125
1772713844383586600,0.092586669921875,-1.029632568359375,-0.46136474609375,0.214569091796875
1772713844393560600,0.102560546875,-0.9089508056640625,-0.4615478515625,0.220977783203125
1772713844403534600,0.11253466796875,-0.8380584716796875,-0.49102783203125,0.2496795654296875
1772713844413508600,0.122508544921875,-0.8261260986328125,-0.54296875,0.25079345703125
1772713844423482600,0.132482666015625,-0.7895660400390625,-0.5573577880859375,0.27374267578125
1772713844433455400,0.142455322265625,-0.7480010986328125,-0.5444793701171875,0.280487060546875
1772713844443429400,0.152429443359375,-0.7168121337890625,-0.5221710205078125,0.298065185546875
1772713844453403400,0.1624033203125,-0.68902587890625,-0.5030517578125,0.32470703125
1772713844463377400,0.17237744140625,-0.6532440185546875,-0.479705810546875,0.3476104736328125
1772713844473351400,0.182351318359375,-0.6679534912109375,-0.4752655029296875,0.354705810546875
1772713844483325400,0.192325439453125,-0.713775634765625,-0.513092041015625,0.320587158203125
1772713844493299500,0.202299560546875,-0.7322998046875,-0.53515625,0.2684173583984375
1772713844503273500,0.2122734375,-0.724456787109375,-0.5175018310546875,0.2375335693359375
1772713844513247500,0.22224755859375,-0.7281341552734375,-0.50640869140625,0.1891021728515625
1772713844523221500,0.232221435546875,-0.738739013671875,-0.50006103515625,0.1142425537109375
1772713844533195500,0.242195556640625,-0.7179412841796875,-0.48046875,0.025421142578125
1772713844543169800,0.252169677734375,-0.63958740234375,-0.4484710693359375,-0.043792724609375
1772713844553143800,0.262143798828125,-0.5382537841796875,-0.410919189453125,-0.0406341552734375
1772713844563117800,0.272117919921875,-0.4997100830078125,-0.365814208984375,0.01318359375
1772713844573091800,0.282091796875,-0.51629638671875,-0.3393402099609375,0.070587158203125
1772713844583065900,0.29206591796875,-0.5260772705078125,-0.35272216796875,0.10943603515625
1772713844593040000,0.302039794921875,-0.5246124267578125,-0.3587493896484375,0.15771484375
1772713844603013600,0.312013671875,-0.5356292724609375,-0.3409423828125,0.2374725341796875
1772713844612987600,0.321987548828125,-0.4903106689453125,-0.32513427734375,0.3029937744140625
1772713844622961700,0.331961669921875,-0.420501708984375,-0.3246917724609375,0.3282928466796875
1772713844632935700,0.341935791015625,-0.46728515625,-0.34649658203125,0.34619140625
1772713844642909700,0.35190966796875,-0.7519989013671875,-0.438385009765625,0.258331298828125
1772713844652883700,0.3618837890625,-0.96014404296875,-0.493743896484375,0.1978302001953125
1772713844662857700,0.371857666015625,-0.93670654296875,-0.4882659912109375,0.193084716796875
1772713844672831700,0.381831787109375,-0.9991607666015625,-0.558258056640625,0.0670623779296875
1772713844682805800,0.3918056640625,-1.23095703125,-0.6146240234375,0.0223388671875
1772713844692779800,0.40177978515625,-1.5002899169921875,-0.65411376953125,0.0440826416015625
1772713844702753800,0.41175390625,-1.76385498046875,-0.729583740234375,0.0527496337890625
1772713844712727800,0.421727783203125,-1.984039306640625,-0.8011627197265625,0.04644775390625
1772713844722701800,0.431701904296875,-1.74981689453125,-0.73248291015625,0.0118408203125
1772713844732675800,0.44167578125,-1.484649658203125,-0.72686767578125,-0.0590972900390625
1772713844742649900,0.45164990234375,-1.7198333740234375,-1.0304412841796875,-0.124603271484375
1772713844752623900,0.461623779296875,-1.6925048828125,-1.182525634765625,-0.05291748046875
1772713844762598000,0.471597900390625,-1.57452392578125,-1.1675567626953125,0.059295654296875
1772713844772572000,0.481572021484375,-1.55987548828125,-1.075775146484375,0.1435699462890625
1772713844782546000,0.4915458984375,-1.473297119140625,-0.9802093505859375,0.1333465576171875
1772713844792519700,0.501519775390625,-1.364227294921875,-0.8940277099609375,0.0681610107421875
1772713844802493700,0.51149365234375,-1.3075103759765625,-0.8274993896484375,-0.00494384765625
1772713844812467700,0.5214677734375,-1.1939239501953125,-0.7828369140625,0.1661834716796875
1772713844822441700,0.531441650390625,-1.0100250244140625,-0.781585693359375,0.285552978515625
1772713844832415700,0.541415771484375,-0.90478515625,-0.7676849365234375,0.161712646484375
1772713844842389800,0.5513896484375,-0.697601318359375,-0.7329254150390625,0.156982421875
1772713844852363800,0.56136376953125,-0.56817626953125,-0.74560546875,0.2592620849609375
1772713844862337800,0.571337890625,-0.4802398681640625,-0.727203369140625,0.221954345703125
1772713844872311800,0.581311767578125,-0.3472442626953125,-0.5363922119140625,0.0711212158203125
1772713844882285800,0.591285888671875,-0.4780426025390625,-0.2233734130859375,-0.005706787109375
1772713844892259800,0.601259765625,-0.6619110107421875,-0.0401153564453125,-0.056884765625
1772713844902233900,0.61123388671875,-0.614898681640625,-0.0261077880859375,-0.0438690185546875
1772713844912208000,0.621207763671875,-0.4476165771484375,0.0205230712890625,-0.1640472412109375
1772713844922182000,0.631181884765625,-0.293121337890625,0.1866302490234375,-0.2161865234375
1772713844932156000,0.641156005859375,-0.1956787109375,0.2596282958984375,-0.1044158935546875
1772713844942130000,0.6511298828125,-0.109344482421875,0.3241119384765625,0.0265350341796875
1772713844952104000,0.66110400390625,-0.1754608154296875,0.267547607421875,0.0454864501953125
1772713844962078000,0.671077880859375,-0.3041229248046875,0.1039581298828125,0.0120697021484375
1772713844972052000,0.681052001953125,-0.1984100341796875,0.004730224609375,0.0817108154296875
1772713844982026000,0.69102587890625,-0.162200927734375,-0.04571533203125,0.113922119140625
1772713844991999700,0.700999755859375,-0.19769287109375,-0.070709228515625,0.1038970947265625
1772713845001973800,0.710973876953125,-0.2467803955078125,-0.084716796875,0.13519287109375
1772713845011947800,0.72094775390625,-0.3122711181640625,-0.1009521484375,0.1148834228515625
1772713845021921800,0.730921875,-0.3254241943359375,-0.1109161376953125,0.0672760009765625
1772713845031895800,0.740895751953125,-0.3014678955078125,-0.1244049072265625,-0.023651123046875
1772713845041869800,0.750869873046875,-0.306488037109375,-0.102386474609375,-0.0791015625
1772713845051843800,0.76084375,-0.3624267578125,-0.0827789306640625,-0.0999755859375
1772713845061817900,0.77081787109375,-0.4210968017578125,-0.0640411376953125,-0.1266937255859375
1772713845071791900,0.7807919921875,-0.4549560546875,-0.03900146484375,-0.1214752197265625
1772713845081766000,0.790765869140625,-0.4723052978515625,-0.0305633544921875,-0.095184326171875
1772713845091738600,0.800738525390625,-0.4623260498046875,-0.0191497802734375,-0.1150054931640625
1772713845101712600,0.810712646484375,-0.43170166015625,0.0068817138671875,-0.171875
1772713845111686700,0.820686767578125,-0.3767547607421875,0.046356201171875,-0.2151641845703125
1772713845121660700,0.83066064453125,-0.3843994140625,0.02825927734375,-0.1937103271484375
1772713845131634700,0.840634765625,-0.459991455078125,0.0613861083984375,-0.173675537109375
1772713845141608700,0.850608642578125,-0.4873504638671875,0.0807037353515625,-0.189849853515625
1772713845151582700,0.860582763671875,-0.4308013916015625,0.00494384765625,-0.2081298828125
1772713845161556700,0.870556640625,-0.4499664306640625,-0.056976318359375,-0.2127227783203125
1772713845171530800,0.88053076171875,-0.622406005859375,-0.133544921875,-0.1844635009765625
1772713845181504800,0.8905048828125,-0.854217529296875,-0.21136474609375,-0.14007568359375
1772713845191478800,0.900478759765625,-1.148529052734375,-0.3909149169921875,-0.1398773193359375
1772713845201452800,0.910452880859375,-1.568267822265625,-0.4272003173828125,-0.1313018798828125
1772713845211426800,0.9204267578125,-1.84619140625,-0.4256591796875,-0.1794281005859375
1772713845221400800,0.93040087890625,-2.0124053955078125,-0.69805908203125,-0.238616943359375
1772713845231374800,0.940374755859375,-2.3469085693359375,-0.869171142578125,-0.2811737060546875
1772713845241348900,0.950348876953125,-2.702606201171875,-0.6893463134765625,-0.3243865966796875
1772713845251322600,0.960322509765625,-2.952728271484375,-0.5520172119140625,-0.3309783935546875
1772713845261296600,0.970296630859375,-3.088470458984375,-0.5453033447265625,-0.419769287109375
1772713845271270700,0.980270751953125,-3.085235595703125,-0.4961090087890625,-0.5169677734375
1772713845281244700,0.99024462890625,-3.055816650390625,-0.45867919921875,-0.5598602294921875
1772713845291218700,1.00021875,-3.034637451171875,-0.4055328369140625,-0.54803466796875
1772713845301192700,1.010192626953125,-2.847808837890625,-0.34716796875,-0.4408111572265625
1772713845311166700,1.020166748046875,-2.5999755859375,-0.420562744140625,-0.31085205078125
1772713845321140700,1.030140625,-2.3516387939453125,-0.58685302734375,-0.2041778564453125
1772713845331114800,1.04011474609375,-2.101226806640625,-0.7004241943359375,-0.104949951171875
1772713845341088800,1.0500888671875,-1.872772216796875,-0.78271484375,-0.0625762939453125
1772713845351062800,1.060062744140625,-1.6487884521484375,-0.8037872314453125,-0.0496368408203125
1772713845361036800,1.070036865234375,-1.433502197265625,-0.77850341796875,-0.0423736572265625
1772713845371010800,1.0800107421875,-1.2281951904296875,-0.7325897216796875,-0.0152435302734375
1772713845380984800,1.08998486328125,-1.0226593017578125,-0.67279052734375,0.0039215087890625
1772713845390958800,1.099958740234375,-0.842864990234375,-0.591156005859375,0.027862548828125
1772713845400932900,1.109932861328125,-0.669281005859375,-0.489166259765625,0.0432891845703125
1772713845410907000,1.119906982421875,-0.5178680419921875,-0.3792877197265625,0.0164642333984375
1772713845420881000,1.129880859375,-0.38714599609375,-0.244873046875,-0.0572052001953125
1772713845430855000,1.13985498046875,-0.2850799560546875,-0.1249237060546875,-0.1078643798828125
1772713845440829000,1.149828857421875,-0.221466064453125,-0.0330810546875,-0.16754150390625
1772713845450802700,1.159802734375,-0.16436767578125,0.036834716796875,-0.207794189453125
1772713845460776700,1.169776611328125,-0.1197357177734375,0.080047607421875,-0.196746826171875
1772713845470750700,1.179750732421875,-0.086883544921875,0.1186981201171875,-0.155609130859375
1772713845480724700,1.189724853515625,-0.054473876953125,0.1484832763671875,-0.103607177734375
1772713845490698800,1.19969873046875,-0.0218505859375,0.16094970703125,-0.0355987548828125
1772713845500672800,1.2096728515625,0.0216522216796875,0.1553955078125,0.0037994384765625
1772713845510646800,1.219646728515625,0.0778045654296875,0.15374755859375,0.02825927734375
1772713845520620800,1.229620849609375,0.106292724609375,0.14263916015625,0.061737060546875
1772713845530594800,1.2395947265625,0.115692138671875,0.115325927734375,0.09429931640625
1772713845540568800,1.24956884765625,0.12994384765625,0.088409423828125,0.117431640625
1772713845550542600,1.25954248046875,0.1229248046875,0.0602569580078125,0.13092041015625
1772713845560516600,1.2695166015625,0.1101837158203125,0.038177490234375,0.1110992431640625
1772713845570490600,1.27949072265625,0.109588623046875,0.0384979248046875,0.069610595703125
1772713845580464600,1.289464599609375,0.089935302734375,0.0484771728515625,0.03167724609375
1772713845590438700,1.299438720703125,0.0595855712890625,0.048614501953125,-0.0036468505859375
1772713845600412700,1.30941259765625,0.0437469482421875,0.0490875244140625,-0.022430419921875
1772713845610386700,1.31938671875,0.0152130126953125,0.047027587890625,-0.032379150390625
1772713845620360700,1.329360595703125,-0.012664794921875,0.054229736328125,-0.038726806640625
1772713845630334700,1.339334716796875,-0.03594970703125,0.06951904296875,-0.0527496337890625
1772713845640308700,1.349308837890625,-0.0494842529296875,0.076904296875,-0.069793701171875
1772713845650282500,1.359282470703125,-0.0608062744140625,0.079803466796875,-0.09466552734375
1772713845660256500,1.369256591796875,-0.0677490234375,0.07763671875,-0.1088409423828125
1772713845670230500,1.37923046875,-0.0795440673828125,0.0576629638671875,-0.1378021240234375
1772713845680204500,1.38920458984375,-0.09600830078125,0.0241241455078125,-0.1585540771484375
1772713845690178600,1.399178466796875,-0.107513427734375,-0.0307464599609375,-0.1634521484375
1772713845700152600,1.409152587890625,-0.1328125,-0.1009368896484375,-0.1818389892578125
1772713845710126600,1.419126708984375,-0.159454345703125,-0.186859130859375,-0.181121826171875
1772713845720100600,1.4291005859375,-0.223785400390625,-0.272491455078125,-0.1682891845703125
1772713845730074600,1.43907470703125,-0.315032958984375,-0.341217041015625,-0.15875244140625
1772713845740048600,1.449048583984375,-0.419586181640625,-0.462371826171875,-0.1245574951171875
1772713845750022700,1.459022705078125,-0.6014251708984375,-0.682403564453125,-0.02935791015625
1772713845759996700,1.46899658203125,-0.94342041015625,-0.952545166015625,0.03045654296875
1772713845769970700,1.478970703125,-1.4670257568359375,-1.3457794189453125,0.085357666015625
1772713845779944700,1.48894482421875,-1.8959808349609375,-1.68548583984375,-0.05975341796875
1772713845789918700,1.498918701171875,-2.321136474609375,-1.5479888916015625,-0.5726776123046875
1772713845799892700,1.508892822265625,-2.7256622314453125,-1.2909393310546875,-1.1046295166015625
1772713845809866800,1.51886669921875,-3.162933349609375,-1.0886077880859375,-1.541656494140625
1772713845819840800,1.5288408203125,-3.40924072265625,-0.7976837158203125,-1.8999786376953125
1772713845829814800,1.538814697265625,-3.415191650390625,-0.5360565185546875,-1.941253662109375
1772713845839788800,1.548788818359375,-3.528045654296875,-0.3078460693359375,-1.6157989501953125
1772713845849762600,1.558762451171875,-3.509857177734375,-0.17218017578125,-1.2064208984375
1772713845859736600,1.568736572265625,-3.2723541259765625,-0.1725921630859375,-0.7776336669921875
1772713845869710600,1.578710693359375,-2.97674560546875,-0.280059814453125,-0.386138916015625
1772713845879684600,1.5886845703125,-2.6930694580078125,-0.478302001953125,-0.1501007080078125
1772713845889658600,1.59865869140625,-2.363494873046875,-0.675323486328125,-0.0916595458984375
1772713845899632600,1.608632568359375,-2.0416259765625,-0.7854461669921875,-0.10369873046875
1772713845909606700,1.618606689453125,-1.75787353515625,-0.802886962890625,-0.0608062744140625
1772713845919580700,1.62858056640625,-1.520599365234375,-0.7938232421875,0.0288848876953125
1772713845929554700,1.6385546875,-1.3409271240234375,-0.81243896484375,0.1048736572265625
1772713845939528700,1.64852880859375,-1.200653076171875,-0.8284149169921875,0.1756134033203125
1772713845949502700,1.658502685546875,-1.071868896484375,-0.8194580078125,0.2148590087890625
1772713845959476700,1.668476806640625,-0.8963775634765625,-0.7778472900390625,0.188446044921875
1772713845969450800,1.67845068359375,-0.7089996337890625,-0.7489776611328125,0.1290283203125
1772713845979424800,1.6884248046875,-0.545501708984375,-0.690582275390625,0.0183868408203125
1772713845989398800,1.698398681640625,-0.386566162109375,-0.6170196533203125,-0.09185791015625
1772713845999372800,1.708372802734375,-0.2605133056640625,-0.5273895263671875,-0.188812255859375
1772713846009346800,1.718346923828125,-0.1689300537109375,-0.3854522705078125,-0.27191162109375
1772713846019320800,1.72832080078125,-0.106964111328125,-0.2281646728515625,-0.2900543212890625
1772713846029294800,1.738294921875,-0.0478973388671875,-0.0975341796875,-0.2844696044921875
1772713846039268600,1.7482685546875,-0.0098114013671875,0.023040771484375,-0.24957275390625
1772713846049242600,1.75824267578125,0.001953125,0.1227874755859375,-0.1736907958984375
1772713846059216600,1.768216552734375,-0.0067291259765625,0.1858367919921875,-0.057769775390625
1772713846069190700,1.778190673828125,0.001068115234375,0.2299652099609375,0.0611114501953125
1772713846079164700,1.78816455078125,0.0206298828125,0.239990234375,0.1710052490234375
1772713846089138700,1.798138671875,0.0494842529296875,0.2436981201171875,0.2651824951171875
1772713846099112700,1.80811279296875,0.066314697265625,0.2689208984375,0.317840576171875
1772713846109086700,1.818086669921875,0.0830535888671875,0.288116455078125,0.3471832275390625
1772713846119060700,1.828060791015625,0.0803985595703125,0.2713470458984375,0.3419647216796875
1772713846129034800,1.83803466796875,0.0927886962890625,0.2297515869140625,0.30267333984375
1772713846139008800,1.8480087890625,0.105072021484375,0.197174072265625,0.254119873046875
1772713846148982800,1.857982666015625,0.0868988037109375,0.168792724609375,0.2000885009765625
1772713846158956800,1.867956787109375,0.081573486328125,0.1441802978515625,0.144134521484375
1772713846168930600,1.8779306640625,0.1018524169921875,0.132598876953125,0.0780029296875
1772713846178904600,1.887904541015625,0.11016845703125,0.1224212646484375,0.029815673828125
1772713846188878600,1.897878662109375,0.09991455078125,0.12078857421875,-0.0053253173828125
1772713846198852600,1.9078525390625,0.07745361328125,0.1212158203125,-0.0344390869140625
1772713846208826600,1.91782666015625,0.06109619140625,0.1161651611328125,-0.077392578125
1772713846218800600,1.927800537109375,0.0293731689453125,0.1228485107421875,-0.102569580078125
1772713846228774700,1.937774658203125,-0.01226806640625,0.109161376953125,-0.124298095703125
1772713846238748700,1.947748779296875,-0.04833984375,0.0769195556640625,-0.136444091796875
1772713846248722400,1.957722412109375,-0.08673095703125,0.0329437255859375,-0.12884521484375
1772713846258696400,1.967696533203125,-0.1087493896484375,-0.0429840087890625,-0.12652587890625
1772713846268670500,1.97767041015625,-0.161102294921875,-0.103515625,-0.1241912841796875
1772713846278644500,1.98764453125,-0.3370513916015625,-0.1454010009765625,-0.0842742919921875
1772713846288618500,1.997618408203125,-0.497894287109375,-0.2208251953125,-0.04400634765625
1772713846298592500,2.007592529296875,-0.6651458740234375,-0.3267822265625,-0.046295166015625
1772713846308566500,2.01756640625,-1.11767578125,-0.4631805419921875,0.03350830078125
1772713846318540500,2.02754052734375,-1.70196533203125,-0.6490020751953125,0.114532470703125
1772713846328514600,2.0375146484375,-2.23504638671875,-0.95928955078125,0.047515869140625
1772713846338488600,2.047488525390625,-2.78765869140625,-1.252471923828125,-0.22174072265625
1772713846348462600,2.057462646484375,-3.27801513671875,-1.076385498046875,-0.6340789794921875
1772713846358436600,2.0674365234375,-3.4784393310546875,-0.617706298828125,-0.90740966796875
1772713846368410600,2.07741064453125,-3.4460906982421875,-0.3741455078125,-0.932647705078125
1772713846378384600,2.087384521484375,-3.365020751953125,-0.287872314453125,-0.7458343505859375
1772713846388358700,2.097358642578125,-3.2639007568359375,-0.3664703369140625,-0.566680908203125
1772713846398332700,2.107332763671875,-3.318115234375,-0.6202850341796875,-0.3510589599609375
1772713846408306700,2.117306640625,-3.1906585693359375,-0.653350830078125,-0.3086395263671875
1772713846418280700,2.12728076171875,-2.93829345703125,-0.7304840087890625,-0.4019927978515625
1772713846428254700,2.137254638671875,-2.678009033203125,-0.89801025390625,-0.4890899658203125
1772713846438228500,2.147228515625,-2.4381561279296875,-1.0261993408203125,-0.5087890625
1772713846448203500,2.15720361328125,-2.1740875244140625,-1.0718536376953125,-0.4928131103515625
1772713846458177500,2.167177490234375,-1.9610595703125,-1.0240325927734375,-0.4461517333984375
1772713846468151600,2.177151611328125,-1.732421875,-0.9034576416015625,-0.3717041015625
1772713846478125600,2.18712548828125,-1.4744110107421875,-0.749237060546875,-0.26788330078125
1772713846488099600,2.197099609375,-1.24334716796875,-0.576568603515625,-0.195526123046875
1772713846498073600,2.207073486328125,-1.0568389892578125,-0.4281768798828125,-0.1222381591796875
1772713846508047600,2.217047607421875,-0.9079742431640625,-0.25994873046875,-0.1274566650390625
1772713846518021600,2.227021728515625,-0.7964935302734375,-0.082061767578125,-0.16864013671875
1772713846527995600,2.23699560546875,-0.7016143798828125,0.0399169921875,-0.2691497802734375
1772713846537969700,2.2469697265625,-0.641387939453125,0.1431427001953125,-0.3017425537109375
1772713846547944000,2.25694384765625,-0.6119232177734375,0.2045745849609375,-0.2913818359375
1772713846557918000,2.26691796875,-0.5194549560546875,0.2093658447265625,-0.261810302734375
1772713846567891700,2.2768916015625,-0.4142913818359375,0.208343505859375,-0.187896728515625
1772713846577865700,2.28686572265625,-0.3034515380859375,0.220672607421875,-0.1337127685546875
1772713846587839700,2.29683984375,-0.1885986328125,0.2394561767578125,-0.081787109375
1772713846597813800,2.306813720703125,-0.076812744140625,0.2393341064453125,-0.0233001708984375
1772713846607787800,2.316787841796875,0.0274810791015625,0.215667724609375,0.024383544921875
1772713846617761800,2.32676171875,0.1147308349609375,0.1906890869140625,0.069976806640625
1772713846627735800,2.33673583984375,0.1916961669921875,0.203338623046875,0.11846923828125
1772713846637709800,2.346709716796875,0.22528076171875,0.2421722412109375,0.1669464111328125
1772713846647683800,2.356683837890625,0.233612060546875,0.2464447021484375,0.225128173828125
1772713846657657900,2.366657958984375,0.2240142822265625,0.19525146484375,0.27252197265625
1772713846667631900,2.3766318359375,0.195526123046875,0.134490966796875,0.2899627685546875
1772713846677606000,2.38660595703125,0.186920166015625,0.0607757568359375,0.2799224853515625
1772713846687580000,2.396579833984375,0.1659698486328125,-0.0035400390625,0.257781982421875
1772713846697554000,2.406553955078125,0.166778564453125,-0.04974365234375,0.171112060546875
1772713846707528000,2.41652783203125,0.1438140869140625,-0.0676422119140625,0.07391357421875
1772713846717502000,2.426501953125,0.0989990234375,-0.0984344482421875,0.00189208984375
1772713846727476000,2.43647607421875,0.092529296875,-0.118865966796875,-0.056884765625
1772713846737450000,2.446449951171875,0.123992919921875,-0.10772705078125,-0.1168670654296875
1772713846747424000,2.456424072265625,0.113739013671875,-0.09521484375,-0.140106201171875
1772713846757398000,2.46639794921875,0.0409393310546875,-0.0566253662109375,-0.147979736328125
1772713846767371800,2.476371826171875,0.01666259765625,0.0024871826171875,-0.1547088623046875
1772713846777345500,2.486345458984375,0.0344390869140625,0.0348663330078125,-0.172332763671875
1772713846787319600,2.496319580078125,0.0121917724609375,0.0697174072265625,-0.1831512451171875
1772713846797293600,2.50629345703125,-0.07666015625,0.1347808837890625,-0.162017822265625
1772713846807267600,2.516267578125,-0.113037109375,0.1703033447265625,-0.077545166015625
1772713846817241600,2.52624169921875,-0.1281280517578125,0.2105560302734375,-0.004852294921875
1772713846827215600,2.536215576171875,-0.14837646484375,0.20294189453125,0.0614776611328125
1772713846837189600,2.546189697265625,-0.1578826904296875,0.1275634765625,0.1163482666015625
1772713846847163600,2.55616357421875,-0.2084503173828125,0.0650634765625,0.17333984375
1772713846857137700,2.5661376953125,-0.32769775390625,0.0106048583984375,0.2708892822265625
1772713846867113000,2.576113037109375,-0.492645263671875,-0.0643768310546875,0.327239990234375
1772713846877087000,2.5860869140625,-0.6981658935546875,-0.1385955810546875,0.3395233154296875
1772713846887061000,2.59606103515625,-0.8720245361328125,-0.2513580322265625,0.1814727783203125
1772713846897035000,2.606034912109375,-1.003326416015625,-0.3317718505859375,-0.175689697265625
1772713846907008800,2.6160087890625,-1.2395782470703125,-0.5418548583984375,-0.5244598388671875
1772713846916982800,2.625982666015625,-1.5962677001953125,-0.6915283203125,-1.094635009765625
1772713846926956500,2.63595654296875,-2.07391357421875,-0.5062713623046875,-1.4658966064453125
1772713846936930600,2.6459306640625,-2.78387451171875,-0.3213653564453125,-1.5566253662109375
1772713846946904600,2.655904541015625,-3.3799285888671875,-0.2625885009765625,-1.704376220703125
1772713846956878600,2.665878662109375,-3.9870147705078125,0.2147064208984375,-1.447845458984375
1772713846966852600,2.6758525390625,-4.2483673095703125,0.6635284423828125,-1.22613525390625
1772713846976826600,2.68582666015625,-4.340362548828125,0.9575653076171875,-1.0046844482421875
1772713846986800600,2.695800537109375,-4.3231201171875,1.0021514892578125,-0.772247314453125
1772713846996774700,2.705774658203125,-4.0767669677734375,0.8959808349609375,-0.5887908935546875
1772713847006748700,2.715748779296875,-3.648040771484375,0.741790771484375,-0.4577789306640625
1772713847016722700,2.72572265625,-3.1482086181640625,0.57025146484375,-0.3618927001953125
1772713847026696700,2.73569677734375,-2.6186065673828125,0.411956787109375,-0.27984619140625
1772713847036670700,2.745670654296875,-2.0829315185546875,0.19537353515625,-0.215179443359375
1772713847046644700,2.755644775390625,-1.634490966796875,0.02154541015625,-0.1745452880859375
1772713847056618800,2.76561865234375,-1.2963409423828125,-0.029296875,-0.1438751220703125
1772713847066592800,2.7755927734375,-1.035614013671875,-0.0573883056640625,-0.1082305908203125
1772713847076566800,2.78556689453125,-0.8316650390625,-0.0432586669921875,-0.07708740234375
1772713847086540800,2.795540771484375,-0.683380126953125,0.0234375,-0.0471343994140625
1772713847096514800,2.805514892578125,-0.5739898681640625,0.073272705078125,-0.0488433837890625
1772713847106488800,2.81548876953125,-0.440399169921875,0.1825103759765625,-0.0357818603515625
1772713847116462600,2.825462646484375,-0.3260955810546875,0.2679443359375,-0.000701904296875
1772713847126437600,2.835437744140625,-0.219390869140625,0.3149566650390625,0.04425048828125
1772713847136411600,2.84541162109375,-0.1243133544921875,0.3504638671875,0.0994873046875
1772713847146385700,2.8553857421875,-0.0241546630859375,0.371826171875,0.1563262939453125
1772713847156359700,2.865359619140625,0.067138671875,0.350189208984375,0.1879730224609375
1772713847166333700,2.875333740234375,0.141693115234375,0.3187255859375,0.1989898681640625
1772713847176307700,2.8853076171875,0.17962646484375,0.320281982421875,0.22222900390625
1772713847186281700,2.89528173828125,0.2093658447265625,0.275543212890625,0.2420196533203125
1772713847196255700,2.905255859375,0.219390869140625,0.2240142822265625,0.2544097900390625
1772713847206229800,2.915229736328125,0.2303924560546875,0.175567626953125,0.2477264404296875
1772713847216203800,2.925203857421875,0.2409515380859375,0.1096343994140625,0.226776123046875
1772713847226177800,2.935177734375,0.2183990478515625,0.03985595703125,0.18255615234375
1772713847236151800,2.94515185546875,0.1976318359375,-0.02313232421875,0.1441192626953125
1772713847246125800,2.955125732421875,0.186065673828125,-0.0947265625,0.085540771484375
1772713847256099600,2.965099609375,0.1804962158203125,-0.1482696533203125,0.0132904052734375
1772713847266073600,2.975073486328125,0.1646575927734375,-0.157073974609375,-0.0624847412109375
1772713847276047600,2.985047607421875,0.1516265869140625,-0.1742095947265625,-0.164215087890625
1772713847286021600,2.995021728515625,0.140167236328125,-0.1616668701171875,-0.248260498046875
1772713847295995600,3.00499560546875,0.0867919921875,-0.1355133056640625,-0.2867889404296875
1772713847305969700,3.0149697265625,0.037017822265625,-0.0793609619140625,-0.2802276611328125
1772713847315943700,3.024943603515625,-0.000213623046875,0.007049560546875,-0.2533416748046875
1772713847325917700,3.034917724609375,-0.05108642578125,0.0840606689453125,-0.1904296875
1772713847335891700,3.0448916015625,-0.0993194580078125,0.171783447265625,-0.1142578125
1772713847345865700,3.05486572265625,-0.1422119140625,0.253997802734375,-0.0244903564453125
1772713847355839700,3.06483984375,-0.19464111328125,0.312835693359375,0.0399932861328125
1772713847365814800,3.074814697265625,-0.278656005859375,0.404388427734375,0.0778656005859375
1772713847375788800,3.084788818359375,-0.3289947509765625,0.4354248046875,0.1156005859375
1772713847385762800,3.0947626953125,-0.39520263671875,0.379180908203125,0.185455322265625
1772713847395736600,3.104736572265625,-0.5229034423828125,0.3196868896484375,0.235107421875
1772713847405710600,3.114710693359375,-0.748291015625,0.2805938720703125,0.2415313720703125
1772713847415684600,3.1246845703125,-1.0462646484375,0.1939849853515625,0.230804443359375
1772713847425658600,3.13465869140625,-1.4202117919921875,0.0750274658203125,0.18865966796875
1772713847435632600,3.144632568359375,-1.878082275390625,-0.0210113525390625,0.0861053466796875
1772713847445606700,3.154606689453125,-2.2220611572265625,-0.0302276611328125,-0.15692138671875
1772713847455580700,3.16458056640625,-2.430328369140625,0.1559295654296875,-0.5399169921875
1772713847465554700,3.1745546875,-2.67913818359375,0.3275146484375,-0.8309173583984375
1772713847475528700,3.18452880859375,-2.9382476806640625,0.204315185546875,-0.975555419921875
1772713847485502700,3.194502685546875,-3.0941925048828125,0.0262908935546875,-0.9807586669921875
1772713847495476700,3.204476806640625,-3.2259521484375,-0.0341339111328125,-0.938507080078125
1772713847505450800,3.21445068359375,-3.343658447265625,0.01446533203125,-0.9096221923828125
1772713847515424800,3.2244248046875,-3.4091033935546875,0.16473388671875,-0.888824462890625
1772713847525398800,3.234398681640625,-3.3762969970703125,0.386962890625,-0.8424224853515625
1772713847535372800,3.244372802734375,-3.2508087158203125,0.552032470703125,-0.7331085205078125
1772713847545347000,3.25434716796875,-3.0953521728515625,0.55621337890625,-0.57427978515625
1772713847555321000,3.264321044921875,-2.9022979736328125,0.4867095947265625,-0.4378662109375
1772713847565295900,3.2742958984375,-2.6519775390625,0.394744873046875,-0.3185577392578125
1772713847575270000,3.284269775390625,-2.364044189453125,0.3258514404296875,-0.2182464599609375
1772713847585244000,3.294243896484375,-2.0660400390625,0.2482452392578125,-0.14263916015625
1772713847595218000,3.304218017578125,-1.756011962890625,0.204498291015625,-0.0883941650390625
1772713847605192000,3.31419189453125,-1.441864013671875,0.189178466796875,-0.07489013671875
1772713847615166000,3.324166015625,-1.1680145263671875,0.18768310546875,-0.1041107177734375
1772713847625140000,3.334139892578125,-0.9359130859375,0.2091217041015625,-0.144622802734375
1772713847635114000,3.344114013671875,-0.7306976318359375,0.2246246337890625,-0.179840087890625
1772713847645088000,3.354087890625,-0.5550994873046875,0.2499237060546875,-0.199127197265625
1772713847655062000,3.36406201171875,-0.405242919921875,0.2770538330078125,-0.1693115234375
1772713847665036000,3.3740361328125,-0.2952423095703125,0.2802886962890625,-0.11151123046875
1772713847675010000,3.384010009765625,-0.1989898681640625,0.2563323974609375,-0.0338592529296875
1772713847684984000,3.393984130859375,-0.0930328369140625,0.243682861328125,0.033447265625
1772713847694958000,3.4039580078125,0.0091705322265625,0.2184600830078125,0.084381103515625
1772713847704932000,3.41393212890625,0.0946197509765625,0.1900634765625,0.1291656494140625
1772713847714905900,3.42390576171875,0.1656036376953125,0.15643310546875,0.1726531982421875
1772713847724880000,3.4338798828125,0.2278594970703125,0.122467041015625,0.2090301513671875
1772713847734854000,3.44385400390625,0.27471923828125,0.10101318359375,0.259735107421875
1772713847744828000,3.453827880859375,0.2967529296875,0.0546112060546875,0.315216064453125
1772713847754803000,3.463802978515625,0.3049468994140625,-0.0029296875,0.356903076171875
1772713847764777000,3.47377685546875,0.314117431640625,-0.0329742431640625,0.3631439208984375
1772713847774751000,3.4837509765625,0.3225250244140625,-0.0474700927734375,0.3399505615234375
1772713847784725000,3.49372509765625,0.3014678955078125,-0.0427398681640625,0.303985595703125
1772713847794699000,3.503698974609375,0.275634765625,-0.01666259765625,0.2586669921875
1772713847804673000,3.513673095703125,0.2501678466796875,0.0004425048828125,0.2182464599609375
1772713847814647000,3.52364697265625,0.22235107421875,0.01129150390625,0.172088623046875
1772713847824621000,3.53362109375,0.2070159912109375,0.0552978515625,0.113983154296875
1772713847834595000,3.543594970703125,0.1992034912109375,0.0747528076171875,0.053924560546875
1772713847844569000,3.553569091796875,0.1911773681640625,0.073028564453125,-0.0195465087890625
1772713847854542800,3.56354296875,0.14874267578125,0.075042724609375,-0.080169677734375
1772713847864516900,3.573516845703125,0.097991943359375,0.06280517578125,-0.121826171875
1772713847874491000,3.583490966796875,0.064544677734375,0.056396484375,-0.154815673828125
1772713847884465000,3.59346484375,0.0227203369140625,0.0771484375,-0.1744842529296875
1772713847894439000,3.60343896484375,-0.019378662109375,0.1160736083984375,-0.1748199462890625
1772713847904413000,3.613412841796875,-0.0685882568359375,0.1331329345703125,-0.140045166015625
1772713847914387000,3.623386962890625,-0.13214111328125,0.145843505859375,-0.1033782958984375
1772713847924361000,3.63336083984375,-0.1706085205078125,0.135406494140625,-0.023223876953125
1772713847934335000,3.6433349609375,-0.226287841796875,0.08453369140625,0.055938720703125
1772713847944309000,3.65330908203125,-0.3229217529296875,0.027099609375,0.11456298828125
1772713847954284000,3.663283935546875,-0.4378204345703125,-0.056365966796875,0.1498260498046875
1772713847964258000,3.673258056640625,-0.66583251953125,-0.116363525390625,0.152862548828125
1772713847974232000,3.683232177734375,-1.072906494140625,-0.1744842529296875,-0.0191650390625
1772713847984206000,3.6932060546875,-1.5797882080078125,-0.2451324462890625,-0.3443756103515625
1772713847994179800,3.703179931640625,-2.0029449462890625,-0.1919097900390625,-0.5946807861328125
1772713848004153900,3.71315380859375,-2.479278564453125,0.2013702392578125,-0.665618896484375
1772713848014127900,3.7231279296875,-2.9205780029296875,0.546722412109375,-0.6250152587890625
1772713848024102000,3.733101806640625,-3.213470458984375,0.6530914306640625,-0.652496337890625
1772713848034076000,3.743075927734375,-3.410919189453125,0.662322998046875,-0.6284027099609375
1772713848044050000,3.7530498046875,-3.61761474609375,0.692291259765625,-0.63409423828125
1772713848054024000,3.76302392578125,-3.7711334228515625,0.7835845947265625,-0.759674072265625
1772713848063998000,3.772998046875,-3.7985382080078125,0.75048828125,-0.936431884765625
1772713848073972000,3.782971923828125,-3.7000579833984375,0.6653594970703125,-1.061614990234375
1772713848083946000,3.792946044921875,-3.5555267333984375,0.550323486328125,-1.0891265869140625
1772713848093920000,3.802919921875,-3.3592071533203125,0.40350341796875,-1.0505828857421875
1772713848103894000,3.81289404296875,-3.1281280517578125,0.30718994140625,-0.947998046875
1772713848113869000,3.822869140625,-2.8985443115234375,0.2993621826171875,-0.7626190185546875
1772713848123843000,3.832843017578125,-2.6633453369140625,0.3146209716796875,-0.5589447021484375
1772713848133816800,3.84281689453125,-2.3798828125,0.339141845703125,-0.391357421875
1772713848143790800,3.852790771484375,-2.103759765625,0.347320556640625,-0.26019287109375
1772713848153764900,3.862764892578125,-1.8607940673828125,0.3487396240234375,-0.17572021484375
1772713848163739000,3.87273876953125,-1.5963287353515625,0.3317413330078125,-0.14019775390625
1772713848173713000,3.882712890625,-1.32666015625,0.2972564697265625,-0.14202880859375
1772713848183687000,3.89268701171875,-1.05426025390625,0.275238037109375,-0.1810760498046875
1772713848193661000,3.902660888671875,-0.8398284912109375,0.26824951171875,-0.1864166259765625
1772713848203635000,3.912635009765625,-0.6188812255859375,0.228118896484375,-0.1365814208984375
1772713848213609000,3.92260888671875,-0.4104766845703125,0.2293853759765625,-0.0736236572265625
1772713848223583000,3.9325830078125,-0.2086639404296875,0.254302978515625,-0.0169525146484375
1772713848233557000,3.942556884765625,-0.0465545654296875,0.261444091796875,0.0354156494140625
1772713848243531000,3.952531005859375,0.075225830078125,0.2717437744140625,0.08770751953125
1772713848253505000,3.962505126953125,0.1860198974609375,0.282501220703125,0.15167236328125
1772713848263479000,3.97247900390625,0.2742462158203125,0.268341064453125,0.210113525390625
1772713848273453800,3.982453857421875,0.3557891845703125,0.2147674560546875,0.2775421142578125
1772713848283427800,3.992427734375,0.442047119140625,0.20574951171875,0.3287506103515625
1772713848293401900,4.00240185546875,0.5218505859375,0.11968994140625,0.3606414794921875
1772713848303376000,4.0123759765625,0.5552825927734375,0.0491790771484375,0.353057861328125
1772713848313350000,4.022349853515625,0.582672119140625,0.0708465576171875,0.3393096923828125
1772713848323324000,4.032323974609375,0.6448516845703125,0.058746337890625,0.28863525390625
1772713848333298000,4.0422978515625,0.6703948974609375,0.0223388671875,0.2529296875
1772713848343272000,4.05227197265625,0.7378692626953125,-0.020233154296875,0.1899871826171875
1772713848353246000,4.062245849609375,0.7515106201171875,-0.035797119140625,0.1007843017578125
1772713848363220000,4.072219970703125,0.7420654296875,-0.0207977294921875,0.030120849609375
1772713848373194000,4.082194091796875,0.705902099609375,0.0153350830078125,0.016571044921875
1772713848383168000,4.09216796875,0.6073150634765625,0.03631591796875,0.0236968994140625
1772713848393142000,4.10214208984375,0.561126708984375,0.042572021484375,-0.0045318603515625
1772713848403116000,4.112115966796875,0.5504302978515625,0.0225830078125,-0.060150146484375
1772713848413090000,4.122090087890625,0.5212860107421875,0.0038909912109375,-0.1031036376953125
1772713848423064000,4.13206396484375,0.49810791015625,0.0289154052734375,-0.1765594482421875
1772713848433038000,4.1420380859375,0.4728546142578125,0.046783447265625,-0.1972198486328125
1772713848443012000,4.15201220703125,0.4373931884765625,0.1021728515625,-0.2332763671875
1772713848452987000,4.16198681640625,0.1865997314453125,0.1404571533203125,-0.1351165771484375
1772713848462961000,4.1719609375,0.1085052490234375,0.1426239013671875,-0.03271484375
1772713848472935000,4.181934814453125,-0.00299072265625,0.179351806640625,0.0410308837890625
1772713848482909000,4.191908935546875,-0.1109466552734375,0.2091064453125,0.0692138671875
1772713848492883000,4.201883056640625,-0.3546905517578125,0.1763916015625,0.0342254638671875
1772713848502857000,4.21185693359375,-0.6891632080078125,0.1632232666015625,-0.018157958984375
1772713848512831000,4.2218310546875,-1.1471405029296875,0.1681060791015625,-0.0752105712890625
1772713848522805000,4.231804931640625,-1.570953369140625,0.1395111083984375,-0.25396728515625
1772713848532779000,4.241779052734375,-2.000335693359375,0.1119537353515625,-0.5582122802734375
1772713848542753000,4.2517529296875,-2.33966064453125,0.0939788818359375,-0.9199066162109375
1772713848552727000,4.26172705078125,-2.5904693603515625,0.11627197265625,-1.296905517578125
1772713848562701000,4.271701171875,-2.944366455078125,0.3330841064453125,-1.70306396484375
1772713848572675000,4.281675048828125,-3.284698486328125,0.3628387451171875,-1.9342193603515625
1772713848582649900,4.29164990234375,-3.418670654296875,0.173492431640625,-2.093170166015625
1772713848592623900,4.301623779296875,-3.5577392578125,0.003875732421875,-2.2805633544921875
1772713848602598000,4.311597900390625,-3.5802764892578125,-0.0842132568359375,-2.4445343017578125
1772713848612572000,4.321572021484375,-3.550323486328125,-0.0602264404296875,-2.538665771484375
1772713848622546000,4.3315458984375,-3.525299072265625,0.0255126953125,-2.411529541015625
1772713848632520000,4.34152001953125,-3.381988525390625,0.0887451171875,-2.1247711181640625
1772713848642494000,4.351493896484375,-3.147705078125,0.0721893310546875,-1.7615966796875
1772713848652468000,4.361468017578125,-2.8113250732421875,0.0544891357421875,-1.3942413330078125
1772713848662442000,4.37144189453125,-2.4167327880859375,0.047271728515625,-1.0644378662109375
1772713848672416000,4.381416015625,-2.049957275390625,0.0544281005859375,-0.8040008544921875
1772713848682390000,4.39139013671875,-1.712982177734375,0.086456298828125,-0.5893707275390625
1772713848692364000,4.401364013671875,-1.41888427734375,0.1251220703125,-0.39947509765625
1772713848702338000,4.411338134765625,-1.174346923828125,0.198944091796875,-0.2520904541015625
1772713848712312000,4.42131201171875,-0.94671630859375,0.2843780517578125,-0.1455078125
1772713848722286800,4.431286865234375,-0.737274169921875,0.328582763671875,-0.0755157470703125
1772713848732260900,4.4412607421875,-0.54888916015625,0.33306884765625,-0.0316314697265625
1772713848742235000,4.45123486328125,-0.37506103515625,0.29888916015625,-0.0250244140625
1772713848752209000,4.461208984375,-0.2323760986328125,0.24566650390625,-0.0382232666015625
1772713848762183000,4.471182861328125,-0.086822509765625,0.2047119140625,-0.0484771728515625
1772713848772157000,4.481156982421875,0.037872314453125,0.143707275390625,-0.0218963623046875
1772713848782131000,4.491130859375,0.1530914306640625,0.0453338623046875,0.0192108154296875
1772713848792105000,4.50110498046875,0.2336273193359375,0.0231475830078125,0.07757568359375
1772713848802079000,4.511078857421875,0.2910003662109375,0.04193115234375,0.165252685546875
1772713848812053000,4.521052978515625,0.356292724609375,0.0388946533203125,0.250152587890625
1772713848822027000,4.531027099609375,0.3820953369140625,0.0008697509765625,0.318511962890625
1772713848832001000,4.5410009765625,0.421539306640625,-0.0071258544921875,0.3757171630859375
1772713848841975000,4.55097509765625,0.44390869140625,0.008758544921875,0.400909423828125
1772713848851949000,4.560948974609375,0.4482269287109375,0.0293731689453125,0.41375732421875
1772713848861923800,4.570923828125,0.444488525390625,0.073028564453125,0.3800506591796875
1772713848871897900,4.58089794921875,0.4289703369140625,0.099456787109375,0.328155517578125
1772713848881872000,4.590871826171875,0.3726043701171875,0.123504638671875,0.260284423828125
1772713848891846000,4.600845947265625,0.3307647705078125,0.1538848876953125,0.16302490234375
1772713848901820000,4.61081982421875,0.3096466064453125,0.1790313720703125,0.064453125
1772713848911794000,4.6207939453125,0.2595062255859375,0.1711273193359375,-0.0211181640625
1772713848921768000,4.630767822265625,0.2269134521484375,0.15155029296875,-0.138336181640625
1772713848931742000,4.640741943359375,0.172698974609375,0.093170166015625,-0.2254180908203125
1772713848941716000,4.650716064453125,0.0855712890625,0.0460052490234375,-0.2568511962890625
1772713848951690000,4.66068994140625,-0.0246429443359375,0.0511627197265625,-0.266815185546875
1772713848961664000,4.6706640625,-0.10919189453125,0.05792236328125,-0.254364013671875
1772713848971638000,4.680637939453125,-0.197113037109375,0.0758819580078125,-0.200531005859375
1772713848981612000,4.690612060546875,-0.2453765869140625,0.1189422607421875,-0.1496429443359375
1772713848991586000,4.7005859375,-0.30224609375,0.1115264892578125,-0.0787506103515625
1772713849001560800,4.710560791015625,-0.3101043701171875,0.086761474609375,-0.0073699951171875
1772713849011534800,4.720534912109375,-0.311370849609375,0.0397796630859375,0.109283447265625
1772713849021508900,4.7305087890625,-0.320892333984375,0.0015106201171875,0.199188232421875
1772713849031483000,4.74048291015625,-0.3236083984375,-0.0671844482421875,0.29052734375
1772713849041457000,4.750456787109375,-0.34912109375,-0.137908935546875,0.36993408203125
1772713849051431000,4.760430908203125,-0.466278076171875,-0.1698455810546875,0.3930511474609375
1772713849061405000,4.770405029296875,-0.724334716796875,-0.2784423828125,0.35504150390625
1772713849071379000,4.78037890625,-1.1627349853515625,-0.407379150390625,0.217041015625
1772713849081353000,4.79035302734375,-1.641448974609375,-0.5364990234375,0.0011444091796875
1772713849091327000,4.800326904296875,-2.1136474609375,-0.51544189453125,-0.3035125732421875
1772713849101301000,4.810301025390625,-2.5303955078125,-0.2918548583984375,-0.61572265625
1772713849111275000,4.82027490234375,-2.9633026123046875,-0.0174560546875,-0.8125762939453125
1772713849121249000,4.8302490234375,-3.3233795166015625,0.1251220703125,-0.83685302734375
1772713849131223800,4.840223876953125,-3.65240478515625,0.137542724609375,-0.72882080078125
1772713849141197800,4.85019775390625,-3.93927001953125,0.177215576171875,-0.65374755859375
1772713849151171800,4.860171875,-4.05120849609375,0.278778076171875,-0.6705169677734375
1772713849161145900,4.870145751953125,-4.0608673095703125,0.282928466796875,-0.710357666015625
1772713849171119900,4.880119873046875,-3.95379638671875,0.1609344482421875,-0.7443084716796875
1772713849181094000,4.890093994140625,-3.782806396484375,0.0098114013671875,-0.7188720703125
1772713849191068000,4.90006787109375,-3.54095458984375,-0.0478363037109375,-0.654876708984375
1772713849201042000,4.9100419921875,-3.2130126953125,-0.0399627685546875,-0.5837860107421875
1772713849211016000,4.920015869140625,-2.8577880859375,-0.017303466796875,-0.48858642578125
1772713849220990000,4.929989990234375,-2.5105438232421875,-0.01165771484375,-0.396881103515625
1772713849230965200,4.93996533203125,-2.1446990966796875,0.016510009765625,-0.3149871826171875
1772713849240939300,4.949939208984375,-1.779541015625,0.0572052001953125,-0.2369537353515625
1772713849250913000,4.9599130859375,-1.4559326171875,0.0749053955078125,-0.1416473388671875
1772713849260886800,4.96988671875,-1.144500732421875,0.1413116455078125,-0.030914306640625
1772713849270860800,4.97986083984375,-0.8308563232421875,0.2353363037109375,0.06585693359375
1772713849280834800,4.989834716796875,-0.5433197021484375,0.2870941162109375,0.1356658935546875
1772713849290808800,4.999808837890625,-0.338348388671875,0.3352508544921875,0.2216033935546875
1772713849300782800,5.009782958984375,-0.1338653564453125,0.3441162109375,0.2877349853515625
1772713849310756900,5.0197568359375,0.053741455078125,0.304656982421875,0.343048095703125
1772713849320731000,5.02973095703125,0.2231597900390625,0.205841064453125,0.396759033203125
1772713849330705000,5.039704833984375,0.374786376953125,0.10986328125,0.4158477783203125
1772713849340679000,5.049678955078125,0.51513671875,0.050933837890625,0.4051055908203125
1772713849350653000,5.05965283203125,0.58709716796875,0.0454559326171875,0.3792572021484375
1772713849360628200,5.069628173828125,0.616180419921875,0.020660400390625,0.38140869140625
1772713849370602200,5.079602294921875,0.649169921875,-0.0294036865234375,0.3834075927734375
1772713849380576300,5.089576171875,0.6592254638671875,-0.0461578369140625,0.342742919921875
1772713849390550000,5.099550048828125,0.64654541015625,-0.0479736328125,0.272674560546875
1772713849400524000,5.10952392578125,0.6348419189453125,-0.0295867919921875,0.1624298095703125
1772713849410497800,5.119497802734375,0.607452392578125,-0.022796630859375,0.0264129638671875
1772713849420471800,5.129471923828125,0.540557861328125,-0.014495849609375,-0.1007080078125
1772713849430445800,5.13944580078125,0.396331787109375,0.04791259765625,-0.19476318359375
1772713849440419800,5.149419921875,0.26971435546875,0.0805816650390625,-0.247650146484375
1772713849450393900,5.159393798828125,0.1357879638671875,0.1244659423828125,-0.2603759765625
1772713849460368000,5.169367919921875,0.0086517333984375,0.187652587890625,-0.1876983642578125
1772713849470342000,5.179341796875,-0.04034423828125,0.197235107421875,-0.1251068115234375
1772713849480317200,5.189317138671875,-0.0371856689453125,0.1751861572265625,-0.0708770751953125
1772713849490291200,5.199291259765625,-0.02734375,0.1435089111328125,-0.0029754638671875
1772713849500265200,5.20926513671875,-0.0219573974609375,0.1290740966796875,0.053680419921875
1772713849510239200,5.2192392578125,-0.020965576171875,0.1125030517578125,0.0894317626953125
1772713849520213200,5.229213134765625,-0.04205322265625,0.1085052490234375,0.108062744140625
1772713849530187000,5.23918701171875,-0.108795166015625,0.1244354248046875,0.13104248046875
1772713849540161000,5.2491611328125,-0.1702423095703125,0.1014404296875,0.12945556640625
1772713849550135000,5.259135009765625,-0.2341766357421875,0.0570068359375,0.090911865234375
1772713849560109000,5.269109130859375,-0.2689666748046875,0.003692626953125,0.04034423828125
1772713849570083000,5.2790830078125,-0.315521240234375,-0.074005126953125,0.0449066162109375
1772713849580056800,5.289056884765625,-0.465728759765625,-0.141082763671875,0.07330322265625
1772713849590030800,5.29903076171875,-0.6366424560546875,-0.1329193115234375,0.0501251220703125
1772713849600006100,5.309006103515625,-0.84637451171875,-0.103057861328125,0.033538818359375
1772713849609977000,5.31897705078125,-1.13568115234375,-0.1905364990234375,0.014068603515625
1772713849619951000,5.328951171875,-1.4629364013671875,-0.291107177734375,-0.09423828125
1772713849629925000,5.338925048828125,-1.8903656005859375,-0.1758575439453125,-0.2033233642578125
1772713849639900000,5.34889990234375,-2.3929901123046875,0.0991668701171875,-0.2682342529296875
1772713849649874000,5.3588740234375,-2.840087890625,0.3433837890625,-0.328399658203125
1772713849659848000,5.368847900390625,-3.335052490234375,0.6060028076171875,-0.2886962890625
1772713849669822000,5.378822021484375,-3.6852264404296875,0.5937652587890625,-0.3643951416015625
1772713849679796000,5.3887958984375,-4.062713623046875,0.4446258544921875,-0.4681396484375
1772713849689770000,5.39877001953125,-4.3231048583984375,0.5059051513671875,-0.5887451171875
1772713849699744000,5.408743896484375,-4.3387298583984375,0.505218505859375,-0.6929779052734375
1772713849709718000,5.418718017578125,-4.2159423828125,0.3316650390625,-0.7259368896484375
1772713849719692000,5.428692138671875,-3.9674224853515625,0.1329193115234375,-0.747528076171875
1772713849729666000,5.438666015625,-3.61993408203125,0.0111846923828125,-0.70660400390625
1772713849739640800,5.448640869140625,-3.260955810546875,-0.053253173828125,-0.5853729248046875
1772713849749614800,5.45861474609375,-2.9087677001953125,-0.101348876953125,-0.4622802734375
1772713849759588900,5.4685888671875,-2.5261993408203125,-0.1325225830078125,-0.3724822998046875
1772713849769563000,5.47856298828125,-2.1510467529296875,-0.113006591796875,-0.3198394775390625
1772713849779537000,5.488536865234375,-1.7664947509765625,-0.0837860107421875,-0.2816925048828125
1772713849789511000,5.498510986328125,-1.4124298095703125,-0.02886962890625,-0.188873291015625
1772713849799485000,5.50848486328125,-1.1115264892578125,0.0484466552734375,-0.0781707763671875
1772713849809459000,5.518458984375,-0.8171539306640625,0.105316162109375,-0.0205535888671875
1772713849819433000,5.528432861328125,-0.5767059326171875,0.196258544921875,0.0159759521484375
1772713849829407000,5.538406982421875,-0.3600921630859375,0.31414794921875,0.039794921875
1772713849839381000,5.548381103515625,-0.200653076171875,0.3835601806640625,0.0708160400390625
1772713849849356000,5.55835595703125,-0.0594482421875,0.422515869140625,0.1196136474609375
1772713849859330000,5.568330078125,0.0646209716796875,0.42205810546875,0.1822662353515625
1772713849869304000,5.578303955078125,0.1612701416015625,0.380157470703125,0.2675933837890625
1772713849879277800,5.58827783203125,0.2750244140625,0.31536865234375,0.3262786865234375
1772713849889251800,5.598251953125,0.3801422119140625,0.2446746826171875,0.365570068359375
1772713849899225900,5.608225830078125,0.456939697265625,0.1722564697265625,0.3802642822265625
1772713849909200000,5.618199951171875,0.5285186767578125,0.1229400634765625,0.3822479248046875
1772713849919174000,5.628173828125,0.5745086669921875,0.077117919921875,0.3805694580078125
1772713849929148000,5.63814794921875,0.5973358154296875,0.03570556640625,0.3675689697265625
1772713849939122000,5.648121826171875,0.6036376953125,0.0145416259765625,0.3418731689453125
1772713849949097000,5.658096923828125,0.59503173828125,0.014495849609375,0.3015289306640625
1772713849959071000,5.668071044921875,0.57110595703125,-0.000335693359375,0.234832763671875
1772713849969045000,5.678044921875,0.5063018798828125,-0.0055389404296875,0.1610107421875
1772713849979019000,5.68801904296875,0.428192138671875,-0.009063720703125,0.0643310546875
1772713849988993000,5.697992919921875,0.326416015625,-0.0391082763671875,-0.0401153564453125
1772713849998967000,5.707967041015625,0.2012481689453125,-0.0548248291015625,-0.151336669921875
1772713850008941000,5.717941162109375,0.0955352783203125,-0.0519256591796875,-0.2616729736328125
1772713850018914800,5.727914794921875,0.00213623046875,-0.022613525390625,-0.3326873779296875
1772713850028888800,5.737888916015625,-0.0792388916015625,0.0295562744140625,-0.3430938720703125
1772713850038862800,5.74786279296875,-0.1401214599609375,0.068450927734375,-0.3188934326171875
1772713850048836900,5.7578369140625,-0.1725921630859375,0.09576416015625,-0.2568817138671875
1772713850058812200,5.767812255859375,-0.20123291015625,0.1473846435546875,-0.164031982421875
1772713850068786000,5.777785888671875,-0.2396697998046875,0.1813812255859375,-0.0478363037109375
1772713850078760000,5.787760009765625,-0.2857818603515625,0.1923980712890625,0.0594024658203125
1772713850088734000,5.79773388671875,-0.30572509765625,0.2119598388671875,0.12286376953125
1772713850098708000,5.8077080078125,-0.3324737548828125,0.210693359375,0.147674560546875
1772713850108682000,5.817681884765625,-0.3367767333984375,0.2364044189453125,0.1531219482421875
1772713850118656000,5.827656005859375,-0.3549346923828125,0.1982574462890625,0.1750335693359375
1772713850128630000,5.837630126953125,-0.411529541015625,0.079833984375,0.2502593994140625
1772713850138604000,5.84760400390625,-0.552947998046875,0.0089263916015625,0.2111663818359375
1772713850148578000,5.857578125,-0.740875244140625,0.0247802734375,0.1327056884765625
1772713850158553000,5.867552978515625,-1.05914306640625,0.01129150390625,0.03662109375
1772713850168527000,5.877527099609375,-1.4468231201171875,-0.0881195068359375,-0.1522674560546875
1772713850178501000,5.887501220703125,-1.8870849609375,-0.0374603271484375,-0.432098388671875
1772713850188475100,5.89747509765625,-2.422515869140625,0.330352783203125,-0.733306884765625
1772713850198449200,5.90744921875,-2.89013671875,0.6165924072265625,-0.945220947265625
1772713850208423200,5.917423095703125,-3.2362060546875,0.612396240234375,-1.0262451171875
1772713850218397200,5.927397216796875,-3.5866546630859375,0.493316650390625,-0.91302490234375
1772713850228371000,5.937370849609375,-3.8293304443359375,0.3975982666015625,-0.756439208984375
1772713850238345000,5.947344970703125,-4.03363037109375,0.420074462890625,-0.6396331787109375
1772713850248320000,5.957320068359375,-4.103302001953125,0.53057861328125,-0.6530303955078125
1772713850258294000,5.9672939453125,-4.100616455078125,0.5322113037109375,-0.7659759521484375
1772713850268269000,5.97726904296875,-3.983795166015625,0.433349609375,-0.9001007080078125
1772713850278243000,5.9872431640625,-3.7363433837890625,0.3305816650390625,-0.96728515625
1772713850288217000,5.997217041015625,-3.428985595703125,0.2541656494140625,-0.901611328125
1772713850298191000,6.007191162109375,-3.0869140625,0.233154296875,-0.720733642578125
1772713850308165000,6.0171650390625,-2.68341064453125,0.240997314453125,-0.5125732421875
1772713850318139100,6.02713916015625,-2.23651123046875,0.2317962646484375,-0.33013916015625
1772713850328113200,6.037113037109375,-1.757904052734375,0.212860107421875,-0.201690673828125
1772713850338087200,6.047087158203125,-1.2573699951171875,0.167266845703125,-0.1274261474609375
1772713850348061200,6.057061279296875,-0.806793212890625,0.1201019287109375,-0.0638275146484375
1772713850358036000,6.067035888671875,-0.451324462890625,0.1110076904296875,-0.0147857666015625
1772713850368010000,6.077010009765625,-0.1599273681640625,0.12310791015625,0.027313232421875
1772713850377984000,6.08698388671875,0.06158447265625,0.13897705078125,0.127288818359375
1772713850387958000,6.0969580078125,0.24920654296875,0.1092071533203125,0.2075042724609375
1772713850397932000,6.10693212890625,0.3794097900390625,0.0665740966796875,0.266448974609375
1772713850407906000,6.116906005859375,0.4997711181640625,0.023590087890625,0.301849365234375
1772713850417880000,6.126880126953125,0.6006011962890625,-0.0058441162109375,0.325225830078125
1772713850427854000,6.13685400390625,0.66796875,-0.04638671875,0.349884033203125
1772713850437828000,6.146828125,0.71453857421875,-0.0911712646484375,0.335113525390625
1772713850447803100,6.15680322265625,0.7547149658203125,-0.106719970703125,0.299102783203125
1772713850457777000,6.16677685546875,0.7433013916015625,-0.09442138671875,0.232635498046875
1772713850467751000,6.1767509765625,0.6842193603515625,-0.0215301513671875,0.1326751708984375
1772713850477725000,6.186724853515625,0.5773162841796875,0.01922607421875,0.006134033203125
1772713850487699000,6.196698974609375,0.43377685546875,0.0427398681640625,-0.1129913330078125
1772713850497673000,6.2066728515625,0.25970458984375,0.0894775390625,-0.198089599609375
1772713850507647000,6.21664697265625,0.0769195556640625,0.14324951171875,-0.2601470947265625
1772713850517621000,6.22662109375,-0.077239990234375,0.2201690673828125,-0.273101806640625
1772713850527595000,6.236594970703125,-0.19647216796875,0.2570953369140625,-0.2414703369140625
1772713850537570000,6.246570068359375,-0.3144073486328125,0.2728118896484375,-0.201629638671875
1772713850547544000,6.2565439453125,-0.361236572265625,0.303863525390625,-0.1593017578125
1772713850557517800,6.266517822265625,-0.3659515380859375,0.2583465576171875,-0.0995025634765625
1772713850567491800,6.276491943359375,-0.393768310546875,0.182373046875,-0.0313720703125
1772713850577465900,6.2864658203125,-0.36993408203125,0.136016845703125,-0.00335693359375
1772713850587439900,6.29643994140625,-0.3405303955078125,0.075225830078125,0.0102996826171875
1772713850597414000,6.306413818359375,-0.3612060546875,0.014556884765625,0.028717041015625
1772713850607388000,6.316387939453125,-0.374481201171875,-0.024383544921875,0.0316619873046875
1772713850617361700,6.326361572265625,-0.391998291015625,-0.0582733154296875,0.0335235595703125
1772713850627335700,6.336335693359375,-0.427520751953125,-0.0911102294921875,0.0567779541015625
1772713850637310700,6.346310791015625,-0.4555206298828125,-0.16009521484375,0.088470458984375
1772713850647284700,6.35628466796875,-0.508758544921875,-0.23907470703125,0.1637420654296875
1772713850657258800,6.3662587890625,-0.5673980712890625,-0.35162353515625,0.2509002685546875
1772713850667232800,6.376232666015625,-0.6631927490234375,-0.451080322265625,0.2877197265625
1772713850677206800,6.386206787109375,-0.880706787109375,-0.4950714111328125,0.301055908203125
1772713850687180800,6.396180908203125,-1.1100006103515625,-0.54290771484375,0.2731475830078125
1772713850697154800,6.40615478515625,-1.28656005859375,-0.5734405517578125,0.197509765625
1772713850707128800,6.41612890625,-1.4541778564453125,-0.68316650390625,0.1199951171875
1772713850717102800,6.426102783203125,-1.58251953125,-0.7402496337890625,0.008209228515625
1772713850727077600,6.43607763671875,-1.46893310546875,-0.4567413330078125,-0.2125091552734375
1772713850737051600,6.4460517578125,-1.534912109375,-0.2955322265625,-0.3035888671875
1772713850747025700,6.456025634765625,-1.8188629150390625,-0.4470977783203125,-0.1877899169921875
1772713850756999700,6.465999755859375,-2.004913330078125,-0.525482177734375,-0.0678863525390625
1772713850766973700,6.4759736328125,-2.025665283203125,-0.53228759765625,-0.044647216796875
1772713850776947700,6.48594775390625,-2.106689453125,-0.3974151611328125,-0.0934295654296875
1772713850786921700,6.495921630859375,-2.2393341064453125,-0.2241668701171875,-0.1764984130859375
1772713850796895700,6.505895751953125,-2.2853240966796875,-0.076751708984375,-0.22686767578125
1772713850806870800,6.515870849609375,-2.2891693115234375,-0.0614013671875,-0.217620849609375
1772713850816844800,6.5258447265625,-2.531005859375,-0.2495574951171875,-0.951995849609375
1772713850826818800,6.53581884765625,-2.2527923583984375,-0.3809051513671875,-0.20318603515625
1772713850836792800,6.545792724609375,-2.122894287109375,-0.3231964111328125,0.031890869140625
1772713850846766600,6.5557666015625,-2.2375640869140625,-0.489471435546875,0.22833251953125
1772713850856740600,6.56574072265625,-1.9432830810546875,-0.5167236328125,0.1011505126953125
1772713850866714600,6.575714599609375,-1.797576904296875,-0.530303955078125,-0.03717041015625
1772713850876688600,6.585688720703125,-1.560028076171875,-0.5587310791015625,-0.171173095703125
1772713850886662700,6.59566259765625,-1.4313201904296875,-0.6121063232421875,-0.2725677490234375
1772713850896638000,6.605637939453125,-1.2914886474609375,-0.628173828125,-0.3263092041015625
1772713850906612000,6.615612060546875,-1.2274169921875,-0.584808349609375,-0.3133544921875
1772713850916586000,6.6255859375,-1.1905670166015625,-0.5089874267578125,-0.215179443359375
1772713850926560000,6.63556005859375,-1.1793670654296875,-0.294189453125,-0.0848388671875
1772713850936534000,6.645533935546875,-1.1947021484375,-0.0950775146484375,-0.0022430419921875
1772713850946508000,6.655508056640625,-1.191131591796875,0.0306243896484375,0.0775604248046875
1772713850956482000,6.66548193359375,-1.1418914794921875,0.1071624755859375,0.1189117431640625
1772713850966455800,6.675455810546875,-1.0855560302734375,0.1088409423828125,0.11572265625
1772713850976430800,6.685430908203125,-0.99993896484375,0.0764007568359375,0.080047607421875
1772713850986404900,6.69540478515625,-0.8888092041015625,-0.0279693603515625,0.00506591796875
1772713850996379000,6.70537890625,-0.7549896240234375,-0.1195220947265625,-0.10675048828125
1772713851006353000,6.715352783203125,-0.5742034912109375,-0.1292266845703125,-0.1597900390625
1772713851016327000,6.725326904296875,-0.412567138671875,-0.0973968505859375,-0.1268768310546875
1772713851026301000,6.735301025390625,-0.226531982421875,-0.0352935791015625,-0.0531463623046875
1772713851036275000,6.74527490234375,-0.03289794921875,0.032135009765625,0.010711669921875
1772713851046249000,6.7552490234375,0.127960205078125,0.0921630859375,0.0640869140625
1772713851056223000,6.765222900390625,0.2640228271484375,0.1194305419921875,0.115570068359375
1772713851066197800,6.77519775390625,0.3679656982421875,0.0892486572265625,0.1683502197265625
1772713851076171800,6.785171875,0.4610443115234375,0.016204833984375,0.1807861328125
1772713851086145800,6.795145751953125,0.5027618408203125,-0.0461578369140625,0.163177490234375
1772713851096119800,6.805119873046875,0.49615478515625,-0.1208953857421875,0.146636962890625
1772713851106093800,6.81509375,0.4601898193359375,-0.1240386962890625,0.1115875244140625
1772713851116067800,6.82506787109375,0.3725128173828125,-0.0696563720703125,0.0711517333984375
1772713851126041900,6.835041748046875,0.215606689453125,0.0058441162109375,0.0109405517578125
1772713851136016000,6.845015869140625,0.0661468505859375,0.0821685791015625,-0.0986328125
1772713851145991000,6.854990966796875,-0.093475341796875,0.128936767578125,-0.21905517578125
1772713851155965000,6.86496484375,-0.28173828125,0.1554107666015625,-0.3215789794921875
1772713851165939000,6.87493896484375,-0.50885009765625,0.1913909912109375,-0.3777008056640625
1772713851175913000,6.884912841796875,-0.761260986328125,0.2372589111328125,-0.3657989501953125
1772713851185887000,6.894886962890625,-0.9931640625,0.2157745361328125,-0.300262451171875
1772713851195860700,6.90486083984375,-1.180084228515625,0.096923828125,-0.200897216796875
1772713851205834800,6.914834716796875,-1.3029937744140625,-0.00567626953125,-0.1228790283203125
1772713851215808800,6.924808837890625,-1.3468475341796875,-0.0460662841796875,-0.0950775146484375
1772713851225783800,6.93478369140625,-1.3541107177734375,-0.0746002197265625,-0.0787811279296875
1772713851235757800,6.9447578125,-1.342498779296875,-0.0304107666015625,-0.1210479736328125
1772713851245731800,6.95473193359375,-1.3070068359375,-0.002227783203125,-0.2010040283203125
1772713851255705900,6.964705810546875,-1.323883056640625,-0.0063934326171875,-0.287872314453125
1772713851265680000,6.974679931640625,-1.330657958984375,0.0995025634765625,-0.421478271484375
1772713851275654000,6.98465380859375,-1.3477325439453125,0.2411651611328125,-0.4971771240234375
1772713851285628000,6.9946279296875,-1.462554931640625,0.341339111328125,-0.4630584716796875
1772713851295602000,7.004601806640625,-1.5541534423828125,0.374176025390625,-0.3685455322265625
1772713851305576000,7.014575927734375,-1.6439361572265625,0.357513427734375,-0.29229736328125
1772713851315550700,7.02455078125,-1.749664306640625,0.353271484375,-0.281707763671875
1772713851325524700,7.034524658203125,-1.8634033203125,0.3670654296875,-0.2981719970703125
1772713851335498800,7.044498779296875,-1.9359283447265625,0.3224029541015625,-0.3450775146484375
1772713851345472800,7.05447265625,-1.906341552734375,0.188690185546875,-0.407806396484375
1772713851355446800,7.06444677734375,-1.770599365234375,0.0192108154296875,-0.44415283203125
1772713851365420800,7.0744208984375,-1.585052490234375,-0.191314697265625,-0.5137786865234375
1772713851375394800,7.084394775390625,-1.407318115234375,-0.374267578125,-0.6197052001953125
1772713851385368800,7.094368896484375,-1.274017333984375,-0.464111328125,-0.690277099609375
1772713851395344000,7.10434375,-1.2722015380859375,-0.4287567138671875,-0.6600494384765625
1772713851405318000,7.11431787109375,-1.3313446044921875,-0.2970428466796875,-0.5680389404296875
1772713851415292000,7.1242919921875,-1.3729248046875,-0.169921875,-0.448028564453125
1772713851425265700,7.134265625,-1.393035888671875,-0.1090850830078125,-0.335052490234375
1772713851435239700,7.14423974609375,-1.3654632568359375,-0.0890350341796875,-0.2680511474609375
1772713851445213700,7.154213623046875,-1.29400634765625,-0.10382080078125,-0.2469024658203125
1772713851455187700,7.164187744140625,-1.223907470703125,-0.1015472412109375,-0.2365875244140625
1772713851465161700,7.17416162109375,-1.1595306396484375,-0.101715087890625,-0.2218780517578125
1772713851475135700,7.1841357421875,-1.0758514404296875,-0.0894927978515625,-0.2311553955078125
1772713851485110800,7.19411083984375,-0.9879608154296875,-0.034942626953125,-0.2388916015625
