time,seconds_elapsed,z,y,x
1772713844372363500,0.081363525390625,0.0709349736571312,1.1007803678512573,1.47086501121521
1772713844382337500,0.091337646484375,0.09769494831562042,0.9332128763198853,1.3499382734298706
1772713844392311600,0.1013115234375,0.11908098310232162,0.908633291721344,1.237734317779541
1772713844402285600,0.11128564453125,0.1287354826927185,0.9319775104522705,1.1431125402450562
1772713844412259600,0.121259521484375,0.05552290380001068,1.0137157440185547,1.0424126386642456
1772713844422233600,0.131233642578125,-0.06950078904628754,1.0453517436981201,0.9595595598220825
1772713844432206600,0.14120654296875,-0.1727115511894226,0.950790286064148,0.9361547827720642
1772713844442180600,0.1511806640625,-0.23927219212055206,0.75651615858078,0.9910401701927185
1772713844452154600,0.161154541015625,-0.2947578430175781,0.7087429165840149,1.042338252067566
1772713844462128600,0.171128662109375,-0.3562324047088623,0.8284674286842346,1.0624041557312012
1772713844472102700,0.1811025390625,-0.390909880399704,0.8798996210098267,1.0352046489715576
1772713844482076700,0.19107666015625,-0.3752289116382599,0.7595638632774353,0.92878657579422
1772713844492050700,0.20105078125,-0.3568322956562042,0.5455396771430969,0.7660468816757202
1772713844502024700,0.211024658203125,-0.3832484483718872,0.2937018871307373,0.5969353318214417
1772713844511998700,0.220998779296875,-0.3916902244091034,-0.03969864174723625,0.3944249451160431
1772713844521972700,0.23097265625,-0.27504056692123413,-0.3879237473011017,0.16664479672908783
1772713844531946800,0.24094677734375,0.0341462641954422,-0.7710492014884949,-0.03477747365832329
1772713844541920800,0.250920654296875,0.460292249917984,-0.9739197492599487,-0.17250096797943115
1772713844551894800,0.260894775390625,0.85582435131073,-0.9377275109291077,-0.31588685512542725
1772713844561868500,0.27086865234375,1.1316066980361938,-0.846088171005249,-0.49454155564308167
1772713844571842600,0.280842529296875,1.3186935186386108,-0.5398857593536377,-0.6980735063552856
1772713844581816600,0.290816650390625,1.4120110273361206,-0.16597527265548706,-0.7768425941467285
1772713844591790600,0.30079052734375,1.3826755285263062,0.06931100785732269,-0.7269254326820374
1772713844601764600,0.3107646484375,1.2093125581741333,0.3652728796005249,-0.5589779615402222
1772713844611738600,0.320738525390625,0.9398817420005798,0.8099549412727356,-0.25809332728385925
1772713844621712600,0.330712646484375,0.6143965721130371,1.2360085248947144,0.1569768339395523
1772713844631686700,0.340686767578125,0.32545897364616394,1.3476433753967285,0.5449461936950684
1772713844641660700,0.35066064453125,0.26148319244384766,0.7032477855682373,0.6261374354362488
1772713844651634700,0.360634765625,0.2508079409599304,0.02667309157550335,0.5929309725761414
1772713844661608700,0.370608642578125,0.2339581400156021,-0.5303208827972412,0.8383750915527344
1772713844671582700,0.380582763671875,0.17260099947452545,-0.6790459156036377,1.2427349090576172
1772713844681556700,0.390556640625,0.05337793752551079,-1.0492479801177979,1.5824873447418213
1772713844691530800,0.40053076171875,-0.19114510715007782,-1.5302997827529907,1.8278958797454834
1772713844701504800,0.4105048828125,-0.5314499139785767,-2.016740083694458,1.8003202676773071
1772713844711478800,0.420478759765625,-0.8116112947463989,-1.3652687072753906,1.1284598112106323
1772713844721452800,0.430452880859375,-0.966484785079956,-0.05226742848753929,0.6689257621765137
1772713844731426800,0.4404267578125,-0.7820835709571838,0.9113121032714844,0.26354771852493286
1772713844741400800,0.45040087890625,-0.4277704954147339,1.2688239812850952,-0.173719123005867
1772713844751374800,0.460374755859375,-0.1628783941268921,0.9867544174194336,-0.3365786075592041
1772713844761348600,0.4703486328125,-0.12882721424102783,0.19107456505298615,-0.4699414372444153
1772713844771322600,0.480322509765625,-0.26852717995643616,-0.8982622027397156,-0.7056944966316223
1772713844781296600,0.490296630859375,-0.3830428421497345,-1.7792198657989502,-0.9717773199081421
1772713844791270700,0.500270751953125,-0.32456421852111816,-2.4814281463623047,-1.1869206428527832
1772713844801244700,0.51024462890625,-0.21246938407421112,-3.0107734203338623,-1.3113837242126465
1772713844811218700,0.52021875,-0.3071429133415222,-3.2423441410064697,-1.4390854835510254
1772713844821192700,0.530192626953125,-0.3988635241985321,-3.2778141498565674,-1.7082676887512207
1772713844831166700,0.540166748046875,-0.38683727383613586,-3.2821714878082275,-2.1754655838012695
1772713844841140700,0.550140625,-0.35767805576324463,-3.0672454833984375,-2.7602005004882812
1772713844851114800,0.56011474609375,-0.1690174788236618,-2.6547467708587646,-3.361762046813965
1772713844861088800,0.5700888671875,0.30014708638191223,-2.292478322982788,-3.7848968505859375
1772713844871062800,0.580062744140625,0.8033474683761597,-2.0034945011138916,-4.151274681091309
1772713844881036800,0.590036865234375,1.1715095043182373,-2.4210751056671143,-4.7225494384765625
1772713844891010800,0.6000107421875,1.4053714275360107,-2.141779899597168,-5.1110663414001465
1772713844900984800,0.60998486328125,1.5518507957458496,-1.1982274055480957,-4.854192733764648
1772713844910958800,0.619958740234375,1.5813183784484863,-0.6934745907783508,-3.9051287174224854
1772713844920932900,0.629932861328125,1.380506157875061,-0.4741177260875702,-2.7269136905670166
1772713844930907000,0.639906982421875,0.9512784481048584,-0.18709249794483185,-1.624721646308899
1772713844940881000,0.649880859375,0.44984757900238037,0.1652919054031372,-0.6996153593063354
1772713844950854700,0.659854736328125,0.18659856915473938,0.09036111831665039,-0.12845779955387115
1772713844960828700,0.66982861328125,0.13913145661354065,-0.08692524582147598,0.169731006026268
1772713844970802700,0.679802734375,0.14629679918289185,-0.09140079468488693,0.2845967710018158
1772713844980776700,0.689776611328125,0.24721382558345795,-0.11466004699468613,0.19912952184677124
1772713844990750700,0.699750732421875,0.37628865242004395,-0.2821005582809448,-0.016201883554458618
1772713845000724700,0.709724853515625,0.45454564690589905,-0.4683111608028412,-0.29025232791900635
1772713845010698800,0.71969873046875,0.542862594127655,-0.48427441716194153,-0.545090913772583
1772713845020672800,0.7296728515625,0.6465655565261841,-0.20486755669116974,-0.6923184394836426
1772713845030646800,0.739646728515625,0.7217013239860535,0.27620095014572144,-0.710131049156189
1772713845040620800,0.749620849609375,0.6972963809967041,0.737464189529419,-0.6629992127418518
1772713845050594800,0.7595947265625,0.642930805683136,1.064395785331726,-0.6268435120582581
1772713845060567800,0.76956787109375,0.606678307056427,1.2031174898147583,-0.5863139629364014
1772713845070541800,0.779541748046875,0.5541993379592896,1.1502870321273804,-0.47952592372894287
1772713845080515800,0.789515869140625,0.5005736351013184,0.9013229608535767,-0.2832922339439392
1772713845090489900,0.79948974609375,0.4751252830028534,0.5894262194633484,-0.02608785405755043
1772713845100463900,0.8094638671875,0.49174046516418457,0.30618977546691895,0.3237082362174988
1772713845110438000,0.81943798828125,0.4678731858730316,0.15342795848846436,0.7289391160011292
1772713845120412000,0.829411865234375,0.37438344955444336,0.1972944736480713,0.9830300211906433
1772713845130386000,0.839385986328125,0.32827186584472656,0.29047927260398865,1.1190820932388306
1772713845140360000,0.84935986328125,0.3711719512939453,0.4330361485481262,1.326446533203125
1772713845150334000,0.859333984375,0.4430464208126068,0.6309673190116882,1.6398744583129883
1772713845160308000,0.869307861328125,0.5125479698181152,0.6774847507476807,1.8561893701553345
1772713845170282000,0.879281982421875,0.5873180627822876,0.20920072495937347,1.9260668754577637
1772713845180256000,0.889256103515625,0.5774683952331543,-0.44246917963027954,1.994127869606018
1772713845190229800,0.899229736328125,0.3312135338783264,-0.47387975454330444,1.761027216911316
1772713845200203800,0.909203857421875,-0.03673066571354866,-0.1670556515455246,1.3816814422607422
1772713845210177500,0.919177490234375,-0.2156941294670105,0.4047791659832001,1.182682752609253
1772713845220151600,0.929151611328125,-0.16343705356121063,1.0621591806411743,1.0732777118682861
1772713845230125600,0.93912548828125,-0.10960794240236282,1.1715834140777588,0.8065862059593201
1772713845240099600,0.949099609375,-0.31931883096694946,0.7502046823501587,0.3915916681289673
1772713845250073600,0.959073486328125,-0.541925311088562,0.35247087478637695,-0.00400382187217474
1772713845260047600,0.969047607421875,-0.45483383536338806,0.29925957322120667,-0.18485376238822937
1772713845270021600,0.979021728515625,-0.06079037860035896,0.5992660522460938,-0.04963736981153488
1772713845279995600,0.98899560546875,0.4268530309200287,0.8161086440086365,0.25848689675331116
1772713845289969700,0.9989697265625,0.7271313071250916,0.8430355191230774,0.7058173418045044
1772713845299943700,1.008943603515625,0.7589441537857056,0.5615018010139465,1.3561879396438599
1772713845309917700,1.018917724609375,0.7509142756462097,-0.11788798868656158,2.0608747005462646
1772713845319891700,1.0288916015625,0.7227113842964172,-0.8174689412117004,2.538461685180664
1772713845329865700,1.03886572265625,0.6763293147087097,-1.2678554058074951,2.6413815021514893
1772713845339839700,1.04883984375,0.6401523947715759,-1.4311892986297607,2.401275873184204
1772713845349813800,1.058813720703125,0.6112329959869385,-1.3686739206314087,1.8869656324386597
1772713845359787800,1.068787841796875,0.5707452297210693,-1.2085862159729004,1.227250576019287
1772713845369761800,1.07876171875,0.5291057825088501,-1.023287296295166,0.5689895153045654
1772713845379735800,1.08873583984375,0.5072782039642334,-0.856130838394165,-0.015350623056292534
1772713845389709800,1.098709716796875,0.5130912065505981,-0.7692423462867737,-0.5286824703216553
1772713845399683800,1.108683837890625,0.5734586715698242,-0.8135826587677002,-0.9301835894584656
1772713845409657600,1.11865771484375,0.649212121963501,-0.9126816391944885,-1.2345432043075562
1772713845419631600,1.128631591796875,0.5988706350326538,-0.8681432008743286,-1.4424668550491333
1772713845429605600,1.138605712890625,0.4985719621181488,-0.6796721816062927,-1.5642199516296387
1772713845439579600,1.14857958984375,0.43056362867355347,-0.3867703080177307,-1.5912851095199585
1772713845449553700,1.1585537109375,0.40123483538627625,-0.0016554082976654172,-1.4934215545654297
1772713845459527700,1.168527587890625,0.3949314057826996,0.3611542284488678,-1.28525710105896
1772713845469501700,1.178501708984375,0.41877612471580505,0.5720463395118713,-1.010581135749817
1772713845479475700,1.188475830078125,0.4436385929584503,0.6330173015594482,-0.6974586248397827
1772713845489449700,1.19844970703125,0.45770883560180664,0.5192039608955383,-0.36344632506370544
1772713845499423700,1.208423828125,0.4224829375743866,0.33542004227638245,-0.011718373745679855
1772713845509397800,1.218397705078125,0.32305124402046204,0.11116690933704376,0.30996954441070557
1772713845519371800,1.228371826171875,0.18642814457416534,-0.18943314254283905,0.5731971859931946
1772713845529345800,1.238345703125,0.0708681121468544,-0.5353430509567261,0.771713137626648
1772713845539319800,1.24831982421875,0.04215709865093231,-0.8902636170387268,0.8993275761604309
1772713845549293800,1.2582939453125,0.049405887722969055,-1.1773350238800049,0.898345947265625
1772713845559267800,1.268267822265625,0.07185234129428864,-1.2914040088653564,0.783279299736023
1772713845569241900,1.278241943359375,0.06268879026174545,-1.1754852533340454,0.5644954442977905
1772713845579216000,1.2882158203125,0.06236787885427475,-0.9052109122276306,0.2518744170665741
1772713845589189600,1.298189697265625,0.08159583061933517,-0.5342103242874146,-0.0907539501786232
1772713845599163600,1.30816357421875,0.1089150682091713,-0.1641462743282318,-0.3920924961566925
1772713845609137400,1.318137451171875,0.11616320163011551,0.13939055800437927,-0.6298494935035706
1772713845619111400,1.328111328125,0.08546574413776398,0.3583921492099762,-0.7814051508903503
1772713845629085400,1.33808544921875,-0.0026544586289674044,0.45816293358802795,-0.8420246243476868
1772713845639059500,1.3480595703125,-0.14642174541950226,0.4209686815738678,-0.8173347115516663
1772713845649033500,1.358033447265625,-0.37065157294273376,0.313632994890213,-0.7385692000389099
1772713845659007500,1.368007568359375,-0.592287540435791,0.19942410290241241,-0.6377312541007996
1772713845668981500,1.3779814453125,-0.7392421364784241,0.06996243447065353,-0.5463760495185852
1772713845678955500,1.38795556640625,-0.8360483050346375,0.014393443241715431,-0.4370836615562439
1772713845688929500,1.397929443359375,-0.9082731604576111,0.09352517127990723,-0.27032670378685
1772713845698903600,1.407903564453125,-0.9747999906539917,0.2858983278274536,-0.03488675504922867
1772713845708877600,1.417877685546875,-1.1329336166381836,0.6109846830368042,0.2562933564186096
1772713845718851600,1.4278515625,-1.4059337377548218,0.9464143514633179,0.5431645512580872
1772713845728825600,1.43782568359375,-1.730225682258606,1.2797784805297852,0.8794256448745728
1772713845738799600,1.447799560546875,-2.016700029373169,1.5378589630126953,1.2094902992248535
1772713845748773600,1.457773681640625,-2.0301826000213623,1.1727887392044067,1.367554783821106
1772713845758747600,1.46774755859375,-1.6684341430664062,-0.28791871666908264,1.139992117881775
1772713845768721700,1.4777216796875,-1.1674097776412964,-2.0189104080200195,0.6165044903755188
1772713845778695700,1.48769580078125,-0.6898482441902161,-3.146291971206665,-0.005410727113485336
1772713845788669700,1.497669677734375,-0.5245621800422668,-3.3501639366149902,-0.8565545678138733
1772713845798643700,1.507643798828125,-0.7056185007095337,-2.610490322113037,-2.1031885147094727
1772713845808617500,1.517617431640625,-0.8202565312385559,-1.1978057622909546,-3.5840888023376465
1772713845818591500,1.527591552734375,-0.6286913156509399,0.8601687550544739,-4.369011878967285
1772713845828565500,1.5375654296875,-0.527791440486908,2.5816798210144043,-4.017765045166016
1772713845838539500,1.54753955078125,-0.5743117928504944,2.8419177532196045,-2.606156826019287
1772713845848513500,1.557513427734375,-0.6693370342254639,1.7769662141799927,-0.3986140191555023
1772713845858487600,1.567487548828125,-0.8384965062141418,0.10758442431688309,1.9451993703842163
1772713845868461600,1.577461669921875,-1.0380932092666626,-1.5292779207229614,3.680464029312134
1772713845878435600,1.587435546875,-1.0516396760940552,-2.6741509437561035,4.513050556182861
1772713845888409600,1.59740966796875,-0.8402379155158997,-2.961470365524292,4.5264410972595215
1772713845898383600,1.607383544921875,-0.5601772665977478,-2.5493123531341553,3.886218547821045
1772713845908357600,1.617357666015625,-0.46040061116218567,-1.8510650396347046,2.8262460231781006
1772713845918331600,1.62733154296875,-0.40045365691185,-1.1721389293670654,1.6208114624023438
1772713845928305700,1.6373056640625,-0.2429007887840271,-0.7827978730201721,0.5167654752731323
1772713845938279700,1.64727978515625,-0.006865415722131729,-0.8424057960510254,-0.4064686894416809
1772713845948253700,1.657253662109375,0.24825668334960938,-1.1806212663650513,-1.0898867845535278
1772713845958227700,1.667227783203125,0.49478015303611755,-1.6892749071121216,-1.4936907291412354
1772713845968201700,1.67720166015625,0.6934097409248352,-2.200871229171753,-1.697614073753357
1772713845978175700,1.68717578125,0.8230268955230713,-2.431757926940918,-1.7576489448547363
1772713845988149800,1.697149658203125,0.8972927331924438,-2.24946928024292,-1.7164300680160522
1772713845998123500,1.70712353515625,0.9428375959396362,-1.8015598058700562,-1.6617058515548706
1772713846008097500,1.71709765625,0.9239065051078796,-1.1504015922546387,-1.6476043462753296
1772713846018071600,1.727071533203125,0.7987107634544373,-0.3209175169467926,-1.644958257675171
1772713846028045600,1.737045654296875,0.5883162617683411,0.6212303638458252,-1.617200493812561
1772713846038019600,1.74701953125,0.32143184542655945,1.4994207620620728,-1.555714726448059
1772713846047993600,1.75699365234375,0.03340914472937584,2.231436252593994,-1.4416017532348633
1772713846057967600,1.766967529296875,-0.17263749241828918,2.6852660179138184,-1.2123075723648071
1772713846067941600,1.776941650390625,-0.23875269293785095,2.690229892730713,-0.8448064923286438
1772713846077915600,1.78691552734375,-0.2308819741010666,2.214845895767212,-0.35259732604026794
1772713846087889700,1.7968896484375,-0.22037561237812042,1.5134046077728271,0.1505575329065323
1772713846097863700,1.80686376953125,-0.22579488158226013,0.8367334604263306,0.5658935308456421
1772713846107837700,1.816837646484375,-0.18966670334339142,0.3032165765762329,0.8238536715507507
1772713846117811700,1.826811767578125,-0.0730961486697197,-0.02356022223830223,0.9280099272727966
1772713846127785700,1.83678564453125,0.06531462073326111,-0.019390355795621872,0.8954623937606812
1772713846137759700,1.846759765625,0.18937718868255615,0.2535077631473541,0.7056208252906799
1772713846147733800,1.856733642578125,0.2855452299118042,0.7057875990867615,0.37494364380836487
1772713846157707800,1.866707763671875,0.35386836528778076,1.2796282768249512,0.023970453068614006
1772713846167681800,1.876681884765625,0.3918188214302063,1.9014153480529785,-0.29306066036224365
1772713846177655800,1.88665576171875,0.41366127133369446,2.4632885456085205,-0.5454106330871582
1772713846187629800,1.8966298828125,0.4562274217605591,2.8577592372894287,-0.7156999111175537
1772713846197603600,1.906603515625,0.51227205991745,3.045125722885132,-0.7845189571380615
1772713846207577600,1.91657763671875,0.5280383229255676,3.0493125915527344,-0.769744873046875
1772713846217551600,1.926551513671875,0.47292765974998474,2.8533852100372314,-0.6754412651062012
1772713846227525600,1.936525634765625,0.3715614676475525,2.4827158451080322,-0.5032048225402832
1772713846237499600,1.946499755859375,0.2481926530599594,1.9708377122879028,-0.26311713457107544
1772713846247473700,1.9564736328125,0.22650760412216187,1.3715325593948364,0.054780010133981705
1772713846257447700,1.96644775390625,0.31352370977401733,0.8043963313102722,0.42729607224464417
1772713846267421700,1.976421630859375,0.3929973840713501,0.2593039274215698,0.7128851413726807
1772713846277395700,1.986395751953125,0.316754549741745,-0.2915504574775696,0.9356050491333008
1772713846287369700,1.99636962890625,0.2030811458826065,-0.7983090877532959,1.3077256679534912
1772713846297343700,2.00634375,-0.06306877732276917,-1.3316798210144043,1.619897723197937
1772713846307317800,2.01631787109375,-0.6095473766326904,-2.124525547027588,1.5020058155059814
1772713846317291800,2.026291748046875,-1.1602537631988525,-2.8433806896209717,0.9279235601425171
1772713846327265800,2.036265869140625,-1.2234026193618774,-2.8428940773010254,0.00674472888931632
1772713846337239800,2.04623974609375,-0.8850229382514954,-2.15757417678833,-1.0868113040924072
1772713846347213800,2.0562138671875,-0.6835688352584839,-1.005414366722107,-2.193053960800171
1772713846357187800,2.066187744140625,-0.6839845776557922,0.6960766315460205,-2.935286045074463
1772713846367161900,2.076161865234375,-0.687561571598053,2.4680979251861572,-2.9893300533294678
1772713846377135900,2.086135986328125,-0.40896883606910706,3.5828447341918945,-2.153852701187134
1772713846387109600,2.096109619140625,0.1330682784318924,2.9984047412872314,-0.8029139041900635
1772713846397083600,2.106083740234375,0.4531235098838806,1.1914600133895874,0.6175946593284607
1772713846407057700,2.1160576171875,0.3584422469139099,-0.7313236594200134,2.0065054893493652
1772713846417031700,2.12603173828125,0.12149467319250107,-2.090874433517456,3.121074914932251
1772713846427005400,2.13600537109375,-0.13752244412899017,-2.706045389175415,3.5859296321868896
1772713846436979500,2.1459794921875,-0.3763432800769806,-2.652508497238159,3.3773720264434814
1772713846446953500,2.155953369140625,-0.5325833559036255,-2.2692935466766357,2.6984078884124756
1772713846456928800,2.1659287109375,-0.6080514788627625,-1.9116500616073608,1.7457449436187744
1772713846466902800,2.17590283203125,-0.6640896201133728,-1.7204210758209229,0.7308058738708496
1772713846476876800,2.185876708984375,-0.6066668033599854,-1.7232874631881714,-0.1571013629436493
1772713846486850800,2.195850830078125,-0.3706885874271393,-2.0407326221466064,-0.7279401421546936
1772713846496824800,2.205824951171875,-0.07600183039903641,-2.4874656200408936,-0.9335553050041199
1772713846506798800,2.215798828125,0.1567554920911789,-2.6751389503479004,-0.8528814315795898
1772713846516772900,2.22577294921875,0.28117144107818604,-2.4327731132507324,-0.6409415006637573
1772713846526746600,2.23574658203125,0.25580742955207825,-1.8078261613845825,-0.43550288677215576
1772713846536720600,2.245720703125,0.11579892784357071,-0.9698111414909363,-0.36661460995674133
1772713846546694700,2.255694580078125,0.12574253976345062,-0.15847118198871613,-0.30296459794044495
1772713846556668700,2.265668701171875,0.2580806016921997,0.479875773191452,-0.1077711284160614
1772713846566642700,2.275642578125,0.4213826060295105,0.8592537045478821,0.17761874198913574
1772713846576616700,2.28561669921875,0.5569145679473877,1.058982014656067,0.4738844633102417
1772713846586590700,2.2955908203125,0.6242902874946594,1.1687450408935547,0.717732310295105
1772713846596564700,2.305564697265625,0.6719568967819214,1.183579683303833,0.8913959860801697
1772713846606538800,2.315538818359375,0.7005379796028137,1.1221591234207153,0.9956321120262146
1772713846616512800,2.3255126953125,0.6874945759773254,1.0071523189544678,1.0161619186401367
1772713846626486800,2.33548681640625,0.5825857520103455,0.8424675464630127,0.9462360143661499
1772713846636460800,2.345460693359375,0.3925316631793976,0.5387002229690552,0.7781642079353333
1772713846646434800,2.355434814453125,0.188680961728096,0.16036848723888397,0.5772495269775391
1772713846656408800,2.365408935546875,0.07480526715517044,-0.17422468960285187,0.3456735610961914
1772713846666382800,2.3753828125,0.10755523294210434,-0.3972012400627136,0.11192122846841812
1772713846676356900,2.38535693359375,0.2661435604095459,-0.437588095664978,-0.1307942271232605
1772713846686331000,2.395330810546875,0.48819664120674133,-0.2902006208896637,-0.36869293451309204
1772713846696305000,2.405304931640625,0.7567276954650879,-0.0011499131796881557,-0.6242951154708862
1772713846706279000,2.41527880859375,0.9842144250869751,0.26496100425720215,-0.9483684301376343
1772713846716253000,2.4252529296875,1.0924413204193115,0.42325344681739807,-1.306143879890442
1772713846726226700,2.435226806640625,1.1250680685043335,0.5281358361244202,-1.545125961303711
1772713846736200700,2.44520068359375,1.1451046466827393,0.5190755128860474,-1.5989497900009155
1772713846746174700,2.4551748046875,1.1370556354522705,0.27318525314331055,-1.5776861906051636
1772713846756148700,2.465148681640625,1.0754112005233765,-0.03934602811932564,-1.5330398082733154
1772713846766122800,2.475122802734375,0.9564315676689148,-0.10729055851697922,-1.3703259229660034
1772713846776096800,2.4850966796875,0.8202481865882874,0.12380524724721909,-1.0819087028503418
1772713846786070800,2.49507080078125,0.7253366112709045,0.36309245228767395,-0.8056954145431519
1772713846796044800,2.505044921875,0.607252299785614,0.3816607892513275,-0.5736275911331177
1772713846806018800,2.515018798828125,0.46631136536598206,0.2522293031215668,-0.30434101819992065
1772713846815992800,2.524992919921875,0.309185653924942,0.15050776302814484,-0.0744207501411438
1772713846825966800,2.534966796875,0.2140798717737198,0.19171583652496338,0.11349473893642426
1772713846835940900,2.54494091796875,0.2184557020664215,0.3726446032524109,0.2668028175830841
1772713846845915000,2.554914794921875,0.27585503458976746,0.7174336910247803,0.3335752785205841
1772713846855889000,2.564888916015625,0.5020986199378967,0.9912047982215881,0.31647273898124695
1772713846865863000,2.57486279296875,0.9901649355888367,0.8310204148292542,0.2140480875968933
1772713846875837700,2.584837646484375,1.7109495401382446,0.037744391709566116,0.028140533715486526
1772713846885811700,2.594811767578125,2.518082618713379,-0.8739681243896484,-0.34738901257514954
1772713846895785700,2.60478564453125,3.100498914718628,-1.1099598407745361,-1.0041202306747437
1772713846905759700,2.614759765625,3.338402032852173,-0.7966469526290894,-2.088956117630005
1772713846915733800,2.624733642578125,3.341311454772949,-0.02301173470914364,-3.6148135662078857
1772713846925707800,2.634707763671875,2.557173728942871,1.4071629047393799,-5.599305629730225
1772713846935681800,2.644681884765625,2.1209449768066406,2.601365566253662,-7.043610572814941
1772713846945655800,2.65465576171875,1.863242745399475,3.2540476322174072,-7.739612579345703
1772713846955629800,2.6646298828125,1.433712363243103,3.38047456741333,-7.4153056144714355
1772713846965603800,2.674603759765625,1.1366409063339233,3.046837329864502,-5.819242000579834
1772713846975577900,2.684577880859375,0.9917803406715393,2.2744274139404297,-3.5975019931793213
1772713846985552000,2.6945517578125,0.9537882804870605,1.4973413944244385,-1.3866186141967773
1772713846995526000,2.70452587890625,0.8447704315185547,0.9580844640731812,0.5758349299430847
1772713847005500000,2.7145,0.6473671793937683,0.40281081199645996,2.1688170433044434
1772713847015474000,2.724473876953125,0.24652791023254395,-0.28770023584365845,3.092890977859497
1772713847025448000,2.734447998046875,-0.3444373905658722,-1.1330314874649048,3.413412570953369
1772713847035422000,2.744421875,-0.8644741773605347,-1.8519693613052368,3.3161985874176025
1772713847045396000,2.75439599609375,-1.1406285762786865,-2.098984956741333,2.914296865463257
1772713847055369700,2.76436962890625,-1.1123409271240234,-1.8370407819747925,2.406146764755249
1772713847065343700,2.77434375,-0.8641300201416016,-1.3305402994155884,1.8922849893569946
1772713847075317800,2.78431787109375,-0.5855588316917419,-0.6516540050506592,1.3908109664916992
1772713847085291800,2.794291748046875,-0.2851012945175171,-0.025958487764000893,0.8896126747131348
1772713847095265800,2.804265869140625,-0.0854497104883194,0.5079802870750427,0.45072323083877563
1772713847105239800,2.81423974609375,-0.02609739452600479,1.0065407752990723,0.15821534395217896
1772713847115213800,2.8242138671875,0.017270585522055626,1.3393101692199707,0.07536652684211731
1772713847125188900,2.83418896484375,0.061150338500738144,1.3821208477020264,0.21238665282726288
1772713847135163000,2.844162841796875,0.05651830509305,1.201611042022705,0.43065133690834045
1772713847145137000,2.854136962890625,0.007971007376909256,0.9117069840431213,0.6279484629631042
1772713847155111000,2.86411083984375,-0.0045764753594994545,0.6205734014511108,0.81894850730896
1772713847165085000,2.8740849609375,0.017799420282244682,0.4264220893383026,0.9325652718544006
1772713847175059000,2.884058837890625,0.08454782515764236,0.3173443377017975,0.9640768766403198
1772713847185033000,2.894032958984375,0.21367967128753662,0.27342599630355835,0.9404821991920471
1772713847195006700,2.9040068359375,0.36693820357322693,0.31350603699684143,0.8613828420639038
1772713847204980700,2.913980712890625,0.5055769085884094,0.4915216267108917,0.773942768573761
1772713847214954800,2.923954833984375,0.6706945300102234,0.7350205779075623,0.6639076471328735
1772713847224928800,2.9339287109375,0.7898266911506653,0.8155646920204163,0.4957784116268158
1772713847234902800,2.94390283203125,0.8283807039260864,0.6041712164878845,0.3218574821949005
1772713847244876800,2.953876708984375,0.8069424629211426,0.1707080602645874,0.15687906742095947
1772713847254850800,2.963850830078125,0.685420572757721,-0.274200439453125,-0.04846769943833351
1772713847264824800,2.973824951171875,0.539100170135498,-0.5369580984115601,-0.30372825264930725
1772713847274798800,2.983798828125,0.43130528926849365,-0.509402871131897,-0.5538557767868042
1772713847284772900,2.99377294921875,0.3430230915546417,-0.23983164131641388,-0.8060222268104553
1772713847294747000,3.003746826171875,0.25528550148010254,0.1148577556014061,-1.0829699039459229
1772713847304721000,3.013720947265625,0.1344633400440216,0.47794198989868164,-1.3418548107147217
1772713847314695000,3.02369482421875,0.03449173644185066,0.759741485118866,-1.4927101135253906
1772713847324669000,3.0336689453125,-0.006931019946932793,0.8855671882629395,-1.4588359594345093
1772713847334643000,3.043642822265625,0.0034728855825960636,0.8071548938751221,-1.225443720817566
1772713847344617000,3.053616943359375,0.04502101615071297,0.5972498655319214,-0.8203792572021484
1772713847354590700,3.0635908203125,0.10821010172367096,0.3924429416656494,-0.3628958463668823
1772713847364564700,3.073564697265625,0.20186147093772888,0.2980636656284332,0.10256456583738327
1772713847374539800,3.083539794921875,0.3843551278114319,0.3862883150577545,0.4836493134498596
1772713847384513800,3.093513671875,0.5948206186294556,0.46868598461151123,0.7285451889038086
1772713847394487800,3.10348779296875,0.7756807208061218,0.41134148836135864,0.7172595262527466
1772713847404461800,3.1134619140625,0.905616044998169,0.20478996634483337,0.5032777786254883
1772713847414435800,3.123435791015625,0.9829187989234924,-0.302816241979599,0.15578505396842957
1772713847424409900,3.133409912109375,0.9396165013313293,-1.1847721338272095,-0.397847443819046
1772713847434384000,3.1433837890625,0.8374797701835632,-2.1091666221618652,-0.9245206117630005
1772713847444358000,3.15335791015625,0.7611572742462158,-2.4928500652313232,-1.0097354650497437
1772713847454332000,3.163331787109375,0.5075880885124207,-2.126875877380371,-0.8611255288124084
1772713847464306000,3.173305908203125,0.25504618883132935,-1.3488723039627075,-0.9989871382713318
1772713847474280000,3.183280029296875,0.23033924400806427,-0.3597281873226166,-1.3605704307556152
1772713847484254000,3.19325390625,0.29548847675323486,0.546263575553894,-1.6753902435302734
1772713847494228000,3.20322802734375,0.4414547383785248,0.8564214110374451,-1.8120548725128174
1772713847504202000,3.213201904296875,0.5138061046600342,0.64719557762146,-1.8116440773010254
1772713847514176000,3.223176025390625,0.3633803725242615,0.20256194472312927,-1.6233468055725098
1772713847524149800,3.233149658203125,0.03587014600634575,-0.23625130951404572,-1.1868529319763184
1772713847534123800,3.243123779296875,-0.31986451148986816,-0.5963074564933777,-0.5688669085502625
1772713847544097500,3.25309765625,-0.4896501898765564,-0.7984845638275146,0.008216670714318752
1772713847554071800,3.26307177734375,-0.36962443590164185,-0.863169252872467,0.3874121904373169
1772713847564046800,3.273046875,-0.16862982511520386,-0.8225063681602478,0.5524998903274536
1772713847574020900,3.283020751953125,0.00437098927795887,-0.8459930419921875,0.568092405796051
1772713847583995000,3.292994873046875,0.07749859988689423,-1.0731608867645264,0.4970037639141083
1772713847593969000,3.302968994140625,0.03298093378543854,-1.4090142250061035,0.3710184097290039
1772713847603943000,3.31294287109375,-0.057701241225004196,-1.7123088836669922,0.21490664780139923
1772713847613917000,3.3229169921875,-0.15009507536888123,-1.9081593751907349,-0.016294343397021294
1772713847623891000,3.332890869140625,-0.1985437422990799,-1.8995493650436401,-0.2592305839061737
1772713847633865000,3.342864990234375,-0.19431385397911072,-1.7477949857711792,-0.44309309124946594
1772713847643839000,3.3528388671875,-0.1281106173992157,-1.4414072036743164,-0.46743300557136536
1772713847653813000,3.36281298828125,-0.01907094568014145,-1.1024442911148071,-0.3150581121444702
1772713847663787000,3.372787109375,0.07533947378396988,-0.8477475643157959,-0.05256291478872299
1772713847673760800,3.3827607421875,0.07956831157207489,-0.6382635831832886,0.2883760333061218
1772713847683734800,3.39273486328125,0.01923958957195282,-0.4502745568752289,0.7095057964324951
1772713847693708800,3.402708740234375,-0.07362084090709686,-0.32206839323043823,1.1373109817504883
1772713847703682800,3.412682861328125,-0.18906144797801971,-0.2978018820285797,1.4983596801757812
1772713847713656800,3.42265673828125,-0.3252299427986145,-0.3726937174797058,1.7521336078643799
1772713847723630800,3.432630859375,-0.4336068332195282,-0.4748060405254364,1.8818707466125488
1772713847733604900,3.44260498046875,-0.481253445148468,-0.5568686723709106,1.8767271041870117
1772713847743579000,3.452578857421875,-0.4325542747974396,-0.6429991126060486,1.730137586593628
1772713847753553000,3.462552978515625,-0.31163477897644043,-0.6219295263290405,1.4638258218765259
1772713847763528000,3.47252783203125,-0.11180338263511658,-0.42038658261299133,1.1493217945098877
1772713847773502000,3.482501953125,0.15212386846542358,-0.07311250269412994,0.8207875490188599
1772713847783476000,3.49247607421875,0.45802736282348633,0.37329596281051636,0.4993140995502472
1772713847793450000,3.502449951171875,0.7953436374664307,0.8578829169273376,0.23975948989391327
1772713847803424000,3.512424072265625,1.1396456956863403,1.2180655002593994,0.05152357742190361
1772713847813397800,3.522397705078125,1.3967396020889282,1.4264549016952515,-0.1175764948129654
1772713847823371800,3.532371826171875,1.496848702430725,1.5096732378005981,-0.27605244517326355
1772713847833345800,3.542345703125,1.4573163986206055,1.5011087656021118,-0.3797282576560974
1772713847843319800,3.55231982421875,1.3326127529144287,1.4556792974472046,-0.45502525568008423
1772713847853293800,3.5622939453125,1.190321683883667,1.3784687519073486,-0.4952099621295929
1772713847863267800,3.572267822265625,1.1146677732467651,1.2343231439590454,-0.4314503073692322
1772713847873241900,3.582241943359375,1.1142927408218384,1.1132193803787231,-0.31697699427604675
1772713847883216000,3.5922158203125,1.0707470178604126,1.044176459312439,-0.21334584057331085
1772713847893190000,3.60218994140625,0.920771062374115,1.0357316732406616,-0.044448964297771454
1772713847903164000,3.612163818359375,0.7576913833618164,0.9476942420005798,0.22842201590538025
1772713847913138000,3.622137939453125,0.6440303325653076,0.7787947058677673,0.5618503093719482
1772713847923112000,3.63211181640625,0.5833717584609985,0.6477595567703247,0.8801524043083191
1772713847933086000,3.6420859375,0.5557653903961182,0.5107186436653137,1.1008299589157104
1772713847943060000,3.65206005859375,0.5501706600189209,0.33524855971336365,1.166610836982727
1772713847953034800,3.66203466796875,0.5593675971031189,0.06616967916488647,1.0141757726669312
1772713847963008800,3.6720087890625,0.6160592436790466,-0.5037768483161926,0.5216866731643677
1772713847972982800,3.681982666015625,0.6902399659156799,-1.2065184116363525,-0.40362465381622314
1772713847982956800,3.691956787109375,0.6263633966445923,-1.3632194995880127,-1.566115140914917
1772713847992930800,3.701930908203125,0.27693960070610046,-0.6177752017974854,-2.6958680152893066
1772713848002904800,3.71190478515625,-0.26491686701774597,0.37650981545448303,-3.622535228729248
1772713848012878800,3.72187890625,-0.4399118423461914,1.0713725090026855,-3.9225339889526367
1772713848022852900,3.731852783203125,0.05184729024767876,1.4240295886993408,-3.407083511352539
1772713848032827000,3.741826904296875,0.7489656209945679,1.2046709060668945,-2.3193531036376953
1772713848042801000,3.75180078125,1.1081920862197876,0.6535658240318298,-1.2094920873641968
1772713848052775000,3.76177490234375,1.0154001712799072,0.20852893590927124,-0.3980177938938141
1772713848062749000,3.7717490234375,0.5899510979652405,-0.11215569078922272,0.16371385753154755
1772713848072723000,3.781722900390625,0.04708994925022125,-0.42720070481300354,0.5408526062965393
1772713848082697000,3.791697021484375,-0.32265621423721313,-0.694219708442688,0.8039770722389221
1772713848092671000,3.8016708984375,-0.49150753021240234,-0.6615493893623352,1.038041591644287
1772713848102645000,3.81164501953125,-0.5805932283401489,-0.386495441198349,1.2552618980407715
1772713848112619000,3.821618896484375,-0.6289713978767395,-0.1968778520822525,1.4555299282073975
1772713848122593800,3.83159375,-0.6605981588363647,-0.15776242315769196,1.7041677236557007
1772713848132567800,3.84156787109375,-0.689802885055542,-0.2828740179538727,2.0026066303253174
1772713848142541800,3.851541748046875,-0.7125096321105957,-0.4492197632789612,2.175733804702759
1772713848152515800,3.861515869140625,-0.7726930379867554,-0.45944923162460327,2.1093156337738037
1772713848162489900,3.87148974609375,-0.817402184009552,-0.25416529178619385,1.9811476469039917
1772713848172463900,3.8814638671875,-0.908924400806427,0.07238645106554031,1.9405021667480469
1772713848182438000,3.89143798828125,-0.9428278803825378,0.3760356903076172,2.079704999923706
1772713848192412000,3.901411865234375,-0.9233803749084473,0.3930644690990448,2.2465460300445557
1772713848202386000,3.911385986328125,-0.9750181436538696,0.25792667269706726,2.318112373352051
1772713848212360000,3.92135986328125,-1.1311845779418945,0.12978550791740417,2.2812659740448
1772713848222334000,3.931333984375,-1.3094357252120972,0.11413557827472687,2.168444871902466
1772713848232308000,3.941307861328125,-1.4574509859085083,0.24152521789073944,1.9516639709472656
1772713848242282000,3.951281982421875,-1.5286380052566528,0.5459004640579224,1.6746432781219482
1772713848252256000,3.961256103515625,-1.430012583732605,0.8555296659469604,1.40932035446167
1772713848262230000,3.97122998046875,-1.1663440465927124,1.0086383819580078,1.2064363956451416
1772713848272204000,3.9812041015625,-0.8748727440834045,1.0802174806594849,1.115383505821228
1772713848282178800,3.9911787109375,-0.6317989230155945,1.1305891275405884,1.1565996408462524
1772713848292152800,4.00115283203125,-0.37949666380882263,1.163425326347351,1.2770932912826538
1772713848302126800,4.011126953125,-0.23130486905574799,1.0305640697479248,1.418259620666504
1772713848312100900,4.021100830078125,-0.17229214310646057,0.8381906747817993,1.6200933456420898
1772713848322075000,4.031074951171875,-0.17609615623950958,0.5948545932769775,1.8614147901535034
1772713848332049000,4.041048828125,-0.23566120862960815,0.33200061321258545,2.1343512535095215
1772713848342023000,4.05102294921875,-0.2854458689689636,0.06694312393665314,2.400193214416504
1772713848351997000,4.060996826171875,-0.3493209779262543,-0.29729023575782776,2.529646158218384
1772713848361971000,4.070970947265625,-0.42305654287338257,-0.7211633324623108,2.482614755630493
1772713848371945000,4.080945068359375,-0.569553554058075,-1.0543290376663208,2.0907106399536133
1772713848381919000,4.0909189453125,-0.7573480606079102,-1.3618847131729126,1.3780252933502197
1772713848391893000,4.10089306640625,-0.8655376434326172,-1.7429205179214478,0.5710122585296631
1772713848401867000,4.110866943359375,-0.9106135964393616,-2.084972858428955,-0.23409858345985413
1772713848411841000,4.120841064453125,-0.9563381671905518,-2.2489800453186035,-1.0452498197555542
1772713848421815000,4.13081494140625,-1.0325530767440796,-2.144228458404541,-1.582854151725769
1772713848431788800,4.140788818359375,-1.1040520668029785,-2.0217809677124023,-1.7881953716278076
1772713848441762800,4.1507626953125,-0.9275172352790833,-2.30568790435791,-1.9218088388442993
1772713848451737900,4.16073779296875,-0.6095752120018005,-3.0595107078552246,-1.9567556381225586
1772713848461712000,4.1707119140625,-0.3329758048057556,-4.081840515136719,-1.8360068798065186
1772713848471686000,4.180685791015625,-0.32298973202705383,-4.609643459320068,-1.7562212944030762
1772713848481660000,4.190659912109375,-0.3707077205181122,-4.437682151794434,-1.7883741855621338
1772713848491634000,4.200634033203125,-0.24521639943122864,-3.8465170860290527,-1.8559558391571045
1772713848501608000,4.21060791015625,0.006845617666840553,-3.201509475708008,-2.068363904953003
1772713848511582000,4.22058203125,0.38334548473358154,-2.6377103328704834,-2.504262924194336
1772713848521556000,4.230555908203125,0.8572167158126831,-2.158209800720215,-2.9981770515441895
1772713848531530000,4.240530029296875,1.3815923929214478,-1.545554757118225,-3.205862045288086
1772713848541504000,4.25050390625,1.706429123878479,-0.6099554896354675,-2.8908181190490723
1772713848551478000,4.26047802734375,1.8330937623977661,0.2670418322086334,-2.3627710342407227
1772713848561452000,4.2704521484375,1.8659738302230835,0.6154298782348633,-2.1937553882598877
1772713848571425800,4.28042578125,1.8498986959457397,0.8405106663703918,-2.0241260528564453
1772713848581399800,4.29039990234375,1.8561784029006958,0.9880919456481934,-1.7811591625213623
1772713848591375000,4.300375,1.9053370952606201,1.1661944389343262,-1.59743332862854
1772713848601349000,4.31034912109375,1.8638837337493896,1.3649804592132568,-1.3872730731964111
1772713848611323100,4.3203232421875,1.5524541139602661,1.2946377992630005,-1.1261658668518066
1772713848621297200,4.330297119140625,0.848112165927887,0.9547193050384521,-0.6609638333320618
1772713848631271200,4.340271240234375,0.09184232354164124,0.3985882103443146,0.06537766009569168
1772713848641245200,4.3502451171875,-0.4655793309211731,-0.2060936838388443,0.7478330135345459
1772713848651219200,4.36021923828125,-0.7692058086395264,-0.5717712640762329,1.1586439609527588
1772713848661193200,4.370193115234375,-0.8362189531326294,-0.5398493409156799,1.1925100088119507
1772713848671167200,4.380167236328125,-0.690390944480896,-0.12429128587245941,0.9354409575462341
1772713848681141200,4.390141357421875,-0.4069617986679077,0.4968528151512146,0.5428295731544495
1772713848691115300,4.400115234375,-0.125803604722023,1.1072927713394165,0.09272902458906174
1772713848701089000,4.410089111328125,0.04573776200413704,1.5043964385986328,-0.32203400135040283
1772713848711062800,4.420062744140625,0.10441359132528305,1.7032397985458374,-0.5858047008514404
1772713848721038000,4.4300380859375,0.08171988278627396,1.7613483667373657,-0.6483016610145569
1772713848731012000,4.44001220703125,0.008712784387171268,1.7303603887557983,-0.5226476192474365
1772713848740986000,4.449986083984375,-0.04990730807185173,1.6333075761795044,-0.3111039996147156
1772713848750960000,4.459960205078125,-0.08839131146669388,1.5276192426681519,-0.10329513996839523
1772713848760934100,4.46993408203125,-0.07336734980344772,1.4064595699310303,0.11323446780443192
1772713848770908200,4.479908203125,-0.005486038513481617,1.283638834953308,0.4168364107608795
1772713848780882200,4.489882080078125,0.031331706792116165,1.1881548166275024,0.746396541595459
1772713848790856200,4.499856201171875,-0.11407209187746048,1.0273550748825073,0.997218668460846
1772713848800830200,4.509830322265625,-0.42810407280921936,0.8090423941612244,1.2302664518356323
1772713848810804200,4.51980419921875,-0.7439493536949158,0.44425082206726074,1.4727421998977661
1772713848820778200,4.5297783203125,-1.0387243032455444,-0.021494049578905106,1.7135103940963745
1772713848830752300,4.539752197265625,-1.2162545919418335,-0.42829376459121704,1.9159529209136963
1772713848840726000,4.54972607421875,-1.2290384769439697,-0.7330746054649353,1.999316930770874
1772713848850700000,4.559699951171875,-1.1007970571517944,-0.7944495677947998,1.9365980625152588
1772713848860673800,4.569673828125,-0.8459596037864685,-0.4387650787830353,1.7656992673873901
1772713848870649000,4.579649169921875,-0.476331502199173,0.25015848875045776,1.500835657119751
1772713848880623000,4.589623046875,-0.037709735333919525,1.1202888488769531,1.173439383506775
1772713848890597000,4.59959716796875,0.35110458731651306,2.0178213119506836,0.7885814309120178
1772713848900571100,4.609571044921875,0.4639134407043457,2.6654419898986816,0.27351078391075134
1772713848910545200,4.619545166015625,0.3706681728363037,3.045902729034424,-0.24399228394031525
1772713848920519200,4.629519287109375,0.29608988761901855,3.254730224609375,-0.5438710451126099
1772713848930493200,4.6394931640625,0.32693302631378174,3.202331304550171,-0.5729119777679443
1772713848940467200,4.64946728515625,0.34617120027542114,2.934523105621338,-0.4725436568260193
1772713848950441200,4.659441162109375,0.3908494710922241,2.488924980163574,-0.21225585043430328
1772713848960415200,4.669415283203125,0.36723044514656067,1.8913213014602661,0.17238779366016388
1772713848970389200,4.67938916015625,0.2695007026195526,1.37228262424469,0.619092583656311
1772713848980363000,4.689363037109375,0.1353355348110199,1.0389682054519653,1.060730218887329
1772713848990337000,4.6993369140625,0.016051754355430603,0.7512306571006775,1.395717978477478
1772713849000312000,4.70931201171875,-0.07977596670389175,0.371570885181427,1.5722053050994873
1772713849010286000,4.7192861328125,-0.13863208889961243,-0.029644997790455818,1.4854131937026978
1772713849020260000,4.729260009765625,-0.019335025921463966,-0.21424661576747894,1.239837646484375
1772713849030234000,4.739234130859375,0.2520730495452881,-0.21383461356163025,0.9515050053596497
1772713849040208100,4.7492080078125,0.48751166462898254,-0.14418429136276245,0.5526537299156189
1772713849050182100,4.75918212890625,0.615874171257019,-0.22955404222011566,-0.017677705734968185
1772713849060156200,4.76915625,0.6964080333709717,-0.7236359715461731,-0.6921492218971252
1772713849070130200,4.779130126953125,0.7598671317100525,-1.5825598239898682,-1.3307818174362183
1772713849080104200,4.789104248046875,0.753382682800293,-2.343912124633789,-2.0037899017333984
1772713849090078200,4.799078125,0.6087839603424072,-2.2929000854492188,-2.844268560409546
1772713849100052200,4.80905224609375,0.26557764410972595,-1.2533015012741089,-3.781745195388794
1772713849110026200,4.819026123046875,0.16804414987564087,0.2993296682834625,-4.400012493133545
1772713849120000000,4.829,0.5447578430175781,1.5660061836242676,-4.310347557067871
1772713849129975000,4.83897509765625,1.093357801437378,1.716235637664795,-3.7726540565490723
1772713849139949000,4.848948974609375,1.309028148651123,0.9754247665405273,-3.029930353164673
1772713849149923000,4.858923095703125,1.0317227840423584,-0.08995262533426285,-2.223339557647705
1772713849159897000,4.86889697265625,0.7325039505958557,-0.9543192386627197,-1.3750953674316406
1772713849169871000,4.87887109375,0.7623001933097839,-1.3614777326583862,-0.5824709534645081
1772713849179845000,4.88884521484375,0.8991923332214355,-1.540844202041626,0.05571259930729866
1772713849189819100,4.898819091796875,0.9943593740463257,-1.6887335777282715,0.5203817486763
1772713849199793200,4.908793212890625,0.9342406392097473,-1.7272872924804688,0.9177554249763489
1772713849209767200,4.91876708984375,0.732081413269043,-1.7592926025390625,1.179956078529358
1772713849219741200,4.9287412109375,0.5557345747947693,-1.8077243566513062,1.285312533378601
1772713849229715200,4.938715087890625,0.4129044711589813,-1.725625991821289,1.4155150651931763
1772713849239690000,4.94868994140625,0.3860992193222046,-1.5684977769851685,1.594941258430481
1772713849249664000,4.9586640625,0.40261030197143555,-1.5116685628890991,1.7094532251358032
1772713849259638000,4.968637939453125,0.34023940563201904,-1.4189234972000122,1.779820442199707
1772713849269612000,4.978612060546875,0.30206483602523804,-1.2560642957687378,1.8884526491165161
1772713849279586000,4.9885859375,0.2975897490978241,-1.0221004486083984,1.9123039245605469
1772713849289560000,4.99856005859375,0.2640339136123657,-0.7803227305412292,1.8415498733520508
1772713849299534000,5.0085341796875,0.22822634875774384,-0.5416245460510254,1.744228482246399
1772713849309508000,5.018508056640625,0.1478007435798645,-0.34151217341423035,1.5955810546875
1772713849319482000,5.028482177734375,0.003465750953182578,-0.10432171076536179,1.3543283939361572
1772713849329456000,5.0384560546875,-0.15879079699516296,0.26171910762786865,1.0937676429748535
1772713849339430100,5.04843017578125,-0.2907152771949768,0.7805591821670532,0.8029723167419434
1772713849349404200,5.058404052734375,-0.3277057707309723,1.2630627155303955,0.49303919076919556
1772713849359379000,5.06837890625,-0.29860562086105347,1.5029186010360718,0.3298248052597046
1772713849369353000,5.07835302734375,-0.20615984499454498,1.3403193950653076,0.37685278058052063
1772713849379327000,5.088326904296875,-0.08371248841285706,0.8099884390830994,0.498130202293396
1772713849389301000,5.098301025390625,0.03774922341108322,0.21482731401920319,0.6050337553024292
1772713849399275000,5.10827490234375,0.10237828642129898,-0.15864267945289612,0.6052609086036682
1772713849409249000,5.1182490234375,0.11709331721067429,-0.1700087934732437,0.434995174407959
1772713849419223000,5.12822314453125,0.1011958047747612,0.19461338222026825,0.02889183722436428
1772713849429197000,5.138197021484375,0.18458817899227142,0.8046532869338989,-0.4317404627799988
1772713849439171000,5.148171142578125,0.4960532784461975,1.3810386657714844,-0.7452488541603088
1772713849449145000,5.15814501953125,0.7344434857368469,1.707443118095398,-1.0041192770004272
1772713849459119000,5.168119140625,0.7686738967895508,1.8047057390213013,-1.181650996208191
1772713849469093000,5.178093017578125,0.7130169868469238,1.7628450393676758,-1.169851541519165
1772713849479068200,5.188068115234375,0.564084529876709,1.6650724411010742,-1.016709804534912
1772713849489042000,5.1980419921875,0.34406715631484985,1.6256788969039917,-0.8103171586990356
1772713849499016000,5.208015869140625,0.1929941326379776,1.6066997051239014,-0.6452108025550842
1772713849508990000,5.217989990234375,0.13240934908390045,1.5425639152526855,-0.5922666192054749
1772713849518964000,5.2279638671875,0.08032969385385513,1.3344935178756714,-0.623487114906311
1772713849528938000,5.23793798828125,0.08248338848352432,0.9267310500144958,-0.5190176963806152
1772713849538912000,5.247912109375,0.15138359367847443,0.39683008193969727,-0.2579323947429657
1772713849548886000,5.257885986328125,0.18921273946762085,0.032125115394592285,0.002393196802586317
1772713849558860000,5.267860107421875,0.08277298510074615,0.015944549813866615,0.20777374505996704
1772713849568834000,5.277833984375,-0.09538370370864868,0.0942835658788681,0.28582513332366943
1772713849578808000,5.28780810546875,-0.07710772007703781,0.054066069424152374,0.1833244264125824
1772713849588782000,5.297781982421875,0.04277021810412407,-0.07083139568567276,-0.07110465317964554
1772713849598757000,5.307757080078125,0.08809441328048706,-0.31051191687583923,-0.5085570812225342
1772713849608731100,5.317731201171875,0.046897176653146744,-0.5888473391532898,-1.0781174898147583
1772713849618705200,5.327705078125,-0.05358757823705673,-0.7466757297515869,-1.689652442932129
1772713849628679000,5.337678955078125,-0.27148154377937317,-0.8440656661987305,-2.313685417175293
1772713849638653000,5.34765283203125,-0.3462910056114197,-0.8922950029373169,-2.564340353012085
1772713849648627000,5.357626953125,-0.4111131429672241,-0.6696518063545227,-2.5484654903411865
1772713849658601000,5.36760107421875,-0.18459531664848328,-0.073325015604496,-2.5765531063079834
1772713849668575000,5.377574951171875,0.5747352838516235,0.6940243244171143,-2.470097780227661
1772713849678549000,5.387549072265625,1.1498751640319824,1.0491801500320435,-2.3328120708465576
1772713849688523000,5.39752294921875,1.1137815713882446,0.9300713539123535,-1.7166061401367188
1772713849698497000,5.4074970703125,0.6557852029800415,0.23264136910438538,-0.48774653673171997
1772713849708471000,5.417470947265625,0.17692966759204865,-0.7312988638877869,0.8344077467918396
1772713849718446000,5.427446044921875,-0.11121492832899094,-1.3951973915100098,1.783905029296875
1772713849728420000,5.437420166015625,-0.28344792127609253,-1.7947359085083008,2.359764575958252
1772713849738394000,5.44739404296875,-0.40935689210891724,-2.1671693325042725,2.689347743988037
1772713849748368100,5.4573681640625,-0.5012874007225037,-2.483464241027832,2.871145248413086
1772713849758342100,5.467342041015625,-0.6009851098060608,-2.636220693588257,2.8905463218688965
1772713849768316000,5.47731591796875,-0.670375406742096,-2.59092116355896,2.7841758728027344
1772713849778290000,5.4872900390625,-0.6919376254081726,-2.387073278427124,2.5567708015441895
1772713849788264000,5.497263916015625,-0.6946234107017517,-2.217261791229248,2.1548502445220947
1772713849798238000,5.507238037109375,-0.6152224540710449,-2.0907349586486816,1.7168114185333252
1772713849808212000,5.5172119140625,-0.4706721901893616,-1.9128965139389038,1.3159966468811035
1772713849818187000,5.52718701171875,-0.39465412497520447,-1.5763840675354004,0.970984697341919
1772713849828161000,5.5371611328125,-0.40550729632377625,-1.0259075164794922,0.7440569996833801
1772713849838135000,5.547135009765625,-0.4402109384536743,-0.38902053236961365,0.593905508518219
1772713849848109000,5.557109130859375,-0.4751414954662323,0.20260949432849884,0.5313196182250977
1772713849858083000,5.5670830078125,-0.43855005502700806,0.6067635416984558,0.5070698261260986
1772713849868057000,5.57705712890625,-0.37512314319610596,0.7838062644004822,0.5512697696685791
1772713849878031000,5.587031005859375,-0.3172619938850403,0.8430771827697754,0.7024399638175964
1772713849888005000,5.597005126953125,-0.256462037563324,0.7842346429824829,0.8667786121368408
1772713849897979100,5.606979248046875,-0.2369880974292755,0.6517736315727234,1.0173569917678833
1772713849907953000,5.616952880859375,-0.30444249510765076,0.48423951864242554,1.1353769302368164
1772713849917928000,5.626927978515625,-0.29255446791648865,0.23746708035469055,1.164320468902588
1772713849927902000,5.63690185546875,-0.11364997178316116,-0.012839965522289276,1.036270022392273
1772713849937876000,5.6468759765625,0.08520850539207458,-0.07792258262634277,0.7117184996604919
1772713849947850000,5.65685009765625,0.24912288784980774,0.14669561386108398,0.23266348242759705
1772713849957824000,5.666823974609375,0.39464685320854187,0.5286708474159241,-0.32681962847709656
1772713849967798000,5.676798095703125,0.5105263590812683,0.9345690608024597,-0.8211848735809326
1772713849977772000,5.68677197265625,0.652218759059906,1.335697889328003,-1.1791516542434692
1772713849987746000,5.69674609375,0.7989075183868408,1.6651479005813599,-1.4804753065109253
1772713849997720000,5.706719970703125,0.8886857032775879,1.9292289018630981,-1.7198225259780884
1772713850007694000,5.716694091796875,0.8378989696502686,2.0961437225341797,-1.882961630821228
1772713850017668000,5.726668212890625,0.5816798210144043,2.062074661254883,-1.9924280643463135
1772713850027643000,5.736642822265625,0.19642050564289093,1.8309513330459595,-2.0649328231811523
1772713850037617000,5.746616943359375,-0.18859976530075073,1.5340723991394043,-2.0529961585998535
1772713850047591000,5.7565908203125,-0.43668705224990845,1.2909839153289795,-1.9423755407333374
1772713850057565000,5.76656494140625,-0.5346615314483643,1.0707852840423584,-1.765098214149475
1772713850067539000,5.7765390625,-0.506212592124939,0.8142531514167786,-1.5582398176193237
1772713850077513000,5.786512939453125,-0.41204243898391724,0.622376561164856,-1.2742526531219482
1772713850087487000,5.796487060546875,-0.2708919644355774,0.4761522114276886,-0.8497477173805237
1772713850097461000,5.8064609375,-0.1626490205526352,0.31809577345848083,-0.32829755544662476
1772713850107435000,5.81643505859375,-0.08400294184684753,0.2088443785905838,0.15585607290267944
1772713850117409000,5.826408935546875,-0.08171574771404266,0.16421334445476532,0.49569186568260193
1772713850127383000,5.836383056640625,-0.0038893979508429766,-0.047401703894138336,0.5918352007865906
1772713850137357800,5.84635791015625,0.16362544894218445,-0.533264696598053,0.46532127261161804
1772713850147331800,5.856331787109375,0.1284530758857727,-1.176398754119873,0.1689353883266449
1772713850157305900,5.866305908203125,-0.0025517402682453394,-1.7645286321640015,-0.2815812826156616
1772713850167279900,5.87627978515625,-0.08694544434547424,-2.1920487880706787,-0.7484941482543945
1772713850177254000,5.88625390625,-0.2641955018043518,-2.312605857849121,-1.3805426359176636
1772713850187228000,5.896227783203125,-0.6916874647140503,-1.9049172401428223,-2.14825439453125
1772713850197202000,5.906201904296875,-0.9521484375,-0.8520572185516357,-2.527822256088257
1772713850207176000,5.916176025390625,-0.7719821333885193,0.3851701617240906,-2.4389374256134033
1772713850217150000,5.92614990234375,-0.2754061222076416,1.2040244340896606,-1.9365661144256592
1772713850227125000,5.936125,0.20402677357196808,1.1603288650512695,-1.2536126375198364
1772713850237099000,5.94609912109375,0.3250372111797333,0.34428951144218445,-0.6940973997116089
1772713850247074000,5.956073974609375,0.09639202058315277,-0.8041685819625854,-0.29224127531051636
1772713850257048000,5.966048095703125,-0.25818175077438354,-1.7092299461364746,-0.04960736632347107
1772713850267023000,5.976023193359375,-0.5098579525947571,-1.8533886671066284,0.17976883053779602
1772713850276997000,5.9859970703125,-0.6420779824256897,-1.3450652360916138,0.5617004036903381
1772713850286971100,5.99597119140625,-0.6956911683082581,-0.7662060856819153,1.089516043663025
1772713850296945200,6.005945068359375,-0.738991379737854,-0.5807207822799683,1.6650811433792114
1772713850306919200,6.015919189453125,-0.8443034291267395,-0.899925947189331,2.1666922569274902
1772713850316893200,6.02589306640625,-1.0808027982711792,-1.54135262966156,2.4502053260803223
1772713850326867200,6.0358671875,-1.366260051727295,-2.0114166736602783,2.5971291065216064
1772713850336841200,6.04584130859375,-1.5961475372314453,-1.9352818727493286,2.6252024173736572
1772713850346815200,6.055815185546875,-1.6813215017318726,-1.3505859375,2.42366623878479
1772713850356790000,6.0657900390625,-1.542486310005188,-0.4573969542980194,1.9954073429107666
1772713850366764000,6.075763916015625,-1.266700267791748,0.5941615104675293,1.4970002174377441
1772713850376738000,6.085738037109375,-0.926970899105072,1.561765193939209,1.116971492767334
1772713850386712000,6.095712158203125,-0.5691211223602295,2.180997610092163,0.9047309756278992
1772713850396686000,6.10568603515625,-0.2974682152271271,2.397498369216919,0.8918578028678894
1772713850406660000,6.11566015625,-0.2266521006822586,2.253329038619995,1.0069782733917236
1772713850416634000,6.125634033203125,-0.402783066034317,1.847047209739685,1.0858877897262573
1772713850426608000,6.135608154296875,-0.6878768801689148,1.2610132694244385,1.0404620170593262
1772713850436582100,6.14558203125,-0.9285686612129211,0.7167552709579468,0.9087653160095215
1772713850446557000,6.155556884765625,-1.0035654306411743,0.24127478897571564,0.7344198822975159
1772713850456531000,6.165531005859375,-0.9686826467514038,-0.060949843376874924,0.4926508367061615
1772713850466505000,6.1755048828125,-0.8512132167816162,-0.08434677869081497,0.1816532462835312
1772713850476479000,6.18547900390625,-0.6797314882278442,0.13019318878650665,-0.22272609174251556
1772713850486453000,6.195452880859375,-0.5773606896400452,0.5108774304389954,-0.6801325678825378
1772713850496427000,6.205427001953125,-0.532281756401062,0.8600471019744873,-1.1175391674041748
1772713850506401000,6.215401123046875,-0.5432976484298706,1.162906527519226,-1.3734465837478638
1772713850516375000,6.225375,-0.5735712647438049,1.3325501680374146,-1.335695743560791
1772713850526349000,6.23534912109375,-0.6444616913795471,1.23247230052948,-1.0975433588027954
1772713850536324000,6.245323974609375,-0.7631314992904663,0.9930337071418762,-0.7716401815414429
1772713850546298000,6.255298095703125,-0.8175007104873657,0.7098060250282288,-0.29846489429473877
1772713850556271900,6.26527197265625,-0.7218800783157349,0.28400862216949463,0.20253755152225494
1772713850566246000,6.275245849609375,-0.5947924256324768,-0.1294601708650589,0.605230450630188
1772713850576220000,6.285219970703125,-0.5091536045074463,-0.2637307941913605,0.942084550857544
1772713850586194000,6.29519384765625,-0.4608928859233856,-0.2326279729604721,1.1454261541366577
1772713850596167700,6.305167724609375,-0.5030618906021118,-0.026051366701722145,1.1805492639541626
1772713850606141700,6.3151416015625,-0.6091774106025696,0.31923598051071167,1.1157188415527344
1772713850616115700,6.32511572265625,-0.763524055480957,0.7284587621688843,1.0735853910446167
1772713850626089700,6.33508984375,-0.8459388017654419,1.0640509128570557,1.1524252891540527
1772713850636064800,6.345064697265625,-0.9108380675315857,1.3772497177124023,1.3417856693267822
1772713850646038800,6.355038818359375,-0.9856142997741699,1.636311411857605,1.6154874563217163
1772713850656012800,6.3650126953125,-0.9441518783569336,1.7123920917510986,1.9615185260772705
1772713850665986800,6.37498681640625,-0.8626511693000793,1.397066354751587,2.104339838027954
1772713850675960800,6.3849609375,-0.8625034093856812,0.659022867679596,2.004842519760132
1772713850685934800,6.394934814453125,-0.8860241770744324,-0.35364118218421936,1.7863785028457642
1772713850695908900,6.404908935546875,-1.0176689624786377,-1.238904356956482,1.550420880317688
1772713850705883000,6.4148828125,-1.0418057441711426,-1.6442874670028687,1.359606146812439
1772713850715857000,6.42485693359375,-0.839577317237854,-1.3164764642715454,1.2757736444473267
1772713850725831700,6.434831787109375,-0.6033445000648499,-0.8986677527427673,1.5554507970809937
1772713850735805700,6.4448056640625,-0.3269648551940918,-0.7299050092697144,1.01682710647583
1772713850745779700,6.45477978515625,-0.21540182828903198,-0.6900015473365784,-0.24537043273448944
1772713850755753700,6.464753662109375,-0.15957044064998627,-0.5686246752738953,-1.5115116834640503
1772713850765727700,6.474727783203125,0.08891420811414719,-0.22754909098148346,-2.271672010421753
1772713850775701800,6.48470166015625,0.4002821445465088,-0.026440823450684547,-2.6652989387512207
1772713850785675800,6.49467578125,0.5500860214233398,0.15437716245651245,-2.6907458305358887
1772713850795649800,6.50464990234375,0.5670499205589294,0.19554157555103302,-2.3650269508361816
1772713850805624800,6.514624755859375,0.6984124779701233,0.3604884445667267,-2.132974147796631
1772713850815598800,6.524598876953125,0.99078768491745,1.2405835390090942,-2.4246952533721924
1772713850825572600,6.534572509765625,0.25314557552337646,0.7926638126373291,-1.2986258268356323
1772713850835546600,6.544546630859375,-0.4666516184806824,-0.41651177406311035,-0.4558931887149811
1772713850845520600,6.554520751953125,-0.4829237759113312,-1.614728331565857,0.21930335462093353
1772713850855494700,6.56449462890625,-0.2414606660604477,-1.813866138458252,0.3834152817726135
1772713850865468700,6.57446875,-0.0620991587638855,-1.572843074798584,0.3002719283103943
1772713850875442700,6.584442626953125,0.03232335299253464,-1.183434247970581,-0.13585679233074188
1772713850885416700,6.594416748046875,0.03395826742053032,-0.4130088686943054,-0.7447944283485413
1772713850895391700,6.604391845703125,0.05098489671945572,0.16926398873329163,-1.2601559162139893
1772713850905365800,6.61436572265625,0.040140505880117416,0.4181496798992157,-1.6212655305862427
1772713850915339800,6.62433984375,-0.010582825168967247,0.29994508624076843,-1.916059970855713
1772713850925313800,6.634313720703125,-0.09237568825483322,0.25272348523139954,-2.017695188522339
1772713850935287800,6.644287841796875,-0.1205519586801529,0.2729753255844116,-1.9718670845031738
1772713850945261800,6.65426171875,-0.06961927562952042,0.3982940912246704,-1.708907961845398
1772713850955235800,6.66423583984375,-0.01162211038172245,0.4465492367744446,-1.2771505117416382
1772713850965209600,6.674209716796875,-0.033136989921331406,0.4731832444667816,-0.8116158246994019
1772713850975185000,6.684184814453125,0.010719598270952702,0.4825372099876404,-0.36587947607040405
1772713850985159000,6.694158935546875,0.0907324030995369,0.4461800158023834,-0.057967718690633774
1772713850995133000,6.7041328125,0.07958879321813583,0.33465978503227234,0.12585292756557465
1772713851005107000,6.71410693359375,-0.004693061113357544,0.06243307143449783,0.25089341402053833
1772713851015081000,6.7240810546875,-0.05018404498696327,-0.23679934442043304,0.3108304738998413
1772713851025055000,6.734054931640625,-0.08081252872943878,-0.4309174418449402,0.3502569794654846
1772713851035028700,6.74402880859375,-0.12287343293428421,-0.5313739776611328,0.38222503662109375
1772713851045002800,6.754002685546875,-0.14783523976802826,-0.5848458409309387,0.44356077909469604
1772713851054976800,6.763976806640625,-0.12664854526519775,-0.7059075832366943,0.5149177312850952
1772713851064951800,6.773951904296875,-0.026655370369553566,-0.9119877815246582,0.5695159435272217
1772713851074925800,6.78392578125,0.0753435343503952,-1.0884149074554443,0.5113632082939148
1772713851084899800,6.79389990234375,0.1324337273836136,-1.1924501657485962,0.2806226909160614
1772713851094873900,6.803873779296875,0.1718977689743042,-1.374729037284851,-0.0020074741914868355
1772713851104848000,6.813847900390625,0.18305322527885437,-1.503840446472168,-0.30062294006347656
1772713851114822000,6.82382177734375,0.24736401438713074,-1.4776804447174072,-0.6351696252822876
1772713851124796000,6.8337958984375,0.3876827657222748,-1.2861443758010864,-0.9502306580543518
1772713851134770000,6.84377001953125,0.5505768060684204,-0.8754205107688904,-1.2013746500015259
1772713851144745000,6.853744873046875,0.6615116000175476,-0.3313615024089813,-1.401973843574524
1772713851154719000,6.863718994140625,0.6804625391960144,0.19792017340660095,-1.5550220012664795
1772713851164693000,6.87369287109375,0.6332247257232666,0.5778126120567322,-1.540535807609558
1772713851174667000,6.8836669921875,0.6029977798461914,0.7794862389564514,-1.2348301410675049
1772713851184640800,6.893640869140625,0.5598763823509216,0.7376580834388733,-0.7098134160041809
1772713851194614800,6.90361474609375,0.41810476779937744,0.39373156428337097,-0.15039551258087158
1772713851204588800,6.9135888671875,0.2258106917142868,-0.07028347998857498,0.31608113646507263
1772713851214562800,6.923562744140625,0.07668134570121765,-0.48393210768699646,0.6882858276367188
1772713851224537900,6.933537841796875,-0.061569999903440475,-0.921991765499115,0.8612781167030334
1772713851234512000,6.943511962890625,-0.16001620888710022,-1.10832941532135,0.8757122159004211
1772713851244486000,6.95348583984375,-0.1892518699169159,-0.9857962727546692,0.7270774841308594
1772713851254460000,6.9634599609375,-0.19239762425422668,-0.7378799915313721,0.39643603563308716
1772713851264434000,6.973433837890625,-0.23499621450901031,-0.40065670013427734,0.06669357419013977
1772713851274408000,6.983407958984375,-0.2990480363368988,-0.22022932767868042,-0.30734559893608093
1772713851284382000,6.9933818359375,-0.289506196975708,-0.09456168860197067,-0.7203614115715027
1772713851294356000,7.00335595703125,-0.1942116618156433,0.04227537289261818,-1.0936816930770874
1772713851304330000,7.013330078125,-0.055883340537548065,0.16905595362186432,-1.3272457122802734
1772713851314304800,7.0233046875,0.1006191074848175,0.24434727430343628,-1.2900359630584717
1772713851324278800,7.03327880859375,0.21561039984226227,0.07884299755096436,-0.9788506031036377
1772713851334252800,7.043252685546875,0.3052714169025421,-0.25186994671821594,-0.44142332673072815
1772713851344226800,7.053226806640625,0.36507269740104675,-0.5527504086494446,0.13151715695858002
1772713851354200800,7.063200927734375,0.40099766850471497,-0.7695064544677734,0.6988046169281006
1772713851364174800,7.0731748046875,0.390350341796875,-0.793010413646698,0.9075008034706116
1772713851374148900,7.08314892578125,0.31996580958366394,-0.4802052676677704,0.7415051460266113
1772713851384123000,7.093122802734375,0.20479770004749298,-0.020793462172150612,0.30888500809669495
1772713851394098000,7.103097900390625,0.05824853852391243,0.3238922357559204,-0.13884679973125458
1772713851404071700,7.11307177734375,-0.07831863313913345,0.4641473591327667,-0.290764182806015
1772713851414045700,7.123045654296875,-0.1581435203552246,0.40691879391670227,-0.1336030513048172
1772713851424019700,7.133019775390625,-0.2232932299375534,0.24610410630702972,0.15247690677642822
1772713851433993700,7.14299365234375,-0.28062474727630615,0.1625000238418579,0.4122828245162964
1772713851443967700,7.1529677734375,-0.3547133505344391,0.14160671830177307,0.5519871711730957
1772713851453941800,7.162941650390625,-0.3643683195114136,0.0925355851650238,0.6439797878265381
1772713851463915800,7.172915771484375,-0.3038029670715332,0.06789282709360123,0.6795101165771484
1772713851473889800,7.182889892578125,-0.2439614236354828,0.07663684338331223,0.7205271124839783
1772713851483864800,7.19286474609375,-0.2432492971420288,0.09553836286067963,0.6983858346939087
