time,seconds_elapsed,z,y,x
1772713844353664500,0.06266455078125,0.23889246582984924,1.2324252128601074,1.7629095315933228
1772713844363638500,0.072638427734375,0.10732006281614304,1.142646312713623,1.6053614616394043
1772713844373612500,0.082612548828125,0.06968853622674942,1.084074854850769,1.4482773542404175
1772713844383586600,0.092586669921875,0.10167789459228516,0.9166246056556702,1.3304908275604248
1772713844393560600,0.102560546875,0.12132509797811508,0.9052689075469971,1.2208508253097534
1772713844403534600,0.11253466796875,0.11898470669984818,0.9390313625335693,1.1258225440979004
1772713844413508600,0.122508544921875,0.040820132941007614,1.0239065885543823,1.0262190103530884
1772713844423482600,0.132482666015625,-0.0876651406288147,1.0367507934570312,0.948764979839325
1772713844433455400,0.142455322265625,-0.18611155450344086,0.9269393086433411,0.9331644773483276
1772713844443429400,0.152429443359375,-0.24627235531806946,0.7321160435676575,0.9964526295661926
1772713844453403400,0.1624033203125,-0.3041692078113556,0.7146092057228088,1.0424219369888306
1772713844463377400,0.17237744140625,-0.36215686798095703,0.8430734276771545,1.056523084640503
1772713844473351400,0.182351318359375,-0.3926604688167572,0.8726414442062378,1.023037314414978
1772713844483325400,0.192325439453125,-0.37415602803230286,0.7356468439102173,0.906545102596283
1772713844493299500,0.202299560546875,-0.36058828234672546,0.5120233297348022,0.7411625385284424
1772713844503273500,0.2122734375,-0.38945135474205017,0.25438541173934937,0.5714944005012512
1772713844513247500,0.22224755859375,-0.38897305727005005,-0.08272843807935715,0.36453694105148315
1772713844523221500,0.232221435546875,-0.2496148943901062,-0.43854114413261414,0.13383981585502625
1772713844533195500,0.242195556640625,0.08464831113815308,-0.8188280463218689,-0.05830458551645279
1772713844543169800,0.252169677734375,0.5138468146324158,-0.9740479588508606,-0.19640865921974182
1772713844553143800,0.262143798828125,0.8960618376731873,-0.936212420463562,-0.33812639117240906
1772713844563117800,0.272117919921875,1.157067894935608,-0.8181779384613037,-0.5273777842521667
1772713844573091800,0.282091796875,1.3368818759918213,-0.4943745732307434,-0.7198660373687744
1772713844583065900,0.29206591796875,1.4135947227478027,-0.13390906155109406,-0.7820561528205872
1772713844593040000,0.302039794921875,1.3656437397003174,0.09740431606769562,-0.7131732106208801
1772713844603013600,0.312013671875,1.179706335067749,0.41288211941719055,-0.5345795154571533
1772713844612987600,0.321987548828125,0.9007567167282104,0.8616852164268494,-0.2153967320919037
1772713844622961700,0.331961669921875,0.5715615153312683,1.2818787097930908,0.2073523849248886
1772713844632935700,0.341935791015625,0.302385151386261,1.2980034351348877,0.5692536234855652
1772713844642909700,0.35190966796875,0.2614222764968872,0.6018304824829102,0.6111070513725281
1772713844652883700,0.3618837890625,0.24624785780906677,-0.05026476830244064,0.6024587154388428
1772713844662857700,0.371857666015625,0.2273559272289276,-0.5753860473632812,0.8861881494522095
1772713844672831700,0.381831787109375,0.15955451130867004,-0.7050926685333252,1.2874383926391602
1772713844682805800,0.3918056640625,0.02622840739786625,-1.1129480600357056,1.615105152130127
1772713844692779800,0.40177978515625,-0.23081164062023163,-1.6163859367370605,1.843131184577942
1772713844702753800,0.41175390625,-0.573306679725647,-2.016085624694824,1.7460414171218872
1772713844712727800,0.421727783203125,-0.8410502076148987,-1.2107489109039307,1.041189193725586
1772713844722701800,0.431701904296875,-0.9667117595672607,0.09457151591777802,0.622696578502655
1772713844732675800,0.44167578125,-0.7431241869926453,0.9864327311515808,0.19588135182857513
1772713844742649900,0.45164990234375,-0.38530588150024414,1.2656524181365967,-0.21249601244926453
1772713844752623900,0.461623779296875,-0.14581924676895142,0.9099858999252319,-0.35405129194259644
1772713844762598000,0.471597900390625,-0.14385516941547394,0.05627019703388214,-0.49949637055397034
1772713844772572000,0.481572021484375,-0.28947895765304565,-1.0270742177963257,-0.7451631426811218
1772713844782546000,0.4915458984375,-0.3874451816082001,-1.8784891366958618,-1.00764799118042
1772713844792519700,0.501519775390625,-0.3067476749420166,-2.562105894088745,-1.210410475730896
1772713844802493700,0.51149365234375,-0.2173174023628235,-3.0646181106567383,-1.3301833868026733
1772713844812467700,0.5214677734375,-0.32819706201553345,-3.2497494220733643,-1.4657495021820068
1772713844822441700,0.531441650390625,-0.40330004692077637,-3.292362928390503,-1.7608839273452759
1772713844832415700,0.541415771484375,-0.3867615759372711,-3.2686126232147217,-2.2461929321289062
1772713844842389800,0.5513896484375,-0.34961631894111633,-3.03033447265625,-2.8436264991760254
1772713844852363800,0.56136376953125,-0.1277499794960022,-2.58847713470459,-3.4309916496276855
1772713844862337800,0.571337890625,0.3665987551212311,-2.241800308227539,-3.8318307399749756
1772713844872311800,0.581311767578125,0.8541324734687805,-2.0652599334716797,-4.2101545333862305
1772713844882285800,0.591285888671875,1.2065083980560303,-2.4361019134521484,-4.798755645751953
1772713844892259800,0.601259765625,1.4225629568099976,-2.0391552448272705,-5.127472400665283
1772713844902233900,0.61123388671875,1.5680402517318726,-1.1045812368392944,-4.769966125488281
1772713844912208000,0.621207763671875,1.5640473365783691,-0.6607204079627991,-3.7665648460388184
1772713844922182000,0.631181884765625,1.337644338607788,-0.44660064578056335,-2.5839803218841553
1772713844932156000,0.641156005859375,0.8862614035606384,-0.14628344774246216,-1.4986251592636108
1772713844942130000,0.6511298828125,0.39783552289009094,0.18574322760105133,-0.6104593873023987
1772713844952104000,0.66110400390625,0.1738213300704956,0.05824413150548935,-0.08333802968263626
1772713844962078000,0.671077880859375,0.13345792889595032,-0.09887624531984329,0.18974356353282928
1772713844972052000,0.681052001953125,0.14996153116226196,-0.08677803725004196,0.2815600335597992
1772713844982026000,0.69102587890625,0.265244722366333,-0.13143418729305267,0.17465649545192719
1772713844991999700,0.700999755859375,0.3869602382183075,-0.31199172139167786,-0.05431836470961571
1772713845001973800,0.710973876953125,0.4615918695926666,-0.4825373589992523,-0.3308338522911072
1772713845011947800,0.72094775390625,0.5546794533729553,-0.46609100699424744,-0.5747575759887695
1772713845021921800,0.730921875,0.6585360765457153,-0.15310406684875488,-0.7062479257583618
1772713845031895800,0.740895751953125,0.7209480404853821,0.33621689677238464,-0.7100818157196045
1772713845041869800,0.750869873046875,0.6885536313056946,0.7861102819442749,-0.6637582778930664
1772713845051843800,0.76084375,0.6363682150840759,1.09185791015625,-0.629123866558075
1772713845061817900,0.77081787109375,0.59758061170578,1.2052761316299438,-0.5807166695594788
1772713845071791900,0.7807919921875,0.5459133982658386,1.1236616373062134,-0.4622240960597992
1772713845081766000,0.790765869140625,0.4959937632083893,0.8601679801940918,-0.25998950004577637
1772713845091738600,0.800738525390625,0.46957626938819885,0.5542647838592529,0.0068147629499435425
1772713845101712600,0.810712646484375,0.4951018691062927,0.2690756618976593,0.37526842951774597
1772713845111686700,0.820686767578125,0.4556886851787567,0.1471652090549469,0.76481032371521
1772713845121660700,0.83066064453125,0.36384719610214233,0.2065662294626236,0.9968401193618774
1772713845131634700,0.840634765625,0.3243463933467865,0.3027478754520416,1.1336901187896729
1772713845141608700,0.850608642578125,0.3764476776123047,0.4547014534473419,1.3597354888916016
1772713845151582700,0.860582763671875,0.45200315117836,0.6517958641052246,1.6693636178970337
1772713845161556700,0.870556640625,0.5180556774139404,0.6616543531417847,1.8641057014465332
1772713845171530800,0.88053076171875,0.59833824634552,0.09520667791366577,1.9405986070632935
1772713845181504800,0.8905048828125,0.5563164949417114,-0.4815855324268341,1.979176640510559
1772713845191478800,0.900478759765625,0.2830370366573334,-0.44885024428367615,1.7100863456726074
1772713845201452800,0.910452880859375,-0.07690676301717758,-0.11961881071329117,1.33878755569458
1772713845211426800,0.9204267578125,-0.21710781753063202,0.4957687258720398,1.1639827489852905
1772713845221400800,0.93040087890625,-0.1544468253850937,1.1100499629974365,1.0474945306777954
1772713845231374800,0.940374755859375,-0.12539680302143097,1.1370025873184204,0.7559223175048828
1772713845241348900,0.950348876953125,-0.35650646686553955,0.6839902997016907,0.33339741826057434
1772713845251322600,0.960322509765625,-0.5496426224708557,0.3239823281764984,-0.044830322265625
1772713845261296600,0.970296630859375,-0.4206082224845886,0.32290640473365784,-0.1889054775238037
1772713845271270700,0.980270751953125,-0.0025273398496210575,0.6375983357429504,-0.018152372911572456
1772713845281244700,0.99024462890625,0.4770973026752472,0.8272910118103027,0.3023145794868469
1772713845291218700,1.00021875,0.7367637753486633,0.8309752345085144,0.7724738121032715
1772713845301192700,1.010192626953125,0.7576187252998352,0.4910602569580078,1.4403314590454102
1772713845311166700,1.020166748046875,0.7485439777374268,-0.21558767557144165,2.1353368759155273
1772713845321140700,1.030140625,0.7143386006355286,-0.8926066160202026,2.566751003265381
1772713845331114800,1.04011474609375,0.6721927523612976,-1.3070125579833984,2.623380661010742
1772713845341088800,1.0500888671875,0.6328288316726685,-1.4316672086715698,2.3407249450683594
1772713845351062800,1.060062744140625,0.6060640811920166,-1.3536930084228516,1.8041044473648071
1772713845361036800,1.070036865234375,0.5610220432281494,-1.1868281364440918,1.1371899843215942
1772713845371010800,1.0800107421875,0.5236626863479614,-1.001521348953247,0.4878578186035156
1772713845380984800,1.08998486328125,0.5037606358528137,-0.8403703570365906,-0.09002310037612915
1772713845390958800,1.099958740234375,0.5165770649909973,-0.769138514995575,-0.5865542888641357
1772713845400932900,1.109932861328125,0.5838146805763245,-0.8282859921455383,-0.9790616035461426
1772713845410907000,1.119906982421875,0.6499553918838501,-0.9215229749679565,-1.270351529121399
1772713845420881000,1.129880859375,0.584518551826477,-0.8520453572273254,-1.4635378122329712
1772713845430855000,1.13985498046875,0.4834478795528412,-0.6503074765205383,-1.578926682472229
1772713845440829000,1.149828857421875,0.42315179109573364,-0.3455198407173157,-1.5899173021316528
1772713845450802700,1.159802734375,0.3975135385990143,0.045228730887174606,-1.4759405851364136
1772713845460776700,1.169776611328125,0.39528635144233704,0.39409884810447693,-1.2589497566223145
1772713845470750700,1.179750732421875,0.4209142029285431,0.5866698622703552,-0.9754921793937683
1772713845480724700,1.189724853515625,0.44434070587158203,0.6252817511558533,-0.6606250405311584
1772713845490698800,1.19969873046875,0.45451638102531433,0.4944901466369629,-0.3237176239490509
1772713845500672800,1.2096728515625,0.4141066372394562,0.30852001905441284,0.028239626437425613
1772713845510646800,1.219646728515625,0.3032163381576538,0.07443215698003769,0.3426172733306885
1772713845520620800,1.229620849609375,0.16632665693759918,-0.23706288635730743,0.6003739833831787
1772713845530594800,1.2395947265625,0.061112888157367706,-0.5801560282707214,0.790513277053833
1772713845540568800,1.24956884765625,0.03544187918305397,-0.935759425163269,0.9010443091392517
1772713845550542600,1.25954248046875,0.05029566213488579,-1.2073116302490234,0.8839934468269348
1772713845560516600,1.2695166015625,0.06901794672012329,-1.2897281646728516,0.7568274736404419
1772713845570490600,1.27949072265625,0.05741056054830551,-1.1501444578170776,0.5257311463356018
1772713845580464600,1.289464599609375,0.06251104921102524,-0.8647451996803284,0.20351824164390564
1772713845590438700,1.299438720703125,0.0862153097987175,-0.48792386054992676,-0.13329175114631653
1772713845600412700,1.30941259765625,0.10925938189029694,-0.12416109442710876,-0.430222749710083
1772713845610386700,1.31938671875,0.11426958441734314,0.17397631704807281,-0.6579771041870117
1772713845620360700,1.329360595703125,0.07426784187555313,0.3777872323989868,-0.7999741435050964
1772713845630334700,1.339334716796875,-0.017654627561569214,0.4601915776729584,-0.8477909564971924
1772713845640308700,1.349308837890625,-0.17222076654434204,0.4058348536491394,-0.8145546913146973
1772713845650282500,1.359282470703125,-0.40361085534095764,0.29731184244155884,-0.7320505380630493
1772713845660256500,1.369256591796875,-0.6145837903022766,0.1831517070531845,-0.6286295652389526
1772713845670230500,1.37923046875,-0.7548003196716309,0.05595647543668747,-0.5380682349205017
1772713845680204500,1.38920458984375,-0.8500453233718872,0.01612117886543274,-0.42512091994285583
1772713845690178600,1.399178466796875,-0.9158354997634888,0.10573016107082367,-0.2514713704586029
1772713845700152600,1.409152587890625,-0.9883952140808105,0.3190666735172272,-0.004786499310284853
1772713845710126600,1.419126708984375,-1.1619254350662231,0.6543107032775879,0.2893495261669159
1772713845720100600,1.4291005859375,-1.447482943534851,0.9851160645484924,0.577792227268219
1772713845730074600,1.43907470703125,-1.7744107246398926,1.318320393562317,0.9171457886695862
1772713845740048600,1.449048583984375,-2.0431079864501953,1.5403622388839722,1.2370209693908691
1772713845750022700,1.459022705078125,-2.0026543140411377,1.0437698364257812,1.3587615489959717
1772713845759996700,1.46899658203125,-1.6093356609344482,-0.5213958024978638,1.07869553565979
1772713845769970700,1.478970703125,-1.1039366722106934,-2.2013750076293945,0.5426393151283264
1772713845779944700,1.48894482421875,-0.6476514935493469,-3.2323193550109863,-0.0971936583518982
1772713845789918700,1.498918701171875,-0.5353363752365112,-3.3015129566192627,-0.9890676736831665
1772713845799892700,1.508892822265625,-0.7377275824546814,-2.4704270362854004,-2.2924206256866455
1772713845809866800,1.51886669921875,-0.8104867339134216,-0.9692872762680054,-3.7453091144561768
1772713845819840800,1.5288408203125,-0.6028605699539185,1.1193220615386963,-4.39012336730957
1772713845829814800,1.538814697265625,-0.5324740409851074,2.700052261352539,-3.9009931087493896
1772713845839788800,1.548788818359375,-0.5870208740234375,2.7627365589141846,-2.368121862411499
1772713845849762600,1.558762451171875,-0.6876236796379089,1.5846402645111084,-0.10073033720254898
1772713845859736600,1.568736572265625,-0.8692722916603088,-0.11187300831079483,2.2020423412323
1772713845869710600,1.578710693359375,-1.05576753616333,-1.7121100425720215,3.8276710510253906
1772713845879684600,1.5886845703125,-1.0384610891342163,-2.7618236541748047,4.55140495300293
1772713845889658600,1.59865869140625,-0.8003478050231934,-2.939570188522339,4.473766326904297
1772713845899632600,1.608632568359375,-0.5360668897628784,-2.4721972942352295,3.767381191253662
1772713845909606700,1.618606689453125,-0.45596539974212646,-1.7601169347763062,2.672783851623535
1772713845919580700,1.62858056640625,-0.3879261612892151,-1.105765461921692,1.4683372974395752
1772713845929554700,1.6385546875,-0.21634215116500854,-0.7678290009498596,0.38734984397888184
1772713845939528700,1.64852880859375,0.02135748602449894,-0.8762897253036499,-0.5114491581916809
1772713845949502700,1.658502685546875,0.27853840589523315,-1.2366654872894287,-1.1580936908721924
1772713845959476700,1.668476806640625,0.5192245244979858,-1.7605167627334595,-1.5316952466964722
1772713845969450800,1.67845068359375,0.713848888874054,-2.2513911724090576,-1.7153081893920898
1772713845979424800,1.6884248046875,0.8336463570594788,-2.4315688610076904,-1.7609302997589111
1772713845989398800,1.698398681640625,0.9014096856117249,-2.207423686981201,-1.7113646268844604
1772713845999372800,1.708372802734375,0.9423465132713318,-1.729936957359314,-1.6615855693817139
1772713846009346800,1.718346923828125,0.9110894799232483,-1.0570075511932373,-1.653930902481079
1772713846019320800,1.72832080078125,0.7729726433753967,-0.20757663249969482,-1.6462817192077637
1772713846029294800,1.738294921875,0.5570773482322693,0.7306257486343384,-1.6144263744354248
1772713846039268600,1.7482685546875,0.28576356172561646,1.5999126434326172,-1.550559163093567
1772713846049242600,1.75824267578125,0.00017843178648035973,2.3066773414611816,-1.4249424934387207
1772713846059216600,1.768216552734375,-0.19048872590065002,2.711859703063965,-1.1780636310577393
1772713846069190700,1.778190673828125,-0.2402016818523407,2.6502745151519775,-0.792453408241272
1772713846079164700,1.78816455078125,-0.22955569624900818,2.1317501068115234,-0.2923157513141632
1772713846089138700,1.798138671875,-0.2195235639810562,1.4192427396774292,0.20607593655586243
1772713846099112700,1.80811279296875,-0.22815513610839844,0.7611327767372131,0.604388952255249
1772713846109086700,1.818086669921875,-0.18095619976520538,0.2494809329509735,0.8409362435340881
1772713846119060700,1.828060791015625,-0.05959701910614967,-0.04584978148341179,0.9268103837966919
1772713846129034800,1.83803466796875,0.07884980738162994,-0.00020000340009573847,0.8748375177383423
1772713846139008800,1.8480087890625,0.19973094761371613,0.2995890974998474,0.6645109057426453
1772713846148982800,1.857982666015625,0.2928560972213745,0.7727110981941223,0.32750916481018066
1772713846158956800,1.867956787109375,0.36044472455978394,1.3517392873764038,-0.023727700114250183
1772713846168930600,1.8779306640625,0.3917160928249359,1.9753749370574951,-0.33209192752838135
1772713846178904600,1.887904541015625,0.41524699330329895,2.5210745334625244,-0.5774734616279602
1772713846188878600,1.897878662109375,0.4623412787914276,2.8909666538238525,-0.7339107394218445
1772713846198852600,1.9078525390625,0.5151901245117188,3.0553059577941895,-0.7905979752540588
1772713846208826600,1.91782666015625,0.5225247144699097,3.033653974533081,-0.7654851675033569
1772713846218800600,1.927800537109375,0.4616563022136688,2.8148996829986572,-0.660946249961853
1772713846228774700,1.937774658203125,0.35478073358535767,2.424489974975586,-0.47887471318244934
1772713846238748700,1.947748779296875,0.2355470061302185,1.897731065750122,-0.23155200481414795
1772713846248722400,1.957722412109375,0.2320510745048523,1.2972491979599,0.0958879142999649
1772713846258696400,1.967696533203125,0.323675274848938,0.7370482087135315,0.4689565598964691
1772713846268670500,1.97767041015625,0.3924125134944916,0.1842968761920929,0.7352170348167419
1772713846278644500,1.98764453125,0.298501193523407,-0.3579576015472412,0.9690138101577759
1772713846288618500,1.997618408203125,0.18327315151691437,-0.8651933670043945,1.3543883562088013
1772713846298592500,2.007592529296875,-0.11638546735048294,-1.4142903089523315,1.6277791261672974
1772713846308566500,2.01756640625,-0.6919203996658325,-2.2351574897766113,1.4490320682525635
1772713846318540500,2.02754052734375,-1.2011079788208008,-2.893411636352539,0.8213948011398315
1772713846328514600,2.0375146484375,-1.1965241432189941,-2.7854509353637695,-0.13064242899417877
1772713846338488600,2.047488525390625,-0.8471637964248657,-2.045562267303467,-1.231932520866394
1772713846348462600,2.057462646484375,-0.6791039705276489,-0.8230560421943665,-2.3174567222595215
1772713846358436600,2.0674365234375,-0.6922072172164917,0.9310941100120544,-2.989650011062622
1772713846368410600,2.07741064453125,-0.6744961142539978,2.6602673530578613,-2.939239740371704
1772713846378384600,2.087384521484375,-0.3487499952316284,3.604536533355713,-2.0016303062438965
1772713846388358700,2.097358642578125,0.19242431223392487,2.8128035068511963,-0.6301094889640808
1772713846398332700,2.107332763671875,0.4598056674003601,0.9406599402427673,0.7901798486709595
1772713846408306700,2.117306640625,0.32958802580833435,-0.9425272941589355,2.1663661003112793
1772713846418280700,2.12728076171875,0.08888779580593109,-2.2113287448883057,3.213344097137451
1772713846428254700,2.137254638671875,-0.1721094399690628,-2.737177848815918,3.5896503925323486
1772713846438228500,2.147228515625,-0.40013089776039124,-2.6155738830566406,3.31058669090271
1772713846448203500,2.15720361328125,-0.5471368432044983,-2.2182390689849854,2.585092306137085
1772713846458177500,2.167177490234375,-0.6174075603485107,-1.880782961845398,1.6139978170394897
1772713846468151600,2.177151611328125,-0.6694196462631226,-1.7087746858596802,0.6036128997802734
1772713846478125600,2.18712548828125,-0.5862528085708618,-1.7486331462860107,-0.25333133339881897
1772713846488099600,2.197099609375,-0.34225988388061523,-2.0941851139068604,-0.7793834209442139
1772713846498073600,2.207073486328125,-0.04207075387239456,-2.536125898361206,-0.9408066272735596
1772713846508047600,2.217047607421875,0.17780540883541107,-2.667842149734497,-0.8365865349769592
1772713846518021600,2.227021728515625,0.28742486238479614,-2.378654718399048,-0.6152194738388062
1772713846527995600,2.23699560546875,0.23785224556922913,-1.7091422080993652,-0.42338189482688904
1772713846537969700,2.2469697265625,0.10640686750411987,-0.8680461645126343,-0.3672214150428772
1772713846547944000,2.25694384765625,0.1351540982723236,-0.06723709404468536,-0.2892770767211914
1772713846557918000,2.26691796875,0.275485634803772,0.5379582643508911,-0.0810897946357727
1772713846567891700,2.2768916015625,0.44186341762542725,0.8902510404586792,0.21346940100193024
1772713846577865700,2.28686572265625,0.564638614654541,1.0740739107131958,0.5069007277488708
1772713846587839700,2.29683984375,0.6261128783226013,1.1731951236724854,0.7394506335258484
1772713846597813800,2.306813720703125,0.6752578020095825,1.1784982681274414,0.9047341346740723
1772713846607787800,2.316787841796875,0.7009591460227966,1.1077208518981934,0.9981085658073425
1772713846617761800,2.32676171875,0.6797215342521667,0.9906096458435059,1.0089694261550903
1772713846627735800,2.33673583984375,0.5618537664413452,0.8101101517677307,0.9249009490013123
1772713846637709800,2.346709716796875,0.3643611669540405,0.4906935393810272,0.7499762773513794
1772713846647683800,2.356683837890625,0.1663154810667038,0.11384107917547226,0.5452883839607239
1772713846657657900,2.366657958984375,0.0694001168012619,-0.2114536613225937,0.3123230040073395
1772713846667631900,2.3766318359375,0.1212148442864418,-0.41399532556533813,0.08005701750516891
1772713846677606000,2.38660595703125,0.28754308819770813,-0.43142277002334595,-0.1653498113155365
1772713846687580000,2.396579833984375,0.5194740891456604,-0.2591548562049866,-0.4035693109035492
1772713846697554000,2.406553955078125,0.7884677052497864,0.03422188758850098,-0.6640099287033081
1772713846707528000,2.41652783203125,1.0030285120010376,0.2897292971611023,-0.9989650249481201
1772713846717502000,2.426501953125,1.0961480140686035,0.43514055013656616,-1.345887541770935
1772713846727476000,2.43647607421875,1.1253376007080078,0.5339755415916443,-1.5634644031524658
1772713846737450000,2.446449951171875,1.143019199371338,0.499003142118454,-1.5997672080993652
1772713846747424000,2.456424072265625,1.1304978132247925,0.22669865190982819,-1.575861930847168
1772713846757398000,2.46639794921875,1.0593695640563965,-0.06895510107278824,-1.5246615409851074
1772713846767371800,2.476371826171875,0.9360635876655579,-0.09364978969097137,-1.343784213066101
1772713846777345500,2.486345458984375,0.8060299158096313,0.15835821628570557,-1.0481890439987183
1772713846787319600,2.496319580078125,0.71137934923172,0.3743025064468384,-0.7799522876739502
1772713846797293600,2.50629345703125,0.5883705615997314,0.36972159147262573,-0.5454537272453308
1772713846807267600,2.516267578125,0.4448389708995819,0.23196318745613098,-0.274396151304245
1772713846817241600,2.52624169921875,0.2935788929462433,0.14621180295944214,-0.05383286997675896
1772713846827215600,2.536215576171875,0.20661282539367676,0.20557951927185059,0.1289486587047577
1772713846837189600,2.546189697265625,0.22313109040260315,0.4077233076095581,0.2763088345527649
1772713846847163600,2.55616357421875,0.28970080614089966,0.7592490911483765,0.3298327624797821
1772713846857137700,2.5661376953125,0.5454814434051514,0.9985847473144531,0.30054330825805664
1772713846867113000,2.576113037109375,1.0679395198822021,0.7614720463752747,0.19114093482494354
1772713846877087000,2.5860869140625,1.81099271774292,-0.09242048114538193,-0.008883506059646606
1772713846887061000,2.59606103515625,2.60880446434021,-0.9438825845718384,-0.4172009527683258
1772713846897035000,2.606034912109375,3.1452298164367676,-1.1015217304229736,-1.1188956499099731
1772713846907008800,2.6160087890625,3.3502705097198486,-0.7271042466163635,-2.26188588142395
1772713846916982800,2.625982666015625,3.277254343032837,0.12580639123916626,-3.844709873199463
1772713846926956500,2.63595654296875,2.4624078273773193,1.581259846687317,-5.837115287780762
1772713846936930600,2.6459306640625,2.095928192138672,2.7154886722564697,-7.166521072387695
1772713846946904600,2.655904541015625,1.8123050928115845,3.2934439182281494,-7.774314880371094
1772713846956878600,2.665878662109375,1.386000156402588,3.361248254776001,-7.2781572341918945
1772713846966852600,2.6758525390625,1.1101949214935303,2.97058367729187,-5.563971042633057
1772713846976826600,2.68582666015625,0.9831506609916687,2.162234306335449,-3.3142411708831787
1772713846986800600,2.695800537109375,0.9439912438392639,1.4150829315185547,-1.1296721696853638
1772713846996774700,2.705774658203125,0.8265565037727356,0.8901631832122803,0.7995312809944153
1772713847006748700,2.715748779296875,0.6078348159790039,0.32426249980926514,2.317513942718506
1772713847016722700,2.72572265625,0.17717531323432922,-0.3893333673477173,3.1582202911376953
1772713847026696700,2.73569677734375,-0.42153844237327576,-1.2412577867507935,3.4192686080932617
1772713847036670700,2.745670654296875,-0.9138914346694946,-1.9133280515670776,3.27282977104187
1772713847046644700,2.755644775390625,-1.1569868326187134,-2.0877180099487305,2.8479554653167725
1772713847056618800,2.76561865234375,-1.091454267501831,-1.7870665788650513,2.3342580795288086
1772713847066592800,2.7755927734375,-0.8285211324691772,-1.2573007345199585,1.82706880569458
1772713847076566800,2.78556689453125,-0.5486215949058533,-0.56889408826828,1.324292540550232
1772713847086540800,2.795540771484375,-0.25368553400039673,0.03977564349770546,0.8222741484642029
1772713847096514800,2.805514892578125,-0.0726824626326561,0.5737228989601135,0.39904752373695374
1772713847106488800,2.81548876953125,-0.022577481344342232,1.055452585220337,0.12842881679534912
1772713847116462600,2.825462646484375,0.022607041522860527,1.3623275756835938,0.07863009721040726
1772713847126437600,2.835437744140625,0.0634002760052681,1.3650996685028076,0.23278158903121948
1772713847136411600,2.84541162109375,0.04622501879930496,1.1674816608428955,0.4498094916343689
1772713847146385700,2.8553857421875,0.0001323590986430645,0.8729029893875122,0.6487452387809753
1772713847156359700,2.865359619140625,-0.003069559345021844,0.5888534188270569,0.8356583714485168
1772713847166333700,2.875333740234375,0.021558554843068123,0.4080815017223358,0.9339112043380737
1772713847176307700,2.8853076171875,0.0963158831000328,0.3089786171913147,0.9625306129455566
1772713847186281700,2.89528173828125,0.2303285449743271,0.27113351225852966,0.9282887578010559
1772713847196255700,2.905255859375,0.38140034675598145,0.3251490592956543,0.8454375267028809
1772713847206229800,2.915229736328125,0.5232645273208618,0.5204874277114868,0.7596549987792969
1772713847216203800,2.925203857421875,0.6906415820121765,0.7545605897903442,0.64198237657547
1772713847226177800,2.935177734375,0.7980396747589111,0.8043012619018555,0.4706633985042572
1772713847236151800,2.94515185546875,0.8280345797538757,0.557008683681488,0.2963472306728363
1772713847246125800,2.955125732421875,0.7952766418457031,0.1103864312171936,0.1300906240940094
1772713847256099600,2.965099609375,0.6640272736549377,-0.32275116443634033,-0.08108340203762054
1772713847266073600,2.975073486328125,0.5213379859924316,-0.5529130101203918,-0.33881694078445435
1772713847276047600,2.985047607421875,0.41757485270500183,-0.48427826166152954,-0.5861042141914368
1772713847286021600,2.995021728515625,0.3317427933216095,-0.20137572288513184,-0.8443677425384521
1772713847295995600,3.00499560546875,0.23957210779190063,0.15984772145748138,-1.1224066019058228
1772713847305969700,3.0149697265625,0.11932612955570221,0.5180314183235168,-1.3738595247268677
1772713847315943700,3.024943603515625,0.023318372666835785,0.7841441035270691,-1.504438042640686
1772713847325917700,3.034917724609375,-0.008531969040632248,0.8839883804321289,-1.4445286989212036
1772713847335891700,3.0448916015625,0.00691889226436615,0.7844998836517334,-1.1888388395309448
1772713847345865700,3.05486572265625,0.050575558096170425,0.5655427575111389,-0.7712035179138184
1772713847355839700,3.06483984375,0.11615084111690521,0.3663598895072937,-0.30832773447036743
1772713847365814800,3.074814697265625,0.21446223556995392,0.2997875213623047,0.15213893353939056
1772713847375788800,3.084788818359375,0.40808016061782837,0.399332731962204,0.5214219093322754
1772713847385762800,3.0947626953125,0.6196531057357788,0.46545103192329407,0.7374319434165955
1772713847395736600,3.104736572265625,0.7922800183296204,0.3963412046432495,0.6937049627304077
1772713847405710600,3.114710693359375,0.9178169369697571,0.16196946799755096,0.46517327427864075
1772713847415684600,3.1246845703125,0.9856327176094055,-0.39680540561676025,0.09495234489440918
1772713847425658600,3.13465869140625,0.9267534017562866,-1.3121535778045654,-0.48044705390930176
1772713847435632600,3.144632568359375,0.8282327055931091,-2.197688341140747,-0.9649785757064819
1772713847445606700,3.154606689453125,0.7413252592086792,-2.489614963531494,-0.9931020736694336
1772713847455580700,3.16458056640625,0.4639231860637665,-2.0450661182403564,-0.8629922866821289
1772713847465554700,3.1745546875,0.23780617117881775,-1.2380452156066895,-1.0419434309005737
1772713847475528700,3.18452880859375,0.23478081822395325,-0.23261938989162445,-1.412302017211914
1772713847485502700,3.194502685546875,0.30873945355415344,0.6192672252655029,-1.7071059942245483
1772713847495476700,3.204476806640625,0.457307904958725,0.8506999611854553,-1.8241695165634155
1772713847505450800,3.21445068359375,0.5078884959220886,0.5945051908493042,-1.8036519289016724
1772713847515424800,3.2244248046875,0.3285350203514099,0.14374332129955292,-1.58603835105896
1772713847525398800,3.234398681640625,-0.01224308367818594,-0.2908923029899597,-1.1222139596939087
1772713847535372800,3.244372802734375,-0.35928624868392944,-0.6304247975349426,-0.49130234122276306
1772713847545347000,3.25434716796875,-0.4929596483707428,-0.8167132139205933,0.06292303651571274
1772713847555321000,3.264321044921875,-0.3443821370601654,-0.8645105361938477,0.4181565046310425
1772713847565295900,3.2742958984375,-0.14671513438224792,-0.8147293925285339,0.553800642490387
1772713847575270000,3.284269775390625,0.020132165402173996,-0.8673529624938965,0.5585136413574219
1772713847585244000,3.294243896484375,0.07623058557510376,-1.1142029762268066,0.47993969917297363
1772713847595218000,3.304218017578125,0.02106986567378044,-1.453616738319397,0.3503130078315735
1772713847605192000,3.31419189453125,-0.07058575004339218,-1.7479639053344727,0.18620289862155914
1772713847615166000,3.324166015625,-0.16095159947872162,-1.9218674898147583,-0.05146265774965286
1772713847625140000,3.334139892578125,-0.20148704946041107,-1.8912707567214966,-0.292893648147583
1772713847635114000,3.344114013671875,-0.18973158299922943,-1.7195775508880615,-0.458355575799942
1772713847645088000,3.354087890625,-0.11901027709245682,-1.4001047611236572,-0.45675796270370483
1772713847655062000,3.36406201171875,-0.006223274860531092,-1.0655057430267334,-0.28985366225242615
1772713847665036000,3.3740361328125,0.0816330760717392,-0.820622980594635,-0.01847994141280651
1772713847675010000,3.384010009765625,0.06833431869745255,-0.6137648820877075,0.33048656582832336
1772713847684984000,3.393984130859375,0.005423527676612139,-0.43058228492736816,0.7587641477584839
1772713847694958000,3.4039580078125,-0.08820975571870804,-0.31232887506484985,1.183528184890747
1772713847704932000,3.41393212890625,-0.20898623764514923,-0.3036072850227356,1.53365159034729
1772713847714905900,3.42390576171875,-0.34281301498413086,-0.3881821036338806,1.772430419921875
1772713847724880000,3.4338798828125,-0.44544538855552673,-0.48867353796958923,1.8853564262390137
1772713847734854000,3.44385400390625,-0.48128992319107056,-0.5705260634422302,1.86090087890625
1772713847744828000,3.453827880859375,-0.4210604131221771,-0.6500283479690552,1.6995651721954346
1772713847754803000,3.463802978515625,-0.29288753867149353,-0.6101600527763367,1.4185327291488647
1772713847764777000,3.47377685546875,-0.08356839418411255,-0.384608656167984,1.1049436330795288
1772713847774751000,3.4837509765625,0.18640609085559845,-0.022324213758111,0.774669885635376
1772713847784725000,3.49372509765625,0.4966401159763336,0.4310419261455536,0.458021879196167
1772713847794699000,3.503698974609375,0.8368788957595825,0.9074039459228516,0.20881447196006775
1772713847804673000,3.513673095703125,1.1761006116867065,1.2521454095840454,0.02925269305706024
1772713847814647000,3.52364697265625,1.4154818058013916,1.4405860900878906,-0.14040344953536987
1772713847824621000,3.53362109375,1.4983545541763306,1.5095993280410767,-0.29605987668037415
1772713847834595000,3.543594970703125,1.4415664672851562,1.4939537048339844,-0.39519792795181274
1772713847844569000,3.553569091796875,1.311138391494751,1.447956919670105,-0.4679248631000519
1772713847854542800,3.56354296875,1.1748652458190918,1.3599168062210083,-0.49616795778274536
1772713847864516900,3.573516845703125,1.108970046043396,1.2134485244750977,-0.4217650890350342
1772713847874491000,3.583490966796875,1.1099554300308228,1.100493311882019,-0.3065527379512787
1772713847884465000,3.59346484375,1.055970549583435,1.0391374826431274,-0.20283380150794983
1772713847894439000,3.60343896484375,0.8961665034294128,1.0324915647506714,-0.01996918022632599
1772713847904413000,3.613412841796875,0.741127073764801,0.9260247945785522,0.2655022442340851
1772713847914387000,3.623386962890625,0.6285965442657471,0.7604004144668579,0.6004914045333862
1772713847924361000,3.63336083984375,0.5784902572631836,0.6316735744476318,0.9119491577148438
1772713847934335000,3.6433349609375,0.5519489049911499,0.4881015121936798,1.1135584115982056
1772713847944309000,3.65330908203125,0.5495347380638123,0.30963560938835144,1.1591168642044067
1772713847954284000,3.663283935546875,0.5615512132644653,0.011748534627258778,0.9676425457000732
1772713847964258000,3.673258056640625,0.6257099509239197,-0.5963464975357056,0.4249102771282196
1772713847974232000,3.683232177734375,0.6910247802734375,-1.2755883932113647,-0.5508477091789246
1772713847984206000,3.6932060546875,0.5994059443473816,-1.3173365592956543,-1.716482400894165
1772713847994179800,3.703179931640625,0.2140478491783142,-0.49369412660598755,-2.833889961242676
1772713848004153900,3.71315380859375,-0.3248009979724884,0.4848995804786682,-3.7042927742004395
1772713848014127900,3.7231279296875,-0.41090792417526245,1.1331489086151123,-3.9038960933685303
1772713848024102000,3.733101806640625,0.1374417543411255,1.4278231859207153,-3.297740936279297
1772713848034076000,3.743075927734375,0.8206064701080322,1.1412571668624878,-2.174194574356079
1772713848044050000,3.7530498046875,1.115165114402771,0.5880046486854553,-1.0940090417861938
1772713848054024000,3.76302392578125,0.9750975370407104,0.16191193461418152,-0.3199804127216339
1772713848063998000,3.772998046875,0.5206783413887024,-0.15073437988758087,0.2190157026052475
1772713848073972000,3.782971923828125,-0.016157664358615875,-0.46952754259109497,0.5732012391090393
1772713848083946000,3.792946044921875,-0.35605213046073914,-0.7129231691360474,0.830927312374115
1772713848093920000,3.802919921875,-0.5049859285354614,-0.6330376267433167,1.0620359182357788
1772713848103894000,3.81289404296875,-0.5930196642875671,-0.3550635576248169,1.2804723978042603
1772713848113869000,3.822869140625,-0.6369391679763794,-0.18622393906116486,1.4768266677856445
1772713848123843000,3.832843017578125,-0.6693735718727112,-0.16563956439495087,1.7367397546768188
1772713848133816800,3.84281689453125,-0.6935433149337769,-0.30785608291625977,2.032888650894165
1772713848143790800,3.852790771484375,-0.7220418453216553,-0.4671402871608734,2.1727938652038574
1772713848153764900,3.862764892578125,-0.7817254066467285,-0.4441385567188263,2.0930583477020264
1772713848163739000,3.87273876953125,-0.8288047313690186,-0.22206422686576843,1.9640703201293945
1772713848173713000,3.882712890625,-0.9180627465248108,0.11872585117816925,1.949733018875122
1772713848183687000,3.89268701171875,-0.945252001285553,0.3890276551246643,2.095106840133667
1772713848193661000,3.902660888671875,-0.9252391457557678,0.3806767761707306,2.257120132446289
1772713848203635000,3.912635009765625,-0.9914980530738831,0.23391716182231903,2.315598726272583
1772713848213609000,3.92260888671875,-1.1537889242172241,0.1209394708275795,2.266200065612793
1772713848223583000,3.9325830078125,-1.3328546285629272,0.12124813348054886,2.1404786109924316
1772713848233557000,3.942556884765625,-1.4724665880203247,0.2683403789997101,1.912186622619629
1772713848243531000,3.952531005859375,-1.5288227796554565,0.5913386940956116,1.6358003616333008
1772713848253505000,3.962505126953125,-1.405569314956665,0.8820301294326782,1.374878168106079
1772713848263479000,3.97247900390625,-1.129206657409668,1.0200202465057373,1.1832962036132812
1772713848273453800,3.982453857421875,-0.844382643699646,1.083323359489441,1.1116846799850464
1772713848283427800,3.992427734375,-0.6057224273681641,1.1370675563812256,1.1637356281280518
1772713848293401900,4.00240185546875,-0.3536190688610077,1.1541738510131836,1.2919013500213623
1772713848303376000,4.0123759765625,-0.22211721539497375,1.0056806802749634,1.4372867345809937
1772713848313350000,4.022349853515625,-0.1721390038728714,0.812394917011261,1.646317958831787
1772713848323324000,4.032323974609375,-0.186664417386055,0.5632457733154297,1.886703372001648
1772713848333298000,4.0422978515625,-0.24306803941726685,0.2995225191116333,2.171299695968628
1772713848343272000,4.05227197265625,-0.2953440248966217,0.02358655259013176,2.4230029582977295
1772713848353246000,4.062245849609375,-0.3580867648124695,-0.35198548436164856,2.533853054046631
1772713848363220000,4.072219970703125,-0.4381296634674072,-0.7704783082008362,2.4517884254455566
1772713848373194000,4.082194091796875,-0.592576265335083,-1.0923397541046143,2.011005163192749
1772713848383168000,4.09216796875,-0.7795628905296326,-1.404821753501892,1.2743809223175049
1772713848393142000,4.10214208984375,-0.8731898069381714,-1.7947611808776855,0.46358975768089294
1772713848403116000,4.112115966796875,-0.9189543724060059,-2.1161913871765137,-0.33964332938194275
1772713848413090000,4.122090087890625,-0.9646259546279907,-2.256321430206299,-1.1464594602584839
1772713848423064000,4.13206396484375,-1.0483192205429077,-2.13110089302063,-1.6305989027023315
1772713848433038000,4.1420380859375,-1.0959464311599731,-2.025984764099121,-1.8051925897598267
1772713848443012000,4.15201220703125,-0.8945339918136597,-2.3808467388153076,-1.9427217245101929
1772713848452987000,4.16198681640625,-0.5702757239341736,-3.1853997707366943,-1.9480317831039429
1772713848462961000,4.1719609375,-0.31683361530303955,-4.189316272735596,-1.8239612579345703
1772713848472935000,4.181934814453125,-0.33687177300453186,-4.624626636505127,-1.757803201675415
1772713848482909000,4.191908935546875,-0.3663542866706848,-4.382061958312988,-1.799727439880371
1772713848492883000,4.201883056640625,-0.22051027417182922,-3.763903856277466,-1.873075246810913
1772713848502857000,4.21185693359375,0.04562074691057205,-3.1320390701293945,-2.117946147918701
1772713848512831000,4.2218310546875,0.4352598488330841,-2.576111316680908,-2.571488618850708
1772713848522805000,4.231804931640625,0.9206710457801819,-2.0985350608825684,-3.0521228313446045
1772713848532779000,4.241779052734375,1.435556411743164,-1.4490160942077637,-3.197385549545288
1772713848542753000,4.2517529296875,1.725356101989746,-0.48342710733413696,-2.8242135047912598
1772713848552727000,4.26172705078125,1.842616081237793,0.33530768752098083,-2.326413154602051
1772713848562701000,4.271701171875,1.8644065856933594,0.6385213732719421,-2.1894280910491943
1772713848572675000,4.281675048828125,1.8450614213943481,0.8660773038864136,-1.9986799955368042
1772713848582649900,4.29164990234375,1.8601641654968262,1.0024726390838623,-1.761904001235962
1772713848592623900,4.301623779296875,1.9045244455337524,1.1972309350967407,-1.5781261920928955
1772713848602598000,4.311597900390625,1.8424211740493774,1.3724099397659302,-1.361588716506958
1772713848612572000,4.321572021484375,1.478958249092102,1.2619543075561523,-1.0882855653762817
1772713848622546000,4.3315458984375,0.7448930740356445,0.8932875990867615,-0.5837143063545227
1772713848632520000,4.34152001953125,0.008468586020171642,0.31900620460510254,0.1532990038394928
1772713848642494000,4.351493896484375,-0.5147362947463989,-0.2723154127597809,0.8119485378265381
1772713848652468000,4.361468017578125,-0.7942041754722595,-0.5922835469245911,1.1799060106277466
1772713848662442000,4.37144189453125,-0.829890251159668,-0.511438250541687,1.1671819686889648
1772713848672416000,4.381416015625,-0.6611382365226746,-0.05564728379249573,0.8861634135246277
1772713848682390000,4.39139013671875,-0.37189286947250366,0.576365053653717,0.4844745397567749
1772713848692364000,4.401364013671875,-0.09609084576368332,1.1683977842330933,0.03177683800458908
1772713848702338000,4.411338134765625,0.05523848906159401,1.5369411706924438,-0.3708222806453705
1772713848712312000,4.42131201171875,0.10357725620269775,1.714624285697937,-0.608349621295929
1772713848722286800,4.431286865234375,0.07069840282201767,1.7575278282165527,-0.6479279398918152
1772713848732260900,4.4412607421875,0.0008527441532351077,1.7213575839996338,-0.5007051825523376
1772713848742235000,4.45123486328125,-0.05951845273375511,1.617491602897644,-0.290018767118454
1772713848752209000,4.461208984375,-0.09229690581560135,1.5151197910308838,-0.08113027364015579
1772713848762183000,4.471182861328125,-0.06958360224962234,1.3886460065841675,0.14213158190250397
1772713848772157000,4.481156982421875,0.003117762738838792,1.2709730863571167,0.45722880959510803
1772713848782131000,4.491130859375,0.022773755714297295,1.171480655670166,0.7792789936065674
1772713848792105000,4.50110498046875,-0.1513112187385559,0.9996020793914795,1.0203933715820312
1772713848802079000,4.511078857421875,-0.4710828363895416,0.7742480635643005,1.2552692890167236
1772713848812053000,4.521052978515625,-0.7819613218307495,0.3842256963253021,1.4990252256393433
1772713848822027000,4.531027099609375,-1.0726022720336914,-0.07650462538003922,1.7389874458312988
1772713848832001000,4.5410009765625,-1.2283399105072021,-0.4761494994163513,1.930405855178833
1772713848841975000,4.55097509765625,-1.221331000328064,-0.7602880001068115,1.9955826997756958
1772713848851949000,4.560948974609375,-1.0786728858947754,-0.7765465974807739,1.9172769784927368
1772713848861923800,4.570923828125,-0.8063146471977234,-0.3691175878047943,1.7360049486160278
1772713848871897900,4.58089794921875,-0.42558377981185913,0.34836331009864807,1.4593377113342285
1772713848881872000,4.590871826171875,0.019399797543883324,1.235975980758667,1.1243871450424194
1772713848891846000,4.600845947265625,0.37919819355010986,2.1148481369018555,0.7256655693054199
1772713848901820000,4.61081982421875,0.45661813020706177,2.720682382583618,0.20120660960674286
1772713848911794000,4.6207939453125,0.3544454276561737,3.0842795372009277,-0.3001451790332794
1772713848921768000,4.630767822265625,0.2947799861431122,3.26069974899292,-0.5654916167259216
1772713848931742000,4.640741943359375,0.3298189043998718,3.1757843494415283,-0.5680458545684814
1772713848941716000,4.650716064453125,0.34449905157089233,2.8896045684814453,-0.4582487940788269
1772713848951690000,4.66068994140625,0.39230120182037354,2.4154229164123535,-0.17356619238853455
1772713848961664000,4.6706640625,0.35052525997161865,1.8103053569793701,0.21880212426185608
1772713848971638000,4.680637939453125,0.2533062994480133,1.3206692934036255,0.6748085021972656
1772713848981612000,4.690612060546875,0.11466053873300552,1.000610113143921,1.105350375175476
1772713848991586000,4.7005859375,0.002425074577331543,0.7078564763069153,1.4247006177902222
1772713849001560800,4.710560791015625,-0.0941600576043129,0.31537607312202454,1.5717518329620361
1772713849011534800,4.720534912109375,-0.13635730743408203,-0.06517767161130905,1.4534672498703003
1772713849021508900,4.7305087890625,0.00848669558763504,-0.22375719249248505,1.2029099464416504
1772713849031483000,4.74048291015625,0.2835068106651306,-0.20616409182548523,0.907518744468689
1772713849041457000,4.750456787109375,0.5077385902404785,-0.14464852213859558,0.4812723398208618
1772713849051431000,4.760430908203125,0.6252508163452148,-0.26804476976394653,-0.10167229920625687
1772713849061405000,4.770405029296875,0.70631343126297,-0.819504976272583,-0.7824380397796631
1772713849071379000,4.78037890625,0.7621902823448181,-1.6999497413635254,-1.415677547454834
1772713849081353000,4.79035302734375,0.7464699149131775,-2.3995046615600586,-2.1040375232696533
1772713849091327000,4.800326904296875,0.5693833231925964,-2.2087597846984863,-2.9648854732513428
1772713849101301000,4.810301025390625,0.22952693700790405,-1.0771170854568481,-3.8930740356445312
1772713849111275000,4.82027490234375,0.19151164591312408,0.4940944015979767,-4.431489944458008
1772713849121249000,4.8302490234375,0.6133110523223877,1.6507055759429932,-4.264767169952393
1772713849131223800,4.840223876953125,1.1469329595565796,1.654930591583252,-3.690636396408081
1772713849141197800,4.85019775390625,1.2941356897354126,0.8487840294837952,-2.937762975692749
1772713849151171800,4.860171875,0.9803202152252197,-0.21934567391872406,-2.124778985977173
1772713849161145900,4.870145751953125,0.7182393670082092,-1.0302015542984009,-1.272310495376587
1772713849171119900,4.880119873046875,0.7771178483963013,-1.3900984525680542,-0.49457430839538574
1772713849181094000,4.890093994140625,0.9104993343353271,-1.5629926919937134,0.11435507237911224
1772713849191068000,4.90006787109375,0.9953622817993164,-1.7011109590530396,0.5698229670524597
1772713849201042000,4.9100419921875,0.9096591472625732,-1.7302964925765991,0.9570543169975281
1772713849211016000,4.920015869140625,0.7061105370521545,-1.768633484840393,1.1978727579116821
1772713849220990000,4.929989990234375,0.5313773155212402,-1.8068522214889526,1.2918978929519653
1772713849230965200,4.93996533203125,0.4020787179470062,-1.7056676149368286,1.435187578201294
1772713849240939300,4.949939208984375,0.38800713419914246,-1.5603420734405518,1.6069679260253906
1772713849250913000,4.9599130859375,0.3949529230594635,-1.5043946504592896,1.7110956907272339
1772713849260886800,4.96988671875,0.3273421823978424,-1.4069106578826904,1.7872951030731201
1772713849270860800,4.97986083984375,0.3003736734390259,-1.227769136428833,1.8950660228729248
1772713849280834800,4.989834716796875,0.2913444936275482,-0.9947394132614136,1.9050509929656982
1772713849290808800,4.999808837890625,0.25666719675064087,-0.7497304677963257,1.8289018869400024
1772713849300782800,5.009782958984375,0.22039441764354706,-0.518233060836792,1.7261568307876587
1772713849310756900,5.0197568359375,0.1291220337152481,-0.3128945231437683,1.5641131401062012
1772713849320731000,5.02973095703125,-0.0166732519865036,-0.07344279438257217,1.3157837390899658
1772713849330705000,5.039704833984375,-0.18225182592868805,0.32180172204971313,1.0532362461090088
1772713849340679000,5.049678955078125,-0.3017827570438385,0.8466825485229492,0.7586549520492554
1772713849350653000,5.05965283203125,-0.32877016067504883,1.3114569187164307,0.4580221474170685
1772713849360628200,5.069628173828125,-0.2937237620353699,1.5045973062515259,0.3227037489414215
1772713849370602200,5.079602294921875,-0.19064557552337646,1.2862812280654907,0.38430559635162354
1772713849380576300,5.089576171875,-0.06915830075740814,0.7314566373825073,0.5108312964439392
1772713849390550000,5.099550048828125,0.04513924941420555,0.15288382768630981,0.6093445420265198
1772713849400524000,5.10952392578125,0.10501376539468765,-0.18482071161270142,0.5907189249992371
1772713849410497800,5.119497802734375,0.11302109062671661,-0.14345969259738922,0.39442721009254456
1772713849420471800,5.129471923828125,0.10146430879831314,0.25810104608535767,-0.03526424616575241
1772713849430445800,5.13944580078125,0.21037401258945465,0.885017454624176,-0.4849403202533722
1772713849440419800,5.149419921875,0.5368461608886719,1.4347447156906128,-0.7828249931335449
1772713849450393900,5.159393798828125,0.7459572553634644,1.7296533584594727,-1.037758469581604
1772713849460368000,5.169367919921875,0.7632861733436584,1.8021190166473389,-1.1965500116348267
1772713849470342000,5.179341796875,0.6983959078788757,1.7475359439849854,-1.1616634130477905
1772713849480317200,5.189317138671875,0.5351219773292542,1.6548962593078613,-0.9997727870941162
1772713849490291200,5.199291259765625,0.318258136510849,1.6203439235687256,-0.7898725271224976
1772713849500265200,5.20926513671875,0.17947602272033691,1.5996674299240112,-0.6365660429000854
1772713849510239200,5.2192392578125,0.12264735251665115,1.5248703956604004,-0.5993300080299377
1772713849520213200,5.229213134765625,0.07449154555797577,1.2906358242034912,-0.6265427470207214
1772713849530187000,5.23918701171875,0.08552581816911697,0.8618077039718628,-0.4928824007511139
1772713849540161000,5.2491611328125,0.15849563479423523,0.33356785774230957,-0.22632580995559692
1772713849550135000,5.259135009765625,0.18391790986061096,0.01005183532834053,0.028565065935254097
1772713849560109000,5.269109130859375,0.055928777903318405,0.028365328907966614,0.22204957902431488
1772713849570083000,5.2790830078125,-0.10940052568912506,0.09727834910154343,0.28136056661605835
1772713849580056800,5.289056884765625,-0.06594385951757431,0.04060894623398781,0.15736033022403717
1772713849590030800,5.29903076171875,0.05438574403524399,-0.09614144265651703,-0.11884675920009613
1772713849600006100,5.309006103515625,0.08142801374197006,-0.3502424359321594,-0.5777000784873962
1772713849609977000,5.31897705078125,0.03498062118887901,-0.615892231464386,-1.1582859754562378
1772713849619951000,5.328951171875,-0.07653898000717163,-0.759203314781189,-1.775051236152649
1772713849629925000,5.338925048828125,-0.298941433429718,-0.8575826287269592,-2.3744475841522217
1772713849639900000,5.34889990234375,-0.3486727774143219,-0.882265031337738,-2.5674707889556885
1772713849649874000,5.3588740234375,-0.41683077812194824,-0.6229866147041321,-2.557701587677002
1772713849659848000,5.368847900390625,-0.1132218986749649,0.029804235324263573,-2.570211410522461
1772713849669822000,5.378822021484375,0.6713424324989319,0.758836567401886,-2.464385509490967
1772713849679796000,5.3887958984375,1.1747366189956665,1.0621064901351929,-2.2974395751953125
1772713849689770000,5.39877001953125,1.0710954666137695,0.8704259395599365,-1.5945348739624023
1772713849699744000,5.408743896484375,0.5856272578239441,0.11435187608003616,-0.31775638461112976
1772713849709718000,5.418718017578125,0.12905225157737732,-0.8396121263504028,0.9730921387672424
1772713849719692000,5.428692138671875,-0.13948360085487366,-1.4556944370269775,1.870632290840149
1772713849729666000,5.438666015625,-0.30178701877593994,-1.8425252437591553,2.4080874919891357
1772713849739640800,5.448640869140625,-0.42199277877807617,-2.2124640941619873,2.715132236480713
1772713849749614800,5.45861474609375,-0.5140601396560669,-2.515439510345459,2.8777101039886475
1772713849759588900,5.4685888671875,-0.6170828938484192,-2.639087200164795,2.8792099952697754
1772713849769563000,5.47856298828125,-0.6779683828353882,-2.5730419158935547,2.759938955307007
1772713849779537000,5.488536865234375,-0.6957303285598755,-2.3643317222595215,2.5105957984924316
1772713849789511000,5.498510986328125,-0.6941284537315369,-2.2028443813323975,2.094339370727539
1772713849799485000,5.50848486328125,-0.5961787104606628,-2.0751402378082275,1.662461280822754
1772713849809459000,5.518458984375,-0.45487189292907715,-1.8867555856704712,1.2626843452453613
1772713849819433000,5.528432861328125,-0.3966330885887146,-1.5143479108810425,0.9328046441078186
1772713849829407000,5.538406982421875,-0.4108186960220337,-0.95182865858078,0.7172630429267883
1772713849839381000,5.548381103515625,-0.44809576869010925,-0.3106582760810852,0.5778518915176392
1772713849849356000,5.55835595703125,-0.47518864274024963,0.26370248198509216,0.5231292843818665
1772713849859330000,5.568330078125,-0.43268725275993347,0.633457362651825,0.5012889504432678
1772713849869304000,5.578303955078125,-0.3660717308521271,0.7924200892448425,0.5624223351478577
1772713849879277800,5.58827783203125,-0.3140125274658203,0.8397690057754517,0.7173410654067993
1772713849889251800,5.598251953125,-0.2500556409358978,0.7698487639427185,0.8818594217300415
1772713849899225900,5.608225830078125,-0.2452068328857422,0.6285488605499268,1.0286779403686523
1772713849909200000,5.618199951171875,-0.3124966621398926,0.45473527908325195,1.142660140991211
1772713849919174000,5.628173828125,-0.2798255383968353,0.20116613805294037,1.153113603591919
1772713849929148000,5.63814794921875,-0.08820363134145737,-0.035595811903476715,1.0003328323364258
1772713849939122000,5.648121826171875,0.10372213274240494,-0.06764562427997589,0.6566369533538818
1772713849949097000,5.658096923828125,0.2663011848926544,0.18747162818908691,0.16147278249263763
1772713849959071000,5.668071044921875,0.4080093204975128,0.5773637294769287,-0.39824989438056946
1772713849969045000,5.678044921875,0.5258145332336426,0.9844865202903748,-0.8775070309638977
1772713849979019000,5.68801904296875,0.6673005223274231,1.37863028049469,-1.2228106260299683
1772713849988993000,5.697992919921875,0.8149139881134033,1.7000304460525513,-1.5178250074386597
1772713849998967000,5.707967041015625,0.8921269774436951,1.9544848203659058,-1.7482123374938965
1772713850008941000,5.717941162109375,0.8131962418556213,2.105093002319336,-1.9026960134506226
1772713850018914800,5.727914794921875,0.536773681640625,2.040461778640747,-2.0083048343658447
1772713850028888800,5.737888916015625,0.14289590716362,1.7913914918899536,-2.0734176635742188
1772713850038862800,5.74786279296875,-0.23104892671108246,1.4980816841125488,-2.0495357513427734
1772713850048836900,5.7578369140625,-0.45954495668411255,1.2610783576965332,-1.9274513721466064
1772713850058812200,5.767812255859375,-0.5404049158096313,1.0375694036483765,-1.7446839809417725
1772713850068786000,5.777785888671875,-0.49687662720680237,0.7814021110534668,-1.5321831703186035
1772713850078760000,5.787760009765625,-0.4019719362258911,0.6032240986824036,-1.2370260953903198
1772713850088734000,5.79773388671875,-0.2552008628845215,0.4538535177707672,-0.7912136912345886
1772713850098708000,5.8077080078125,-0.15189605951309204,0.2980644404888153,-0.26709747314453125
1772713850108682000,5.817681884765625,-0.0782412737607956,0.20164737105369568,0.20301303267478943
1772713850118656000,5.827656005859375,-0.08363603800535202,0.15087765455245972,0.5182719230651855
1772713850128630000,5.837630126953125,0.017526263371109962,-0.09468070417642593,0.5832234621047974
1772713850138604000,5.84760400390625,0.16911259293556213,-0.6123741865158081,0.434071809053421
1772713850148578000,5.857578125,0.10804231464862823,-1.2604727745056152,0.11333374679088593
1772713850158553000,5.867552978515625,-0.012237224727869034,-1.8291966915130615,-0.3468490242958069
1772713850168527000,5.877527099609375,-0.10081209987401962,-2.231111764907837,-0.8177241683006287
1772713850178501000,5.887501220703125,-0.30877408385276794,-2.2972521781921387,-1.4825053215026855
1772713850188475100,5.89747509765625,-0.7462280988693237,-1.8075801134109497,-2.227191925048828
1772713850198449200,5.90744921875,-0.9540532231330872,-0.6936994194984436,-2.5456860065460205
1772713850208423200,5.917423095703125,-0.7251694202423096,0.5193126797676086,-2.404932975769043
1772713850218397200,5.927397216796875,-0.20674651861190796,1.2497048377990723,-1.8570301532745361
1772713850228371000,5.937370849609375,0.2395840883255005,1.0860261917114258,-1.178655743598938
1772713850238345000,5.947344970703125,0.309293657541275,0.20840886235237122,-0.6336991786956787
1772713850248320000,5.957320068359375,0.05194442346692085,-0.9465383291244507,-0.2582824230194092
1772713850258294000,5.9672939453125,-0.2989009618759155,-1.7768610715866089,-0.028712071478366852
1772713850268269000,5.97726904296875,-0.5356106758117676,-1.8171442747116089,0.21584734320640564
1772713850278243000,5.9872431640625,-0.6542121767997742,-1.2674471139907837,0.6191409826278687
1772713850288217000,5.997217041015625,-0.7004308104515076,-0.7144134640693665,1.1534864902496338
1772713850298191000,6.007191162109375,-0.7484294772148132,-0.5991654396057129,1.7303258180618286
1772713850308165000,6.0171650390625,-0.8673321604728699,-0.9731664657592773,2.208102226257324
1772713850318139100,6.02713916015625,-1.115679383277893,-1.6220030784606934,2.468564510345459
1772713850328113200,6.037113037109375,-1.403193473815918,-2.0390806198120117,2.6036465167999268
1772713850338087200,6.047087158203125,-1.6184786558151245,-1.888182282447815,2.613583564758301
1772713850348061200,6.057061279296875,-1.6805648803710938,-1.2537659406661987,2.3792202472686768
1772713850358036000,6.067035888671875,-1.5162183046340942,-0.33320778608322144,1.930699110031128
1772713850368010000,6.077010009765625,-1.2291638851165771,0.7217496633529663,1.4392651319503784
1772713850377984000,6.08698388671875,-0.8822786211967468,1.6604615449905396,1.0762182474136353
1772713850387958000,6.0969580078125,-0.5310484170913696,2.2277204990386963,0.8882443904876709
1772713850397932000,6.10693212890625,-0.2783607840538025,2.3939247131347656,0.8993731737136841
1772713850407906000,6.116906005859375,-0.2383478581905365,2.214491128921509,1.0165163278579712
1772713850417880000,6.126880126953125,-0.43807029724121094,1.7775458097457886,1.0813560485839844
1772713850427854000,6.13685400390625,-0.7241110801696777,1.1865307092666626,1.0229805707931519
1772713850437828000,6.146828125,-0.9511293172836304,0.6533847451210022,0.8846099376678467
1772713850447803100,6.15680322265625,-1.005468726158142,0.1891195923089981,0.7062000036239624
1772713850457777000,6.16677685546875,-0.9609627723693848,-0.08001281321048737,0.4512758255004883
1772713850467751000,6.1767509765625,-0.8353862166404724,-0.07274371385574341,0.12915851175785065
1772713850477725000,6.186724853515625,-0.6648813486099243,0.17204952239990234,-0.2813267409801483
1772713850487699000,6.196698974609375,-0.5698163509368896,0.5579684376716614,-0.7424192428588867
1772713850497673000,6.2066728515625,-0.5334652662277222,0.8983614444732666,-1.1664270162582397
1772713850507647000,6.21664697265625,-0.5477344393730164,1.1927763223648071,-1.3898662328720093
1772713850517621000,6.22662109375,-0.5823358297348022,1.334028720855713,-1.3169046640396118
1772713850527595000,6.236594970703125,-0.6586306095123291,1.2006698846817017,-1.0669262409210205
1772713850537570000,6.246570068359375,-0.780417799949646,0.9622097015380859,-0.7271537780761719
1772713850547544000,6.2565439453125,-0.8142087459564209,0.6638914346694946,-0.23658351600170135
1772713850557517800,6.266517822265625,-0.7065419554710388,0.22033530473709106,0.25549036264419556
1772713850567491800,6.276491943359375,-0.5860323309898376,-0.16259077191352844,0.6463339924812317
1772713850577465900,6.2864658203125,-0.5010324716567993,-0.2695920467376709,0.9729544520378113
1772713850587439900,6.29643994140625,-0.46172794699668884,-0.21985726058483124,1.1565754413604736
1772713850597414000,6.306413818359375,-0.5137059092521667,0.00896872766315937,1.1702576875686646
1772713850607388000,6.316387939453125,-0.6314027309417725,0.370409220457077,1.1013249158859253
1772713850617361700,6.326361572265625,-0.7792148590087891,0.7693225145339966,1.0723249912261963
1772713850627335700,6.336335693359375,-0.854991614818573,1.102975845336914,1.1680898666381836
1772713850637310700,6.346310791015625,-0.9243086576461792,1.4113624095916748,1.3674815893173218
1772713850647284700,6.35628466796875,-0.9925665259361267,1.661943793296814,1.6551858186721802
1772713850657258800,6.3662587890625,-0.9310059547424316,1.6885162591934204,1.990304946899414
1772713850667232800,6.376232666015625,-0.8621075749397278,1.3299129009246826,2.0995664596557617
1772713850677206800,6.386206787109375,-0.8603917360305786,0.5370432138442993,1.9776599407196045
1772713850687180800,6.396180908203125,-0.9019058346748352,-0.4804110825061798,1.7507109642028809
1772713850697154800,6.40615478515625,-1.0346239805221558,-1.3215875625610352,1.5227233171463013
1772713850707128800,6.41612890625,-1.0293924808502197,-1.6559559106826782,1.3282968997955322
1772713850717102800,6.426102783203125,-0.8138505816459656,-1.242485523223877,1.3049299716949463
1772713850727077600,6.43607763671875,-0.5702672004699707,-0.8657265305519104,1.539188265800476
1772713850737051600,6.4460517578125,-0.3086864650249481,-0.7149950861930847,0.8862512707710266
1772713850747025700,6.456025634765625,-0.21454373002052307,-0.6955295205116272,-0.4293939769268036
1772713850756999700,6.465999755859375,-0.14035604894161224,-0.5286793112754822,-1.6344506740570068
1772713850766973700,6.4759736328125,0.1258002668619156,-0.19856210052967072,-2.342931032180786
1772713850776947700,6.48594775390625,0.4280882179737091,-0.00033955302205868065,-2.693554162979126
1772713850786921700,6.495921630859375,0.5567703247070312,0.16926945745944977,-2.6684131622314453
1772713850796895700,6.505895751953125,0.55604487657547,0.18475040793418884,-2.317753553390503
1772713850806870800,6.515870849609375,0.8728696703910828,0.7257025837898254,-2.2581536769866943
1772713850816844800,6.5258447265625,0.8294526934623718,1.0751402378082275,-2.2875592708587646
1772713850826818800,6.53581884765625,0.19209247827529907,0.7028878331184387,-1.181881070137024
1772713850836792800,6.545792724609375,-0.5238067507743835,-0.597801923751831,-0.3582737147808075
1772713850846766600,6.5557666015625,-0.4512481391429901,-1.6995292901992798,0.2615272104740143
1772713850856740600,6.56574072265625,-0.2175738662481308,-1.7866321802139282,0.37683701515197754
1772713850866714600,6.575714599609375,-0.047823715955019,-1.5331679582595825,0.26358291506767273
1772713850876688600,6.585688720703125,0.033304959535598755,-1.1120744943618774,-0.2149897962808609
1772713850886662700,6.59566259765625,0.03223543241620064,-0.3086355924606323,-0.8208250999450684
1772713850896638000,6.605637939453125,0.05426030978560448,0.20121939480304718,-1.3187299966812134
1772713850906612000,6.615612060546875,0.0324396975338459,0.4132397770881653,-1.6644303798675537
1772713850916586000,6.6255859375,-0.019396068528294563,0.29203346371650696,-1.944460391998291
1772713850926560000,6.63556005859375,-0.10445130616426468,0.24660205841064453,-2.022930860519409
1772713850936534000,6.645533935546875,-0.11812930554151535,0.2816535234451294,-1.9548180103302002
1772713850946508000,6.655508056640625,-0.062298793345689774,0.4063912034034729,-1.6641587018966675
1772713850956482000,6.66548193359375,-0.014604508876800537,0.44906380772590637,-1.2231563329696655
1772713850966455800,6.675455810546875,-0.032156072556972504,0.4741766154766083,-0.7583966255187988
1772713850976430800,6.685430908203125,0.018157964572310448,0.4800209403038025,-0.32087576389312744
1772713850986404900,6.69540478515625,0.0978594496846199,0.43628251552581787,-0.03407567739486694
1772713850996379000,6.70537890625,0.06500323116779327,0.30808964371681213,0.13886280357837677
1772713851006353000,6.715352783203125,-0.012071310542523861,0.020294353365898132,0.25630155205726624
1772713851016327000,6.725326904296875,-0.057669419795274734,-0.26845088601112366,0.31060901284217834
1772713851026301000,6.735301025390625,-0.08517268300056458,-0.44802039861679077,0.3511199355125427
1772713851036275000,6.74527490234375,-0.13027384877204895,-0.5414329171180725,0.38316255807876587
1772713851046249000,6.7552490234375,-0.15259221196174622,-0.5995984673500061,0.447893887758255
1772713851056223000,6.765222900390625,-0.12315148860216141,-0.7277183532714844,0.5201795101165771
1772713851066197800,6.77519775390625,-0.014326474629342556,-0.9405137300491333,0.5654937624931335
1772713851076171800,6.785171875,0.08333377540111542,-1.1038626432418823,0.48707377910614014
1772713851086145800,6.795145751953125,0.13828144967556,-1.2145458459854126,0.24012897908687592
1772713851096119800,6.805119873046875,0.1727033257484436,-1.3990882635116577,-0.04307742789387703
1772713851106093800,6.81509375,0.1852947622537613,-1.5117348432540894,-0.34539440274238586
1772713851116067800,6.82506787109375,0.2583226263523102,-1.4691112041473389,-0.6821788549423218
1772713851126041900,6.835041748046875,0.4064633548259735,-1.24868643283844,-0.9873446226119995
1772713851136016000,6.845015869140625,0.5661664605140686,-0.8164753913879395,-1.2322558164596558
1772713851145991000,6.854990966796875,0.6685993671417236,-0.26454856991767883,-1.4298464059829712
1772713851155965000,6.86496484375,0.6724686622619629,0.2529611587524414,-1.5710868835449219
1772713851165939000,6.87493896484375,0.6250953078269958,0.6105427145957947,-1.5210835933685303
1772713851175913000,6.884912841796875,0.595940351486206,0.78863924741745,-1.179785966873169
1772713851185887000,6.894886962890625,0.5451621413230896,0.7067329287528992,-0.6380635499954224
1772713851195860700,6.90486083984375,0.3944101631641388,0.3349188566207886,-0.09446525573730469
1772713851205834800,6.914834716796875,0.2040250301361084,-0.12535712122917175,0.367387056350708
1772713851215808800,6.924808837890625,0.05533755570650101,-0.5429298877716064,0.7163951396942139
1772713851225783800,6.93478369140625,-0.07739545404911041,-0.9675168395042419,0.8683590888977051
1772713851235757800,6.9447578125,-0.17127640545368195,-1.10977303981781,0.8653955459594727
1772713851245731800,6.95473193359375,-0.18942531943321228,-0.962132453918457,0.6889523267745972
1772713851255705900,6.964705810546875,-0.19892215728759766,-0.6974451541900635,0.3488040566444397
1772713851265680000,6.974679931640625,-0.24572055041790009,-0.36766085028648376,0.02293301187455654
1772713851275654000,6.98465380859375,-0.3057343661785126,-0.2088586688041687,-0.3617329001426697
1772713851285628000,6.9946279296875,-0.2847023010253906,-0.07473921775817871,-0.7750243544578552
1772713851295602000,7.004601806640625,-0.17962008714675903,0.055390287190675735,-1.1384155750274658
1772713851305576000,7.014575927734375,-0.0353848896920681,0.18562792241573334,-1.3436825275421143
1772713851315550700,7.02455078125,0.11615829914808273,0.2359539419412613,-1.2734168767929077
1772713851325524700,7.034524658203125,0.2257481813430786,0.03923502191901207,-0.9268367886543274
1772713851335498800,7.044498779296875,0.3115834593772888,-0.2901844084262848,-0.37402740120887756
1772713851345472800,7.05447265625,0.3657073974609375,-0.586371898651123,0.19909152388572693
1772713851355446800,7.06444677734375,0.40190988779067993,-0.789691686630249,0.7454385161399841
1772713851365420800,7.0744208984375,0.38402384519577026,-0.7720999121665955,0.9062982201576233
1772713851375394800,7.084394775390625,0.3042411208152771,-0.4310818910598755,0.6948248744010925
1772713851385368800,7.094368896484375,0.18414373695850372,0.030608508735895157,0.23847515881061554
1772713851395344000,7.10434375,0.03941664844751358,0.3497343063354492,-0.18142598867416382
1772713851405318000,7.11431787109375,-0.09469029307365417,0.46374714374542236,-0.28801316022872925
1772713851415292000,7.1242919921875,-0.16810324788093567,0.3888539969921112,-0.10543081909418106
1772713851425265700,7.134265625,-0.22974984347820282,0.22707149386405945,0.19074997305870056
1772713851435239700,7.14423974609375,-0.2938697040081024,0.15623700618743896,0.43111810088157654
1772713851445213700,7.154213623046875,-0.3601541817188263,0.135502427816391,0.5625512599945068
1772713851455187700,7.164187744140625,-0.35809075832366943,0.08515564352273941,0.6466453075408936
1772713851465161700,7.17416162109375,-0.29589715600013733,0.06455129384994507,0.6820105314254761
1772713851475135700,7.1841357421875,-0.2432536631822586,0.07637280225753784,0.7201512455940247
1772713851485110800,7.19411083984375,-0.24563080072402954,0.10034684091806412,0.6862375140190125
