time,seconds_elapsed,z,y,x
1772563468422155800,0.03315576171875,-0.9810638427734375,-0.0133056640625,0.036163330078125
1772563468432225000,0.04322509765625,-0.9822998046875,-0.0122833251953125,0.0343170166015625
1772563468442293000,0.05329296875,-0.9970855712890625,-0.01409912109375,0.031463623046875
1772563468452361000,0.06336083984375,-1.0047607421875,-0.0128326416015625,0.0289306640625
1772563468462429000,0.073428955078125,-0.9983673095703125,-0.012603759765625,0.029205322265625
1772563468472497000,0.083496826171875,-0.988372802734375,-0.0134124755859375,0.031402587890625
1772563468482566000,0.09356591796875,-0.9836883544921875,-0.0125579833984375,0.034149169921875
1772563468492633900,0.1036337890625,-0.9892578125,-0.012786865234375,0.0340576171875
1772563468502702000,0.1137021484375,-0.99462890625,-0.011260986328125,0.033111572265625
1772563468512770000,0.12377001953125,-1.0001373291015625,-0.0133056640625,0.0297698974609375
1772563468522839000,0.133839111328125,-0.997100830078125,-0.0145721435546875,0.0285186767578125
1772563468532907000,0.143906982421875,-0.9936065673828125,-0.013702392578125,0.030853271484375
1772563468542975000,0.15397509765625,-0.99169921875,-0.013763427734375,0.0344696044921875
1772563468553043200,0.164043212890625,-0.9865264892578125,-0.011383056640625,0.0334930419921875
1772563468563111200,0.174111083984375,-0.9893341064453125,-0.0121307373046875,0.0327301025390625
1772563468573180000,0.184179931640625,-0.993560791015625,-0.012939453125,0.0310211181640625
1772563468583248100,0.194248046875,-0.9967193603515625,-0.0122528076171875,0.0312042236328125
1772563468593316000,0.204316162109375,-0.9954986572265625,-0.0128936767578125,0.0306549072265625
1772563468603384000,0.214384033203125,-0.990203857421875,-0.01373291015625,0.0329132080078125
1772563468613452000,0.2244521484375,-0.9883575439453125,-0.0128326416015625,0.0346832275390625
1772563468623521000,0.23452099609375,-0.989013671875,-0.011688232421875,0.034576416015625
1772563468633589000,0.244589111328125,-0.9935455322265625,-0.0146026611328125,0.0308685302734375
1772563468643657000,0.254656982421875,-0.9936676025390625,-0.01318359375,0.031524658203125
1772563468653725200,0.26472509765625,-0.9936981201171875,-0.01318359375,0.032470703125
1772563468663793200,0.274793212890625,-0.9922332763671875,-0.0131072998046875,0.0319976806640625
1772563468673862000,0.28486181640625,-0.9904632568359375,-0.013519287109375,0.0330963134765625
1772563468683930000,0.29493017578125,-0.9879608154296875,-0.012786865234375,0.032623291015625
1772563468693998000,0.304998046875,-0.9891204833984375,-0.013519287109375,0.0333709716796875
1772563468704066000,0.315066162109375,-0.9942169189453125,-0.011383056640625,0.0303497314453125
1772563468714134000,0.325134033203125,-0.995391845703125,-0.0129547119140625,0.0314178466796875
1772563468724203000,0.335203125,-0.994110107421875,-0.01385498046875,0.0321197509765625
1772563468734271000,0.34527099609375,-0.990264892578125,-0.0131988525390625,0.0315704345703125
1772563468744339000,0.3553388671875,-0.9894561767578125,-0.01361083984375,0.0326080322265625
1772563468754407200,0.3654072265625,-0.9904937744140625,-0.0115966796875,0.0330657958984375
1772563468764476200,0.37547607421875,-0.9933929443359375,-0.01220703125,0.03045654296875
1772563468774544100,0.385544189453125,-0.994171142578125,-0.0124053955078125,0.030670166015625
1772563468784611800,0.39561181640625,-0.9934539794921875,-0.0135955810546875,0.0297698974609375
1772563468794680000,0.40568017578125,-0.99176025390625,-0.0139007568359375,0.03118896484375
1772563468804748000,0.415748046875,-0.992767333984375,-0.013397216796875,0.0340728759765625
1772563468814817000,0.425817138671875,-0.9924163818359375,-0.013519287109375,0.0339813232421875
1772563468824885200,0.43588525390625,-0.9900360107421875,-0.013092041015625,0.031951904296875
1772563468834953000,0.445952880859375,-0.9912109375,-0.011627197265625,0.032562255859375
1772563468845021000,0.45602099609375,-0.9939422607421875,-0.012542724609375,0.0313873291015625
1772563468855089000,0.4660888671875,-0.992462158203125,-0.0130615234375,0.031036376953125
1772563468865158100,0.476158203125,-0.993316650390625,-0.0129241943359375,0.0325775146484375
1772563468875226000,0.48622607421875,-0.9913177490234375,-0.0126800537109375,0.033905029296875
1772563468885294000,0.496294189453125,-0.9922332763671875,-0.01336669921875,0.0325775146484375
1772563468895362000,0.506362060546875,-0.9925079345703125,-0.0132598876953125,0.031494140625
1772563468905430000,0.516429931640625,-0.99267578125,-0.0132598876953125,0.0309600830078125
1772563468915499000,0.5264990234375,-0.9936065673828125,-0.012237548828125,0.0307769775390625
1772563468925567200,0.536567138671875,-0.992462158203125,-0.011871337890625,0.0321807861328125
1772563468935635200,0.54663525390625,-0.9913482666015625,-0.0149078369140625,0.0336151123046875
1772563468945703000,0.556702880859375,-0.99029541015625,-0.0120086669921875,0.031341552734375
1772563468955771000,0.56677099609375,-0.9915008544921875,-0.011016845703125,0.0326690673828125
1772563468965840100,0.576840087890625,-0.9928436279296875,-0.0131072998046875,0.0327911376953125
1772563468975908000,0.586908203125,-0.992034912109375,-0.0131072998046875,0.0327606201171875
1772563468985976000,0.59697607421875,-0.9921875,-0.012481689453125,0.0340728759765625
1772563468996044000,0.6070439453125,-0.9932708740234375,-0.01373291015625,0.0335235595703125
1772563469006112000,0.617112060546875,-0.9924468994140625,-0.013336181640625,0.0322723388671875
1772563469016181000,0.627180908203125,-0.991546630859375,-0.011474609375,0.031951904296875
1772563469026249000,0.6372490234375,-0.99029541015625,-0.0130462646484375,0.033477783203125
1772563469036317200,0.647317138671875,-0.9921417236328125,-0.0130615234375,0.0321197509765625
1772563469046385200,0.65738525390625,-0.9927978515625,-0.0131988525390625,0.03338623046875
1772563469056452900,0.667452880859375,-0.9920501708984375,-0.012054443359375,0.0330047607421875
1772563469066522000,0.677522216796875,-0.991912841796875,-0.013153076171875,0.03271484375
1772563469076590000,0.687590087890625,-0.9929656982421875,-0.0125732421875,0.033050537109375
1772563469086658000,0.697657958984375,-0.9932403564453125,-0.01348876953125,0.0328216552734375
1772563469096726000,0.70772607421875,-0.9940185546875,-0.01361083984375,0.0335845947265625
1772563469106794200,0.717794189453125,-0.99176025390625,-0.0136566162109375,0.0335235595703125
1772563469116863000,0.727863037109375,-0.9927215576171875,-0.0128936767578125,0.0320281982421875
1772563469126931000,0.737930908203125,-0.992340087890625,-0.0119476318359375,0.0335845947265625
1772563469136999200,0.747999267578125,-0.992523193359375,-0.0131988525390625,0.0312042236328125
1772563469147067100,0.758067138671875,-0.9899444580078125,-0.0124969482421875,0.032196044921875
1772563469157135000,0.768135009765625,-0.9903564453125,-0.0129547119140625,0.031524658203125
1772563469167204000,0.7782041015625,-0.991302490234375,-0.0142822265625,0.0315704345703125
1772563469177272000,0.78827197265625,-0.9935760498046875,-0.012939453125,0.0318756103515625
1772563469187340000,0.798340087890625,-0.992828369140625,-0.014007568359375,0.032073974609375
1772563469197408000,0.808407958984375,-0.9902191162109375,-0.01409912109375,0.0324554443359375
1772563469207476200,0.818476318359375,-0.9925994873046875,-0.0127716064453125,0.0334320068359375
1772563469217545000,0.828544921875,-0.9911346435546875,-0.01251220703125,0.0326385498046875
1772563469227613000,0.838613037109375,-0.990997314453125,-0.0133209228515625,0.0316162109375
1772563469237681200,0.84868115234375,-0.9915313720703125,-0.012908935546875,0.0321502685546875
1772563469247749000,0.8587490234375,-0.9913482666015625,-0.013336181640625,0.0310516357421875
1772563469257817000,0.868817138671875,-0.9925384521484375,-0.0130462646484375,0.0324249267578125
1772563469267886000,0.878885986328125,-0.9939727783203125,-0.013671875,0.034149169921875
1772563469277954000,0.8889541015625,-0.991912841796875,-0.0125885009765625,0.030792236328125
1772563469288022000,0.89902197265625,-0.9915313720703125,-0.0120697021484375,0.0306854248046875
1772563469298090000,0.909090087890625,-0.9910888671875,-0.0113372802734375,0.029876708984375
1772563469308158200,0.919158203125,-0.9915924072265625,-0.0132904052734375,0.031036376953125
1772563469318227000,0.92922705078125,-0.9900665283203125,-0.01422119140625,0.032440185546875
1772563469328295000,0.939294921875,-0.994049072265625,-0.013946533203125,0.0314788818359375
1772563469338363000,0.94936279296875,-0.992279052734375,-0.013397216796875,0.033172607421875
1772563469348431000,0.95943115234375,-0.99249267578125,-0.0125274658203125,0.0324859619140625
1772563469358499000,0.9694990234375,-0.9923553466796875,-0.0120086669921875,0.03271484375
1772563469368568000,0.979568115234375,-0.990814208984375,-0.01312255859375,0.0328369140625
1772563469378636000,0.989635986328125,-0.99212646484375,-0.0127716064453125,0.0306396484375
1772563469388704000,0.9997041015625,-0.9927520751953125,-0.0135955810546875,0.0324249267578125
1772563469398772000,1.00977197265625,-0.99237060546875,-0.012847900390625,0.031280517578125
1772563469408840000,1.01983984375,-0.991119384765625,-0.0137481689453125,0.032928466796875
1772563469418909200,1.0299091796875,-0.991455078125,-0.01165771484375,0.0321807861328125
1772563469428977000,1.039976806640625,-0.9931182861328125,-0.013031005859375,0.0327911376953125
1772563469439044900,1.050044921875,-0.9906463623046875,-0.012847900390625,0.0325469970703125
1772563469449113000,1.060113037109375,-0.991180419921875,-0.0137176513671875,0.032928466796875
1772563469459181000,1.07018115234375,-0.9930877685546875,-0.013031005859375,0.031982421875
1772563469469250000,1.08025,-0.99212646484375,-0.0128173828125,0.031982421875
1772563469479318000,1.090318115234375,-0.9911651611328125,-0.0125274658203125,0.0318450927734375
1772563469489386000,1.100385986328125,-0.992950439453125,-0.0116729736328125,0.0313720703125
1772563469499454200,1.1104541015625,-0.9929962158203125,-0.0119781494140625,0.033203125
1772563469509522200,1.120522216796875,-0.9932403564453125,-0.013336181640625,0.0327301025390625
1772563469519591400,1.13059130859375,-0.992034912109375,-0.0139923095703125,0.03472900390625
1772563469529659400,1.140659423828125,-0.9934539794921875,-0.0145721435546875,0.032867431640625
1772563469539727000,1.15072705078125,-0.991119384765625,-0.0124053955078125,0.0331573486328125
1772563469549795000,1.160795166015625,-0.9917144775390625,-0.0126953125,0.0314483642578125
1772563469559864300,1.1708642578125,-0.9915771484375,-0.0133514404296875,0.03228759765625
1772563469569932300,1.180932373046875,-0.990692138671875,-0.013824462890625,0.031463623046875
1772563469580000300,1.191000244140625,-0.9917144775390625,-0.0122528076171875,0.032135009765625
1772563469590068200,1.201068115234375,-0.9921875,-0.0134124755859375,0.033203125
1772563469600136200,1.21113623046875,-0.9909515380859375,-0.0139617919921875,0.0328826904296875
1772563469610204200,1.2212041015625,-0.9926605224609375,-0.0121612548828125,0.0328369140625
1772563469620273200,1.231273193359375,-0.9930267333984375,-0.0132293701171875,0.0320892333984375
1772563469630341400,1.24134130859375,-0.9927215576171875,-0.0128173828125,0.0316925048828125
1772563469640409300,1.251409423828125,-0.9913787841796875,-0.0143890380859375,0.034088134765625
1772563469650477000,1.26147705078125,-0.9917449951171875,-0.0125579833984375,0.033599853515625
1772563469660545000,1.271544921875,-0.9929962158203125,-0.0126495361328125,0.032135009765625
1772563469670614300,1.2816142578125,-0.9921722412109375,-0.0129547119140625,0.031768798828125
1772563469680682200,1.29168212890625,-0.9925537109375,-0.011871337890625,0.0320892333984375
1772563469690750200,1.301750244140625,-0.990814208984375,-0.0121917724609375,0.0318145751953125
1772563469700818200,1.311818115234375,-0.991790771484375,-0.0131683349609375,0.0316162109375
1772563469710886100,1.32188623046875,-0.9923858642578125,-0.0120849609375,0.032745361328125
1772563469720955100,1.331955078125,-0.992401123046875,-0.0119171142578125,0.033050537109375
1772563469731023400,1.3420234375,-0.9916229248046875,-0.0130767822265625,0.031494140625
1772563469741091300,1.35209130859375,-0.9923553466796875,-0.0121917724609375,0.031707763671875
1772563469751159300,1.3621591796875,-0.992279052734375,-0.013214111328125,0.0319061279296875
1772563469761227000,1.37222705078125,-0.99212646484375,-0.01251220703125,0.03363037109375
1772563469771296300,1.382296142578125,-0.991241455078125,-0.0121612548828125,0.032196044921875
1772563469781364200,1.3923642578125,-0.9926605224609375,-0.01214599609375,0.0329437255859375
1772563469791432200,1.40243212890625,-0.9927978515625,-0.0141143798828125,0.0326080322265625
1772563469801500400,1.41250048828125,-0.99102783203125,-0.012969970703125,0.03155517578125
1772563469811568400,1.422568359375,-0.992431640625,-0.014434814453125,0.0320892333984375
1772563469821637000,1.43263720703125,-0.9918365478515625,-0.014068603515625,0.032745361328125
1772563469831705300,1.442705322265625,-0.99163818359375,-0.013336181640625,0.031890869140625
1772563469841773300,1.452773193359375,-0.9918670654296875,-0.0128173828125,0.0322723388671875
1772563469851841300,1.46284130859375,-0.9925689697265625,-0.0125885009765625,0.0323028564453125
1772563469861909200,1.4729091796875,-0.9923553466796875,-0.0125579833984375,0.0308380126953125
1772563469871978200,1.482978271484375,-0.99237060546875,-0.0117950439453125,0.0323333740234375
1772563469882046200,1.493046142578125,-0.990936279296875,-0.01226806640625,0.0334625244140625
1772563469892114200,1.5031142578125,-0.993255615234375,-0.012542724609375,0.03167724609375
1772563469902182100,1.51318212890625,-0.993560791015625,-0.0128173828125,0.0321044921875
1772563469912250400,1.52325048828125,-0.9903717041015625,-0.012725830078125,0.0325164794921875
1772563469922319000,1.533319091796875,-0.99114990234375,-0.012237548828125,0.0312347412109375
1772563469932387000,1.543386962890625,-0.9914398193359375,-0.01318359375,0.032073974609375
1772563469942455300,1.553455322265625,-0.99169921875,-0.0141143798828125,0.034393310546875
1772563469952523300,1.563523193359375,-0.99273681640625,-0.01531982421875,0.03265380859375
1772563469962591200,1.57359130859375,-0.9917449951171875,-0.01239013671875,0.0301513671875
1772563469972660200,1.58366015625,-0.9917755126953125,-0.0125274658203125,0.03167724609375
1772563469982728200,1.593728271484375,-0.992156982421875,-0.012451171875,0.032989501953125
1772563469992796200,1.603796142578125,-0.9927520751953125,-0.0123291015625,0.030975341796875
1772563470002864000,1.613864013671875,-0.9932708740234375,-0.0118865966796875,0.0307159423828125
1772563470012932400,1.623932373046875,-0.991912841796875,-0.0138397216796875,0.031524658203125
1772563470023001000,1.6340009765625,-0.991729736328125,-0.01251220703125,0.03460693359375
1772563470033069000,1.644069091796875,-0.9873504638671875,-0.0130615234375,0.02947998046875
1772563470043137300,1.65413720703125,-0.9493408203125,-0.0091705322265625,0.0348968505859375
1772563470053205200,1.664205322265625,-0.9638214111328125,-0.0159759521484375,0.0408935546875
1772563470063273200,1.674273193359375,-1.0448760986328125,-0.012664794921875,0.03472900390625
1772563470073342200,1.68434228515625,-1.0811920166015625,-0.0104522705078125,0.0210418701171875
1772563470083410200,1.69441015625,-1.01739501953125,-0.01092529296875,0.0151214599609375
1772563470093478100,1.70447802734375,-0.9425048828125,-0.011962890625,0.0337371826171875
1772563470103546000,1.714546142578125,-0.9358062744140625,-0.013946533203125,0.0506591796875
1772563470113614300,1.7246142578125,-0.9705657958984375,-0.0162353515625,0.0494232177734375
1772563470123683300,1.734683349609375,-0.998138427734375,-0.015106201171875,0.0357208251953125
1772563470133751000,1.7447509765625,-1.0136566162109375,-0.013397216796875,0.017547607421875
1772563470143819300,1.7548193359375,-1.019561767578125,-0.0119171142578125,0.0153961181640625
1772563470153887200,1.76488720703125,-1.008544921875,-0.0083160400390625,0.0289764404296875
1772563470163955200,1.774955078125,-0.98284912109375,-0.01239013671875,0.0370025634765625
1772563470174024200,1.785024169921875,-0.9576568603515625,-0.013824462890625,0.0412445068359375
1772563470184092200,1.795092041015625,-0.967620849609375,-0.014892578125,0.0386505126953125
1772563470194160000,1.80516015625,-1,-0.0149688720703125,0.0311431884765625
1772563470204228000,1.81522802734375,-1.019012451171875,-0.0125885009765625,0.025115966796875
1772563470214296000,1.825296142578125,-1.01092529296875,-0.0124664306640625,0.026092529296875
1772563470224365300,1.835365234375,-0.9839324951171875,-0.010772705078125,0.029571533203125
1772563470234433300,1.845433349609375,-0.972442626953125,-0.0118255615234375,0.0367279052734375
1772563470244501000,1.8555009765625,-0.9801483154296875,-0.0128326416015625,0.038787841796875
1772563470254569200,1.8655693359375,-0.9925994873046875,-0.0146636962890625,0.035003662109375
1772563470264637200,1.87563720703125,-1.0019989013671875,-0.0125274658203125,0.0308990478515625
1772563470274706200,1.8857060546875,-1.0012969970703125,-0.0140533447265625,0.02838134765625
1772563470284774400,1.8957744140625,-0.9952850341796875,-0.0125579833984375,0.029815673828125
1772563470294842400,1.90584228515625,-0.9873046875,-0.01019287109375,0.032867431640625
1772563470304910000,1.91591015625,-0.9828033447265625,-0.010894775390625,0.0344696044921875
1772563470314978000,1.92597802734375,-0.9873809814453125,-0.011810302734375,0.0353546142578125
1772563470325047300,1.93604736328125,-0.9965057373046875,-0.01422119140625,0.03143310546875
1772563470335115300,1.946115234375,-1.00054931640625,-0.0167999267578125,0.0321807861328125
1772563470345183200,1.956183349609375,-0.9945068359375,-0.0143280029296875,0.0328521728515625
1772563470355251200,1.966251220703125,-0.988433837890625,-0.0122222900390625,0.03302001953125
1772563470365319200,1.976319091796875,-0.9856719970703125,-0.010894775390625,0.0328521728515625
1772563470375388200,1.98638818359375,-0.9891204833984375,-0.01080322265625,0.032623291015625
1772563470385456400,1.996456298828125,-0.994384765625,-0.0118865966796875,0.03070068359375
1772563470395524400,2.0065244140625,-0.996002197265625,-0.015167236328125,0.0308380126953125
1772563470405592300,2.01659228515625,-0.9931182861328125,-0.0149688720703125,0.0321044921875
1772563470415660000,2.026659912109375,-0.99188232421875,-0.0140380859375,0.0341796875
1772563470425729300,2.036729248046875,-0.9865875244140625,-0.0110626220703125,0.033447265625
1772563470435797200,2.04679736328125,-0.9861602783203125,-0.01220703125,0.03375244140625
1772563470445865200,2.056865234375,-0.9910736083984375,-0.01031494140625,0.0296478271484375
1772563470455933400,2.066933349609375,-0.9961395263671875,-0.0128631591796875,0.0301971435546875
1772563470466001200,2.077001220703125,-0.9962921142578125,-0.01324462890625,0.032623291015625
1772563470476069000,2.087069091796875,-0.9924774169921875,-0.015777587890625,0.031005859375
1772563470486138000,2.09713818359375,-0.986419677734375,-0.0147705078125,0.0318450927734375
1772563470496205600,2.10720556640625,-0.986328125,-0.012451171875,0.0321197509765625
1772563470506273800,2.117273681640625,-0.9926910400390625,-0.0130615234375,0.0311126708984375
1772563470516341800,2.127341796875,-0.995880126953125,-0.0109405517578125,0.0308074951171875
1772563470526410500,2.137410400390625,-0.99676513671875,-0.0131378173828125,0.0306549072265625
1772563470536478700,2.147478759765625,-0.9927520751953125,-0.0140533447265625,0.032257080078125
1772563470546546700,2.157546630859375,-0.98834228515625,-0.0143890380859375,0.0345458984375
1772563470556614700,2.16761474609375,-0.988067626953125,-0.013427734375,0.0357513427734375
1772563470566682600,2.1776826171875,-0.989532470703125,-0.012359619140625,0.0340118408203125
1772563470576750800,2.187750732421875,-0.9930877685546875,-0.012542724609375,0.030181884765625
1772563470586819600,2.197819580078125,-0.9956512451171875,-0.0120849609375,0.0292205810546875
1772563470596887600,2.207887451171875,-0.9941558837890625,-0.01275634765625,0.029388427734375
1772563470606955800,2.217955810546875,-0.991973876953125,-0.0136871337890625,0.0311431884765625
1772563470617023700,2.228023681640625,-0.9904022216796875,-0.01385498046875,0.03387451171875
1772563470627091700,2.238091796875,-0.98846435546875,-0.011993408203125,0.0325164794921875
1772563470637160700,2.24816064453125,-0.989349365234375,-0.01385498046875,0.0336456298828125
1772563470647228700,2.258228759765625,-0.9922027587890625,-0.01171875,0.03118896484375
1772563470657296600,2.268296630859375,-0.9953765869140625,-0.0128173828125,0.0297698974609375
1772563470667364600,2.278364501953125,-0.996337890625,-0.01123046875,0.0298309326171875
1772563470677432800,2.288432861328125,-0.9922027587890625,-0.011688232421875,0.033599853515625
1772563470687501600,2.29850146484375,-0.9900054931640625,-0.015350341796875,0.0346832275390625
1772563470697569500,2.308569580078125,-0.989593505859375,-0.0141448974609375,0.03302001953125
1772563470707637800,2.3186376953125,-0.992401123046875,-0.0127105712890625,0.032806396484375
1772563470717705700,2.328705810546875,-0.9937896728515625,-0.012115478515625,0.0309906005859375
1772563470727773700,2.338773681640625,-0.994537353515625,-0.0139007568359375,0.0323333740234375
1772563470737842400,2.348842529296875,-0.9931182861328125,-0.012054443359375,0.0314788818359375
1772563470747910700,2.35891064453125,-0.99163818359375,-0.0122528076171875,0.0321197509765625
1772563470757978600,2.368978515625,-0.9885711669921875,-0.0137786865234375,0.0316162109375
1772563470768046600,2.379046630859375,-0.9904327392578125,-0.013214111328125,0.032318115234375
1772563470778114600,2.389114501953125,-0.9929656982421875,-0.012176513671875,0.0319976806640625
1772563470788183800,2.399183837890625,-0.99334716796875,-0.0126800537109375,0.0308990478515625
1772563470798251500,2.40925146484375,-0.992156982421875,-0.0111541748046875,0.0315399169921875
1772563470808319500,2.419319580078125,-0.9915771484375,-0.0113372802734375,0.0301971435546875
1772563470818387700,2.4293876953125,-0.991668701171875,-0.0120697021484375,0.0332489013671875
1772563470828455700,2.43945556640625,-0.991668701171875,-0.0116424560546875,0.03277587890625
1772563470838524700,2.449524658203125,-0.990509033203125,-0.0144805908203125,0.032440185546875
1772563470848592600,2.459592529296875,-0.9914398193359375,-0.015625,0.0327606201171875
1772563470858660600,2.46966064453125,-0.992950439453125,-0.0131378173828125,0.032440185546875
1772563470868728600,2.479728515625,-0.9921875,-0.01116943359375,0.0313568115234375
1772563470878796500,2.489796630859375,-0.9941558837890625,-0.012664794921875,0.0320587158203125
1772563470888865800,2.49986572265625,-0.9922027587890625,-0.0124664306640625,0.0333709716796875
1772563470898933800,2.509933837890625,-0.9913482666015625,-0.01123046875,0.0331573486328125
1772563470909001500,2.52000146484375,-0.990234375,-0.0140533447265625,0.032379150390625
1772563470919069700,2.530069580078125,-0.9903106689453125,-0.015045166015625,0.0323944091796875
1772563470929137700,2.5401376953125,-0.9912109375,-0.0125274658203125,0.0312652587890625
1772563470939206700,2.55020654296875,-0.9921722412109375,-0.0127105712890625,0.0313568115234375
1772563470949275000,2.56027490234375,-0.9926910400390625,-0.012298583984375,0.0332794189453125
1772563470959342600,2.570342529296875,-0.992828369140625,-0.0127716064453125,0.0328369140625
1772563470969410600,2.58041064453125,-0.992156982421875,-0.0128173828125,0.0335235595703125
1772563470979478500,2.590478515625,-0.990631103515625,-0.0136260986328125,0.033050537109375
1772563470989547800,2.6005478515625,-0.99163818359375,-0.012451171875,0.0318603515625
1772563470999615700,2.61061572265625,-0.9924774169921875,-0.0125732421875,0.032318115234375
1772563471009683700,2.62068359375,-0.9920806884765625,-0.01202392578125,0.031524658203125
1772563471019751700,2.630751708984375,-0.9926300048828125,-0.0129852294921875,0.0301361083984375
1772563471029819600,2.640819580078125,-0.9927825927734375,-0.0146026611328125,0.03253173828125
1772563471039888600,2.650888671875,-0.9905853271484375,-0.01239013671875,0.03204345703125
1772563471049956600,2.66095654296875,-0.9918975830078125,-0.0116729736328125,0.0331573486328125
1772563471060024800,2.67102490234375,-0.991790771484375,-0.0126800537109375,0.032135009765625
1772563471070092800,2.6810927734375,-0.9912261962890625,-0.011260986328125,0.03253173828125
1772563471080160500,2.691160400390625,-0.993072509765625,-0.0128631591796875,0.031524658203125
1772563471090228500,2.701228515625,-0.99383544921875,-0.012542724609375,0.029388427734375
1772563471100297700,2.711297607421875,-0.99273681640625,-0.012359619140625,0.032012939453125
1772563471110365700,2.72136572265625,-0.9925689697265625,-0.0130462646484375,0.0326385498046875
1772563471120433700,2.73143359375,-0.9906463623046875,-0.0119476318359375,0.0303802490234375
1772563471130501600,2.741501708984375,-0.990814208984375,-0.012603759765625,0.033416748046875
1772563471140569600,2.751569580078125,-0.9925079345703125,-0.012176513671875,0.0324859619140625
1772563471150638600,2.761638671875,-0.9904327392578125,-0.012054443359375,0.03179931640625
1772563471160706800,2.771706787109375,-0.99224853515625,-0.0121307373046875,0.0321807861328125
1772563471170774800,2.78177490234375,-0.993499755859375,-0.0123138427734375,0.0317840576171875
1772563471180842800,2.7918427734375,-0.990966796875,-0.0131072998046875,0.033172607421875
1772563471190910500,2.801910400390625,-0.9912567138671875,-0.012115478515625,0.0337982177734375
1772563471200979700,2.811979736328125,-0.9928436279296875,-0.0120697021484375,0.0317840576171875
1772563471211047700,2.822047607421875,-0.9925384521484375,-0.013702392578125,0.0329437255859375
1772563471221115600,2.83211572265625,-0.9919281005859375,-0.0123291015625,0.0321502685546875
1772563471231184000,2.842183837890625,-0.9929962158203125,-0.0126190185546875,0.03118896484375
1772563471241251600,2.85225146484375,-0.992889404296875,-0.013214111328125,0.03106689453125
1772563471251320600,2.862320556640625,-0.9917755126953125,-0.0121307373046875,0.0320281982421875
1772563471261388800,2.872388916015625,-0.9901123046875,-0.0126495361328125,0.0323638916015625
1772563471271456800,2.882456787109375,-0.9906158447265625,-0.0128936767578125,0.032379150390625
1772563471281524700,2.892524658203125,-0.99072265625,-0.0134429931640625,0.0333709716796875
1772563471291592700,2.9025927734375,-0.992523193359375,-0.01239013671875,0.0328521728515625
1772563471301661700,2.91266162109375,-0.992889404296875,-0.0116729736328125,0.030975341796875
1772563471311729700,2.922729736328125,-0.9934844970703125,-0.0112762451171875,0.0339202880859375
1772563471321797600,2.932797607421875,-0.9915618896484375,-0.0122833251953125,0.033294677734375
1772563471331865900,2.942865966796875,-0.991546630859375,-0.012603759765625,0.031982421875
1772563471341933800,2.952933837890625,-0.9912567138671875,-0.0130767822265625,0.03155517578125
1772563471352002600,2.96300244140625,-0.991455078125,-0.01226806640625,0.0330963134765625
1772563471362070500,2.973070556640625,-0.9918670654296875,-0.012054443359375,0.033203125
1772563471372138800,2.983138671875,-0.99212646484375,-0.0122222900390625,0.0339508056640625
1772563471382206700,2.993206787109375,-0.9916229248046875,-0.013153076171875,0.0326690673828125
1772563471392274700,3.003274658203125,-0.991424560546875,-0.0127410888671875,0.0326995849609375
1772563471402342700,3.0133427734375,-0.99169921875,-0.0149993896484375,0.0304718017578125
1772563471412411600,3.02341162109375,-0.9914093017578125,-0.0130157470703125,0.031341552734375
1772563471422479600,3.033479736328125,-0.9918670654296875,-0.0135040283203125,0.0323944091796875
1772563471432547600,3.043547607421875,-0.990570068359375,-0.0125579833984375,0.0319976806640625
1772563471442615800,3.05361572265625,-0.99212646484375,-0.0125732421875,0.0319976806640625
1772563471452683800,3.063683837890625,-0.992156982421875,-0.0127716064453125,0.0324249267578125
1772563471462752500,3.07375244140625,-0.99237060546875,-0.0125274658203125,0.0334625244140625
1772563471472820700,3.08382080078125,-0.9906005859375,-0.013275146484375,0.0318450927734375
1772563471482888700,3.093888671875,-0.9907073974609375,-0.013427734375,0.0344085693359375
1772563471492956700,3.103956787109375,-0.990997314453125,-0.013336181640625,0.034027099609375
1772563471503025400,3.114025390625,-0.991790771484375,-0.0122222900390625,0.0322418212890625
1772563471513094400,3.124094482421875,-0.993988037109375,-0.012115478515625,0.03118896484375
1772563471523162400,3.134162353515625,-0.992218017578125,-0.0124053955078125,0.0312042236328125
1772563471533230600,3.144230712890625,-0.99249267578125,-0.01324462890625,0.0317840576171875
1772563471543298600,3.154298583984375,-0.99176025390625,-0.0128326416015625,0.0314483642578125
1772563471553366500,3.164366455078125,-0.9912261962890625,-0.0119781494140625,0.0323486328125
1772563471563435300,3.174435302734375,-0.99090576171875,-0.0124053955078125,0.033416748046875
1772563471573503500,3.18450341796875,-0.9905548095703125,-0.0125732421875,0.0333709716796875
1772563471583571500,3.194571533203125,-0.9915618896484375,-0.0122222900390625,0.0302886962890625
1772563471593639400,3.204639404296875,-0.9929656982421875,-0.0122833251953125,0.03125
1772563471603707400,3.214707275390625,-0.9916229248046875,-0.01336669921875,0.0321044921875
1772563471613776400,3.2247763671875,-0.991729736328125,-0.0139007568359375,0.033905029296875
1772563471623844400,3.23484423828125,-0.991912841796875,-0.0138397216796875,0.033782958984375
1772563471633912300,3.244912353515625,-0.9903717041015625,-0.0131988525390625,0.032318115234375
1772563471643980500,3.25498046875,-0.9912109375,-0.0140228271484375,0.030609130859375
1772563471654048500,3.265048583984375,-0.992919921875,-0.0132293701171875,0.0326385498046875
1772563471664117200,3.2751171875,-0.9915313720703125,-0.0135498046875,0.0318603515625
1772563471674185500,3.285185546875,-0.9918670654296875,-0.0125579833984375,0.0307464599609375
1772563471684253400,3.29525341796875,-0.9916229248046875,-0.013092041015625,0.030792236328125
1772563471694321400,3.3053212890625,-0.9903411865234375,-0.01458740234375,0.0326995849609375
1772563471704389400,3.315389404296875,-0.9929046630859375,-0.01397705078125,0.0319976806640625
1772563471714457600,3.32545751953125,-0.99224853515625,-0.0120697021484375,0.030731201171875
1772563471724526300,3.3355263671875,-0.9920654296875,-0.012725830078125,0.0323944091796875
1772563471734594300,3.34559423828125,-0.9929351806640625,-0.0126953125,0.0318450927734375
1772563471744662500,3.35566259765625,-0.991302490234375,-0.01226806640625,0.0327606201171875
1772563471754730500,3.36573046875,-0.9918060302734375,-0.0131683349609375,0.0306854248046875
1772563471764798500,3.375798583984375,-0.9910736083984375,-0.0128326416015625,0.0304107666015625
1772563471774867500,3.385867431640625,-0.9919586181640625,-0.012542724609375,0.0330047607421875
1772563471784935400,3.395935302734375,-0.9919586181640625,-0.01171875,0.0325164794921875
1772563471795003400,3.40600341796875,-0.99188232421875,-0.0125732421875,0.0314178466796875
1772563471805071400,3.4160712890625,-0.9915618896484375,-0.01312255859375,0.03289794921875
1772563471815139600,3.4261396484375,-0.9911041259765625,-0.01416015625,0.031829833984375
1772563471825208300,3.436208251953125,-0.99169921875,-0.0127410888671875,0.0329437255859375
1772563471835276300,3.4462763671875,-0.99267578125,-0.013580322265625,0.0322265625
1772563471845344500,3.456344482421875,-0.9921112060546875,-0.012176513671875,0.03155517578125
1772563471855412500,3.46641259765625,-0.99200439453125,-0.0132293701171875,0.03204345703125
1772563471865480400,3.47648046875,-0.9935150146484375,-0.0137176513671875,0.0312652587890625
1772563471875549400,3.486549560546875,-0.99041748046875,-0.013031005859375,0.0319976806640625
1772563471885617400,3.496617431640625,-0.990325927734375,-0.0123748779296875,0.0323486328125
1772563471895685400,3.506685302734375,-0.9916534423828125,-0.01239013671875,0.03277587890625
1772563471905753300,3.51675341796875,-0.9912567138671875,-0.0133819580078125,0.033233642578125
1772563471915821300,3.5268212890625,-0.99127197265625,-0.013427734375,0.031951904296875
1772563471925890600,3.536890625,-0.990447998046875,-0.01263427734375,0.0309906005859375
1772563471935958300,3.546958251953125,-0.9915924072265625,-0.01336669921875,0.03253173828125
1772563471946026200,3.557026123046875,-0.991485595703125,-0.0117034912109375,0.0324859619140625
1772563471956094500,3.567094482421875,-0.9925689697265625,-0.01190185546875,0.0319976806640625
1772563471966162400,3.577162353515625,-0.99285888671875,-0.01190185546875,0.03216552734375
1772563471976231400,3.5872314453125,-0.992340087890625,-0.013031005859375,0.0317535400390625
1772563471986299400,3.59729931640625,-0.99066162109375,-0.0138397216796875,0.0306396484375
1772563471996367400,3.607367431640625,-0.9917144775390625,-0.0133819580078125,0.032470703125
1772563472006435300,3.617435302734375,-0.9921875,-0.0136260986328125,0.0327911376953125
1772563472016503300,3.62750341796875,-0.992523193359375,-0.0113525390625,0.03192138671875
1772563472026571500,3.637571533203125,-0.9918365478515625,-0.0133819580078125,0.0318603515625
1772563472036640500,3.647640625,-0.9903717041015625,-0.01336669921875,0.031341552734375
1772563472046708200,3.657708251953125,-0.990264892578125,-0.012786865234375,0.0328826904296875
1772563472056776400,3.6677763671875,-0.990814208984375,-0.014495849609375,0.0342254638671875
1772563472066844400,3.677844482421875,-0.9924774169921875,-0.01385498046875,0.0320281982421875
1772563472076912400,3.687912353515625,-0.9931182861328125,-0.0125885009765625,0.0315093994140625
1772563472086981600,3.697981689453125,-0.992523193359375,-0.011260986328125,0.0328826904296875
1772563472097049600,3.708049560546875,-0.9915924072265625,-0.01336669921875,0.03253173828125
1772563472107117300,3.718117431640625,-0.99127197265625,-0.0129547119140625,0.032958984375
1772563472117185300,3.728185302734375,-0.9920196533203125,-0.0139923095703125,0.03167724609375
1772563472127253500,3.73825341796875,-0.9907073974609375,-0.013092041015625,0.03253173828125
1772563472137322500,3.748322509765625,-0.991851806640625,-0.0130615234375,0.0325164794921875
1772563472147390500,3.758390380859375,-0.9910125732421875,-0.014068603515625,0.0322113037109375
1772563472157458400,3.76845849609375,-0.99267578125,-0.0137176513671875,0.0313720703125
1772563472167526400,3.7785263671875,-0.9924468994140625,-0.0123748779296875,0.03143310546875
1772563472177594400,3.788594482421875,-0.990936279296875,-0.011138916015625,0.03167724609375
1772563472187663400,3.798663330078125,-0.9917755126953125,-0.013397216796875,0.03216552734375
1772563472197731600,3.808731689453125,-0.9922943115234375,-0.0138092041015625,0.032958984375
1772563472207799600,3.818799560546875,-0.9927825927734375,-0.0131988525390625,0.033294677734375
1772563472217867300,3.8288671875,-0.990875244140625,-0.0142059326171875,0.0318450927734375
1772563472227935200,3.838935302734375,-0.991729736328125,-0.0128021240234375,0.0335693359375
1772563472238003500,3.84900341796875,-0.993011474609375,-0.014007568359375,0.03143310546875
1772563472248072400,3.859072509765625,-0.9918060302734375,-0.0133209228515625,0.0325927734375
1772563472258140400,3.869140380859375,-0.99249267578125,-0.012451171875,0.032379150390625
1772563472268208400,3.87920849609375,-0.990814208984375,-0.01226806640625,0.0316314697265625
1772563472278276400,3.8892763671875,-0.99102783203125,-0.012481689453125,0.0322265625
1772563472288344300,3.89934423828125,-0.9918060302734375,-0.0128631591796875,0.033050537109375
1772563472298413600,3.90941357421875,-0.99249267578125,-0.0132904052734375,0.0330047607421875
1772563472308481500,3.9194814453125,-0.991668701171875,-0.0137481689453125,0.032623291015625
1772563472318549500,3.929549560546875,-0.9938812255859375,-0.0130767822265625,0.03155517578125
1772563472328617200,3.9396171875,-0.9933013916015625,-0.0127105712890625,0.0318450927734375
1772563472338685400,3.949685546875,-0.9901123046875,-0.012969970703125,0.0311431884765625
1772563472348754400,3.95975439453125,-0.9903717041015625,-0.0144195556640625,0.0334930419921875
1772563472358822400,3.969822509765625,-0.9917449951171875,-0.01226806640625,0.0341644287109375
1772563472368890600,3.979890625,-0.9930419921875,-0.0136260986328125,0.0316009521484375
1772563472378958300,3.989958251953125,-0.9912872314453125,-0.0119171142578125,0.03033447265625
1772563472389026300,4.0000263671875,-0.99212646484375,-0.013336181640625,0.0327606201171875
1772563472399095600,4.010095458984375,-0.99249267578125,-0.0117340087890625,0.032440185546875
1772563472409163500,4.02016357421875,-0.9914398193359375,-0.0118255615234375,0.0322723388671875
1772563472419231500,4.0302314453125,-0.9919281005859375,-0.0123291015625,0.0323333740234375
1772563472429299500,4.040299560546875,-0.992950439453125,-0.0123748779296875,0.0319671630859375
1772563472439367400,4.050367431640625,-0.992767333984375,-0.0129547119140625,0.0333404541015625
1772563472449436400,4.0604365234375,-0.9911346435546875,-0.013031005859375,0.0305328369140625
1772563472459504400,4.07050439453125,-0.9918365478515625,-0.011566162109375,0.0318756103515625
1772563472469572600,4.080572509765625,-0.991943359375,-0.0134429931640625,0.0306549072265625
1772563472479640600,4.090640625,-0.9919586181640625,-0.013702392578125,0.0326690673828125
1772563472489708500,4.10070849609375,-0.9900970458984375,-0.013824462890625,0.0311279296875
1772563472499776300,4.1107763671875,-0.9911346435546875,-0.012542724609375,0.0322113037109375
1772563472509845200,4.12084521484375,-0.9926605224609375,-0.0112152099609375,0.03179931640625
1772563472519913200,4.130913330078125,-0.9917449951171875,-0.0118865966796875,0.032318115234375
1772563472529981400,4.1409814453125,-0.9924468994140625,-0.0125885009765625,0.03143310546875
1772563472540049400,4.15104931640625,-0.9934539794921875,-0.0127105712890625,0.031005859375
1772563472550117400,4.161117431640625,-0.9920196533203125,-0.0129241943359375,0.0323638916015625
1772563472560186400,4.171186279296875,-0.9925994873046875,-0.012359619140625,0.0322265625
1772563472570254300,4.18125439453125,-0.991943359375,-0.012939453125,0.0293426513671875
1772563472580322300,4.191322265625,-0.991668701171875,-0.0123138427734375,0.0308837890625
1772563472590390300,4.201390380859375,-0.9918060302734375,-0.0130462646484375,0.0317840576171875
1772563472600458500,4.21145849609375,-0.99212646484375,-0.0124053955078125,0.0334625244140625
1772563472610527200,4.22152734375,-0.992431640625,-0.0123748779296875,0.0326080322265625
1772563472620595200,4.23159521484375,-0.991729736328125,-0.0123138427734375,0.031005859375
1772563472630663400,4.241663330078125,-0.992218017578125,-0.0121612548828125,0.0318145751953125
1772563472640731400,4.2517314453125,-0.9917449951171875,-0.01348876953125,0.033233642578125
1772563472650799400,4.26179931640625,-0.9929962158203125,-0.0117950439453125,0.03033447265625
1772563472660867300,4.271867431640625,-0.9921875,-0.0119476318359375,0.0317230224609375
1772563472670936300,4.281936279296875,-0.99127197265625,-0.012847900390625,0.031982421875
1772563472681004300,4.29200439453125,-0.991790771484375,-0.0140533447265625,0.0319061279296875
1772563472691072300,4.302072265625,-0.9928131103515625,-0.0134124755859375,0.034149169921875
1772563472701140500,4.312140380859375,-0.9917449951171875,-0.01434326171875,0.0317840576171875
1772563472711208400,4.32220849609375,-0.9915313720703125,-0.014251708984375,0.032196044921875
1772563472721277200,4.332277099609375,-0.9925537109375,-0.0125579833984375,0.0319671630859375
1772563472731345400,4.342345458984375,-0.9919281005859375,-0.014068603515625,0.0314178466796875
1772563472741413400,4.352413330078125,-0.9905548095703125,-0.0125274658203125,0.0316925048828125
1772563472751481300,4.3624814453125,-0.99102783203125,-0.010955810546875,0.03143310546875
1772563472761549300,4.37254931640625,-0.994354248046875,-0.013153076171875,0.0317535400390625
1772563472771618300,4.382618408203125,-0.993072509765625,-0.0139617919921875,0.0326080322265625
1772563472781686300,4.392686279296875,-0.9913330078125,-0.0142974853515625,0.032745361328125
1772563472791754200,4.402754150390625,-0.9911346435546875,-0.01348876953125,0.03253173828125
1772563472801822200,4.412822265625,-0.9925689697265625,-0.0117340087890625,0.033294677734375
1772563472811890400,4.422890380859375,-0.992340087890625,-0.012481689453125,0.03277587890625
1772563472821959200,4.432959228515625,-0.9913177490234375,-0.012908935546875,0.0320587158203125
1772563472832027100,4.443027099609375,-0.9927215576171875,-0.0121307373046875,0.031280517578125
1772563472842095400,4.453095458984375,-0.9925537109375,-0.0135345458984375,0.0306243896484375
1772563472852163300,4.463163330078125,-0.9914703369140625,-0.0127105712890625,0.03125
1772563472862231300,4.473231201171875,-0.9920654296875,-0.0132904052734375,0.0318603515625
1772563472872299300,4.48329931640625,-0.991943359375,-0.0124664306640625,0.0309600830078125
1772563472882368300,4.4933681640625,-0.99249267578125,-0.01324462890625,0.030792236328125
1772563472892436200,4.503436279296875,-0.9915618896484375,-0.01123046875,0.032012939453125
1772563472902504200,4.513504150390625,-0.99224853515625,-0.0111236572265625,0.0317535400390625
1772563472912572400,4.523572509765625,-0.991241455078125,-0.011688232421875,0.033477783203125
1772563472922640400,4.533640380859375,-0.99200439453125,-0.012451171875,0.0312347412109375
1772563472932709000,4.543709228515625,-0.9922637939453125,-0.0122528076171875,0.0306243896484375
1772563472942777300,4.55377734375,-0.992218017578125,-0.0136566162109375,0.0307464599609375
1772563472952845300,4.56384521484375,-0.9909210205078125,-0.011138916015625,0.030303955078125
1772563472962913300,4.573913330078125,-0.9915008544921875,-0.0123138427734375,0.031707763671875
1772563472972981200,4.583981201171875,-0.9907684326171875,-0.0115203857421875,0.0311737060546875
1772563472983050200,4.59405029296875,-0.9898529052734375,-0.011810302734375,0.032470703125
1772563472993118200,4.6041181640625,-0.9917755126953125,-0.0124664306640625,0.033233642578125
1772563473003186200,4.614186279296875,-0.9898681640625,-0.01251220703125,0.032073974609375
1772563473013254400,4.62425439453125,-0.989715576171875,-0.0120391845703125,0.0318145751953125
1772563473023322400,4.634322265625,-0.9906768798828125,-0.014251708984375,0.0310821533203125
1772563473033390300,4.644390380859375,-0.992034912109375,-0.01214599609375,0.0333099365234375
1772563473043459300,4.654459228515625,-0.9913177490234375,-0.01275634765625,0.0313568115234375
1772563473053527300,4.66452734375,-0.9916534423828125,-0.01312255859375,0.03228759765625
1772563473063595300,4.67459521484375,-0.9913330078125,-0.0130157470703125,0.0334625244140625
1772563473073663200,4.684663330078125,-0.9915313720703125,-0.0133056640625,0.0320892333984375
1772563473083731500,4.6947314453125,-0.9926910400390625,-0.0121917724609375,0.0326690673828125
1772563473093800200,4.70480029296875,-0.99176025390625,-0.01263427734375,0.031890869140625
1772563473103868200,4.7148681640625,-0.992706298828125,-0.012603759765625,0.031890869140625
1772563473113936100,4.72493603515625,-0.9908294677734375,-0.013427734375,0.0313262939453125
1772563473124004400,4.73500439453125,-0.9906768798828125,-0.0137481689453125,0.0309295654296875
1772563473134072300,4.745072265625,-0.9916229248046875,-0.010650634765625,0.0325775146484375
1772563473144141300,4.755141357421875,-0.9924468994140625,-0.011505126953125,0.0316162109375
1772563473154209300,4.765209228515625,-0.9923858642578125,-0.0118865966796875,0.0314178466796875
1772563473164277200,4.77527734375,-0.99102783203125,-0.0135650634765625,0.0321197509765625
1772563473174345200,4.78534521484375,-0.9924468994140625,-0.01312255859375,0.0315093994140625
1772563473184413200,4.7954130859375,-0.99176025390625,-0.01251220703125,0.0318450927734375
1772563473194481400,4.8054814453125,-0.9912872314453125,-0.0132293701171875,0.032501220703125
1772563473204550100,4.815550048828125,-0.9911956787109375,-0.0118255615234375,0.0327301025390625
1772563473214618000,4.8256181640625,-0.9925537109375,-0.0123748779296875,0.032196044921875
1772563473224686300,4.835686279296875,-0.9905242919921875,-0.0123138427734375,0.0323486328125
1772563473234754300,4.84575439453125,-0.9915924072265625,-0.0130462646484375,0.0334930419921875
1772563473244822300,4.855822265625,-0.99188232421875,-0.012481689453125,0.0323028564453125
1772563473254891500,4.8658916015625,-0.9916229248046875,-0.012664794921875,0.0318145751953125
1772563473264959200,4.875959228515625,-0.9914703369140625,-0.01239013671875,0.031768798828125
1772563473275027200,4.886027099609375,-0.99224853515625,-0.0133056640625,0.03070068359375
1772563473285095200,4.89609521484375,-0.991790771484375,-0.0127410888671875,0.0305328369140625
1772563473295163400,4.906163330078125,-0.9931793212890625,-0.0134124755859375,0.0322265625
1772563473305232400,4.916232421875,-0.9903564453125,-0.0135498046875,0.032745361328125
1772563473315300400,4.92630029296875,-0.9904327392578125,-0.01385498046875,0.0336761474609375
1772563473325368300,4.936368408203125,-0.990631103515625,-0.0123138427734375,0.0303802490234375
1772563473335436300,4.946436279296875,-0.991363525390625,-0.01312255859375,0.031463623046875
1772563473345504300,4.956504150390625,-0.9915771484375,-0.0131988525390625,0.0319671630859375
1772563473355572200,4.966572265625,-0.9916839599609375,-0.012786865234375,0.030914306640625
1772563473365641500,4.976641357421875,-0.9927215576171875,-0.0113372802734375,0.0316619873046875
1772563473375709200,4.986709228515625,-0.9914703369140625,-0.01214599609375,0.03173828125
1772563473385777200,4.996777099609375,-0.99102783203125,-0.0126953125,0.031890869140625
1772563473395845400,5.006845458984375,-0.9920501708984375,-0.0121917724609375,0.032073974609375
1772563473405913300,5.016913330078125,-0.9922637939453125,-0.0122222900390625,0.0326385498046875
1772563473415982300,5.026982421875,-0.992034912109375,-0.0111541748046875,0.0326690673828125
1772563473426050300,5.03705029296875,-0.992034912109375,-0.0134735107421875,0.032135009765625
1772563473436118300,5.0471181640625,-0.9917449951171875,-0.0119781494140625,0.031402587890625
1772563473446186200,5.057186279296875,-0.992401123046875,-0.0128936767578125,0.031158447265625
1772563473456254200,5.067254150390625,-0.9928131103515625,-0.0129241943359375,0.0333251953125
1772563473466323500,5.077323486328125,-0.9918060302734375,-0.012176513671875,0.032196044921875
1772563473476391400,5.087391357421875,-0.9932403564453125,-0.0131988525390625,0.0327911376953125
1772563473486459100,5.097459228515625,-0.9922027587890625,-0.012359619140625,0.0334625244140625
1772563473496527000,5.107527099609375,-0.99139404296875,-0.012664794921875,0.0318145751953125
1772563473506594600,5.117594482421875,-0.9917144775390625,-0.0118408203125,0.0329437255859375
1772563473516662500,5.12766259765625,-0.992401123046875,-0.0124359130859375,0.0322418212890625
1772563473526731800,5.137731689453125,-0.9928741455078125,-0.0125274658203125,0.031768798828125
1772563473536799700,5.1477998046875,-0.9910125732421875,-0.0120391845703125,0.0315704345703125
1772563473546867700,5.15786767578125,-0.990997314453125,-0.0125732421875,0.0315093994140625
1772563473556935700,5.167935791015625,-0.9925689697265625,-0.013275146484375,0.0318145751953125
1772563473567003600,5.178003662109375,-0.9918975830078125,-0.0128021240234375,0.0315093994140625
1772563473577072600,5.18807275390625,-0.9913330078125,-0.012603759765625,0.0321044921875
1772563473587140900,5.198140869140625,-0.99188232421875,-0.012908935546875,0.033111572265625
1772563473597208800,5.208208740234375,-0.9918365478515625,-0.0117645263671875,0.0323486328125
1772563473607276800,5.21827685546875,-0.9910736083984375,-0.0127716064453125,0.0320281982421875
1772563473617344500,5.228344482421875,-0.992431640625,-0.0116424560546875,0.0332183837890625
1772563473627412700,5.238412841796875,-0.9923248291015625,-0.01190185546875,0.0316314697265625
1772563473637481700,5.248481689453125,-0.9919586181640625,-0.0136260986328125,0.031402587890625
1772563473647549700,5.2585498046875,-0.9907379150390625,-0.014129638671875,0.0313262939453125
1772563473657618000,5.268617919921875,-0.9918365478515625,-0.01300048828125,0.031158447265625
1772563473667685600,5.278685546875,-0.9924163818359375,-0.013702392578125,0.03387451171875
1772563473677753600,5.288753662109375,-0.9905548095703125,-0.0113983154296875,0.032562255859375
1772563473687822800,5.29882275390625,-0.990936279296875,-0.013427734375,0.03125
1772563473697890800,5.308890869140625,-0.988983154296875,-0.0124664306640625,0.0301971435546875
1772563473707958800,5.318958740234375,-0.9917755126953125,-0.0123291015625,0.0326690673828125
1772563473718026800,5.32902685546875,-0.99224853515625,-0.012603759765625,0.0322265625
1772563473728094700,5.3390947265625,-0.99322509765625,-0.0124664306640625,0.031463623046875
1772563473738162700,5.34916259765625,-0.9903106689453125,-0.0135040283203125,0.031005859375
1772563473748231700,5.359231689453125,-0.9908599853515625,-0.012359619140625,0.0315704345703125
1772563473758300000,5.3692998046875,-0.990386962890625,-0.0114898681640625,0.0330963134765625
1772563473768367900,5.379367919921875,-0.99102783203125,-0.0116424560546875,0.03240966796875
1772563473778435600,5.389435546875,-0.9915924072265625,-0.012603759765625,0.02984619140625
1772563473788503600,5.399503662109375,-0.993072509765625,-0.0126953125,0.032135009765625
1772563473798572800,5.40957275390625,-0.992218017578125,-0.012420654296875,0.03302001953125
1772563473808640800,5.419640869140625,-0.9935302734375,-0.0129547119140625,0.0333709716796875
1772563473818708700,5.429708740234375,-0.99188232421875,-0.011260986328125,0.0338592529296875
1772563473828776700,5.439776611328125,-0.9892730712890625,-0.0123291015625,0.0330047607421875
1772563473838844700,5.4498447265625,-0.9908599853515625,-0.01300048828125,0.0325469970703125
1772563473848913700,5.45991357421875,-0.99127197265625,-0.012603759765625,0.0319671630859375
1772563473858981600,5.469981689453125,-0.9923858642578125,-0.011474609375,0.031341552734375
1772563473869049900,5.4800498046875,-0.9913482666015625,-0.0118255615234375,0.0334320068359375
1772563473879117800,5.490117919921875,-0.99053955078125,-0.0124359130859375,0.031646728515625
1772563473889185800,5.500185791015625,-0.99114990234375,-0.013519287109375,0.0313262939453125
1772563473899253500,5.51025341796875,-0.9923248291015625,-0.01171875,0.0324554443359375
1772563473909322800,5.52032275390625,-0.990814208984375,-0.01373291015625,0.033905029296875
1772563473919390700,5.530390625,-0.9922027587890625,-0.0130462646484375,0.032196044921875
1772563473929458700,5.540458740234375,-0.9930267333984375,-0.01129150390625,0.031768798828125
1772563473939527000,5.55052685546875,-0.992919921875,-0.011077880859375,0.0323333740234375
1772563473949594600,5.5605947265625,-0.9910430908203125,-0.013275146484375,0.0310821533203125
1772563473959663600,5.57066357421875,-0.9921875,-0.0126800537109375,0.0315093994140625
1772563473969731800,5.58073193359375,-0.9910736083984375,-0.0123748779296875,0.031890869140625
1772563473979799800,5.5907998046875,-0.9912567138671875,-0.0139312744140625,0.0328826904296875
1772563473989867800,5.60086767578125,-0.99176025390625,-0.0135040283203125,0.0327606201171875
1772563473999935700,5.610935791015625,-0.9911041259765625,-0.0130157470703125,0.0323944091796875
1772563474010003700,5.621003662109375,-0.992218017578125,-0.011383056640625,0.02996826171875
1772563474020072700,5.63107275390625,-0.994171142578125,-0.0125274658203125,0.0313262939453125
1772563474030140700,5.641140625,-0.993133544921875,-0.01153564453125,0.03094482421875
1772563474040209000,5.651208984375,-0.9918365478515625,-0.0123138427734375,0.03240966796875
1772563474050276900,5.66127685546875,-0.991607666015625,-0.0118865966796875,0.0322723388671875
1772563474060344600,5.671344482421875,-0.990814208984375,-0.012969970703125,0.0330810546875
1772563474070413800,5.681413818359375,-0.99163818359375,-0.013214111328125,0.0319671630859375
1772563474080481800,5.691481689453125,-0.9914093017578125,-0.011871337890625,0.032012939453125
1772563474090549800,5.7015498046875,-0.9917755126953125,-0.012359619140625,0.03240966796875
1772563474100617700,5.71161767578125,-0.9913330078125,-0.01397705078125,0.033447265625
1772563474110684700,5.7216845703125,-0.9918060302734375,-0.013031005859375,0.0317230224609375
1772563474120753000,5.7317529296875,-0.9923095703125,-0.014129638671875,0.03192138671875
1772563474130820900,5.74182080078125,-0.9917449951171875,-0.0134124755859375,0.0325164794921875
1772563474140888600,5.751888671875,-0.991729736328125,-0.01312255859375,0.0307159423828125
1772563474150956500,5.76195654296875,-0.9921417236328125,-0.0130462646484375,0.0316925048828125
1772563474161025800,5.77202587890625,-0.9920654296875,-0.0125274658203125,0.0322113037109375
1772563474171093800,5.78209375,-0.9928741455078125,-0.01300048828125,0.0316925048828125
1772563474181161700,5.79216162109375,-0.991302490234375,-0.0122833251953125,0.0313873291015625
1772563474191229700,5.802229736328125,-0.991729736328125,-0.012969970703125,0.03167724609375
1772563474201297700,5.812297607421875,-0.9923248291015625,-0.0129547119140625,0.0325469970703125
1772563474211366700,5.82236669921875,-0.9909515380859375,-0.0142669677734375,0.0326385498046875
1772563474221435000,5.832434814453125,-0.992401123046875,-0.01348876953125,0.0303192138671875
1772563474231502800,5.8425029296875,-0.990875244140625,-0.0137939453125,0.031982421875
1772563474241570800,5.85257080078125,-0.992431640625,-0.0137176513671875,0.0318756103515625
1772563474251638500,5.862638427734375,-0.9914398193359375,-0.0123291015625,0.032470703125
1772563474261706800,5.872706787109375,-0.9907989501953125,-0.0127410888671875,0.0316314697265625
1772563474271775700,5.882775634765625,-0.9908447265625,-0.013092041015625,0.032623291015625
1772563474281843700,5.89284375,-0.9922943115234375,-0.01177978515625,0.0331878662109375
1772563474291911700,5.90291162109375,-0.9907379150390625,-0.013031005859375,0.0336761474609375
1772563474301980000,5.91297998046875,-0.9915618896484375,-0.013885498046875,0.031646728515625
1772563474312047600,5.923047607421875,-0.9923095703125,-0.0140228271484375,0.0322113037109375
1772563474322115600,5.933115478515625,-0.9911346435546875,-0.0133514404296875,0.03155517578125
1772563474332184800,5.943184814453125,-0.990081787109375,-0.01300048828125,0.032196044921875
1772563474342252800,5.953252685546875,-0.9916229248046875,-0.0120086669921875,0.0333709716796875
1772563474352320800,5.96332080078125,-0.9925537109375,-0.0138397216796875,0.0324249267578125
1772563474362388700,5.973388671875,-0.99224853515625,-0.01397705078125,0.0305328369140625
1772563474372456700,5.983456787109375,-0.991455078125,-0.011993408203125,0.02972412109375
1772563474382525700,5.993525634765625,-0.991668701171875,-0.0141143798828125,0.0312957763671875
1772563474392593700,6.00359375,-0.991485595703125,-0.01318359375,0.03155517578125
1772563474402662000,6.013661865234375,-0.992340087890625,-0.0147552490234375,0.031402587890625
1772563474412729900,6.023729736328125,-0.9918060302734375,-0.014007568359375,0.03240966796875
1772563474422797600,6.033797607421875,-0.991424560546875,-0.0133056640625,0.0305328369140625
1772563474432865500,6.043865478515625,-0.9916229248046875,-0.0123748779296875,0.0322265625
1772563474442934800,6.053934814453125,-0.9928436279296875,-0.012359619140625,0.031494140625
1772563474453002800,6.064002685546875,-0.990997314453125,-0.0139007568359375,0.0342254638671875
1772563474463070700,6.07407080078125,-0.9907379150390625,-0.0130767822265625,0.03350830078125
1772563474473138700,6.084138671875,-0.992095947265625,-0.0130615234375,0.03265380859375
1772563474483206700,6.09420654296875,-0.992095947265625,-0.0121917724609375,0.0333404541015625
1772563474493275600,6.104275634765625,-0.9909820556640625,-0.0117340087890625,0.03228759765625
1772563474503343900,6.11434375,-0.991058349609375,-0.013397216796875,0.03179931640625
1772563474513413000,6.1244130859375,-0.992095947265625,-0.01220703125,0.0327911376953125
1772563474523481000,6.134481201171875,-0.9910888671875,-0.0123138427734375,0.0343780517578125
1772563474533549000,6.144549072265625,-0.990264892578125,-0.012603759765625,0.03179931640625
1772563474543617000,6.154616943359375,-0.990936279296875,-0.010833740234375,0.03070068359375
1772563474553686000,6.16468603515625,-0.991241455078125,-0.01202392578125,0.0320281982421875
1772563474563754000,6.17475390625,-0.9910736083984375,-0.0138702392578125,0.0316619873046875
1772563474573822000,6.184822021484375,-0.99066162109375,-0.0133209228515625,0.032745361328125
1772563474583890200,6.19489013671875,-0.9903564453125,-0.0131683349609375,0.0312652587890625
1772563474593958100,6.204958251953125,-0.9919281005859375,-0.0139617919921875,0.03289794921875
1772563474604027100,6.215027099609375,-0.9915618896484375,-0.0135040283203125,0.03216552734375
1772563474614095000,6.22509521484375,-0.991973876953125,-0.0126800537109375,0.0322418212890625
1772563474624163000,6.2351630859375,-0.9923858642578125,-0.0114898681640625,0.0317840576171875
1772563474634231000,6.24523095703125,-0.9933624267578125,-0.012786865234375,0.031768798828125
1772563474644299000,6.255299072265625,-0.9922637939453125,-0.0129241943359375,0.0334625244140625
1772563474654367200,6.2653671875,-0.99151611328125,-0.01190185546875,0.0323486328125
1772563474664436200,6.275436279296875,-0.992279052734375,-0.012908935546875,0.0301666259765625
1772563474674504000,6.28550390625,-0.9932403564453125,-0.011993408203125,0.0328521728515625
1772563474684572000,6.295572021484375,-0.9920196533203125,-0.01275634765625,0.0330657958984375
1772563474694640000,6.30564013671875,-0.9923858642578125,-0.0117950439453125,0.0316925048828125
1772563474704708000,6.3157080078125,-0.992401123046875,-0.013153076171875,0.033203125
1772563474714777000,6.325777099609375,-0.9921417236328125,-0.012115478515625,0.0328369140625
1772563474724845000,6.335844970703125,-0.991851806640625,-0.0119476318359375,0.03228759765625
1772563474734913000,6.3459130859375,-0.99139404296875,-0.0120086669921875,0.0341949462890625
1772563474744981000,6.35598095703125,-0.992645263671875,-0.01141357421875,0.0306549072265625
1772563474755049000,6.366049072265625,-0.991790771484375,-0.0118255615234375,0.0317230224609375
1772563474765117200,6.3761171875,-0.9921417236328125,-0.010772705078125,0.032989501953125
1772563474775186200,6.386186279296875,-0.991607666015625,-0.0121612548828125,0.0340728759765625
1772563474785254000,6.39625390625,-0.99163818359375,-0.013641357421875,0.0318756103515625
1772563474795322000,6.406322021484375,-0.9920806884765625,-0.0121917724609375,0.0328369140625
1772563474805390000,6.41639013671875,-0.9903564453125,-0.0130767822265625,0.0331573486328125
1772563474815458000,6.4264580078125,-0.990692138671875,-0.0139617919921875,0.0321807861328125
1772563474825527300,6.43652734375,-0.99102783203125,-0.013824462890625,0.0316162109375
1772563474835595000,6.446594970703125,-0.992706298828125,-0.013580322265625,0.031585693359375
1772563474845663000,6.4566630859375,-0.9899749755859375,-0.0124359130859375,0.0314483642578125
1772563474855731000,6.46673095703125,-0.99072265625,-0.0128173828125,0.0328826904296875
1772563474865799200,6.476799072265625,-0.9922332763671875,-0.0124359130859375,0.030914306640625
1772563474875867100,6.4868671875,-0.9909515380859375,-0.0121917724609375,0.032745361328125
1772563474885936000,6.49693603515625,-0.9911346435546875,-0.0134124755859375,0.0319366455078125
1772563474896004000,6.507004150390625,-0.99078369140625,-0.0130462646484375,0.0315704345703125
1772563474906072000,6.517072021484375,-0.991485595703125,-0.0113983154296875,0.0315704345703125
1772563474916140000,6.52714013671875,-0.9904937744140625,-0.013397216796875,0.0320281982421875
1772563474926208000,6.5372080078125,-0.990966796875,-0.0126800537109375,0.03179931640625
1772563474936276200,6.547276123046875,-0.9909515380859375,-0.012725830078125,0.03118896484375
1772563474946345200,6.55734521484375,-0.9918060302734375,-0.014739990234375,0.031402587890625
1772563474956413000,6.567412841796875,-0.99261474609375,-0.0113525390625,0.0337677001953125
1772563474966481200,6.577481201171875,-0.99139404296875,-0.014190673828125,0.0347137451171875
1772563474976549000,6.587549072265625,-0.9912261962890625,-0.0134735107421875,0.0305938720703125
1772563474986617000,6.5976171875,-0.991119384765625,-0.0111083984375,0.0313873291015625
1772563474996686000,6.60768603515625,-0.99273681640625,-0.0134429931640625,0.0321807861328125
1772563475006754000,6.617754150390625,-0.99420166015625,-0.0126190185546875,0.031219482421875
1772563475016822000,6.627822021484375,-0.9919281005859375,-0.0131988525390625,0.0316925048828125
1772563475026890000,6.637889892578125,-0.990203857421875,-0.0144805908203125,0.0322113037109375
1772563475036958000,6.6479580078125,-0.992095947265625,-0.013641357421875,0.0325927734375
1772563475047026200,6.658026123046875,-0.9912109375,-0.0119171142578125,0.032623291015625
1772563475057095200,6.66809521484375,-0.991363525390625,-0.011810302734375,0.0329742431640625
1772563475067163000,6.678162841796875,-0.993438720703125,-0.013427734375,0.0318756103515625
1772563475077231000,6.688231201171875,-0.990692138671875,-0.0114288330078125,0.030914306640625
1772563475087299000,6.698299072265625,-0.9923553466796875,-0.0100250244140625,0.032684326171875
1772563475097367000,6.708366943359375,-0.9916534423828125,-0.0113372802734375,0.0326995849609375
1772563475107436300,6.718436279296875,-0.98956298828125,-0.011932373046875,0.03369140625
1772563475117504000,6.72850390625,-0.9932708740234375,-0.0126953125,0.0324249267578125
1772563475127572000,6.738572021484375,-0.992950439453125,-0.01336669921875,0.0317840576171875
1772563475137640000,6.748639892578125,-0.990081787109375,-0.0119781494140625,0.0317230224609375
1772563475147708200,6.758708251953125,-0.9901885986328125,-0.01263427734375,0.0318756103515625
1772563475157776100,6.768776123046875,-0.991912841796875,-0.01251220703125,0.031646728515625
1772563475167845000,6.77884521484375,-0.9913787841796875,-0.013671875,0.032928466796875
1772563475177913000,6.7889130859375,-0.9918670654296875,-0.012603759765625,0.03106689453125
1772563475187981000,6.79898095703125,-0.9907989501953125,-0.0133514404296875,0.0334320068359375
1772563475198049000,6.809049072265625,-0.9912567138671875,-0.012908935546875,0.032867431640625
1772563475208117000,6.819116943359375,-0.9932861328125,-0.0128936767578125,0.0319671630859375
1772563475218186200,6.829186279296875,-0.99261474609375,-0.0129241943359375,0.031402587890625
1772563475228254000,6.83925390625,-0.992034912109375,-0.012115478515625,0.0324859619140625
1772563475238322000,6.849322021484375,-0.9922332763671875,-0.0123748779296875,0.033935546875
1772563475248390100,6.85939013671875,-0.9920654296875,-0.01226806640625,0.0322418212890625
1772563475258458000,6.8694580078125,-0.99163818359375,-0.01092529296875,0.031280517578125
1772563475268526000,6.879526123046875,-0.9931793212890625,-0.0116119384765625,0.0319366455078125
1772563475278595300,6.88959521484375,-0.99200439453125,-0.013671875,0.0312347412109375
1772563475288663000,6.8996630859375,-0.9914703369140625,-0.0121307373046875,0.0328521728515625
1772563475298731000,6.90973095703125,-0.9915771484375,-0.0130615234375,0.03302001953125
1772563475308799000,6.919799072265625,-0.99151611328125,-0.012969970703125,0.0306854248046875
1772563475318867200,6.9298671875,-0.9911651611328125,-0.0125579833984375,0.0325927734375
1772563475328935200,6.93993505859375,-0.9912261962890625,-0.0119781494140625,0.03057861328125
1772563475339004200,6.950004150390625,-0.9903717041015625,-0.0121307373046875,0.0311737060546875
1772563475349072000,6.96007177734375,-0.9914093017578125,-0.0125885009765625,0.0321044921875
1772563475359140000,6.97014013671875,-0.9916534423828125,-0.010040283203125,0.032867431640625
1772563475369208000,6.9802080078125,-0.9935302734375,-0.012847900390625,0.0328369140625
1772563475379276000,6.990276123046875,-0.9932403564453125,-0.0118865966796875,0.032806396484375
1772563475389345300,7.00034521484375,-0.99090576171875,-0.0128936767578125,0.0307769775390625
1772563475399413000,7.0104130859375,-0.991546630859375,-0.012847900390625,0.0333404541015625
1772563475409481000,7.02048095703125,-0.9922027587890625,-0.013916015625,0.03240966796875
1772563475419549000,7.030548828125,-0.99053955078125,-0.0123138427734375,0.031829833984375
1772563475429617200,7.0406171875,-0.990203857421875,-0.0128021240234375,0.0332794189453125
1772563475439685000,7.05068505859375,-0.9921875,-0.0131378173828125,0.033050537109375
1772563475449754000,7.060754150390625,-0.9901123046875,-0.0128326416015625,0.0330963134765625
1772563475459822000,7.070822021484375,-0.9917144775390625,-0.0135345458984375,0.032135009765625
1772563475469890000,7.08089013671875,-0.99139404296875,-0.0127410888671875,0.03253173828125
1772563475479958000,7.0909580078125,-0.9934234619140625,-0.012542724609375,0.0316925048828125
1772563475490026000,7.10102587890625,-0.991607666015625,-0.012969970703125,0.032958984375
1772563475500095200,7.11109521484375,-0.9911041259765625,-0.0115814208984375,0.0309295654296875
1772563475510161400,7.121161376953125,-0.992950439453125,-0.0125274658203125,0.0327911376953125
1772563475520229400,7.1312294921875,-0.993499755859375,-0.0135955810546875,0.0314788818359375
1772563475530297600,7.141297607421875,-0.99169921875,-0.0124969482421875,0.0309600830078125
1772563475540365600,7.151365478515625,-0.991790771484375,-0.013397216796875,0.031982421875
1772563475550433300,7.161433349609375,-0.9908905029296875,-0.01214599609375,0.031951904296875
1772563475560502500,7.17150244140625,-0.9921417236328125,-0.0135498046875,0.0315399169921875
1772563475570570500,7.181570556640625,-0.9920654296875,-0.0128631591796875,0.032745361328125
1772563475580638500,7.191638427734375,-0.9911956787109375,-0.0127105712890625,0.0318145751953125
1772563475590706400,7.20170654296875,-0.9925689697265625,-0.0127716064453125,0.031463623046875
1772563475600774400,7.2117744140625,-0.9918212890625,-0.01214599609375,0.0301666259765625
1772563475610842400,7.22184228515625,-0.99041748046875,-0.013214111328125,0.032928466796875
1772563475620911400,7.231911376953125,-0.9922332763671875,-0.0123138427734375,0.0330657958984375
1772563475630979600,7.2419794921875,-0.991363525390625,-0.013519287109375,0.030548095703125
1772563475641047600,7.252047607421875,-0.9920501708984375,-0.0117034912109375,0.033416748046875
1772563475651115500,7.262115478515625,-0.9924163818359375,-0.0123748779296875,0.033050537109375
1772563475661183200,7.272183349609375,-0.9921875,-0.0130462646484375,0.03302001953125
1772563475671252500,7.28225244140625,-0.990264892578125,-0.0131378173828125,0.0343475341796875
1772563475681320400,7.292320556640625,-0.99053955078125,-0.0131378173828125,0.0335693359375
1772563475691388400,7.302388427734375,-0.990631103515625,-0.0127410888671875,0.0328521728515625
1772563475701456400,7.312456298828125,-0.991912841796875,-0.0133819580078125,0.0319976806640625
1772563475711524600,7.322524658203125,-0.9916534423828125,-0.01239013671875,0.033905029296875
1772563475721592300,7.33259228515625,-0.992462158203125,-0.0118408203125,0.032562255859375
1772563475731661300,7.342661376953125,-0.9915618896484375,-0.0136260986328125,0.030731201171875
1772563475741729500,7.3527294921875,-0.9918365478515625,-0.012451171875,0.033172607421875
1772563475751797500,7.362797607421875,-0.9920501708984375,-0.0124359130859375,0.0330047607421875
1772563475761865500,7.372865478515625,-0.9929351806640625,-0.0121307373046875,0.031219482421875
1772563475771933400,7.382933349609375,-0.99127197265625,-0.0104217529296875,0.0309600830078125
1772563475782001400,7.39300146484375,-0.9913787841796875,-0.0119476318359375,0.0332489013671875
1772563475792070400,7.4030703125,-0.9929046630859375,-0.0126800537109375,0.03338623046875
1772563475802138400,7.413138427734375,-0.9935302734375,-0.0117034912109375,0.0324554443359375
1772563475812206600,7.42320654296875,-0.9932861328125,-0.0117645263671875,0.0314178466796875
1772563475822274600,7.433274658203125,-0.991790771484375,-0.0120086669921875,0.0309906005859375
1772563475832342300,7.44334228515625,-0.9922943115234375,-0.01300048828125,0.031982421875
1772563475842411500,7.45341162109375,-0.9919586181640625,-0.0128631591796875,0.032012939453125
1772563475852479500,7.4634794921875,-0.9905853271484375,-0.0131683349609375,0.032806396484375
1772563475862547500,7.47354736328125,-0.9930877685546875,-0.0130462646484375,0.03271484375
1772563475872615400,7.483615478515625,-0.9913330078125,-0.01220703125,0.032257080078125
1772563475882683400,7.493683349609375,-0.9929046630859375,-0.012847900390625,0.0330657958984375
1772563475892751400,7.50375146484375,-0.991912841796875,-0.012451171875,0.0328826904296875
1772563475902820400,7.5138203125,-0.990875244140625,-0.0118408203125,0.0324249267578125
1772563475912888600,7.523888671875,-0.9920806884765625,-0.01251220703125,0.031463623046875
1772563475922956500,7.53395654296875,-0.9925994873046875,-0.0133819580078125,0.0322723388671875
1772563475933024500,7.5440244140625,-0.9908447265625,-0.011962890625,0.03338623046875
1772563475943092200,7.55409228515625,-0.9928131103515625,-0.0129241943359375,0.0338592529296875
1772563475953161500,7.564161376953125,-0.99176025390625,-0.0128326416015625,0.033172607421875
1772563475963229400,7.5742294921875,-0.990631103515625,-0.012542724609375,0.0315399169921875
1772563475973297400,7.58429736328125,-0.9920654296875,-0.012908935546875,0.0326690673828125
1772563475983365600,7.59436572265625,-0.9915313720703125,-0.013519287109375,0.032470703125
1772563475993433600,7.60443359375,-0.9916839599609375,-0.0126190185546875,0.032196044921875
1772563476003501300,7.614501220703125,-0.9901885986328125,-0.01263427734375,0.0327301025390625
1772563476013570300,7.6245703125,-0.99017333984375,-0.012054443359375,0.03033447265625
1772563476023638500,7.634638427734375,-0.991363525390625,-0.0117034912109375,0.0318756103515625
1772563476033706500,7.64470654296875,-0.9918975830078125,-0.012451171875,0.0323028564453125
1772563476043774500,7.6547744140625,-0.991973876953125,-0.0126800537109375,0.0316009521484375
1772563476053842400,7.664842529296875,-0.9915924072265625,-0.010772705078125,0.0346221923828125
1772563476063910400,7.674910400390625,-0.991668701171875,-0.0109710693359375,0.032196044921875
1772563476073979400,7.6849794921875,-0.99298095703125,-0.014068603515625,0.0323028564453125
1772563476084047400,7.69504736328125,-0.9914398193359375,-0.0145263671875,0.03179931640625
1772563476094115600,7.705115478515625,-0.9916229248046875,-0.0117645263671875,0.03228759765625
1772563476104183600,7.71518359375,-0.9916839599609375,-0.0118255615234375,0.0323333740234375
1772563476114251300,7.725251220703125,-0.992950439453125,-0.011688232421875,0.0318756103515625
1772563476124320500,7.735320556640625,-0.9914398193359375,-0.0139923095703125,0.0334930419921875
1772563476134388500,7.745388427734375,-0.9904022216796875,-0.0125274658203125,0.0323028564453125
1772563476144456400,7.75545654296875,-0.9908447265625,-0.013885498046875,0.031890869140625
1772563476154524400,7.7655244140625,-0.9912261962890625,-0.011749267578125,0.0330657958984375
1772563476164592400,7.77559228515625,-0.991546630859375,-0.01275634765625,0.03363037109375
1772563476174660400,7.785660400390625,-0.990936279296875,-0.013092041015625,0.03326416015625
1772563476184729300,7.795729248046875,-0.992889404296875,-0.0131683349609375,0.03387451171875
1772563476194797600,7.805797607421875,-0.992523193359375,-0.0144195556640625,0.0318450927734375
1772563476204865500,7.815865478515625,-0.9908294677734375,-0.0143280029296875,0.031585693359375
1772563476214933500,7.82593359375,-0.9912261962890625,-0.01263427734375,0.029693603515625
1772563476225001200,7.836001220703125,-0.99169921875,-0.0147857666015625,0.03033447265625
1772563476235069400,7.8460693359375,-0.9915924072265625,-0.0134124755859375,0.0313568115234375
1772563476245138400,7.856138427734375,-0.9907073974609375,-0.0131988525390625,0.0311126708984375
1772563476255206400,7.866206298828125,-0.9917449951171875,-0.0109405517578125,0.0308380126953125
1772563476265274600,7.876274658203125,-0.9921722412109375,-0.0124053955078125,0.0329742431640625
1772563476275342600,7.886342529296875,-0.99212646484375,-0.0135345458984375,0.0306549072265625
1772563476285410300,7.896410400390625,-0.9904937744140625,-0.0130767822265625,0.0316925048828125
1772563476295478300,7.906478271484375,-0.990814208984375,-0.0128173828125,0.0336151123046875
1772563476305547500,7.916547607421875,-0.99310302734375,-0.012298583984375,0.0328369140625
1772563476315615500,7.926615478515625,-0.99310302734375,-0.01336669921875,0.032379150390625
1772563476325683500,7.936683349609375,-0.992889404296875,-0.0124359130859375,0.0317230224609375
1772563476335751400,7.94675146484375,-0.9920806884765625,-0.01190185546875,0.03216552734375
1772563476345819400,7.9568193359375,-0.992523193359375,-0.01300048828125,0.0323944091796875
1772563476355888400,7.966888427734375,-0.9909515380859375,-0.0117645263671875,0.0322723388671875
1772563476365956400,7.976956298828125,-0.9919891357421875,-0.0126800537109375,0.031951904296875
1772563476376024600,7.987024658203125,-0.99310302734375,-0.01239013671875,0.032501220703125
1772563476386092500,7.997092529296875,-0.9921112060546875,-0.01263427734375,0.032073974609375
1772563476396160300,8.00716015625,-0.9909210205078125,-0.0136566162109375,0.0341033935546875
1772563476406228500,8.017228515625,-0.992950439453125,-0.0144195556640625,0.0321044921875
1772563476416297500,8.02729736328125,-0.99285888671875,-0.0125274658203125,0.032745361328125
1772563476426365400,8.037365478515625,-0.9908905029296875,-0.0136871337890625,0.033172607421875
1772563476436433400,8.047433349609374,-0.99139404296875,-0.012664794921875,0.0315399169921875
1772563476446501400,8.05750146484375,-0.99139404296875,-0.0126800537109375,0.0328826904296875
1772563476456569300,8.0675693359375,-0.99151611328125,-0.0133514404296875,0.0315093994140625
1772563476466637300,8.07763720703125,-0.992889404296875,-0.0125579833984375,0.031585693359375
1772563476476706600,8.08770654296875,-0.99273681640625,-0.0125579833984375,0.0323333740234375
1772563476486774500,8.0977744140625,-0.9910125732421875,-0.0124664306640625,0.032257080078125
1772563476496842500,8.107842529296875,-0.9919891357421875,-0.01361083984375,0.0331573486328125
1772563476506910200,8.11791015625,-0.9908599853515625,-0.014007568359375,0.03143310546875
1772563476516978400,8.127978515625,-0.9932861328125,-0.0126495361328125,0.0313262939453125
1772563476527046400,8.13804638671875,-0.992645263671875,-0.01263427734375,0.0318145751953125
1772563476537115400,8.148115478515624,-0.9918212890625,-0.0118865966796875,0.0322723388671875
1772563476547183600,8.15818359375,-0.992645263671875,-0.0126800537109375,0.031280517578125
1772563476557251300,8.168251220703125,-0.9925079345703125,-0.0128173828125,0.0320892333984375
1772563476567319300,8.1783193359375,-0.99090576171875,-0.0135345458984375,0.032470703125
1772563476577387300,8.18838720703125,-0.9935455322265625,-0.0128631591796875,0.03021240234375
1772563476587456500,8.19845654296875,-0.9918670654296875,-0.0126495361328125,0.0301361083984375
1772563476597524500,8.2085244140625,-0.990447998046875,-0.0135345458984375,0.0308837890625
1772563476607592400,8.218592529296876,-0.9909515380859375,-0.0133819580078125,0.03277587890625
1772563476617660400,8.228660400390625,-0.9919891357421875,-0.0127410888671875,0.0323638916015625
1772563476627728400,8.238728271484375,-0.99249267578125,-0.0121002197265625,0.031158447265625
1772563476637796400,8.24879638671875,-0.990997314453125,-0.013397216796875,0.03265380859375
1772563476647865600,8.258865478515625,-0.9923858642578125,-0.0136260986328125,0.0325469970703125
1772563476657933600,8.26893359375,-0.99267578125,-0.012786865234375,0.03167724609375
1772563476668001500,8.27900146484375,-0.9906005859375,-0.0125579833984375,0.0315093994140625
1772563476678069200,8.2890693359375,-0.991607666015625,-0.0120697021484375,0.0309295654296875
1772563476688137500,8.299137451171875,-0.9931793212890625,-0.013275146484375,0.02978515625
1772563476698205400,8.309205322265624,-0.99102783203125,-0.01324462890625,0.0325469970703125
1772563476708274400,8.3192744140625,-0.992034912109375,-0.011077880859375,0.0319976806640625
1772563476718342700,8.3293427734375,-0.9915771484375,-0.0125579833984375,0.031646728515625
1772563476728410400,8.339410400390625,-0.9929656982421875,-0.012725830078125,0.0315399169921875
1772563476738478300,8.349478271484376,-0.9936676025390625,-0.0133514404296875,0.0315704345703125
1772563476748546300,8.35954638671875,-0.9925537109375,-0.0129852294921875,0.031829833984375
1772563476758614500,8.369614501953125,-0.990570068359375,-0.01263427734375,0.0309906005859375
1772563476768683500,8.37968359375,-0.9907379150390625,-0.0142974853515625,0.0321197509765625
1772563476778751500,8.38975146484375,-0.9914703369140625,-0.0138092041015625,0.0313262939453125
1772563476788819200,8.399819091796875,-0.9923248291015625,-0.0126800537109375,0.033447265625
1772563476798887400,8.409887451171874,-0.9923553466796875,-0.012603759765625,0.0324249267578125
1772563476808955400,8.419955322265626,-0.990447998046875,-0.0139617919921875,0.032196044921875
1772563476819024400,8.4300244140625,-0.9916839599609375,-0.0128631591796875,0.030242919921875
1772563476829092600,8.440092529296875,-0.9929656982421875,-0.013214111328125,0.0326385498046875
1772563476839160300,8.450160400390626,-0.9916839599609375,-0.01416015625,0.0334320068359375
1772563476849228300,8.460228271484375,-0.989715576171875,-0.0125274658203125,0.032806396484375
1772563476859296300,8.470296142578125,-0.99322509765625,-0.013458251953125,0.0330810546875
1772563476869364500,8.480364501953124,-0.99261474609375,-0.01177978515625,0.0323944091796875
1772563476879433500,8.49043359375,-0.992828369140625,-0.0140380859375,0.0324249267578125
1772563476889501400,8.50050146484375,-0.991485595703125,-0.013671875,0.03277587890625
1772563476899569400,8.5105693359375,-0.993255615234375,-0.0115966796875,0.03131103515625
1772563476909637400,8.520637451171876,-0.9918212890625,-0.01312255859375,0.030517578125
1772563476919705300,8.530705322265625,-0.99176025390625,-0.0125732421875,0.0317840576171875
1772563476929773300,8.540773193359374,-0.9910736083984375,-0.0131988525390625,0.031341552734375
1772563476939842600,8.550842529296874,-0.990203857421875,-0.013763427734375,0.032989501953125
1772563476949910500,8.56091064453125,-0.9921112060546875,-0.0126800537109375,0.0312042236328125
1772563476959978200,8.570978271484375,-0.9916229248046875,-0.0124664306640625,0.0335235595703125
1772563476970046500,8.58104638671875,-0.9920501708984375,-0.0125732421875,0.032073974609375
1772563476980114400,8.591114501953125,-0.9900360107421875,-0.0137939453125,0.032623291015625
1772563476990182400,8.601182373046875,-0.9918975830078125,-0.012115478515625,0.0316009521484375
1772563477000251600,8.611251708984375,-0.99212646484375,-0.0113067626953125,0.032379150390625
1772563477010319400,8.6213193359375,-0.990936279296875,-0.0132293701171875,0.0309295654296875
1772563477020387300,8.63138720703125,-0.9910888671875,-0.012908935546875,0.031280517578125
1772563477030455300,8.641455322265625,-0.9918212890625,-0.01190185546875,0.0326080322265625
1772563477040523500,8.6515234375,-0.9908294677734375,-0.01226806640625,0.03314208984375
1772563477050592500,8.661592529296875,-0.994140625,-0.0144805908203125,0.0315093994140625
1772563477060660500,8.671660400390625,-0.99267578125,-0.0129852294921875,0.0322265625
1772563477070728400,8.681728515625,-0.9894561767578125,-0.0128631591796875,0.0307159423828125
1772563477080796400,8.69179638671875,-0.991790771484375,-0.0123443603515625,0.03228759765625
1772563477090864400,8.701864501953125,-0.9930877685546875,-0.0127105712890625,0.031890869140625
1772563477100932400,8.711932373046874,-0.9923553466796875,-0.012542724609375,0.03179931640625
1772563477111001600,8.722001708984376,-0.9911956787109375,-0.0123443603515625,0.0310211181640625
1772563477121069300,8.7320693359375,-0.9909210205078125,-0.01373291015625,0.030731201171875
1772563477131137300,8.74213720703125,-0.9925994873046875,-0.0125579833984375,0.03167724609375
1772563477141205200,8.752205322265626,-0.9904937744140625,-0.0122222900390625,0.0323028564453125
1772563477151273500,8.7622734375,-0.9915618896484375,-0.0135650634765625,0.031341552734375
1772563477161341400,8.772341552734375,-0.9912109375,-0.013153076171875,0.03289794921875
1772563477171410400,8.782410400390624,-0.992095947265625,-0.01300048828125,0.0324554443359375
1772563477181478400,8.792478515625,-0.9921417236328125,-0.014739990234375,0.0313720703125
1772563477191546400,8.80254638671875,-0.9904937744140625,-0.0131378173828125,0.03076171875
1772563477201614300,8.8126142578125,-0.991943359375,-0.013214111328125,0.032989501953125
1772563477211682300,8.822682373046876,-0.9919586181640625,-0.01275634765625,0.031646728515625
1772563477221750500,8.83275048828125,-0.990509033203125,-0.013641357421875,0.0298919677734375
1772563477231819300,8.8428193359375,-0.991363525390625,-0.013580322265625,0.03375244140625
1772563477241887200,8.85288720703125,-0.9916534423828125,-0.0128631591796875,0.0324554443359375
1772563477251955500,8.86295556640625,-0.9921417236328125,-0.0130462646484375,0.031646728515625
1772563477262023400,8.8730234375,-0.9911956787109375,-0.0122528076171875,0.033172607421875
1772563477272091400,8.88309130859375,-0.9914398193359375,-0.0133209228515625,0.033294677734375
1772563477282159400,8.893159423828125,-0.9917144775390625,-0.0135955810546875,0.03302001953125
1772563477292228400,8.903228271484375,-0.9920806884765625,-0.0131683349609375,0.032135009765625
1772563477302296300,8.91329638671875,-0.991455078125,-0.0139617919921875,0.0314178466796875
1772563477312364300,8.9233642578125,-0.9910888671875,-0.0126800537109375,0.032257080078125
1772563477322432500,8.9334326171875,-0.9906768798828125,-0.014801025390625,0.0316009521484375
1772563477332500500,8.94350048828125,-0.990753173828125,-0.011566162109375,0.0303192138671875
1772563477342568400,8.953568359375,-0.9914703369140625,-0.0127105712890625,0.0315704345703125
1772563477352637400,8.963637451171875,-0.9933929443359375,-0.0132598876953125,0.0315704345703125
1772563477362705400,8.973705322265625,-0.9931640625,-0.01348876953125,0.0324859619140625
1772563477372773400,8.9837734375,-0.991485595703125,-0.012847900390625,0.0307159423828125
1772563477382841300,8.99384130859375,-0.9908294677734375,-0.0123748779296875,0.0317840576171875
1772563477392909600,9.00390966796875,-0.9904937744140625,-0.01239013671875,0.031890869140625
1772563477402977500,9.0139775390625,-0.990753173828125,-0.0128173828125,0.0323486328125
1772563477413046300,9.02404638671875,-0.99029541015625,-0.011566162109375,0.032867431640625
1772563477423114500,9.034114501953125,-0.9920806884765625,-0.0135955810546875,0.033477783203125
1772563477433182500,9.044182373046874,-0.9902801513671875,-0.0128021240234375,0.033111572265625
1772563477443250400,9.05425048828125,-0.990997314453125,-0.01220703125,0.0327606201171875
1772563477453318400,9.064318359375,-0.990264892578125,-0.0128021240234375,0.034423828125
1772563477463386600,9.07438671875,-0.9911956787109375,-0.0129852294921875,0.0320281982421875
1772563477473455400,9.084455322265624,-0.9903106689453125,-0.0133056640625,0.032745361328125
1772563477483523300,9.0945234375,-0.992034912109375,-0.0141143798828125,0.03240966796875
1772563477493591300,9.10459130859375,-0.9907989501953125,-0.013214111328125,0.032562255859375
1772563477503659500,9.114659423828124,-0.993499755859375,-0.0133056640625,0.03326416015625
1772563477513728300,9.124728271484376,-0.99273681640625,-0.0128326416015625,0.032958984375
1772563477523796200,9.134796142578125,-0.99163818359375,-0.0120849609375,0.034210205078125
1772563477533865200,9.144865234375,-0.9915313720703125,-0.0133514404296875,0.0330657958984375
1772563477543933400,9.154933349609376,-0.99249267578125,-0.0125274658203125,0.0306854248046875
1772563477554001400,9.16500146484375,-0.9920654296875,-0.012603759765625,0.0312042236328125
1772563477564069400,9.1750693359375,-0.991729736328125,-0.0137481689453125,0.0326080322265625
1772563477574137000,9.18513720703125,-0.991912841796875,-0.01287841796875,0.0326080322265625
1772563477584205300,9.195205322265625,-0.9920196533203125,-0.0135345458984375,0.0313568115234375
1772563477594274300,9.2052744140625,-0.99237060546875,-0.0136871337890625,0.0320587158203125
1772563477604342300,9.21534228515625,-0.99212646484375,-0.01190185546875,0.0321197509765625
1772563477614410500,9.225410400390626,-0.9908447265625,-0.0135498046875,0.032012939453125
1772563477624478500,9.235478515625,-0.9919281005859375,-0.013946533203125,0.033416748046875
1772563477634546200,9.245546142578124,-0.9922027587890625,-0.014373779296875,0.0318603515625
1772563477644615400,9.255615478515624,-0.989654541015625,-0.013153076171875,0.03033447265625
1772563477654683400,9.265683349609375,-0.9906768798828125,-0.01251220703125,0.0329742431640625
1772563477664751400,9.27575146484375,-0.9918975830078125,-0.013214111328125,0.0323486328125
1772563477674819300,9.2858193359375,-0.9922027587890625,-0.01116943359375,0.032806396484375
1772563477684887300,9.29588720703125,-0.9903411865234375,-0.0128326416015625,0.0323028564453125
1772563477694955300,9.305955322265625,-0.9936370849609375,-0.0119781494140625,0.0322723388671875
1772563477705024300,9.316024169921874,-0.9930419921875,-0.0122833251953125,0.0316925048828125
1772563477715092200,9.32609228515625,-0.992889404296875,-0.0121917724609375,0.031768798828125
1772563477725160400,9.336160400390625,-0.9917144775390625,-0.0121002197265625,0.030364990234375
1772563477735228400,9.346228515625,-0.9922332763671875,-0.012603759765625,0.031158447265625
1772563477745296100,9.356296142578126,-0.9925689697265625,-0.0136566162109375,0.031768798828125
1772563477755364400,9.3663642578125,-0.992340087890625,-0.0126495361328125,0.0324249267578125
1772563477765433300,9.376433349609375,-0.9910736083984375,-0.013763427734375,0.0325775146484375
1772563477775501300,9.386501220703124,-0.99127197265625,-0.0125885009765625,0.032318115234375
1772563477785569300,9.3965693359375,-0.9911346435546875,-0.0125732421875,0.0321044921875
1772563477795637200,9.40663720703125,-0.991455078125,-0.0133056640625,0.03338623046875
1772563477805705200,9.416705322265624,-0.9922027587890625,-0.013580322265625,0.032806396484375
1772563477815773200,9.426773193359375,-0.9929351806640625,-0.0129852294921875,0.0319671630859375
1772563477825842400,9.436842529296875,-0.99151611328125,-0.012908935546875,0.031524658203125
1772563477835910400,9.446910400390625,-0.99151611328125,-0.0120086669921875,0.0309906005859375
1772563477845978400,9.456978271484376,-0.9934844970703125,-0.012298583984375,0.0322723388671875
1772563477856046000,9.467046142578125,-0.9929351806640625,-0.0136260986328125,0.0317230224609375
1772563477866114300,9.4771142578125,-0.9909820556640625,-0.0127105712890625,0.032470703125
1772563477876182300,9.487182373046876,-0.9908294677734375,-0.0104522705078125,0.03057861328125
1772563477886251300,9.497251220703125,-0.9919281005859375,-0.012451171875,0.0316314697265625
1772563477896319500,9.507319580078125,-0.991790771484375,-0.01263427734375,0.0309906005859375
1772563477906387500,9.517387451171874,-0.9915771484375,-0.0122833251953125,0.030670166015625
1772563477916455200,9.527455078125,-0.9915313720703125,-0.011962890625,0.02972412109375
1772563477926523100,9.537523193359375,-0.9918975830078125,-0.0132598876953125,0.031524658203125
1772563477936591400,9.54759130859375,-0.9926605224609375,-0.011871337890625,0.032745361328125
1772563477946660400,9.557660400390626,-0.9933624267578125,-0.01226806640625,0.031707763671875
1772563477956728300,9.567728271484375,-0.99237060546875,-0.01190185546875,0.0325775146484375
1772563477966796300,9.57779638671875,-0.993255615234375,-0.01300048828125,0.0323333740234375
1772563477976864300,9.5878642578125,-0.990631103515625,-0.011383056640625,0.0315093994140625
1772563477986932200,9.59793212890625,-0.9915924072265625,-0.012786865234375,0.0318603515625
1772563477997000200,9.608000244140625,-0.99224853515625,-0.01287841796875,0.0311431884765625
1772563478007069400,9.6180693359375,-0.9915618896484375,-0.012237548828125,0.031585693359375
1772563478017137400,9.628137451171876,-0.9912261962890625,-0.0128173828125,0.0323028564453125
1772563478027205000,9.638205078125,-0.99127197265625,-0.012542724609375,0.032318115234375
1772563478037273300,9.6482734375,-0.9925994873046875,-0.011993408203125,0.0306243896484375
1772563478047341300,9.65834130859375,-0.993988037109375,-0.01171875,0.0327911376953125
1772563478057409300,9.6684091796875,-0.9931640625,-0.0130157470703125,0.032562255859375
1772563478067478500,9.678478515625,-0.991485595703125,-0.012847900390625,0.0337982177734375
1772563478077546200,9.688546142578126,-0.9901275634765625,-0.0125579833984375,0.0331573486328125
1772563478087614200,9.6986142578125,-0.9920196533203125,-0.0133056640625,0.0330657958984375
1772563478097682200,9.70868212890625,-0.9927215576171875,-0.0143280029296875,0.0325775146484375
1772563478107750400,9.71875048828125,-0.9925537109375,-0.0128631591796875,0.033477783203125
1772563478117818400,9.728818359375,-0.991058349609375,-0.01251220703125,0.0323028564453125
1772563478127887400,9.738887451171875,-0.9918212890625,-0.0134429931640625,0.0329437255859375
1772563478137955000,9.748955078125,-0.991119384765625,-0.0113372802734375,0.0325775146484375
1772563478148023300,9.759023193359376,-0.9917144775390625,-0.0128326416015625,0.0325469970703125
1772563478158091300,9.76909130859375,-0.992584228515625,-0.0140228271484375,0.033660888671875
1772563478168159200,9.7791591796875,-0.9913482666015625,-0.0123138427734375,0.0319061279296875
1772563478178227200,9.789227294921876,-0.9916534423828125,-0.0120086669921875,0.032958984375
1772563478188296200,9.799296142578125,-0.9915924072265625,-0.0148468017578125,0.0333404541015625
1772563478198364200,9.8093642578125,-0.9898529052734375,-0.0123291015625,0.0333251953125
1772563478208432000,9.81943212890625,-0.9923858642578125,-0.01287841796875,0.0308837890625
1772563478218500400,9.829500244140625,-0.9907989501953125,-0.0126953125,0.0305328369140625
1772563478228568300,9.839568359375,-0.9913787841796875,-0.011810302734375,0.0331878662109375
1772563478238636300,9.84963623046875,-0.9919586181640625,-0.0135955810546875,0.0332794189453125
1772563478248704300,9.859704345703125,-0.9911651611328125,-0.0118255615234375,0.03155517578125
1772563478258773200,9.869773193359375,-0.99212646484375,-0.0126800537109375,0.0312957763671875
1772563478268841200,9.87984130859375,-0.9906768798828125,-0.013458251953125,0.0326080322265625
1772563478278909200,9.8899091796875,-0.9900360107421875,-0.0137481689453125,0.0314178466796875
1772563478288977400,9.899977294921875,-0.9924774169921875,-0.013671875,0.0326995849609375
1772563478299045400,9.91004541015625,-0.991180419921875,-0.012176513671875,0.031768798828125
1772563478309114000,9.920114013671874,-0.9926605224609375,-0.01361083984375,0.0316314697265625
1772563478319182300,9.930182373046875,-0.99237060546875,-0.0128173828125,0.0328826904296875
1772563478329250300,9.940250244140625,-0.9916839599609375,-0.0126800537109375,0.032196044921875
1772563478339318300,9.950318359375,-0.992767333984375,-0.0128326416015625,0.0332183837890625
1772563478349386200,9.96038623046875,-0.991973876953125,-0.0126495361328125,0.032257080078125
1772563478359454500,9.970454345703125,-0.992919921875,-0.0123138427734375,0.0325469970703125
1772563478369522400,9.9805224609375,-0.9909210205078125,-0.013824462890625,0.0324859619140625
1772563478379591200,9.990591064453126,-0.992095947265625,-0.01300048828125,0.0334014892578125
1772563478389659400,10.000659423828125,-0.9918212890625,-0.0129852294921875,0.0328521728515625
1772563478399727400,10.010727294921875,-0.9913787841796875,-0.01190185546875,0.0328521728515625
1772563478409795300,10.02079541015625,-0.991424560546875,-0.0123443603515625,0.0299835205078125
1772563478419863300,10.03086328125,-0.9905242919921875,-0.0134429931640625,0.032684326171875
1772563478429931500,10.040931640625,-0.9921875,-0.0135498046875,0.030853271484375
1772563478440000300,10.051000244140624,-0.990997314453125,-0.01251220703125,0.0306854248046875
1772563478450068200,10.061068115234375,-0.99163818359375,-0.0120391845703125,0.0326080322265625
1772563478460136400,10.071136474609375,-0.9913330078125,-0.0148162841796875,0.0313568115234375
1772563478470204400,10.081204345703124,-0.9913177490234375,-0.0134429931640625,0.0316009521484375
1772563478480272400,10.0912724609375,-0.9921722412109375,-0.0115203857421875,0.030975341796875
1772563478490340400,10.10134033203125,-0.9920501708984375,-0.0125885009765625,0.0313568115234375
1772563478500409300,10.111409423828125,-0.993743896484375,-0.0124053955078125,0.0329437255859375
1772563478510476800,10.121476806640626,-0.9923858642578125,-0.0128936767578125,0.0330352783203125
1772563478520545000,10.131544921875,-0.9916839599609375,-0.012725830078125,0.033447265625
1772563478530613000,10.141613037109375,-0.99163818359375,-0.0129547119140625,0.0320281982421875
1772563478540681000,10.151680908203126,-0.9914703369140625,-0.014617919921875,0.0312957763671875
1772563478550749000,10.1617490234375,-0.991912841796875,-0.0130615234375,0.0311126708984375
1772563478560818000,10.17181787109375,-0.991729736328125,-0.0133056640625,0.0313720703125
1772563478570886000,10.181885986328124,-0.99169921875,-0.0126190185546875,0.030914306640625
1772563478580953900,10.191953857421876,-0.990692138671875,-0.01287841796875,0.0335235595703125
1772563478591022000,10.20202197265625,-0.993499755859375,-0.01324462890625,0.0323944091796875
1772563478601090000,10.212090087890624,-0.993804931640625,-0.0113067626953125,0.033050537109375
1772563478611158000,10.222157958984376,-0.99212646484375,-0.0126800537109375,0.0336151123046875
1772563478621227000,10.23222705078125,-0.991485595703125,-0.01434326171875,0.031219482421875
1772563478631295000,10.242294921875,-0.99176025390625,-0.012542724609375,0.030975341796875
1772563478641363000,10.252363037109374,-0.9914398193359375,-0.0111236572265625,0.0330657958984375
1772563478651431000,10.262430908203125,-0.991973876953125,-0.0127410888671875,0.0324249267578125
1772563478661499100,10.2724990234375,-0.9921875,-0.0134735107421875,0.03021240234375
1772563478671566800,10.28256689453125,-0.9923095703125,-0.011383056640625,0.0319366455078125
1772563478681635800,10.2926357421875,-0.9909210205078125,-0.01239013671875,0.0319061279296875
1772563478691704000,10.3027041015625,-0.9907379150390625,-0.0125732421875,0.0334930419921875
1772563478701772000,10.31277197265625,-0.99090576171875,-0.01324462890625,0.0325927734375
1772563478711840000,10.322840087890626,-0.9924468994140625,-0.012359619140625,0.031951904296875
1772563478721908000,10.332907958984375,-0.98980712890625,-0.0131683349609375,0.032623291015625
1772563478731976000,10.342975830078124,-0.99041748046875,-0.0133514404296875,0.0318145751953125
1772563478742045000,10.353044921875,-0.9915924072265625,-0.0123138427734375,0.03155517578125
1772563478752113000,10.36311279296875,-0.993621826171875,-0.0131988525390625,0.0325775146484375
1772563478762181000,10.37318115234375,-0.9921112060546875,-0.0133056640625,0.0303802490234375
1772563478772249000,10.3832490234375,-0.991607666015625,-0.0122222900390625,0.0334930419921875
1772563478782316800,10.39331689453125,-0.9924774169921875,-0.012237548828125,0.032470703125
1772563478792384800,10.403384765625,-0.9919891357421875,-0.013580322265625,0.030303955078125
1772563478802454000,10.4134541015625,-0.9912109375,-0.012725830078125,0.033538818359375
1772563478812522000,10.42352197265625,-0.992279052734375,-0.013671875,0.03338623046875
1772563478822590000,10.43358984375,-0.99249267578125,-0.0125885009765625,0.0320587158203125
1772563478832658000,10.443657958984375,-0.992828369140625,-0.0126953125,0.0311279296875
1772563478842726000,10.453725830078126,-0.9911651611328125,-0.012847900390625,0.032470703125
1772563478852793900,10.4637939453125,-0.991729736328125,-0.01263427734375,0.0323333740234375
1772563478862861800,10.47386181640625,-0.991363525390625,-0.0118408203125,0.0319061279296875
1772563478872931000,10.48393115234375,-0.9901580810546875,-0.01312255859375,0.031463623046875
1772563478882999000,10.4939990234375,-0.991455078125,-0.0133056640625,0.03045654296875
1772563478893067000,10.50406689453125,-0.99212646484375,-0.014373779296875,0.0305328369140625
1772563478903134700,10.514134765625,-0.989837646484375,-0.0111083984375,0.03057861328125
1772563478913203000,10.524202880859375,-0.9910430908203125,-0.0130462646484375,0.0336456298828125
1772563478923271000,10.53427099609375,-0.992156982421875,-0.0137176513671875,0.0319366455078125
1772563478933340000,10.54433984375,-0.9924468994140625,-0.0137939453125,0.0306854248046875
1772563478943408000,10.554408203125,-0.9921875,-0.013824462890625,0.0326995849609375
1772563478953475800,10.564475830078125,-0.9924774169921875,-0.0135498046875,0.031463623046875
1772563478963543800,10.574543701171875,-0.9918212890625,-0.01104736328125,0.0294952392578125
1772563478973611800,10.58461181640625,-0.99188232421875,-0.0125885009765625,0.032501220703125
1772563478983680000,10.594679931640625,-0.9917144775390625,-0.0128021240234375,0.032501220703125
1772563478993749000,10.6047490234375,-0.9905853271484375,-0.0123138427734375,0.0300140380859375
1772563479003817000,10.61481689453125,-0.9927825927734375,-0.014404296875,0.0318603515625
1772563479013885000,10.624885009765626,-0.9901275634765625,-0.0114898681640625,0.030853271484375
1772563479023953000,10.634952880859375,-0.9909820556640625,-0.0133819580078125,0.0320281982421875
1772563479034020900,10.645020751953124,-0.9901885986328125,-0.014617919921875,0.033294677734375
1772563479044088800,10.6550888671875,-0.9913177490234375,-0.0124664306640625,0.0322723388671875
1772563479054158000,10.665157958984375,-0.9910736083984375,-0.0127410888671875,0.0318756103515625
1772563479064225800,10.675225830078125,-0.992523193359375,-0.0133819580078125,0.0313873291015625
1772563479074293800,10.685293701171876,-0.9901885986328125,-0.012359619140625,0.0322418212890625
1772563479084362000,10.695362060546875,-0.991455078125,-0.0113983154296875,0.031158447265625
1772563479094430000,10.705429931640625,-0.9921417236328125,-0.0107269287109375,0.0335540771484375
1772563479104498000,10.715497802734374,-0.9927825927734375,-0.012298583984375,0.03399658203125
1772563479114567200,10.725567138671876,-0.991668701171875,-0.0125885009765625,0.032470703125
1772563479124635000,10.735634765625,-0.9926910400390625,-0.013519287109375,0.03240966796875
1772563479134702800,10.745702880859374,-0.9937591552734375,-0.0129547119140625,0.032257080078125
1772563479144770800,10.755770751953126,-0.99334716796875,-0.012939453125,0.0321044921875
1772563479154839000,10.765839111328125,-0.992218017578125,-0.01220703125,0.0312652587890625
1772563479164907000,10.775906982421875,-0.9915008544921875,-0.0139007568359375,0.0330810546875
1772563479174975000,10.78597509765625,-0.991485595703125,-0.0121307373046875,0.0318145751953125
1772563479185043700,10.796043701171875,-0.9921417236328125,-0.0126800537109375,0.0321197509765625
1772563479195112000,10.80611181640625,-0.990875244140625,-0.013214111328125,0.0314788818359375
1772563479205180000,10.816179931640624,-0.9924774169921875,-0.0135040283203125,0.03155517578125
1772563479215248000,10.826247802734375,-0.99212646484375,-0.0135345458984375,0.03204345703125
1772563479225315800,10.83631591796875,-0.991424560546875,-0.0121917724609375,0.0331878662109375
1772563479235384000,10.846384033203124,-0.9906158447265625,-0.01220703125,0.0336151123046875
1772563479245452800,10.856452880859376,-0.9925994873046875,-0.01153564453125,0.0305328369140625
1772563479255520800,10.866520751953125,-0.992919921875,-0.0119171142578125,0.0326385498046875
1772563479265589000,10.876589111328125,-0.99072265625,-0.0128631591796875,0.0324859619140625
1772563479275657000,10.886656982421876,-0.9938812255859375,-0.012481689453125,0.0326690673828125
1772563479285725000,10.896724853515625,-0.992095947265625,-0.0125885009765625,0.0330810546875
1772563479295793000,10.90679296875,-0.991119384765625,-0.0118255615234375,0.03192138671875
1772563479305862000,10.91686181640625,-0.9912567138671875,-0.0121307373046875,0.0320587158203125
1772563479315929900,10.926929931640625,-0.991851806640625,-0.0132293701171875,0.032440185546875
1772563479325997800,10.936997802734375,-0.99066162109375,-0.0130157470703125,0.0330047607421875
1772563479336066000,10.947066162109374,-0.9902496337890625,-0.0134735107421875,0.032379150390625
1772563479346134000,10.957134033203126,-0.9908447265625,-0.0126190185546875,0.0337982177734375
1772563479356202000,10.967201904296875,-0.992095947265625,-0.01251220703125,0.0321502685546875
1772563479366271000,10.97727099609375,-0.9912261962890625,-0.01171875,0.032684326171875
1772563479376339000,10.9873388671875,-0.9901123046875,-0.0125579833984375,0.0341644287109375
1772563479386407000,10.997406982421875,-0.990936279296875,-0.01348876953125,0.032623291015625
1772563479396475000,11.007474853515625,-0.990203857421875,-0.0117340087890625,0.032745361328125
1772563479406543000,11.017543212890626,-0.991668701171875,-0.0121307373046875,0.0329437255859375
1772563479416611000,11.027611083984375,-0.9928436279296875,-0.0126190185546875,0.0318450927734375
1772563479426679800,11.0376796875,-0.99200439453125,-0.011749267578125,0.0331878662109375
1772563479436748000,11.047748046875,-0.992889404296875,-0.0124359130859375,0.03143310546875
1772563479446816000,11.05781591796875,-0.99176025390625,-0.01263427734375,0.031280517578125
1772563479456884000,11.067884033203125,-0.9900360107421875,-0.0125274658203125,0.0333404541015625
1772563479466952000,11.077951904296874,-0.9922943115234375,-0.0124053955078125,0.0323028564453125
1772563479477020000,11.08802001953125,-0.991119384765625,-0.0117340087890625,0.0333099365234375
1772563479487087900,11.098087890625,-0.991546630859375,-0.0123443603515625,0.032684326171875
1772563479497156900,11.108156982421875,-0.99163818359375,-0.0129852294921875,0.0316314697265625
1772563479507225000,11.11822509765625,-0.9916839599609375,-0.0118560791015625,0.0318756103515625
1772563479517293300,11.128293212890625,-0.9921112060546875,-0.0117340087890625,0.033233642578125
1772563479527361300,11.138361328125,-0.9912109375,-0.011627197265625,0.0326080322265625
1772563479537429200,11.14842919921875,-0.9911651611328125,-0.01202392578125,0.033905029296875
1772563479547497200,11.158497314453125,-0.9925537109375,-0.0128021240234375,0.0308380126953125
1772563479557566200,11.168566162109375,-0.9905548095703125,-0.012420654296875,0.0313262939453125
1772563479567634200,11.17863427734375,-0.99371337890625,-0.011260986328125,0.03155517578125
1772563479577702400,11.188702392578126,-0.992462158203125,-0.0128631591796875,0.0316314697265625
1772563479587770000,11.19877001953125,-0.9905548095703125,-0.0122222900390625,0.0322418212890625
1772563479597838000,11.208838134765625,-0.9923858642578125,-0.0122833251953125,0.031219482421875
1772563479607906000,11.218906005859376,-0.9918060302734375,-0.0133209228515625,0.0314788818359375
1772563479617975300,11.228975341796875,-0.9920196533203125,-0.014556884765625,0.0327911376953125
1772563479628043300,11.239043212890625,-0.99267578125,-0.0118255615234375,0.0302886962890625
1772563479638111200,11.249111328125,-0.993560791015625,-0.0126495361328125,0.032318115234375
1772563479648179200,11.25917919921875,-0.991943359375,-0.012664794921875,0.0328826904296875
1772563479658247200,11.2692470703125,-0.991973876953125,-0.0113067626953125,0.0335693359375
1772563479668315100,11.279315185546874,-0.9922943115234375,-0.0124359130859375,0.03271484375
1772563479678384400,11.28938427734375,-0.99200439453125,-0.0119476318359375,0.0326995849609375
1772563479688452400,11.299452392578125,-0.991607666015625,-0.01336669921875,0.032257080078125
1772563479698520000,11.30952001953125,-0.9912567138671875,-0.012725830078125,0.0312652587890625
1772563479708588000,11.319588134765626,-0.991607666015625,-0.013336181640625,0.031951904296875
1772563479718656300,11.32965625,-0.9908447265625,-0.013214111328125,0.0326690673828125
1772563479728724200,11.33972412109375,-0.9903564453125,-0.0124969482421875,0.0321807861328125
1772563479738792200,11.349792236328126,-0.9930419921875,-0.01226806640625,0.03265380859375
1772563479748861400,11.359861328125,-0.992218017578125,-0.0132598876953125,0.031524658203125
1772563479758929200,11.36992919921875,-0.99237060546875,-0.0123138427734375,0.032684326171875
1772563479768997000,11.3799970703125,-0.99237060546875,-0.0120849609375,0.032867431640625
1772563479779065000,11.390065185546876,-0.992340087890625,-0.0128173828125,0.0310516357421875
1772563479789133300,11.40013330078125,-0.9909210205078125,-0.013763427734375,0.03131103515625
1772563479799201300,11.410201171875,-0.989959716796875,-0.01318359375,0.0317230224609375
1772563479809270000,11.42027001953125,-0.9915924072265625,-0.0133819580078125,0.032562255859375
1772563479819338200,11.430338134765625,-0.9925079345703125,-0.0147857666015625,0.0322113037109375
1772563479829406200,11.44040625,-0.9918365478515625,-0.01495361328125,0.0318603515625
1772563479839474200,11.45047412109375,-0.9905548095703125,-0.013214111328125,0.0314178466796875
1772563479849542100,11.460542236328125,-0.99114990234375,-0.0118408203125,0.0339813232421875
1772563479859610400,11.4706103515625,-0.9920654296875,-0.01214599609375,0.032867431640625
1772563479869679000,11.48067919921875,-0.9914703369140625,-0.012176513671875,0.0344390869140625
1772563479879747000,11.4907470703125,-0.991241455078125,-0.01165771484375,0.030120849609375
1772563479889815300,11.500815185546875,-0.99267578125,-0.01239013671875,0.031768798828125
1772563479899883300,11.51088330078125,-0.9930419921875,-0.012420654296875,0.03387451171875
1772563479909951200,11.520951171875,-0.9932403564453125,-0.0127105712890625,0.0335693359375
1772563479920019200,11.531019287109375,-0.9922637939453125,-0.011962890625,0.0311737060546875
1772563479930087400,11.54108740234375,-0.9920654296875,-0.013214111328125,0.033660888671875
1772563479940156200,11.55115625,-0.9908447265625,-0.01153564453125,0.0323944091796875
1772563479950224100,11.56122412109375,-0.9917755126953125,-0.012115478515625,0.02984619140625
1772563479960292000,11.5712919921875,-0.991485595703125,-0.013458251953125,0.0335845947265625
1772563479970360300,11.5813603515625,-0.9913787841796875,-0.0128173828125,0.0322265625
1772563479980428300,11.59142822265625,-0.9906005859375,-0.012481689453125,0.0318756103515625
1772563479990496300,11.601496337890625,-0.99346923828125,-0.0126190185546875,0.032257080078125
1772563480000565200,11.611565185546874,-0.991607666015625,-0.012664794921875,0.031005859375
1772563480010633200,11.62163330078125,-0.9915924072265625,-0.013427734375,0.032073974609375
1772563480020701200,11.631701171875,-0.9923095703125,-0.01470947265625,0.033538818359375
1772563480030769200,11.64176904296875,-0.99371337890625,-0.014434814453125,0.031951904296875
1772563480040837400,11.65183740234375,-0.9913330078125,-0.01226806640625,0.0317535400390625
1772563480050905300,11.6619052734375,-0.99462890625,-0.0111541748046875,0.0315093994140625
1772563480060974000,11.67197412109375,-1.0019378662109375,0.0003662109375,0.028228759765625
1772563480071042300,11.682042236328124,-0.954345703125,-0.0276031494140625,0.031585693359375
1772563480081110300,11.6921103515625,-1.0165863037109375,-0.0128936767578125,0.042449951171875
1772563480091178200,11.70217822265625,-1.0072479248046875,-0.011749267578125,0.036407470703125
1772563480101246200,11.71224609375,-0.9697265625,-0.02203369140625,0.0297393798828125
1772563480111314200,11.722314208984375,-0.996063232421875,-0.00823974609375,0.0309600830078125
1772563480121382100,11.732382080078125,-1.0005035400390625,-0.007659912109375,0.034393310546875
1772563480131451100,11.742451171875,-0.988616943359375,-0.0151824951171875,0.0312957763671875
