time,seconds_elapsed,z,y,x
1772563468432225000,0.04322509765625,0.13786416385769842,-0.001086589660309255,0.019448175781033934
1772563468442293000,0.05329296875,-0.007674772411584854,-0.012621014908421784,-0.0035252515166997907
1772563468452361000,0.06336083984375,-0.04916179805397987,-0.00025050416234880684,-0.025553031994774936
1772563468462429000,0.073428955078125,0.03783434835374355,-0.004177313084108755,-0.019617833259515462
1772563468472497000,0.083496826171875,0.12814356483221054,0.0004496982625685632,0.005150441565737128
1772563468482566000,0.09356591796875,0.14805121135115623,0.0030192382233217357,0.01650445047933608
1772563468492633900,0.1036337890625,0.08616846341192722,0.0020633988032117486,0.013567885570786892
1772563468502702000,0.1137021484375,0.029965514674782753,0.008563510545389726,0.00331657720208168
1772563468512770000,0.12377001953125,-0.009230769681930541,-0.02054151484253816,-0.02541007986012846
1772563468522839000,0.133839111328125,0.03920329861938953,-0.011955070946132764,-0.03334310134910047
1772563468532907000,0.143906982421875,0.05501110860407352,-0.023010727100819348,-0.0033786826528608795
1772563468542975000,0.15397509765625,0.0921036986798048,-0.00539206830188632,0.018957286991551518
1772563468553043200,0.164043212890625,0.13209025663137436,0.012338690835703164,0.008589658766798675
1772563468563111200,0.174111083984375,0.08275953175127505,-0.004577162589272484,0.0016901815766468644
1772563468573180000,0.184179931640625,0.052859483528137206,-0.004769442891515791,-0.008599778302013873
1772563468583248100,0.194248046875,0.019031448206305503,-0.0034671646539121866,-0.010765833762101829
1772563468593316000,0.204316162109375,0.05146715238690376,-0.0061836662041489035,-0.009297989699244499
1772563468603384000,0.214384033203125,0.10336100575327872,-0.004666092114895582,0.013564743765629828
1772563468613452000,0.2244521484375,0.11159282752573489,0.0034239374335389584,0.018476809998229145
1772563468623521000,0.23452099609375,0.08154489526450634,-0.0022302250037901103,0.011407127340324223
1772563468633589000,0.244589111328125,0.05688742386996746,-0.014376562472013755,-0.009350742799788713
1772563468643657000,0.254656982421875,0.05165361486971378,-0.007262492683110759,0.0011201631363481283
1772563468653725200,0.26472509765625,0.05821487308144569,-0.0027051581723149865,-0.006304433906450867
1772563468663793200,0.274793212890625,0.06491290941536426,-0.012354628190351649,0.003693155429512262
1772563468673862000,0.28486181640625,0.09782324537038803,-0.007219795185700059,0.013581256509013474
1772563468683930000,0.29493017578125,0.11235387502610683,-0.005611976396571844,0.01145341416746378
1772563468693998000,0.304998046875,0.08858487690389155,-0.005021654953761026,0.004107252655737101
1772563468704066000,0.315066162109375,0.04266191464066505,0.012238408799003809,-0.011554463389143347
1772563468714134000,0.325134033203125,0.04504793299436569,-0.0016039463316090403,-0.011721855845302344
1772563468724203000,0.335203125,0.06822130331099033,-0.004981569538544863,0.00217668645195663
1772563468734271000,0.34527099609375,0.09095394412279129,-0.014683728725044056,-0.0025174992462620137
1772563468744339000,0.3553388671875,0.10262684625983237,0.004262415817985311,0.002119001447968185
1772563468754407200,0.3654072265625,0.08094225319623946,0.005733995341043919,0.0005199322208762168
1772563468764476200,0.37547607421875,0.058361003553867336,0.0012786233673803507,-0.017199337408319113
1772563468774544100,0.385544189453125,0.050727147674560547,-0.0007969316645059734,-0.010080847172625362
1772563468784611800,0.39561181640625,0.06687807200849055,-0.01302848146446049,-0.025183942954055964
1772563468794680000,0.40568017578125,0.07210603578984737,-0.0106665655055549,0.0010528700537979602
1772563468804748000,0.415748046875,0.060575172472000116,-0.017694710576673968,0.027406331711262465
1772563468814817000,0.425817138671875,0.07808978637456894,-0.009608864013012497,0.008187361576221883
1772563468824885200,0.43588525390625,0.09037468293011187,0.000996883816551417,0.0033980084078386423
1772563468834953000,0.445952880859375,0.07392799052000046,0.008736711687827482,0.0009415916990488767
1772563468845021000,0.45602099609375,0.06092179395258426,-0.002120608883164823,-0.014313808567263185
1772563468855089000,0.4660888671875,0.06406359910964965,-0.004494973331689835,-0.007653875754028558
1772563468865158100,0.476158203125,0.06212123287022114,-0.0020104813058860597,0.007333228964917361
1772563468875226000,0.48622607421875,0.07228899114131927,0.002374273116979748,0.01241805794853717
1772563468885294000,0.496294189453125,0.06987550025880336,-0.010946076566679402,-0.00312302739135921
1772563468895362000,0.506362060546875,0.06164601657390594,-0.0025379666455555704,-0.0064197673818096514
1772563468905430000,0.516429931640625,0.06568506283164025,-0.006563596299290657,-0.009580240706726908
1772563468915499000,0.5264990234375,0.04951601831912994,0.002699504749663174,-0.009405176400765776
1772563468925567200,0.536567138671875,0.08168751860558986,0.0006952705214731395,0.0028842136668041345
1772563468935635200,0.54663525390625,0.07779168021082877,-0.014181934949057175,0.007103219601325691
1772563468945703000,0.556702880859375,0.08856500315964222,0.009127409772155806,-0.0034672377191483973
1772563468955771000,0.56677099609375,0.06731412533819675,0.009264845481468364,0.004622545234113931
1772563468965840100,0.576840087890625,0.061631988048553465,-0.011821133235003799,0.011247954723238944
1772563468975908000,0.586908203125,0.08123919031620025,0.0018498839166946708,0.011179784857854246
1772563468985976000,0.59697607421875,0.06477788485884665,-0.004236486792284995,0.016454291194677353
1772563468996044000,0.6070439453125,0.0652297202795744,-0.005794274160917848,0.008445756784081458
1772563469006112000,0.617112060546875,0.0736035808712244,-0.0025956516495440154,-0.005177914094552398
1772563469016181000,0.627180908203125,0.08197919502854346,0.012026565279765054,-0.002210259927995503
1772563469026249000,0.6372490234375,0.0819908854663372,-0.00017066212547942996,0.00643960459344089
1772563469036317200,0.647317138671875,0.07765607113242148,-0.010545870868489146,-0.0016715499414131044
1772563469046385200,0.65738525390625,0.06746960816085339,0.007682791321258991,0.016358246941678225
1772563469056452900,0.667452880859375,0.07284720954596996,0.0031336492500733584,0.007266374273784459
1772563469066522000,0.677522216796875,0.06894494141042232,-0.007283133612340315,0.005723967137373984
1772563469076590000,0.687590087890625,0.06968436160087585,0.00506634347885847,0.008367576981335879
1772563469086658000,0.697657958984375,0.05815992802381515,-0.014478570674918591,0.008020297913625836
1772563469096726000,0.70772607421875,0.05592062466442585,-0.012734393888711929,0.010136267154291272
1772563469106794200,0.717794189453125,0.0720826549142599,-0.005015983264800161,0.013144362929090856
1772563469116863000,0.727863037109375,0.06564531534314155,0.004995598063897341,0.00044617286492139096
1772563469126931000,0.737930908203125,0.07611001073420047,0.0036861685662996023,0.012210187351517379
1772563469136999200,0.747999267578125,0.07370587220191956,-0.010141747047007084,-0.0053390960056334735
1772563469147067100,0.758067138671875,0.09121171827614306,-0.004478615851933136,-0.008533909991569817
1772563469157135000,0.768135009765625,0.09480009815692901,-0.0005120777079835534,-0.01096161206252873
1772563469167204000,0.7782041015625,0.07864157503843307,-0.023118123864894733,-0.011785787926986813
1772563469177272000,0.78827197265625,0.05334522121846676,-0.001973345899581909,-0.0065100394811481235
1772563469187340000,0.798340087890625,0.07773264349997043,-0.01947555697830394,-0.002633088449947536
1772563469197408000,0.808407958984375,0.08192483449280262,-0.006475634888047352,-0.0011276157904416323
1772563469207476200,0.818476318359375,0.07698445548117161,-0.0035597931071184572,0.00894574219547212
1772563469217545000,0.828544921875,0.07848200056254863,-0.002355257889255881,0.009891425547748803
1772563469227613000,0.838613037109375,0.08476853348612785,-0.0028068193153478202,-0.004571216905675828
1772563469237681200,0.84868115234375,0.06965864263772964,-0.0020649240400176495,0.0006245251065120101
1772563469247749000,0.8587490234375,0.0813286221653223,0.0015088153940625488,-0.010243380790576339
1772563469257817000,0.868817138671875,0.0629243659466505,-0.013253038334799929,0.004087451976723969
1772563469267886000,0.878885986328125,0.06052899524271488,-0.001818730726605281,0.010711546291597186
1772563469277954000,0.8889541015625,0.0822264477878809,-0.007580892716208472,-0.017299655977636573
1772563469288022000,0.89902197265625,0.07548340326845646,0.007787000614404678,-0.016910510529577732
1772563469298090000,0.909090087890625,0.07607786203026771,0.008822746003465727,-0.02168291256316006
1772563469308158200,0.919158203125,0.07952011143863201,-0.00984728501192294,0.000942066623084247
1772563469318227000,0.92922705078125,0.08610241243839263,-0.016900034801336006,0.008112360111251472
1772563469328295000,0.939294921875,0.053634559553861615,-0.00808712520529516,-0.0007530103243887424
1772563469338363000,0.94936279296875,0.07502981428205967,-0.011164011899987236,0.004464870454370975
1772563469348431000,0.95943115234375,0.06185352184474468,0.008457657284429296,-0.0007122399225831032
1772563469358499000,0.9694990234375,0.06634498804509639,0.006272732727089897,0.002890095418319106
1772563469368568000,0.979568115234375,0.08595394387841224,-0.0016589187887031584,0.003621770693734288
1772563469378636000,0.989635986328125,0.06800619925558567,-0.010990491097141057,-0.00824088186174631
1772563469388704000,0.9997041015625,0.06740238814353942,-0.00884126804084517,0.0006541530597954988
1772563469398772000,1.00977197265625,0.07951777335107325,-0.007819213250419125,-0.010681845273077487
1772563469408840000,1.01983984375,0.07293781043887138,-0.00011997311785817146,0.008408530046232043
1772563469418909200,1.0299091796875,0.07428279530704021,0.01070785649716854,-0.0006981017993763089
1772563469428977000,1.039976806640625,0.06380173330307007,0.00025484241074882446,0.013180822481960057
1772563469439044900,1.050044921875,0.09118307670354843,-0.0017420578943565487,0.004554850292764603
1772563469449113000,1.060113037109375,0.07935527626574039,-0.009789252948062493,0.0037174130879342555
1772563469459181000,1.07018115234375,0.05811141270697116,0.0033858978449366984,-0.010789835692197084
1772563469469250000,1.08025,0.07666413748562335,-0.0077637384698260575,0.0019776202159002424
1772563469479318000,1.090318115234375,0.07831073564887046,0.0025110695054754613,-0.004998283211328089
1772563469489386000,1.100385986328125,0.0564542931497097,0.009153238333156332,0.0035535277631133792
1772563469499454200,1.1104541015625,0.058849079331755635,0.006652589756995439,0.013056721178255975
1772563469509522200,1.120522216796875,0.06886661547720432,-0.004379676388949156,0.003029650019481778
1772563469519591400,1.13059130859375,0.05943710835278034,-0.019644429005496202,0.020848945957049725
1772563469529659400,1.140659423828125,0.06796352915763855,-0.018831404722714797,0.005075695829093456
1772563469539727000,1.15072705078125,0.0829360573619604,0.0009392810109537094,0.005079897080175578
1772563469549795000,1.160795166015625,0.08054302474558353,-0.0018878139074426142,-0.011036029005609451
1772563469559864300,1.1708642578125,0.07486088745594024,-0.01215426504635252,0.0035787718022242186
1772563469569932300,1.180932373046875,0.08772855233550071,0.0031769130030646917,-0.01279449004549533
1772563469580000300,1.191000244140625,0.07575520594716072,0.0019741678834892806,0.005522928139939904
1772563469590068200,1.201068115234375,0.07126198618113994,-0.009305378421256318,0.0027519290566444393
1772563469600136200,1.21113623046875,0.08067804930210112,-0.01168214488942176,0.006507957121916115
1772563469610204200,1.2212041015625,0.06271627615392207,-0.005308883530460298,-0.0007027414418756962
1772563469620273200,1.231273193359375,0.06765256351232528,-0.004435470829950645,-0.014694405382685363
1772563469630341400,1.24134130859375,0.06795709941685199,-0.008707622590661048,-0.0043925358705222605
1772563469640409300,1.251409423828125,0.08890227228999137,-0.011630113308085128,0.019900851451978088
1772563469650477000,1.26147705078125,0.06616027912795543,0.003273222117545083,0.007555895272269845
1772563469660545000,1.271544921875,0.05807751043736934,0.0011318444409873336,-0.01065060988459736
1772563469670614300,1.2816142578125,0.08067161956131458,-0.0063938931550364935,-0.008153167045675218
1772563469680682200,1.29168212890625,0.07438216402828693,0.006509811152284965,-0.001095101760327816
1772563469690750200,1.301750244140625,0.08919394871294498,-0.004530190775543451,-0.013276939800195396
1772563469700818200,1.311818115234375,0.07049100180864333,-0.008080467135645449,-0.006382248383015394
1772563469710886100,1.32188623046875,0.06884323460161686,0.012466436268063262,-0.0004431041250005364
1772563469720955100,1.331955078125,0.07616846292316913,0.009275732201663776,-0.0018613003598526119
1772563469731023400,1.3420234375,0.07811492081582545,-0.00577568819145672,-0.010385602272860705
1772563469741091300,1.35209130859375,0.06734335143268108,-0.00006961290379986166,-0.009108202748186885
1772563469751159300,1.3621591796875,0.06659691697955131,-0.00891802307148464,-0.010955511115305126
1772563469761227000,1.37222705078125,0.06599953560829162,0.0035948461541905996,0.016585004902258515
1772563469771296300,1.382296142578125,0.08081658098995685,0.004657022892450914,-0.0008306421378627419
1772563469781364200,1.3923642578125,0.06151157653927802,0.00015769304605200887,0.0022580811250954864
1772563469791432200,1.40243212890625,0.07363222244381905,-0.009332147697173058,0.0004747048396617174
1772563469801500400,1.41250048828125,0.0713859048217535,-0.0023576690420508382,-0.00837561415731907
1772563469811568400,1.422568359375,0.06704933692216873,-0.02683818556764163,-0.005719364027492702
1772563469821637000,1.43263720703125,0.07348667649328708,-0.000047976460726931686,0.0019445216638967393
1772563469831705300,1.442705322265625,0.0736386521846056,-0.00966936202859506,-0.011465396866202354
1772563469841773300,1.452773193359375,0.07588087815344333,0.007114234185684472,-0.0005010448573157191
1772563469851841300,1.46284130859375,0.05867372276484966,-0.004202210063347592,-0.009191095258668064
1772563469861909200,1.4729091796875,0.07378595170080661,0.00367312642163597,-0.014040982975251972
1772563469871978200,1.482978271484375,0.06929507002234458,0.001326307567162439,0.001349259184487164
1772563469882046200,1.493046142578125,0.0799251851081848,0.0012605762540362775,0.0012019231356680392
1772563469892114200,1.5031142578125,0.05343582211136818,-0.006408761930605396,-0.014376169746369122
1772563469902182100,1.51318212890625,0.06421148314774036,-0.00205841210084036,-0.0002386310614645481
1772563469912250400,1.52325048828125,0.08711188174188136,-0.000794538778020069,-0.006231332137621939
1772563469922319000,1.533319091796875,0.0805266581326723,0.002277397746918723,-0.016625117716938257
1772563469932387000,1.543386962890625,0.07094868244826794,-0.0059262665101326994,0.0022114655043929815
1772563469942455300,1.553455322265625,0.0761871676236391,-0.016043134844209998,0.016264358113147317
1772563469952523300,1.563523193359375,0.07065232985019683,-0.01863370845983736,-0.007039835508912801
1772563469962591200,1.57359130859375,0.07528875747919082,0.00928133082538843,-0.013059205396287143
1772563469972660200,1.58366015625,0.07289221773147582,-0.00023565365308895705,-0.002477313366346061
1772563469982728200,1.593728271484375,0.07034837846755981,0.005900775875849649,-0.0003280994432047009
1772563469992796200,1.603796142578125,0.06271802971959113,0.007069673524750396,-0.016611417985148726
1772563470002864000,1.613864013671875,0.058679567983746524,-0.005605994180357083,-0.016644333874061702
1772563470012932400,1.623932373046875,0.07393792739212512,-0.008578059660550206,-0.00599485650062561
1772563470023001000,1.6340009765625,0.07782733604609966,0.0017707999316509812,0.008496792851574718
1772563470033069000,1.644069091796875,0.17011399007737635,0.003063479223847389,-0.04180427489802241
1772563470043137300,1.65413720703125,0.5483563513278961,0.027162102026073262,0.0353388782761991
1772563470053205200,1.664205322265625,0.18056348789930343,-0.03296634045857936,0.08054539936576038
1772563470063273200,1.674273193359375,-0.6218371826022863,0.008806151061691343,-0.0010381839413195848
1772563470073342200,1.68434228515625,-0.7170137128561734,0.022884315109020097,-0.12986392235141248
1772563470083410200,1.69441015625,0.03644727790951729,0.011984114377526566,-0.1437555599838495
1772563470093478100,1.70447802734375,0.6514525686651468,0.008326623916439712,0.048385589517094194
1772563470103546000,1.714546142578125,0.5499871674001217,-0.023599477641051633,0.17856369238421319
1772563470113614300,1.7246142578125,0.2007254014402628,-0.036325861753243954,0.13620974771417677
1772563470123683300,1.734683349609375,-0.025222119539976117,-0.025393713247217238,-0.009492270162329078
1772563470133751000,1.7447509765625,-0.16741583703458307,-0.010314728993736207,-0.1491275170794688
1772563470143819300,1.7548193359375,-0.18473288253843784,0.016158733181050048,-0.13530110843665896
1772563470153887200,1.76488720703125,-0.04190495879352092,0.033697750872513275,-0.016597791318595408
1772563470163955200,1.774955078125,0.24104162973761556,-0.006495536031760275,0.05664901200421154
1772563470174024200,1.785024169921875,0.41866146540045734,-0.010079066207492724,0.08280439380630851
1772563470184092200,1.795092041015625,0.23923721066415307,-0.021281044630846006,0.04675506570581346
1772563470194160000,1.80516015625,-0.07287234398722649,-0.023078741702577097,-0.019950791540928183
1772563470204228000,1.81522802734375,-0.20115502502918242,0.0018059534434229135,-0.06544080574698746
1772563470214296000,1.825296142578125,-0.056059156352281564,0.003235547855123877,-0.050228477437421676
1772563470224365300,1.835365234375,0.20517536658644675,0.01591879607848823,-0.01717515281513333
1772563470234433300,1.845433349609375,0.254248901835084,0.002093593012075871,0.053196387332305306
1772563470244501000,1.8555009765625,0.15608195759356022,-0.008906122571136802,0.050294966802373525
1772563470254569200,1.8655693359375,0.032331659284234045,-0.017490420176228507,0.020213205336779356
1772563470264637200,1.87563720703125,-0.029136662635207176,-0.0028494985464494675,-0.012510668135434388
1772563470274706200,1.8857060546875,-0.007228197687864303,-0.017340097585879264,-0.034785884035937485
1772563470284774400,1.8957744140625,0.053555649098753925,0.0037875283152330663,-0.015871267142333088
1772563470294842400,1.90584228515625,0.13805997869074343,0.025355052604107184,-0.00044759763702750203
1772563470304910000,1.91591015625,0.1554723012626171,0.018200221546553073,0.031911461110785605
1772563470314978000,1.92597802734375,0.09705050743222236,0.0001541219826322049,0.018565730390697716
1772563470325047300,1.93604736328125,0.007907412123680114,-0.02745116636683233,-0.014833813853375613
1772563470335115300,1.946115234375,-0.009182838886976241,-0.03895739756692201,-0.0015733867965638637
1772563470345183200,1.956183349609375,0.06257540637850761,-0.012488885561889037,0.002456599371880293
1772563470355251200,1.966251220703125,0.11670213336348532,0.008200878644920886,0.001240063188970089
1772563470365319200,1.976319091796875,0.13243512454628945,0.01676369507056661,0.0016007862601429223
1772563470375388200,1.98638818359375,0.08087503317892551,0.015490606394829227,-0.002621836403571069
1772563470385456400,1.996456298828125,0.042758945274353026,-0.0038355230422690506,-0.023060338396206498
1772563470395524400,2.0065244140625,0.03376666052341461,-0.020766190443886442,-0.011674253843910992
1772563470405592300,2.01659228515625,0.06423194141387939,-0.021272112405719235,-0.0011908902850002049
1772563470415660000,2.026659912109375,0.08379296645224094,-0.005923407832765951,0.021816220086626707
1772563470425729300,2.036729248046875,0.12569792524576187,0.0027218627119436857,0.007532916255481541
1772563470435797200,2.04679736328125,0.12410977927148341,-0.0021869886502623556,0.005326601850241423
1772563470445865200,2.056865234375,0.06595043576955795,0.022616805012943223,-0.02688519391398877
1772563470455933400,2.066933349609375,0.027791093245148658,-0.008495167150069028,-0.01605926399510354
1772563470466001200,2.077001220703125,0.03477028460800648,-0.011714394058054313,0.006550188828445971
1772563470476069000,2.087069091796875,0.0876899738907814,-0.028658487196825445,-0.008917612079530953
1772563470486138000,2.09713818359375,0.1400572899878025,-0.015083468632353469,-0.008273834283277392
1772563470496205600,2.10720556640625,0.1231909108608961,0.0012138053697068243,-0.003056209232844412
1772563470506273800,2.117273681640625,0.05351122543513775,-0.001776517286384478,-0.01010499523319304
1772563470516341800,2.127341796875,0.028988778597116467,0.01919199992972426,-0.006668225717544555
1772563470526410500,2.137410400390625,0.039589083066582674,-0.006661549381585792,-0.020548976629786192
1772563470536478700,2.147478759765625,0.07470248202383518,-0.015981586515856905,0.0009445143084973097
1772563470546546700,2.157546630859375,0.11208616400063037,-0.02246891184169799,0.027520496142841872
1772563470556614700,2.16761474609375,0.11045125627517699,0.0021696721892803905,0.0281464825540781
1772563470566682600,2.1776826171875,0.08879998095929623,-0.001984470081795007,0.006471716764755547
1772563470576750800,2.187750732421875,0.05576397279798984,-0.007724036647100001,-0.025425715820677576
1772563470586819600,2.197819580078125,0.040945758372545236,0.00271125911953859,-0.029098997505940496
1772563470596887600,2.207887451171875,0.06335925023257732,-0.015275785467214881,-0.021724888541363178
1772563470606955800,2.217955810546875,0.07080255197584628,-0.018251440277136863,-0.0051825902696698905
1772563470617023700,2.228023681640625,0.09891863939166068,-0.011569286498939619,0.008945048075728117
1772563470627091700,2.238091796875,0.10567629695832728,-0.004719968593446537,0.009599858722649514
1772563470637160700,2.24816064453125,0.0977852514475584,-0.004795426716143265,0.0061047466158866874
1772563470647228700,2.258228759765625,0.06264496448338032,0.0035331151627469807,-0.01935552906151861
1772563470657296600,2.268296630859375,0.022838439273834228,-0.007822702115448192,-0.02182845851369202
1772563470667364600,2.278364501953125,0.04584989702701568,0.015190162143530323,-0.026824549767933786
1772563470677432800,2.288432861328125,0.080683894520998,-0.0021052560504060238,0.01592303386218846
1772563470687501600,2.29850146484375,0.09489595974683761,-0.029587566474173217,0.01866564710121602
1772563470697569500,2.308569580078125,0.0977589479625225,-0.015155099963303654,0.006828092454373836
1772563470707637800,2.3186376953125,0.06217383984029293,0.002932071396522224,-0.002683795723877847
1772563470717705700,2.328705810546875,0.054552258920669554,0.0019106741932220755,-0.011397774990089237
1772563470727773700,2.338773681640625,0.04781038344502449,-0.009042635831842198,0.0032430735744535923
1772563470737842400,2.348842529296875,0.06544891598820686,0.0055626482289750125,-0.010602569491788744
1772563470747910700,2.35891064453125,0.08474281452298164,0.00305501278960146,-0.004950096688047051
1772563470757978600,2.368978515625,0.10419394944608211,-0.01877111676968634,-0.01068038396835327
1772563470768046600,2.379046630859375,0.07891922293603419,-0.004913993328204378,0.0057403702829033135
1772563470778114600,2.389114501953125,0.05559212336242199,0.0008483421913348137,-0.011963080722652375
1772563470788183800,2.399183837890625,0.05515314742326736,0.0017485241677612066,-0.007014262676239013
1772563470798251500,2.40925146484375,0.07220540451109408,0.01562532955724746,-0.022989501649700105
1772563470808319500,2.419319580078125,0.07623276033103465,0.010077458772296086,-0.023393881199508904
1772563470818387700,2.4293876953125,0.07323182494938373,0.0013659454578068106,0.008664367970824241
1772563470828455700,2.43945556640625,0.07443067934513091,-0.0038180421845056115,0.0029968802610412237
1772563470838524700,2.449524658203125,0.08641045547425746,-0.02499796452843584,0.0023328268617391584
1772563470848592600,2.459592529296875,0.07444763047993183,-0.028928837703960014,0.00476483978163451
1772563470858660600,2.46966064453125,0.05785071594417095,0.0030828141119796783,-0.002775565660558641
1772563470868728600,2.479728515625,0.06682721860408783,0.013115319497697054,-0.011554098062962292
1772563470878796500,2.489796630859375,0.05290975241065025,-0.004663370434846729,0.0016249343207105993
1772563470888865800,2.49986572265625,0.06771919900774956,0.005386067819362506,0.0017269333904609083
1772563470898933800,2.509933837890625,0.08566694363057613,0.0036054588797502216,0.012537154283560812
1772563470909001500,2.52000146484375,0.09105272832214832,-0.023861160784540696,-0.006777494778297841
1772563470919069700,2.530069580078125,0.09299918621480464,-0.029422612570272757,0.009022643356584013
1772563470929137700,2.5401376953125,0.06965864263772964,-0.003925923005770892,-0.016109204084053634
1772563470939206700,2.55020654296875,0.07564590035378932,-0.009778384494176133,-0.0025906375477090476
1772563470949275000,2.56027490234375,0.07071370464861393,0.005742196913808584,0.0041041839158162475
1772563470959342600,2.570342529296875,0.0663619391798973,-0.002463102177903056,0.009477912843413651
1772563470969410600,2.58041064453125,0.07922726597189902,-0.012312076823413372,0.006329531815089285
1772563470979478500,2.590478515625,0.08385667933821678,-0.013021165807684882,0.004048544738441706
1772563470989547800,2.6005478515625,0.07741933976709842,-0.001446938272146508,-0.012453713783808051
1772563470999615700,2.61061572265625,0.07263327453434466,-0.0020895926903933284,0.004024396677874028
1772563471009683700,2.62068359375,0.07189619243144989,0.008958446413418277,-0.013607486928813159
1772563471019751700,2.630751708984375,0.06202011058330536,-0.01383872013511136,-0.013573986518010497
1772563471029819600,2.640819580078125,0.0681441464215517,-0.020376012949366123,-0.002212561482936144
1772563471039888600,2.650888671875,0.08264145832955837,0.004547817763779312,0.006018858430720865
1772563471049956600,2.66095654296875,0.071107087880373,0.006688163393875584,-0.0003298164762556553
1772563471060024800,2.67102490234375,0.07409925543367862,-0.0035043548591434954,0.0022452216435223816
1772563471070092800,2.6810927734375,0.07680734534859657,0.011288368932018056,-0.0018051862584426998
1772563471080160500,2.691160400390625,0.05661386762559414,-0.008585128722153603,-0.014629596518166362
1772563471090228500,2.701228515625,0.05497077659368515,-0.0009283303586766123,-0.022074067305214704
1772563471100297700,2.711297607421875,0.07082768641710281,-0.004813062837533653,0.0016796601826325058
1772563471110365700,2.72136572265625,0.0672246934890747,-0.001163947479147464,-0.009507906122878194
1772563471120433700,2.73143359375,0.08502572311758995,-0.0017107037748675792,-0.01611490317247808
1772563471130501600,2.741501708984375,0.08293313475251197,-0.0037844504421576854,0.010757650455646216
1772563471140569600,2.751569580078125,0.07141337735056877,0.0028338169201277195,0.0006615326486527919
1772563471150638600,2.761638671875,0.08892389959990978,0.003184740116493776,-0.006171820502728223
1772563471160706800,2.771706787109375,0.06498246752023697,0.0021281802682671697,-0.00644534021448344
1772563471170774800,2.78177490234375,0.06573124006092548,0.0028687329698819665,-0.0071372680013999336
1772563471180842800,2.7918427734375,0.07993746006786823,-0.013838363942084833,0.009815766495652497
1772563471190910500,2.801910400390625,0.07589373763501643,0.005368267301190644,0.0062252311903983355
1772563471200979700,2.811979736328125,0.06991232513785361,-0.0023934984072577206,-0.004564202642999589
1772563471211047700,2.822047607421875,0.06677694972157477,-0.009799509480595587,0.004208630670979619
1772563471221115600,2.83211572265625,0.060196986809372896,0.002265990436915308,-0.008555391171015798
1772563471231184000,2.842183837890625,0.06468728396594524,-0.0034590087469201533,-0.015772263747267423
1772563471241251600,2.85225146484375,0.053013797307014464,-0.009451326230587438,0.00009147767573595046
1772563471251320600,2.862320556640625,0.08653320507109165,0.000033107685158029196,-0.007408193897269666
1772563471261388800,2.872388916015625,0.08428396483957767,-0.005040834578266367,-0.005102949162200093
1772563471271456800,2.882456787109375,0.08323416352570057,-0.0032357670508325097,-0.009296126535721122
1772563471281524700,2.892524658203125,0.07889934919178486,-0.0040610206275247035,0.005566073161922395
1772563471291592700,2.9025927734375,0.06258943490386008,0.00557630229499191,-0.001317658469825983
1772563471301661700,2.91266162109375,0.058547466036677355,0.004643368826434016,-0.009772365745343268
1772563471311729700,2.922729736328125,0.05600128868520259,0.01420423811241053,0.010793233225680886
1772563471321797600,2.932797607421875,0.08412906653881072,-0.0013780103549361229,-0.0006552125057205558
1772563471331865900,2.942865966796875,0.0703618224710226,-0.004961166071332991,-0.00658697717487812
1772563471341933800,2.952933837890625,0.0904126768529415,0.0021185995891690253,-0.01033938851095736
1772563471352002600,2.96300244140625,0.07964519912302494,-0.0032464163090102373,0.014505604812316596
1772563471362070500,2.973070556640625,0.07066928098499775,0.006015049905283377,0.00448887238446623
1772563471372138800,2.983138671875,0.0673819298774004,0.0010777761661913245,0.005922814177721739
1772563471382206700,2.993206787109375,0.07606032637357711,-0.008022873463202268,0.003007036328874528
1772563471392274700,3.003274658203125,0.08158873440623284,-0.00744309168071486,-0.00526690755225718
1772563471402342700,3.0133427734375,0.0767968239545822,-0.020632426262693477,-0.02357672695312649
1772563471412411600,3.02341162109375,0.07605155854523181,-0.009378699385793879,-0.011259754758886992
1772563471422479600,3.033479736328125,0.07531447644233703,-0.008009429459739476,-0.004590250399708748
1772563471432547600,3.043547607421875,0.08159750223457812,-0.004041156016429886,-0.0030290654975920913
1772563471442615800,3.05361572265625,0.0681312869399786,-0.0016402506208512931,-0.01136741638444364
1772563471452683800,3.063683837890625,0.06963058558702469,-0.006025096375262364,-0.0033676498021930454
1772563471462752500,3.07375244140625,0.07516133170723914,0.0009775580615736543,0.00697623222079128
1772563471472820700,3.08382080078125,0.08877543103992938,-0.013444368788972497,-0.0015619155544787644
1772563471482888700,3.093888671875,0.0742611679971218,-0.014656210530456154,0.01078501338660717
1772563471492956700,3.103956787109375,0.07680559178292751,-0.006153207133803516,0.015984189464896915
1772563471503025400,3.114025390625,0.06812485719919205,0.0036753092455677687,-0.007302322370000183
1772563471513094400,3.124094482421875,0.062144029223918915,-0.0044348315091338,-0.01764865207839757
1772563471523162400,3.134162353515625,0.07665712322294711,-0.002392493760259822,-0.013380984696559607
1772563471533230600,3.144230712890625,0.07097089428007602,-0.01834269875716418,-0.006245177999883889
1772563471543298600,3.154298583984375,0.07800210809111595,0.0047651777083519845,-0.011553550073690712
1772563471553366500,3.164366455078125,0.08384089724719523,-0.0006453852314502,0.005778656466677784
1772563471563435300,3.174435302734375,0.08623100725412368,0.00111787984771654,0.005555880561470985
1772563471573503500,3.18450341796875,0.0823398450344801,0.00008819887326098978,-0.0003542567977681756
1772563471583571500,3.194571533203125,0.06603168431222438,-0.0030272845324594527,-0.029004231894575058
1772563471593639400,3.204639404296875,0.0637871202558279,0.0017312625057063996,-0.0035161548947915434
1772563471603707400,3.214707275390625,0.07785480857491493,-0.0030320703054312614,0.004629340301081538
1772563471613776400,3.2247763671875,0.06917056685984134,-0.015722853381279853,0.01524681510105729
1772563471623844400,3.23484423828125,0.08368716799020767,-0.004405952474521473,0.007206606910564005
1772563471633912300,3.244912353515625,0.0869797797948122,-0.012971106987725942,-0.009648629767820239
1772563471643980500,3.25498046875,0.0751549019664526,-0.005482541330624371,-0.009535524782165884
1772563471654048500,3.265048583984375,0.0718652127712965,-0.013949614897370337,0.009953567531146108
1772563471664117200,3.2751171875,0.07725508911609649,-0.001965326989907771,-0.007763802401907742
1772563471674185500,3.285185546875,0.07695347582101822,-0.005211706766299903,-0.01837415334135294
1772563471684253400,3.29525341796875,0.07965045982003212,-0.009456605193903669,-0.014861176784336566
1772563471694321400,3.3053212890625,0.087424016430974,-0.024819648819463327,0.005184161172248423
1772563471704389400,3.315389404296875,0.06392799003124237,-0.006538516656961291,-0.0059000178240239615
1772563471714457600,3.32545751953125,0.07201485037505627,-0.0027201639452017843,-0.010523768634535371
1772563471724526300,3.3355263671875,0.07456336581408977,-0.0036683132492005823,0.002765373060107231
1772563471734594300,3.34559423828125,0.0685755235761404,-0.005352567408559844,-0.0010021262472495436
1772563471744662500,3.35566259765625,0.07874620445668697,0.003027275399304926,0.0015442702999338507
1772563471754730500,3.36573046875,0.08113865255117415,-0.015345599300414323,-0.01974525903146714
1772563471764798500,3.375798583984375,0.074257076343894,-0.00830123374685645,-0.016593663132749497
1772563471774867500,3.385867431640625,0.08083820829987526,0.0012615535015705972,0.0016158011661842465
1772563471784935400,3.395935302734375,0.06692366471588611,0.004453116084495559,-0.00004891717564314604
1772563471795003400,3.40600341796875,0.07456102772653102,-0.001773201951291412,-0.01032689435556531
1772563471805071400,3.4160712890625,0.07575520594716072,-0.004939264766778796,0.005886537287943065
1772563471815139600,3.4261396484375,0.0830845259219408,-0.012937387381214648,-0.007927651194110511
1772563471825208300,3.436208251953125,0.07200666706860065,-0.005751530997734517,0.004250350920855999
1772563471835276300,3.4462763671875,0.0730547148168087,-0.0029898111994378267,0.0004668503267690539
1772563471845344500,3.456344482421875,0.07709843724966049,-0.004375447738403454,-0.003583594107814133
1772563471855412500,3.46641259765625,0.06857084740102291,-0.006535886308457702,-0.0016927753925323485
1772563471865480400,3.47648046875,0.055852820125222205,-0.010170690013701095,-0.00975044617448002
1772563471875549400,3.486549560546875,0.0905693287193775,-0.005114347339048982,-0.002501023035496473
1772563471885617400,3.496617431640625,0.08113748350739479,0.006117478233296424,0.003782441148161888
1772563471895685400,3.506685302734375,0.0687193159610033,0.0016730751782190053,0.006397920876182616
1772563471905753300,3.51675341796875,0.08098843042552471,-0.00256709227534011,-0.0029402912355959415
1772563471915821300,3.5268212890625,0.08009060480296612,-0.0054634165050461885,-0.009091909200511871
1772563471925890600,3.536890625,0.08892039246857165,0.002347649971535429,-0.016377974555455147
1772563471935958300,3.546958251953125,0.07620411875844,-0.003625414822390303,-0.0020611703135073184
1772563471946026200,3.557026123046875,0.08742576999664306,0.007062586196837946,-0.005221826301515102
1772563471956094500,3.567094482421875,0.06901742212474346,0.002235942358523607,-0.008561236389912665
1772563471966162400,3.577162353515625,0.0676689301252365,-0.00187377624893561,-0.0033972046902403233
1772563471976231400,3.5872314453125,0.07230769584178924,-0.005110940672410652,-0.016204590749926865
1772563471986299400,3.59729931640625,0.08607260182201862,-0.014124231678759678,-0.019719247807376085
1772563471996367400,3.607367431640625,0.06796060654819011,-0.008427198214083909,0.004411386701464653
1772563472006435300,3.617435302734375,0.07245207274854183,-0.0024261768341530114,0.004634381802380085
1772563472016503300,3.62750341796875,0.07065875959098339,0.01020005310550332,-0.00829677676744759
1772563472026571500,3.637571533203125,0.07036006890535354,-0.007017641943413764,-0.006898563874699175
1772563472036640500,3.647640625,0.09549977085888385,-0.0038210195928812026,-0.014093589945323764
1772563472046708200,3.657708251953125,0.08262859884798526,-0.010390954301413149,0.009392243853956461
1772563472056776400,3.6677763671875,0.08517477619946003,-0.016683049316098913,0.010497647812590003
1772563472066844400,3.677844482421875,0.0642272652387619,-0.00452208053432405,-0.010731639231555163
1772563472076912400,3.687912353515625,0.0546504585981369,0.0025176453767344355,0.0006992343105375766
1772563472086981600,3.697981689453125,0.06482347756624221,0.004804815598996356,0.006182962951250374
1772563472097049600,3.708049560546875,0.08263385954499244,-0.004198629866773262,0.0014910057427361607
1772563472107117300,3.718117431640625,0.07679857752025127,-0.0031953893746715038,-0.002694718976691365
1772563472117185300,3.728185302734375,0.0715641839981079,-0.010140240076510236,-0.0006263152047991752
1772563472127253500,3.73825341796875,0.08742109382152558,-0.010015645582461728,0.0034636209899559615
1772563472137322500,3.748322509765625,0.07260054130852223,-0.005455607657926157,0.005095752236433327
1772563472147390500,3.758390380859375,0.08157821301221847,-0.014740911405533552,-0.0021112565329298376
1772563472157458400,3.76845849609375,0.0576350273668766,0.002485935064218938,-0.01151668866202235
1772563472167526400,3.7785263671875,0.07379296596348285,0.0018658030050341039,-0.014598945651575922
1772563472177594400,3.788594482421875,0.08501520172357559,0.0074224507514853025,-0.009223463158309459
1772563472187663400,3.798663330078125,0.0791805042207241,-0.01620823487858288,-0.008645480607263743
1772563472197731600,3.808731689453125,0.07274258012771606,-0.00553022553040646,0.012423574373871087
1772563472207799600,3.818799560546875,0.07034779394567012,-0.009859669569460675,-0.00046885962076485154
1772563472217867300,3.8288671875,0.07603402288854122,-0.011725481707649305,-0.004077442039363086
1772563472227935200,3.838935302734375,0.06870353386998176,-0.001675678127259016,0.0007672215128317475
1772563472238003500,3.84900341796875,0.06571487344801426,-0.012429437859077005,-0.0070807885738089675
1772563472248072400,3.859072509765625,0.075450670042634,-0.0035985359486192465,0.001536306189186871
1772563472258140400,3.869140380859375,0.06482873826324939,0.006700456619868055,-0.006289820859208703
1772563472268208400,3.87920849609375,0.08158698084056377,0.00016633301023393868,-0.009439590127021074
1772563472278276400,3.8892763671875,0.08143792775869368,0.006793267736164853,-0.002582965697906911
1772563472288344300,3.89934423828125,0.07724807485342025,-0.008379788008937612,0.00798825880754739
1772563472298413600,3.90941357421875,0.06498012943267822,-0.010879943394754081,0.006719919372163713
1772563472308481500,3.9194814453125,0.07216331893503665,-0.0019312420572154222,-0.0020340996434912084
1772563472318549500,3.929549560546875,0.05899520980417728,0.0017630093508400023,-0.0028333237297832963
1772563472328617200,3.9396171875,0.06751987704336643,-0.0011982698738574982,-0.014483100719563663
1772563472338685400,3.949685546875,0.09071136753857136,-0.006551421804307028,-0.003682853231206536
1772563472348754400,3.95975439453125,0.08383096037507057,-0.005314007230149582,0.01573127414975315
1772563472358822400,3.969822509765625,0.07605038950145245,0.0032960824033245444,0.01817662147525698
1772563472368890600,3.979890625,0.06811608937084675,-0.004758062980975955,-0.01026668860092759
1772563472378958300,3.989958251953125,0.08083411664664746,0.01033673076299019,-0.016143106353655456
1772563472389026300,4.0000263671875,0.06661562168002128,-0.0008811484823934734,0.0012112024206668139
1772563472399095600,4.010095458984375,0.06736614778637885,0.015365929702389985,-0.004278298373706638
1772563472409163500,4.02016357421875,0.07873743662834166,0.005927773480629548,0.004114047722704709
1772563472419231500,4.0302314453125,0.0661661243468523,0.0017864450253546238,-0.009378178795985877
1772563472429299500,4.040299560546875,0.06452011070549488,0.00144290141784586,0.005410736469738185
1772563472439367400,4.050367431640625,0.07065349889397621,-0.004312346773780882,-0.005936477376893162
1772563472449436400,4.0604365234375,0.07199965280592441,0.0015847027750220148,-0.01402388570997864
1772563472459504400,4.07050439453125,0.07963409320712089,0.009388106534956022,-0.01811027824077755
1772563472469572600,4.080572509765625,0.07006196274161339,-0.012300870442809536,-0.013081124967150389
1772563472479640600,4.090640625,0.07530453957021235,-0.003891354015888646,-0.007589432215690612
1772563472489708500,4.10070849609375,0.08907119911611079,-0.01021169787752442,-0.013333565358258782
1772563472499776300,4.1107763671875,0.06812310363352299,0.0007114179386757314,-0.005767294822447001
1772563472509845200,4.12084521484375,0.067076809450984,0.015142295280657707,-0.004114559179358184
1772563472519913200,4.130913330078125,0.07081774954497813,0.00214651050940156,0.003580854161456227
1772563472529981400,4.1409814453125,0.06573065553903579,-0.007727415914274752,-0.005676255538128316
1772563472540049400,4.15104931640625,0.05855038864612579,-0.0012823131618089974,-0.014868446775339543
1772563472550117400,4.161117431640625,0.07441197464466094,-0.003821969440951943,-0.0046965237857773895
1772563472560186400,4.171186279296875,0.06588964549303054,0.0012710337159689514,-0.008225465096905827
1772563472570254300,4.18125439453125,0.07007716031074523,-0.011341386894043534,-0.033606501525640486
1772563472580322300,4.191322265625,0.08190028457343577,0.0018743516376707701,-0.014229162491112947
1772563472590390300,4.201390380859375,0.07546995926499367,-0.0020756372302770613,-0.00269650907497853
1772563472600458500,4.21145849609375,0.06843231571316719,-0.001859565060492605,0.009966244349628686
1772563472610527200,4.22152734375,0.06723579940497874,0.007291298652486875,-0.0003314969766885042
1772563472620595200,4.23159521484375,0.07816051352322101,0.00020807152641937136,-0.019773243016935883
1772563472630663400,4.241663330078125,0.08040624662339686,0.0035494087104219942,-0.0005464183690026402
1772563472640731400,4.2517314453125,0.07846095777451992,-0.004468277121009305,0.0036028102649375794
1772563472650799400,4.26179931640625,0.06469663631618022,0.005687370587186887,-0.014290646887384354
1772563472660867300,4.271867431640625,0.07232873862981797,0.005527439918275923,-0.007387881761603057
1772563472670936300,4.281936279296875,0.07622282345890999,-0.004905161567777395,-0.007329831431433558
1772563472681004300,4.29200439453125,0.06873860518336296,-0.01476655730344355,-0.006039791620895266
1772563472691072300,4.302072265625,0.06335048240423202,-0.005713491409132257,0.0169953758014366
1772563472701140500,4.312140380859375,0.0672463207989931,-0.01641169416196644,-0.010107479451224208
1772563472711208400,4.32220849609375,0.07891922293603419,-0.00870804271576926,-0.00007452654093503952
1772563472721277200,4.332277099609375,0.06994272027611732,-0.0005398698972072452,0.0002462663786485791
1772563472731345400,4.342345458984375,0.08356032674014569,-0.01909544422007166,-0.007362929983437061
1772563472741413400,4.352413330078125,0.09029343438744544,0.003722061863588169,-0.0038274128010496494
1772563472751481300,4.3624814453125,0.07533201209902762,0.009660849928576498,-0.006463606523536145
1772563472761549300,4.37254931640625,0.05273556488752365,-0.008453958356846123,-0.0005129544908180833
1772563472771618300,4.382618408203125,0.06455284393131733,-0.010655541788041591,-0.00794741534050554
1772563472781686300,4.392686279296875,0.07951952691674231,-0.01930977195734158,0.006363287954218685
1772563472791754200,4.402754150390625,0.08296177632510661,0.00047641273955814536,-0.0019910642193630337
1772563472801822200,4.412822265625,0.06800152308046817,0.011519711736170574,0.005592047853395342
1772563472811890400,4.422890380859375,0.07787818945050239,0.0022891429836396126,-0.002605688986368477
1772563472821959200,4.432959228515625,0.07937398096621036,0.002584253472695127,-0.002467961016111076
1772563472832027100,4.443027099609375,0.06965045933127403,0.0009239099118858575,-0.00918181597366929
1772563472842095400,4.453095458984375,0.07233984454572201,-0.016276103349868207,-0.008196969654783606
1772563472852163300,4.463163330078125,0.06725625767111777,0.0035779132856987414,-0.010777012743242085
1772563472862231300,4.473231201171875,0.07099778228700161,0.003111547016119584,-0.009824680454470217
1772563472872299300,4.48329931640625,0.0702531013995409,-0.007303445748006924,-0.017822035883925853
1772563472882368300,4.4933681640625,0.07489654329121112,-0.001699698323663324,-0.013971790196560323
1772563472892436200,4.503436279296875,0.07055763730406761,0.01553540451778099,-0.0025624343665316698
1772563472902504200,4.513504150390625,0.07594692912697791,0.005145244800811633,-0.003725632927007973
1772563472912572400,4.523572509765625,0.07789981676042079,0.00963007119782269,0.011807890160940587
1772563472922640400,4.533640380859375,0.07954758396744728,0.008301370744174346,-0.00944185514934361
1772563472932709000,4.543709228515625,0.06443593955338,-0.006420799428271129,-0.015156250740773975
1772563472942777300,4.55377734375,0.07267243750095367,-0.0030617256581783295,-0.007550999901443719
1772563472952845300,4.56384521484375,0.08405074060559273,0.010162497574090957,-0.01812923866957426
1772563472962913300,4.573913330078125,0.07985738056898116,0.0029412228173576293,-0.009957659184373914
1772563472972981200,4.583981201171875,0.09616554129123688,0.0085778495979961,-0.01260181701760739
1772563472983050200,4.59405029296875,0.08943126460015774,0.0015415394867304712,0.005580467013455927
1772563472993118200,4.6041181640625,0.07610942621231079,0.0053465303934179245,0.006863127235136926
1772563473003186200,4.614186279296875,0.09930208575129508,0.0024909856986720116,-0.004550795172154903
1772563473013254400,4.62425439453125,0.08688567177057266,-0.00632598815113306,-0.00878236832730472
1772563473023322400,4.634322265625,0.0822433989226818,-0.014322293267818167,-0.005561725780367851
1772563473033390300,4.644390380859375,0.07670563853979111,0.004422848810395226,0.007231302960403263
1772563473043459300,4.654459228515625,0.0804483321994543,-0.006904363427823409,-0.006831124661676585
1772563473053527300,4.66452734375,0.08359189092218876,-0.013670523961354047,0.00017064385917037726
1772563473063595300,4.67459521484375,0.07730185086727141,-0.00886448451965116,0.008543079678714274
1772563473073663200,4.684663330078125,0.07834989861547946,0.001096005942625925,-0.005291932395659386
1772563473083731500,4.6947314453125,0.06906944457292556,-0.004190784487035125,-0.0014447189155966042
1772563473093800200,4.70480029296875,0.0777472565472126,0.005568922706134617,-0.0007270721655339002
1772563473103868200,4.7148681640625,0.07654372597634791,0.0007208798867650329,-0.004716872454062104
1772563473113936100,4.72493603515625,0.07594517556130885,-0.014347519040619953,-0.014729659359157085
1772563473124004400,4.73500439453125,0.08746668652892112,-0.00324818814098835,-0.009348989234119653
1772563473134072300,4.745072265625,0.0728057084918022,0.012630321592884138,-0.006749839586392045
1772563473144141300,4.755141357421875,0.067115972417593,0.004144625524058938,-0.009284545695781707
1772563473154209300,4.765209228515625,0.07160276244282722,0.0024958262705709784,-0.011551833040639758
1772563473164277200,4.77527734375,0.07653729623556137,-0.01074832550487481,0.003333016880229115
1772563473174345200,4.78534521484375,0.06112111591696739,-0.0029287012625019994,-0.00483545733243227
1772563473184413200,4.7954130859375,0.07488543737530708,-0.003716317109391093,-0.008074658449366688
1772563473194481400,4.8054814453125,0.07817921822369098,-0.005934413283970206,0.007700126048550009
1772563473204550100,4.815550048828125,0.07054886947572231,0.006792756279511377,-0.0071255044983699915
1772563473214618000,4.8256181640625,0.07444178526103497,-0.0005017481102142483,0.005321852609887719
1772563473224686300,4.835686279296875,0.07818389439880848,-0.0039641452574636785,-0.007523454307392239
1772563473234754300,4.84575439453125,0.0736906746327877,-0.003970273604150861,0.013594846642948686
1772563473244822300,4.855822265625,0.07384323484599589,0.0024051614455878733,0.0007981646403670311
1772563473254891500,4.8658916015625,0.07279460257589816,-0.002737316009402275,-0.0014361702829599379
1772563473264959200,4.875959228515625,0.07159633270204067,-0.0006474767238367348,-0.012498320110514759
1772563473275027200,4.886027099609375,0.07653028197288513,-0.0039147531577851625,-0.018834793123044074
1772563473285095200,4.89609521484375,0.06456687245666981,-0.001636569959577173,-0.011177702498622238
1772563473295163400,4.906163330078125,0.07160159339904784,-0.005021380959125236,0.0037503655094653365
1772563473305232400,4.916232421875,0.08656710734069346,-0.015609593131998552,0.0018735387869179248
1772563473315300400,4.92630029296875,0.08207447209656238,-0.007562233681511134,0.005057100726477802
1772563473325368300,4.936368408203125,0.0819213273614645,-0.005650308246118948,-0.019414967631176113
1772563473335436300,4.946436279296875,0.07414017196595668,-0.005612241258053109,-0.014147073698230086
1772563473345504300,4.956504150390625,0.08371522504091262,-0.0067626899348106236,-0.004605411436222493
1772563473355572200,4.966572265625,0.07324293086528777,0.0024313918653875587,-0.014604242881201207
1772563473365641500,4.976641357421875,0.07085106729269028,0.013370445036236196,-0.007990852623432874
1772563473375709200,4.986709228515625,0.08042904297709465,-0.0038249285830184816,-0.006450052922219038
1772563473385777200,4.996777099609375,0.07923311119079589,0.006293802914582192,0.00483012357018888
1772563473395845400,5.006845458984375,0.0727975251853466,-0.0041018549614120275,0.0004916194418445229
1772563473405913300,5.016913330078125,0.06756254714131354,0.013941184995742513,0.006234437410160899
1772563473415982300,5.026982421875,0.06875789440572261,0.003118908338667825,-0.00770155082065612
1772563473426050300,5.03705029296875,0.07653729623556137,-0.00906098433928564,-0.00952058294136077
1772563473436118300,5.0471181640625,0.07638882767558097,0.003603266922663897,-0.010496697964519262
1772563473446186200,5.057186279296875,0.06067921736836433,-0.009353117419965565,-0.001876570994220674
1772563473456254200,5.067254150390625,0.07758885111510753,-0.0008852218693122268,0.009490041672624646
1772563473466323500,5.077323486328125,0.07668985644876956,0.0038980212186928835,-0.00457311660181731
1772563473476391400,5.087391357421875,0.06232172387838363,-0.000904328428581357,0.005447926674969494
1772563473486459100,5.097459228515625,0.0813286221653223,0.004558558353502303,0.005807151908800006
1772563473496527000,5.107527099609375,0.07310030752420425,-0.0008904277673922479,0.004560549381189048
1772563473506594600,5.117594482421875,0.07878361385762692,0.00425380325326696,0.006936302069202065
1772563473516662500,5.12766259765625,0.06935761386454105,-0.00932996487324126,-0.004230842502787709
1772563473526731800,5.137731689453125,0.06352174731791019,0.0030921755953691897,-0.008220094802044331
1772563473536799700,5.1477998046875,0.08731354179382324,0.006284761091601103,-0.015853293094225226
1772563473546867700,5.15786767578125,0.07653904980123043,-0.008150710227107628,-0.002973280189745128
1772563473556935700,5.167935791015625,0.06980944928526878,-0.0013392035813536494,-0.008168693408370018
1772563473567003600,5.178003662109375,0.08103051600158213,-0.003098395273601636,-0.007303235685452819
1772563473577072600,5.18807275390625,0.074893036159873,0.004500626754341647,-0.008504464701376856
1772563473587140900,5.198140869140625,0.07309680039286613,0.0011610431360080838,0.001349880238994956
1772563473597208800,5.208208740234375,0.08102876243591309,0.004213297712942585,-0.0032360958443954585
1772563473607276800,5.21827685546875,0.08252396942973136,-0.0092129417642951,-0.006093859895691276
1772563473617344500,5.228344482421875,0.07369768889546394,0.01272337017119862,0.00113718733638525
1772563473627412700,5.238412841796875,0.07145721649229526,-0.004710150452330708,-0.019666056315414605
1772563473637481700,5.248481689453125,0.07595218982398509,-0.007820811552461237,-0.002764386679418385
1772563473647549700,5.2585498046875,0.08058978649675845,-0.011202234151680021,-0.010912731419503689
1772563473657618000,5.268617919921875,0.06397942795753479,-0.011854962439369409,0.004297441465593874
1772563473667685600,5.278685546875,0.07011456971168517,-0.005958981469646096,0.021993549414910375
1772563473677753600,5.288753662109375,0.0781961693584919,0.0059200376987457275,0.006626359337195754
1772563473687822800,5.29882275390625,0.08507774556577205,-0.012245185599662364,-0.019269239017553626
1772563473697890800,5.308890869140625,0.10138765985369681,-0.0031712595804128793,-0.011021817817166447
1772563473707958800,5.318958740234375,0.07385550980567931,0.0019355894387699663,-0.00020655542276799678
1772563473718026800,5.32902685546875,0.06562602612078189,-0.008960711435740813,-0.005627922884374857
1772563473728094700,5.3390947265625,0.0663747986614704,0.003820234141591936,0.0002466682374477386
1772563473738162700,5.34916259765625,0.08537994338274002,-0.009678732645139097,-0.019475867505557833
1772563473748231700,5.359231689453125,0.08882102374732494,0.007021350004151463,-0.006800766056030989
1772563473758300000,5.3692998046875,0.0859773247539997,-0.003041632718220353,0.011722696095518768
1772563473768367900,5.379367919921875,0.07565408366024494,0.004260607453389093,-0.012124774090386927
1772563473778435600,5.389435546875,0.08178338019549847,-0.005799196931207552,-0.020341690554656087
1772563473788503600,5.399503662109375,0.06263035143613815,-0.00004539177799597382,0.007537884691543877
1772563473798572800,5.40957275390625,0.06562193446755409,-0.00496264564236626,0.00023147066831588744
1772563473808640800,5.419640869140625,0.06098258422911167,-0.0015644545714370906,0.005143463835678995
1772563473818708700,5.429708740234375,0.07475158186256885,0.017489707790175453,0.008683949454128741
1772563473828776700,5.439776611328125,0.10468494783341883,-0.003372727836109698,0.003243950357288122
1772563473838844700,5.4498447265625,0.0787970578610897,-0.005298626997927203,0.003979351959750056
1772563473848913700,5.45991357421875,0.07370704124569892,-0.004295441304752603,-0.008620382698625325
1772563473858981600,5.469981689453125,0.07176175239682198,0.012769364737393334,-0.007269662209413945
1772563473869049900,5.4800498046875,0.08208966966569423,0.0037516258847899732,0.016883585990034044
1772563473879117800,5.490117919921875,0.0862783535271883,-0.0037118509968277064,-0.013821750734001397
1772563473889185800,5.500185791015625,0.07460895852148533,-0.005571973179746419,-0.0011411693917587399
1772563473899253500,5.51025341796875,0.07041559848487376,0.0033613570587243883,0.0005335954200476408
1772563473909322800,5.52032275390625,0.07968962278664111,-0.014713119216309859,0.005307495290972292
1772563473919390700,5.530390625,0.0636783991843462,-0.0036138887813780456,-0.005444200347922742
1772563473929458700,5.540458740234375,0.0662228229701519,0.021319458678783848,-0.006585515870153904
1772563473939527000,5.55052685546875,0.0689151307940483,0.005326245657214895,0.0017614567145705221
1772563473949594600,5.5605947265625,0.07399930219054221,-0.009701392001518979,-0.009037731327861547
1772563473959663600,5.57066357421875,0.0675648852288723,0.0020011472219601274,-0.014255831302329897
1772563473969731800,5.58073193359375,0.08103051600158213,0.0014363072802778332,-0.004719027878530323
1772563473979799800,5.5907998046875,0.07249824997782707,-0.013770669000735506,0.002774944606050849
1772563473989867800,5.60086767578125,0.0627718057334423,-0.012687056748801842,0.003102349929511547
1772563473999935700,5.610935791015625,0.08327741814553737,-0.0025300482005812227,-0.010519311655126512
1772563474010003700,5.621003662109375,0.07011398518979549,0.008563528811698778,-0.023793694172054528
1772563474020072700,5.63107275390625,0.048714054286479944,-0.0001386869514826685,-0.00570058626178652
1772563474030140700,5.641140625,0.07116203293800354,0.007122106964886188,-0.009491904836148023
1772563474040209000,5.651208984375,0.07235971828997134,-0.0014168171285185963,-0.0010820230830460786
1772563474050276900,5.66127685546875,0.07924012545347213,0.007609305959939956,-0.0036405484594404696
1772563474060344600,5.671344482421875,0.07474982829689979,-0.009216704623959958,0.003839358967170119
1772563474070413800,5.681413818359375,0.07459726808369159,-0.004900777653604745,-0.005332958525791764
1772563474080481800,5.691481689453125,0.08282499820291996,0.0031558884813450276,-0.0031129809213802217
1772563474090549800,5.7015498046875,0.07070961299538613,-0.01072027758732438,0.014412592766620217
1772563474100617700,5.71161767578125,0.06907002909481524,-0.0134818695214577,0.01031158718857914
1772563474110684700,5.7216845703125,0.06907002909481524,-0.01335568585852161,0.010349471513554453
1772563474120753000,5.7317529296875,0.07625380311906338,-0.01143047168329358,-0.005624013894237578
1772563474130820900,5.74182080078125,0.0723614718556404,-0.017415382178639992,-0.0014232742687687277
1772563474140888600,5.751888671875,0.0672732088059187,-0.004286399481771514,0.006163819859363138
1772563474150956500,5.76195654296875,0.07340835056006909,-0.004479839694639667,-0.01300126466397196
1772563474161025800,5.77202587890625,0.07206161212623119,-0.006263499107863754,-0.0022195757456123827
1772563474171093800,5.78209375,0.07609948934018611,0.002696143748797476,-0.0018029577687382697
1772563474181161700,5.79216162109375,0.05948562366962432,-0.0011024996154941618,-0.009376790556497872
1772563474191229700,5.802229736328125,0.08402619068622588,0.005165219009760767,-0.003489303420484066
1772563474201297700,5.812297607421875,0.07115794128477573,-0.0032023123058024794,-0.005860489531233907
1772563474211366700,5.82236669921875,0.07879004359841346,0.0017697130862623452,0.001812565847299993
1772563474221435000,5.832434814453125,0.07744388968646526,-0.010112639683531597,0.004556055869162082
1772563474231502800,5.8425029296875,0.07205752047300339,-0.0032867483193986117,-0.01305094902459532
1772563474241570800,5.85257080078125,0.08357552430927753,-0.013867032914143054,-0.0032806656384840606
1772563474251638500,5.862638427734375,0.074893036159873,-0.004169650367461144,-0.0015392287986353038
1772563474261706800,5.872706787109375,0.07744330516457557,0.003413973161950707,0.0018670359808951615
1772563474271775700,5.882775634765625,0.08462941727638244,0.0017147223628591745,-0.0005911708261817693
1772563474281843700,5.89284375,0.08462883275449276,-0.0030715985982213167,-0.00016560235787183044
1772563474291911700,5.90291162109375,0.06696984194517135,0.004139291761815548,0.006078223935142159
1772563474301980000,5.91297998046875,0.08806289885640144,-0.011994243045896292,0.005161474416404962
1772563474312047600,5.923047607421875,0.0728016168385744,-0.018885317733883855,-0.007055434936843812
1772563474322115600,5.933115478515625,0.06876198605895043,-0.007981262811180204,0.007928929835744203
1772563474332184800,5.943184814453125,0.08372457739114761,-0.005486459453916177,-0.011128821855597198
1772563474342252800,5.953252685546875,0.09599719898700713,0.003680706939892843,0.010285320236161351
1772563474352320800,5.96332080078125,0.0774421361207962,0.0026962076808791607,0.00935888957362622
1772563474362388700,5.973388671875,0.07519874110817909,-0.01778112848480232,-0.002872157902829349
1772563474372456700,5.983456787109375,0.0690595077008009,-0.003779235410923138,-0.021370449080504474
1772563474382525700,5.993525634765625,0.07803542583882808,0.0007517864816822111,-0.015533230827003716
1772563474392593700,6.00359375,0.07010638640522956,-0.006693634153436869,-0.007011449664644897
1772563474402662000,6.013661865234375,0.08402502164244652,-0.010651093941787258,-0.004763524607382714
1772563474412729900,6.023729736328125,0.059490299844741815,-0.019449673618376254,-0.0015844561798498034
1772563474422797600,6.033797607421875,0.07549976988136768,-0.011944604351045563,-0.006854249808937311
1772563474432865500,6.043865478515625,0.08522679864764213,-0.0009829466227442025,-0.019838855599053202
1772563474442934800,6.053934814453125,0.0692161595672369,0.0092983367591165,0.004246770724281668
1772563474453002800,6.064002685546875,0.06877250745296477,-0.002681421103700995,0.0010582038160413503
1772563474463070700,6.07407080078125,0.07924947780370711,-0.008118534123711288,0.026253362283855674
1772563474473138700,6.084138671875,0.08523556647598743,-0.0016888938018586486,0.007119111290201544
1772563474483206700,6.09420654296875,0.06877426101863383,-0.005962333337357267,0.0050091699315235015
1772563474493275600,6.104275634765625,0.08717793271541595,0.009470496721938252,0.004216813977435231
1772563474503343900,6.11434375,0.08164134137630462,0.011380869521060958,-0.0035176892647519704
1772563474513413000,6.1244130859375,0.07221767947077751,-0.005835108494805172,-0.010907836048677563
1772563474523481000,6.134481201171875,0.08134498877823353,0.0109133250745479,0.016677359360828994
1772563474533549000,6.144549072265625,0.07880231855809688,-0.0035630079775117334,0.014769041521474718
1772563474543617000,6.154616943359375,0.08822773402929306,0.012147798772947862,-0.011608349000848828
1772563474553686000,6.16468603515625,0.07865151191055775,0.01921912539866753,-0.014032580473087726
1772563474563754000,6.17475390625,0.07685644518733024,0.000040806934423744675,-0.003996887616440654
1772563474573822000,6.184822021484375,0.08778232834935187,-0.011622331860428676,-0.007723178130574524
1772563474583890200,6.19489013671875,0.0814987180352211,-0.0002928454667329788,-0.00031772417966276407
1772563474593958100,6.204958251953125,0.08374562017917632,0.0021743574975524095,-0.008742255512624978
1772563474604027100,6.215027099609375,0.0731201812684536,-0.007592537488229572,0.00473466383907944
1772563474614095000,6.22509521484375,0.08209843749403953,-0.007699952518614009,-0.008210596321336925
1772563474624163000,6.2351630859375,0.07716156561374664,0.011021406825212762,0.0038861937835812568
1772563474634231000,6.24523095703125,0.06564122368991375,0.006724029291700571,-0.006481470973789692
1772563474644299000,6.255299072265625,0.06459434498548507,0.0001256630731280893,0.004009052978269756
1772563474654367200,6.2653671875,0.08090309022963046,-0.0013798187195323407,0.004392134011723101
1772563474664436200,6.275436279296875,0.07596855643689632,0.014180957701522856,-0.008861096119321883
1772563474674504000,6.28550390625,0.07208031682670116,-0.0044231502044945956,-0.01204082213398069
1772563474684572000,6.295572021484375,0.065638885602355,0.0025477025882806627,0.008863324609026313
1772563474694640000,6.30564013671875,0.08075812880098819,0.004779589826194569,0.00311904533598572
1772563474704708000,6.3157080078125,0.06788754131197929,0.007257889573229476,0.0015382789505645632
1772563474714777000,6.325777099609375,0.07776596124768256,-0.0044423206958454095,0.006093311906419694
1772563474724845000,6.335844970703125,0.06609481267631054,0.005645221079047769,-0.004259374477528035
1772563474734913000,6.3459130859375,0.07162965044975281,-0.0024956162080168724,0.008003602507151663
1772563474744981000,6.35598095703125,0.08060790667533874,0.014649789922824128,0.011410999797843395
1772563474755049000,6.366049072265625,0.06249824948906898,0.010424025453953071,-0.0118437651919201
1772563474765117200,6.3761171875,0.0753682524561882,0.012962631420325487,-0.007171645195037126
1772563474775186200,6.386186279296875,0.07447218039929866,0.009508317114831879,0.015711035079322755
1772563474785254000,6.39625390625,0.07342530169487,0.0004477985664270818,0.012681640788167714
1772563474795322000,6.406322021484375,0.07492109321057797,-0.005463252108264714,0.0037181072076782583
1772563474805390000,6.41639013671875,0.07117547694146632,-0.00211002355706878,0.011662125014699995
1772563474815458000,6.4264580078125,0.09301905995905399,0.0007075363480020314,0.009901472017727791
1772563474825527300,6.43652734375,0.08463409345149993,-0.014520857180375605,-0.00910012903958559
1772563474835595000,6.446594970703125,0.0729588532269001,-0.006503116550017148,-0.005875614035129547
1772563474845663000,6.4566630859375,0.06802315039038657,-0.007611351786553859,-0.005086947875469923
1772563474855731000,6.46673095703125,0.09555296235084533,0.009292582871764897,0.002043999982997775
1772563474865799200,6.476799072265625,0.07205752047300339,0.0054037861391436305,0.0018250234700739382
1772563474875867100,6.4868671875,0.07445113761126995,-0.0004048270743805915,-0.013230178049020469
1772563474885936000,6.49693603515625,0.08088672361671924,0.006878891059849411,0.009825264976359903
1772563474896004000,6.507004150390625,0.08178045758605003,-0.01116400276683271,-0.0000573562104254961
1772563474906072000,6.517072021484375,0.08986205723285674,0.007302395435236394,-0.003297835968993604
1772563474916140000,6.52714013671875,0.07699439235329628,0.00705751729607582,-0.005536299078166484
1772563474926208000,6.5372080078125,0.09091010498106479,-0.004153338553477079,0.0037761210052296517
1772563474936276200,6.547276123046875,0.08222469422221183,0.005045437688147649,-0.003063296560756862
1772563474946345200,6.55734521484375,0.07683832500874996,-0.010551652155304327,-0.016907405257038773
1772563474956413000,6.567412841796875,0.0690595077008009,-0.012656013156566769,-0.002633746037073433
1772563474966481200,6.577481201171875,0.06247428409159183,0.009739742117375135,0.021470986845530567
1772563474976549000,6.587549072265625,0.07549392466247082,-0.01679592597289011,0.011662417275644838
1772563474986617000,6.5976171875,0.07789455606341361,0.0002816208198200911,-0.01782013618778437
1772563474996686000,6.60768603515625,0.07175999883115292,0.007592245227284729,-0.0031981019215658307
1772563475006754000,6.617754150390625,0.06622223844826221,-0.007100954579003155,-0.0020591610195115208
1772563475016822000,6.627822021484375,0.05634849468767643,0.0006651037120725959,-0.015904256096482276
1772563475026890000,6.637889892578125,0.0771545513510704,-0.006971811774000525,-0.005086399886198341
1772563475036958000,6.6479580078125,0.08987667028009891,-0.018533125029038637,-0.0036597280839458105
1772563475047026200,6.658026123046875,0.06802607299983501,-0.0004608315779361874,0.0027999694494530557
1772563475057095200,6.66809521484375,0.07730126634538173,0.010511667204787955,-0.004975450325012207
1772563475067163000,6.678162841796875,0.0692208357423544,0.0030453316458035258,0.016136530482396483
1772563475077231000,6.688231201171875,0.07161445288062095,-0.01227439342783764,-0.021611052903346716
1772563475087299000,6.698299072265625,0.08149287281632422,0.017808500548917798,0.003302731339819729
1772563475097367000,6.708366943359375,0.06174538529515266,0.023855607826588673,0.0029550504133105276
1772563475107436300,6.718436279296875,0.08434300155043602,0.0008556943807285279,0.010764847381412982
1772563475117504000,6.72850390625,0.08015314864516258,0.010667131761135533,0.00781429048012942
1772563475127572000,6.738572021484375,0.05710720410048961,-0.004270580858131871,0.0012698372727259993
1772563475137640000,6.748639892578125,0.061597501257061954,-0.004673946627788245,-0.003372435575164854
1772563475147708200,6.758708251953125,0.09122223967015743,0.009967312928708269,0.0005594970462843775
1772563475157776100,6.768776123046875,0.07910334733128548,-0.002355614082282409,-0.006890307503007352
1772563475167845000,6.77884521484375,0.07461714182794094,-0.006037398734409362,-0.0041547815918922424
1772563475177913000,6.7889130859375,0.07132979072034358,0.0009396098045166581,0.0064496145308017725
1772563475187981000,6.79898095703125,0.07686112136244773,0.004169084111880511,-0.005791698611341416
1772563475198049000,6.809049072265625,0.08224632153213024,-0.00821836863583885,0.013010507416352629
1772563475208117000,6.819116943359375,0.07147007597386837,-0.0009842891964595764,0.010115626225061715
1772563475218186200,6.829186279296875,0.06234101310074329,0.0038482729259878396,-0.003908515213243663
1772563475228254000,6.83925390625,0.06743161423802375,-0.0024474844836629927,-0.00702240945007652
1772563475238322000,6.849322021484375,0.06399053387343884,0.009457098384248092,0.005982143149524927
1772563475248390100,6.85939013671875,0.07491524799168109,-0.0050962362936232235,0.015071933458186686
1772563475258458000,6.8694580078125,0.07252163085341454,0.007088889681873842,-0.011714622386917471
1772563475268526000,6.879526123046875,0.07536474532485007,0.014716315820394083,-0.009419058795645833
1772563475278595300,6.88959521484375,0.06474047545790672,0.0038462818983010945,-0.0055022872107103465
1772563475288663000,6.8996630859375,0.0849444745749235,-0.005319651519646868,-0.0025910028738901016
1772563475298731000,6.90973095703125,0.0771633191794157,0.004453810204239562,0.0028736192075535655
1772563475308799000,6.919799072265625,0.07626724712252617,-0.006082772246096282,0.0023578517051413652
1772563475318867200,6.9298671875,0.08105623496472836,-0.008497432172391564,-0.010888327630609273
1772563475328935200,6.93993505859375,0.07552315075695515,0.0034829832775518294,0.0018028481708839534
1772563475339004200,6.950004150390625,0.08405892391204833,0.0049248343826271595,-0.020469956576824187
1772563475349072000,6.96007177734375,0.08211538862884044,0.007190806553233414,-0.00730250503309071
1772563475359140000,6.97014013671875,0.07238602177500725,0.011428133595734835,0.0022664470946416257
1772563475369208000,6.9802080078125,0.07179039396941661,0.019161659590387715,0.013420366858877241
1772563475379276000,6.990276123046875,0.05443418549895286,-0.0026625611396040765,0.006094334819726646
1772563475389345300,7.00034521484375,0.06042144321501255,0.006622614743839949,0.008742438175715506
1772563475399413000,7.0104130859375,0.08855331272184848,-0.0009121920746285468,-0.007232472004182636
1772563475409481000,7.02048095703125,0.07403788063526154,-0.0066335836624260985,0.01533949835319072
1772563475419549000,7.030548828125,0.07194704583585262,-0.005352110750833526,-0.0026740780474618074
1772563475429617200,7.0406171875,0.08556757490932941,0.009525734040513633,-0.0008492372404783964
1772563475439685000,7.05068505859375,0.08317688038051128,0.0021555157997645434,0.00612630086056888
1772563475449754000,7.060754150390625,0.08152969769537448,0.004619412562111392,0.0106940837001428
1772563475459822000,7.070822021484375,0.09095803577601909,-0.0034314814191777256,-0.0031764380790293215
1772563475469890000,7.08089013671875,0.0819821176379919,-0.007966375769302248,-0.0014756255105137824
1772563475479958000,7.0909580078125,0.08153612743616104,0.008267724202899262,-0.002703304141946137
1772563475490026000,7.10102587890625,0.05086392579674721,-0.009785088229598476,0.003052738634124398
1772563475500095200,7.11109521484375,0.09067103552818298,-0.004757843785267323,-0.002989975596219301
1772563475510161400,7.121161376953125,0.07017068381309509,0.014876474818168207,-0.0071729969019070266
1772563475520229400,7.1312294921875,0.0658259326070547,-0.008539755210466682,0.0018254618614912033
1772563475530297600,7.141297607421875,0.07001403194665909,-0.0070031293608713895,-0.00898786430414766
1772563475540365600,7.151365478515625,0.07884206604659556,-0.0012114033500663936,-0.0037223084587603805
1772563475550433300,7.161433349609375,0.07720131310224533,0.0015036460286006331,-0.0010115151301026343
1772563475560502500,7.17150244140625,0.08678279591798782,0.0019597374993376433,0.001175984976813197
1772563475570570500,7.181570556640625,0.06897124489545822,-0.0022068167287390677,-0.003598134089820087
1772563475580638500,7.191638427734375,0.06822481044232845,0.0009614745764527469,0.015612323945201933
1772563475590706400,7.20170654296875,0.0751110628247261,-0.0050354186176322395,-0.003969415087625384
1772563475600774400,7.2117744140625,0.06463526151776314,0.007318816847074776,-0.004119746811129152
1772563475610842400,7.22184228515625,0.07451251240968704,0.005050378724746406,-0.020487090374715626
1772563475620911400,7.231911376953125,0.08318798629641533,0.002402302768221125,0.008298603398352861
1772563475630979600,7.2419794921875,0.07136486203372477,-0.0014495320880319922,0.009599749124795198
1772563475641047600,7.252047607421875,0.07450900527834892,-0.004902238958328962,-0.006048230655677616
1772563475651115500,7.262115478515625,0.05865267997682094,0.007873071462661028,0.01959412359036505
1772563475661183200,7.272183349609375,0.07555588398277759,0.008486709848977625,0.0009379384372383355
1772563475671252500,7.28225244140625,0.06807225022912025,0.0013677994881756603,0.01900638683028519
1772563475681320400,7.292320556640625,0.09231471108198165,-0.002856732004834339,0.018581037557683883
1772563475691388400,7.302388427734375,0.07884732674360274,0.003925804274762049,0.019797025751322507
1772563475701456400,7.312456298828125,0.09380933355391025,-0.0012280896233860402,0.0002579933490604162
1772563475711524600,7.322524658203125,0.07046820545494556,-0.006074643738567829,-0.002623480371385813
1772563475721592300,7.33259228515625,0.07854922057986259,0.01391179450447671,0.018325528426654636
1772563475731661300,7.342661376953125,0.06687807200849055,0.00566224527908489,0.004258168901130557
1772563475741729500,7.3527294921875,0.08289338726401328,-0.006751784948306158,-0.018947715445607898
1772563475751797500,7.362797607421875,0.07167290506958961,-0.0019242643271572886,0.008767609149590135
1772563475761865500,7.372865478515625,0.0623971272021532,0.005207204121118411,0.0011652809197083116
1772563475771933400,7.382933349609375,0.06359013637900351,0.01581580149489455,-0.015272716727294028
1772563475782001400,7.39300146484375,0.0839385124027729,0.02169227404654957,-0.008968173222988844
1772563475792070400,7.4030703125,0.0659784928202629,-0.0017949845248367636,0.012638824559748171
1772563475802138400,7.413138427734375,0.06447802512943744,0.000029089097166433928,0.011165135277993976
1772563475812206600,7.42320654296875,0.06552256574630737,0.006139169475296512,0.010027801811136305
1772563475822274600,7.433274658203125,0.07046294475793838,0.004578002839488908,-0.010436090351082384
1772563475832342300,7.44334228515625,0.07524959451258183,0.0012981317854486405,-0.01736044625416398
1772563475842411500,7.45341162109375,0.0664192223250866,-0.008512209616415202,0.004909764677658677
1772563475852479500,7.4634794921875,0.07510112595260143,-0.002669639334362,0.001454290461540222
1772563475862547500,7.47354736328125,0.08018588187098502,-0.008455483593652025,0.010577142789587378
1772563475872615400,7.483615478515625,0.06581833382248878,-0.0014605192729271947,0.006300817177258431
1772563475882683400,7.493683349609375,0.08407587504684924,0.0017779694579541682,0.0003443199256435036
1772563475892751400,7.50375146484375,0.06358019950687885,-0.0046420810516458,0.01211965952385217
1772563475902820400,7.5138203125,0.08214169211387634,0.0028079609596636146,-0.0016233634181320666
1772563475912888600,7.523888671875,0.08648176714479923,0.0048636422473005946,0.006176788938790559
1772563475922956500,7.53395654296875,0.06448328582644462,-0.003621250103926286,-0.010028934322297572
1772563475933024500,7.5440244140625,0.07630290295779704,-0.0026370431058574464,0.008350150922499596
1772563475943092200,7.55409228515625,0.08168518051803111,0.01109265456367284,0.02097998845819384
1772563475953161500,7.564161376953125,0.06717559365034104,-0.008727715530619025,0.019614106932468713
1772563475963229400,7.5742294921875,0.07660393173098563,0.0014007336433976888,0.006708448130078613
1772563475973297400,7.58429736328125,0.08228899163007736,0.0014013546979054809,-0.006595197013951838
1772563475983365600,7.59436572265625,0.07166296819746494,0.00022157946196384726,0.000996390626206994
1772563475993433600,7.60443359375,0.07585048301517963,-0.007947132212715223,0.0034914953775703906
1772563476003501300,7.614501220703125,0.08317921846807003,-0.0003205554575659334,-0.0015687471540644763
1772563476013570300,7.6245703125,0.0909574512541294,-0.0030589857118204235,0.00017820611111819744
1772563476023638500,7.634638427734375,0.09020750966966151,0.012039461293956263,-0.00855140911564231
1772563476033706500,7.64470654296875,0.07449556127488613,0.005018549681222066,-0.003014452450349927
1772563476043774500,7.6547744140625,0.06775953101813793,0.004612937155552208,0.011440006696619093
1772563476053842400,7.664842529296875,0.07868482965826988,-0.004352021197043359,0.001563742185384035
1772563476063910400,7.674910400390625,0.07674187889695167,0.031461845046607775,0.025009791963547467
1772563476073979400,7.6849794921875,0.07209726796150207,0.004354414083529263,-0.0017688363034278154
1772563476084047400,7.69504736328125,0.057279053536057466,-0.022529254593653604,0.00738722417447716
1772563476094115600,7.705115478515625,0.07837795566618443,-0.006249370117811486,-0.003548559327051043
1772563476104183600,7.71518359375,0.06715864251554012,0.012416002988768741,0.0038768779659643766
1772563476114251300,7.725251220703125,0.06730886464118957,0.018173890662053598,-0.007965425921231508
1772563476124320500,7.735320556640625,0.06700958943367004,0.0035595739114098247,0.005667341579310595
1772563476134388500,7.745388427734375,0.07898059773445129,-0.004357519356068223,0.013008096263557672
1772563476144456400,7.75545654296875,0.09184592452645302,0.005907707940135151,-0.00004672521855682134
1772563476154524400,7.7655244140625,0.08347089489102363,-0.00943476782143116,-0.0038330022916197777
1772563476164592400,7.77559228515625,0.07793722616136074,0.007651190606597811,0.014385412498749792
1772563476174660400,7.785660400390625,0.07539514046311378,0.004619659157283604,0.005886610353179275
1772563476184729300,7.795729248046875,0.07734218287765979,-0.009434402495250105,0.0157390190647915
1772563476194797600,7.805797607421875,0.055042672786116596,-0.00804996239952743,0.0066064855929464095
1772563476204865500,7.815865478515625,0.07509411168992519,-0.01424427786185406,-0.006082205990515649
1772563476214933500,7.82593359375,0.07374328160285949,-0.010519530850835145,-0.009706314771808684
1772563476225001200,7.836001220703125,0.07569090853929519,0.0001238821079954505,-0.029595585383847354
1772563476235069400,7.8460693359375,0.07643792751431465,-0.00780595191004686,-0.015051950116083025
1772563476245138400,7.856138427734375,0.07344517543911934,-0.0021050916536245494,-0.005019983586482703
1772563476255206400,7.866206298828125,0.08003390617966652,0.004322429776377976,-0.008179945454746484
1772563476265274600,7.876274658203125,0.06896247706711292,0.010079860791936516,-0.0139338328063488
1772563476275342600,7.886342529296875,0.06956219652593136,0.0013911346979904918,0.012140227387845516
1772563476285410300,7.896410400390625,0.07345218970179557,-0.001756789672607556,-0.017291509203799068
1772563476295478300,7.906478271484375,0.08931260665655136,0.0016616222024429588,-0.0012775091225281357
1772563476305547500,7.916547607421875,0.07479425196051598,-0.005965895267622545,0.013997180366143584
1772563476315615500,7.926615478515625,0.06177461138963699,0.009286226196214557,0.001985766989737749
1772563476325683500,7.936683349609375,0.06117664549648762,-0.008114141076384111,0.008570844468474387
1772563476335751400,7.94675146484375,0.07224749008715152,0.007232526803109794,-0.001790719341672957
1772563476345819400,7.9568193359375,0.07060381453335285,-0.003471274573449045,0.004977167358063161
1772563476355888400,7.966888427734375,0.06925824514329433,0.0026463863229379057,0.00644987025912851
1772563476365956400,7.976956298828125,0.08212883263230324,0.01151266094087623,0.004279248221777379
1772563476376024600,7.987024658203125,0.06208090085983276,0.0029847788312938064,0.0017015797534957527
1772563476386092500,7.997092529296875,0.05968319206833839,-0.0017403408613055943,0.005404452859424054
1772563476396160300,8.00716015625,0.07733516861498356,0.002390685395663604,0.0007335019063204526
1772563476406228500,8.017228515625,0.0785270087480545,-0.014345957271195947,0.017998999886028468
1772563476416297500,8.02729736328125,0.055932315102219576,-0.005482961455732583,-0.008255312245897949
1772563476426365400,8.037365478515625,0.0683534052580595,0.00615725312125869,0.008230433532968163
1772563476436433400,8.047433349609374,0.07598550757169723,-0.008745844842353835,0.003886851370707154
1772563476446501400,8.05750146484375,0.07778291238248347,0.002953762638522312,0.0031134193127974868
1772563476456569300,8.0675693359375,0.08182254316210746,0.0014594141612295061,0.006389335710927844
1772563476466637300,8.07763720703125,0.07015548624396324,-0.0106230368910823,-0.008638247148878873
1772563476476706600,8.08770654296875,0.06626666211187839,0.0011055683554150163,-0.0006293839447200298
1772563476486774500,8.0977744140625,0.06492109272181987,-0.0021725947987288234,-0.00022237404640763997
1772563476496842500,8.107842529296875,0.08033610399663448,0.006075173461530357,0.007257168054021894
1772563476506910200,8.11791015625,0.06971534126102924,-0.011144421283528208,0.0031615327708423135
1772563476516978400,8.127978515625,0.09201134422123432,-0.0031739812604617327,-0.007228489948809146
1772563476527046400,8.13804638671875,0.05953764611780643,-0.0024322321156039833,0.0013674889609217643
1772563476537115400,8.148115478515624,0.0665717825382948,0.01310621374263428,-0.001446910872682929
1772563476547183600,8.15818359375,0.0756990918457508,0.005318774736812338,0.000986344156228006
1772563476557251300,8.168251220703125,0.06283025792241097,-0.0010047565957531333,-0.008810936834663153
1772563476567319300,8.1783193359375,0.06986264077723026,0.0032886023497674614,0.013593093077279626
1772563476577387300,8.18838720703125,0.08033668851852417,0.0025402955999597908,-0.005722396234795451
1772563476587456500,8.19845654296875,0.0551993246525526,0.006165911351749673,-0.01642239821907133
1772563476597524500,8.2085244140625,0.08138590531051158,-0.00006034275195561349,-0.015420016243495047
1772563476607592400,8.218592529296876,0.08527356039881706,-0.00378741871737875,-0.004587656583823263
1772563476617660400,8.228660400390625,0.08796937535405158,-0.0028937578132841734,0.011740852806717156
1772563476627728400,8.238728271484375,0.07180968319177627,0.00042718503666110336,-0.0040775151045992965
1772563476637796400,8.24879638671875,0.07136193942427635,0.0024637871644925323,0.0007289718616753816
1772563476647865600,8.258865478515625,0.0918634601831436,-0.004968472594954073,0.014707520592585205
1772563476657933600,8.26893359375,0.06882160729169845,-0.010395740074384957,0.00008340396713465452
1772563476668001500,8.27900146484375,0.0655342561841011,0.008059387814998627,-0.004685089076310396
1772563476678069200,8.2890693359375,0.09067337361574172,0.0006366448025684803,-0.005096227160468697
1772563476688137500,8.299137451171875,0.0730155518501997,0.004166024505114182,-0.007035853453539311
1772563476698205400,8.309205322265624,0.05969488250613212,-0.007040319566102698,-0.021385171725600956
1772563476708274400,8.3192744140625,0.08093816154301166,0.004873131594853476,0.010894026719033717
1772563476718342700,8.3293427734375,0.06447451799809932,0.019335755781969055,-0.0023430194621905684
1772563476728410400,8.339410400390625,0.07524959451258183,0.008262436106428503,0.001222308336570859
1772563476738478300,8.349478271484376,0.057440966099500654,0.005060041602235287,-0.006793459532409906
1772563476748546300,8.35954638671875,0.061037529286742206,-0.0013752612754236906,-0.0052751273913308975
1772563476758614500,8.369614501953125,0.07226034956872462,0.007266566070029512,0.0009924451034516095
1772563476768683500,8.37968359375,0.0893196209192276,-0.0034267961109057067,-0.010183467296883464
1772563476778751500,8.38975146484375,0.07974515236616134,-0.014652694265963509,-0.009510061547346413
1772563476788819200,8.399819091796875,0.0861778157621622,-0.008953368379501626,0.003913629779778421
1772563476798887400,8.409887451171874,0.06807225022912025,0.005247819259297103,0.011248320049419998
1772563476808955400,8.419955322265626,0.07794950112104415,0.006649447951838374,0.011912336916103959
1772563476819024400,8.4300244140625,0.07900105600059032,-0.017114892261568457,-0.005961904079094529
1772563476829092600,8.440092529296875,0.07406769125163555,0.005408078721771016,-0.011480484837479888
1772563476839160300,8.450160400390626,0.06434183152914047,-0.013541408555814996,0.0039217765536159275
1772563476849228300,8.460228271484375,0.07975508923828602,-0.00809681548224762,0.012133249657787382
1772563476859296300,8.470296142578125,0.08768471319377422,-0.001866424059541896,0.006732888451591134
1772563476869364500,8.480364501953124,0.06284487096965313,-0.0056061859766021365,0.013020261625386774
1772563476879433500,8.49043359375,0.06762859811484813,0.008584973458526655,-0.00023052082024514674
1772563476889501400,8.50050146484375,0.06329261473715304,-0.007097894972236826,0.003480243331193924
1772563476899569400,8.5105693359375,0.07077624849081039,-0.0020950999825727194,0.010293868868798017
1772563476909637400,8.520637451171876,0.06614566608071328,0.009137054383335634,-0.008750000427663326
1772563476919705300,8.530705322265625,0.07646656908690928,0.004147009277390316,-0.01317658469825983
1772563476929773300,8.540773193359374,0.07376666247844696,0.004869861925533041,-0.008536576872691512
1772563476939842600,8.550842529296874,0.08828209456503391,-0.005127078956458717,-0.0010353343971073628
1772563476949910500,8.56091064453125,0.08977496347129345,-0.004741002248320728,-0.002600428289361298
1772563476959978200,8.570978271484375,0.0725625473856926,0.011747940134629606,-0.006498531706444919
1772563476970046500,8.58104638671875,0.07255845573246479,0.002662031416641548,0.01778974104952067
1772563476980114400,8.591114501953125,0.07420563841760158,-0.0036675460642203684,-0.0005898556519299745
1772563476990182400,8.601182373046875,0.0822831464111805,-0.00887640328630805,0.004613923536241054
1772563477000251600,8.611251708984375,0.06253156723678112,0.01538419601144269,-0.005387063333205879
1772563477010319400,8.6213193359375,0.07494681217372418,0.0042289610729552805,0.0016036358043551445
1772563477020387300,8.63138720703125,0.08661854526698588,-0.006251306346571073,-0.01331559131015092
1772563477030455300,8.641455322265625,0.08752221610844135,0.0059529992534313346,-0.0025981632670387623
1772563477040523500,8.6515234375,0.07704699932336807,0.003589083133684471,0.005179740725457668
1772563477050592500,8.661592529296875,0.07270809333622455,0.0010627338606864214,0.008741853653825819
1772563477060660500,8.671660400390625,0.05579845958948135,-0.012683960609417408,-0.007572590678744017
1772563477070728400,8.681728515625,0.06986380982100963,-0.002604163749562576,0.00119132867641747
1772563477080796400,8.69179638671875,0.08946516686975955,0.008185955070424824,-0.010564100644923746
1772563477090864400,8.701864501953125,0.06343056190311909,0.006051317661907523,0.0001964358875527978
1772563477100932400,8.711932373046874,0.06627192280888557,0.005640617969166487,0.002490684304572642
1772563477111001600,8.722001708984376,0.07779460282027721,0.00781759668206796,-0.0034983269771561025
1772563477121069300,8.7320693359375,0.08452771046757697,0.003639187619416043,-0.002818126160651445
1772563477131137300,8.74213720703125,0.07255319503545761,-0.009411414345307276,-0.010061083026230334
1772563477141205200,8.752205322265626,0.07195756722986697,0.014591292068082838,0.005602203921228647
1772563477151273500,8.7622734375,0.08617255506515502,-0.0013903218472376465,-0.0016357114430516958
1772563477161341400,8.772341552734375,0.07046528284549712,-0.004574979765340686,-0.006811725841462612
1772563477171410400,8.782410400390624,0.08183774073123931,0.0012786690331529826,0.011847126192785799
1772563477181478400,8.792478515625,0.07420563841760158,0.000011389043694362043,-0.0025611191922798753
1772563477191546400,8.80254638671875,0.06717150199711322,-0.017752468645898623,-0.012771072637289762
1772563477201614300,8.8126142578125,0.08781798418462276,0.008465712726721539,-0.00606803133469075
1772563477211682300,8.822682373046876,0.06851590234339237,-0.007564900562632829,0.008024827958270907
1772563477221750500,8.83275048828125,0.07255904025435447,0.004083679983904585,-0.0036247298358008263
1772563477231819300,8.8428193359375,0.0797474904537201,-0.006565751723758876,-0.012737024237215518
1772563477241887200,8.85288720703125,0.0827443341821432,-0.005773843294242397,0.017192980732768773
1772563477251955500,8.86295556640625,0.07930325381755829,-0.0011128200801089406,0.0031654417609795924
1772563477262023400,8.8730234375,0.07347030988037585,0.0020832816806156187,-0.008852949345484376
1772563477272091400,8.88309130859375,0.08349895194172859,0.0044246389086823905,0.012317629781365394
1772563477282159400,8.893159423828125,0.0751157389998436,-0.008953368379501626,0.008140672890283166
1772563477292228400,8.903228271484375,0.0842430483072996,-0.006292378142476082,0.013194522213749586
1772563477302296300,8.91329638671875,0.07900397861003876,-0.008009237663494423,-0.006816292418725788
1772563477312364300,8.9233642578125,0.07960662067830562,-0.006358027257211506,0.00004617722928524017
1772563477322432500,8.9334326171875,0.09053191931843757,-0.005409804887976497,0.00804853762742132
1772563477332500500,8.94350048828125,0.08978080869019031,-0.013423161604162305,-0.005782894250378012
1772563477342568400,8.953568359375,0.08364566693603992,0.01883450086209923,-0.010071860148571431
1772563477352637400,8.963637451171875,0.07945815211832523,0.0032389271222986278,0.0027536460896953937
1772563477362705400,8.973705322265625,0.04758417347371578,-0.004277741251280531,-0.0008748466057702898
1772563477372773400,8.9837734375,0.07212824762165546,-0.0010382022076286376,0.007228343818336725
1772563477382841300,8.99384130859375,0.07571896559000015,0.0072145344886928794,-0.01537555604726076
1772563477392909600,9.00390966796875,0.08723580038249493,0.0006508377247024328,-0.0014043869052082299
1772563477402977500,9.0139775390625,0.08424246378540992,0.008773280838550999,0.0013760010609403252
1772563477413046300,9.02404638671875,0.08394435762166977,0.007009823963139206,0.0033071152539923786
1772563477423114500,9.034114501953125,0.08379764262735843,0.00868292654082179,0.012933167863823473
1772563477433182500,9.044182373046874,0.07227846974730491,-0.00941175227202475,0.005038761352188885
1772563477443250400,9.05425048828125,0.0835024590730667,0.009559188785543665,0.00784311471581459
1772563477453318400,9.064318359375,0.08260814058184623,0.008865927558066323,0.004907755383662879
1772563477463386600,9.07438671875,0.08365735737383365,-0.004464085003081709,0.01737644754089415
1772563477473455400,9.084455322265624,0.08111176454424858,-0.0022052732256241142,-0.0013647855471819639
1772563477483523300,9.0945234375,0.08469955990314483,-0.006358319518156349,-0.0010192600451409816
1772563477493591300,9.10459130859375,0.06659048723876476,-0.0034068401682656258,0.010011508263461292
1772563477503659500,9.114659423828124,0.08185352282226085,-0.0019507413421291856,0.006607106647454202
1772563477513728300,9.124728271484376,0.05925707561075687,-0.009401678402582183,0.012933131331205367
1772563477523796200,9.134796142578125,0.06374445015788079,-0.0034483868882060047,0.012570800824835896
1772563477533865200,9.144865234375,0.07556698989868163,0.011664919759985059,0.019133556873910128
1772563477543933400,9.154933349609376,0.07706453498005866,-0.0020666228067595513,-0.004311214262619614
1772563477554001400,9.16500146484375,0.06030629240274429,-0.002692801014240831,-0.003323116540722549
1772563477564069400,9.1750693359375,0.07257365330159664,0.00654826173284091,-0.004715118888393044
1772563477574137000,9.18513720703125,0.07676759786009787,-0.013312906162720173,0.008447291154041886
1772563477584205300,9.195205322265625,0.07093231583535671,0.005670264188759029,0.006212992763333022
1772563477594274300,9.2052744140625,0.07258008304238318,-0.0003006360475439578,-0.006210837338864803
1772563477604342300,9.21534228515625,0.06839081465899943,-0.005336008999403566,-0.0027307036055251956
1772563477614410500,9.225410400390626,0.07542085942625999,0.003229410375282168,-0.0008738236924633383
1772563477624478500,9.235478515625,0.0811065038472414,-0.005236046623112634,-0.0025670009437948464
1772563477634546200,9.245546142578124,0.07227320905029773,-0.01437111911191605,0.00960840735528618
1772563477644615400,9.255615478515624,0.07391980721354484,-0.014478534142300485,-0.009655717095732689
1772563477654683400,9.265683349609375,0.09831073662638663,0.004053138715168461,-0.010611191189661622
1772563477664751400,9.27575146484375,0.09052665862143039,0.0015071348936296998,0.0027614275373518465
1772563477674819300,9.2858193359375,0.07092588609457015,-0.00491887043272145,-0.0028704774023965
1772563477684887300,9.29588720703125,0.07272095281779765,0.019890220460109412,0.004347198891453445
1772563477694955300,9.305955322265625,0.08768646675944328,0.004101215640595183,0.009746244923397897
1772563477705024300,9.316024169921874,0.053117257681488984,0.013223218585271387,0.0005267638204619288
1772563477715092200,9.32609228515625,0.06687982557415961,0.003836536822421476,-0.010805836978927254
1772563477725160400,9.336160400390625,0.06732756934165954,0.007330160224996507,-0.001535867797769606
1772563477735228400,9.346228515625,0.08408815000653266,0.007175846446119249,-0.015570676760561763
1772563477745296100,9.356296142578126,0.07495908713340758,0.0034693748773075637,-0.00337828079406172
1772563477755364400,9.3663642578125,0.06732347768843173,-0.00497749615162611,0.003496792607195675
1772563477765433300,9.376433349609375,0.06372457641363144,-0.0013336871560197324,0.0026091595850884913
1772563477775501300,9.386501220703124,0.07928279555141925,-0.011758470661798491,0.01492277077846229
1772563477785569300,9.3965693359375,0.0780868637651205,0.0043893575327470895,0.002533865859173238
1772563477795637200,9.40663720703125,0.08527356039881706,0.0016478220059536397,0.004591894367523491
1772563477805705200,9.416705322265624,0.07704641480147838,-0.006734477620478719,0.013518274275399743
1772563477815773200,9.426773193359375,0.0614823504447937,-0.005780236502410844,0.0026542773684486744
1772563477825842400,9.436842529296875,0.07449965292811393,-0.003955815820535644,-0.001713854713179171
1772563477835910400,9.446910400390625,0.0788368053495884,-0.004104494443070143,-0.0010398644417524336
1772563477845978400,9.456978271484376,0.0782353323251009,0.008581502859806642,-0.0074295289462432265
1772563477856046000,9.467046142578125,0.060577510559558866,-0.003011721637146547,0.0013492957171052694
1772563477866114300,9.4771142578125,0.07389291920661926,-0.004135711565241218,-0.004170929009094834
1772563477876182300,9.487182373046876,0.08766074779629707,0.011309366054274142,0.003954948170855641
1772563477886251300,9.497251220703125,0.08451718907356262,0.02231215037740767,-0.01549483504537493
1772563477896319500,9.507319580078125,0.0650637160629034,0.005857320326613262,-0.004288929365575313
1772563477906387500,9.517387451171874,0.075538348326087,0.0015460969308391213,-0.01037712670546025
1772563477916455200,9.527455078125,0.0707499450057745,0.010136879075644537,-0.019844627752713857
1772563477926523100,9.537523193359375,0.07583879257738589,0.00849726777561009,-0.020099187035672365
1772563477936591400,9.54759130859375,0.06910217779874801,0.0008331354890484362,0.001987922414205968
1772563477946660400,9.557660400390626,0.060573418906331056,0.00712090138848871,0.007393325121700763
1772563477956728300,9.567728271484375,0.06760638628304004,0.014117783671664073,-0.0072188818702474235
1772563477966796300,9.57779638671875,0.06461421872973441,0.007241413362463936,0.005371098579093813
1772563477976864300,9.5878642578125,0.07089958260953426,0.003852172782970592,-0.004008979913033545
1772563477986932200,9.59793212890625,0.08077332637012004,0.00843796620327048,0.003642740416526794
1772563477997000200,9.608000244140625,0.07642974420785903,0.0025574567973148075,-0.004284728114493191
1772563478007069400,9.6180693359375,0.06400865405201911,0.00017133797891438006,-0.002063617998920381
1772563478017137400,9.628137451171876,0.08361410275399685,0.00621838132450357,-0.00956087841913104
1772563478027205000,9.638205078125,0.07329319974780082,-0.0052551349160727115,0.0029508491622284054
1772563478037273300,9.6482734375,0.08271919974088668,0.005403850071225315,-0.0021689780695363877
1772563478047341300,9.65834130859375,0.05832943937182426,0.011532991342851892,-0.0033906288189813494
1772563478057409300,9.6684091796875,0.05549041655361652,0.010310482076881454,0.006457249847985804
1772563478067478500,9.678478515625,0.0587806902706623,0.00756504669310525,-0.000495966823399067
1772563478077546200,9.688546142578126,0.08960428307950496,0.00587280102353543,0.01983012430332601
1772563478087614200,9.6986142578125,0.08945815260708331,-0.009980510336998849,0.012851115603558718
1772563478097682200,9.70868212890625,0.076291797041893,-0.012927788435807452,0.007781264993362128
1772563478107750400,9.71875048828125,0.06297697291672229,-0.00821458750986494,0.0005018851075321435
1772563478117818400,9.728818359375,0.07674830863773822,-0.00022600904190912843,0.009589885317906737
1772563478127887400,9.738887451171875,0.07764788782596588,-0.003934060646453872,-0.005871522381901741
1772563478137955000,9.748955078125,0.0703185678511858,0.002254546594293788,0.004362944449856877
1772563478148023300,9.759023193359376,0.0840863964408636,0.015689827894512565,-0.0051829190632328385
1772563478158091300,9.76909130859375,0.07405950794517993,-0.002415217048721388,0.01176503739990294
1772563478168159200,9.7791591796875,0.06687573392093181,-0.013187370953755452,0.00599397971779108
1772563478178227200,9.789227294921876,0.08288929561078548,0.011445285659935325,-0.001197283493168652
1772563478188296200,9.799296142578125,0.07256546999514102,0.0002359733134973794,0.008358151565864681
1772563478198364200,9.8093642578125,0.08184533951580523,-0.01165354898259975,0.015595007484219967
1772563478208432000,9.81943212890625,0.08319616960287093,0.004569061481207609,0.011332746929861604
1772563478218500400,9.829500244140625,0.07571428941488266,-0.007279772611474618,-0.01426503752209246
1772563478228568300,9.839568359375,0.08873334546387195,0.01552485572430305,-0.009933364993333816
1772563478238636300,9.84963623046875,0.07646715360879898,0.0010115881953388453,0.010865312081202864
1772563478248704300,9.859704345703125,0.07422258955240249,-0.0033200569339562206,0.006468538426980376
1772563478258773200,9.869773193359375,0.07152911268472671,0.006260622164187953,-0.008103409619815647
1772563478268841200,9.87984130859375,0.071381228646636,-0.004022926239995285,-0.006882891381531953
1772563478278909200,9.8899091796875,0.08903437423706054,-0.002526102677825838,0.003168839294463396
1772563478288977400,9.899977294921875,0.08424713996052742,-0.009919537397380917,0.0006346081091091036
1772563478299045400,9.91004541015625,0.06884206555783748,-0.0060726253114175045,0.010972937174141406
1772563478309114000,9.920114013671874,0.08186755134761332,0.002376392008829862,-0.004854673489555717
1772563478319182300,9.930182373046875,0.06869944221675396,-0.009181313650170341,0.0030575609397143124
1772563478329250300,9.940250244140625,0.0713940881282091,-0.0066304601235780865,0.0037835736593231557
1772563478339318300,9.950318359375,0.07483399944901466,-0.0032011797946412115,-0.0007642258381471037
1772563478349386200,9.96038623046875,0.06914893954992293,-0.0045396435904782265,0.0024297844301909206
1772563478359454500,9.970454345703125,0.06960135949254036,-0.010993870364315808,0.006800583392940461
1772563478369522400,9.9805224609375,0.0664537091165781,-0.002456836833897978,0.010291384650766849
1772563478379591200,9.990591064453126,0.08111351810991764,-0.014628135213442146,0.00658873074054718
1772563478389659400,10.000659423828125,0.06689736123085022,-0.008255969833023846,0.010899945003166794
1772563478399727400,10.010727294921875,0.0782698191165924,-0.004422099891724065,0.0108297658437863
1772563478409795300,10.02079541015625,0.06854629748165607,0.005476970106363296,0.0033028774702921508
1772563478419863300,10.03086328125,0.07288578799068927,-0.0006258037481456994,-0.01822970336936414
1772563478429931500,10.040931640625,0.08799743240475653,-0.018136508660577238,0.01393708420936018
1772563478440000300,10.051000244140624,0.07483283040523529,-0.0011637739492114632,-0.01994644415937364
1772563478450068200,10.061068115234375,0.086504563498497,0.002250244878511876,-0.006279409063048661
1772563478460136400,10.071136474609375,0.08321019812822342,-0.0050291806730907405,0.004445288971066475
1772563478470204400,10.081204345703124,0.08141396236121654,-0.020142414256045595,-0.006196626150421798
1772563478480272400,10.0912724609375,0.07557692677080631,-0.005382779883733019,-0.006058423256129026
1772563478490340400,10.10134033203125,0.06660276219844817,-0.0008240023345220833,-0.01298844171501696
1772563478500409300,10.111409423828125,0.06660217767655849,-0.005796511783776805,-0.009370945337601005
1772563478510476800,10.121476806640626,0.05971826338171959,-0.0011316069789696485,0.0069909913985058665
1772563478520545000,10.131544921875,0.08171966730952263,-0.01056258454127237,0.008392894085682927
1772563478530613000,10.141613037109375,0.07962590990066527,-0.0016476667423266918,0.004874328038096428
1772563478540681000,10.151680908203126,0.08291676813960075,-0.006668143519153818,-0.0010365399735048414
1772563478550749000,10.1617490234375,0.07363923670649528,-0.010899369614431633,-0.01221917437557131
1772563478560818000,10.17181787109375,0.08247077793776988,-0.004757798119494692,-0.009061221801303327
1772563478570886000,10.181885986328124,0.07827800242304801,-0.010551387293823062,-0.01528042510971427
1772563478580953900,10.191953857421876,0.07588146267533302,0.00722054410437122,-0.010357910548336803
1772563478591022000,10.20202197265625,0.07722644754350184,-0.008553080482920632,0.012001074645482003
1772563478601090000,10.212090087890624,0.06196341196000576,0.004235390813741833,0.0000044569794088602065
1772563478611158000,10.222157958984376,0.05836977138221264,0.011696831001900136,0.015089067256078123
1772563478621227000,10.23222705078125,0.07243336804807186,0.005421951983496547,0.014534977037273347
1772563478631295000,10.242294921875,0.07976677967607974,-0.018023495006468146,-0.017421309595927595
1772563478641363000,10.252363037109374,0.07632511478960513,0.012969645683001726,-0.006251425077579915
1772563478651431000,10.262430908203125,0.07048691015541553,0.006027343131275847,0.007321501994505524
1772563478661499100,10.2724990234375,0.06914017172157765,-0.004156169831380248,0.002535546359606087
1772563478671566800,10.28256689453125,0.07198094810545444,-0.007714154573902487,-0.012037753394059837
1772563478681635800,10.2926357421875,0.06494388907551765,0.01364672296065837,0.0031998920198529957
1772563478691704000,10.3027041015625,0.08364858954548836,0.00768747662953101,0.0018580489568412303
1772563478701772000,10.31277197265625,0.0848491975069046,-0.006001003113621846,0.013248992347344755
1772563478711840000,10.322840087890626,0.0673427669107914,-0.005038523890171199,0.007519874110817909
1772563478721908000,10.332907958984375,0.07707330280840397,-0.0035606424904894084,-0.003081416739337146
1772563478731976000,10.342975830078124,0.10191431407630443,0.0013164437602739781,0.002159662251919508
1772563478742045000,10.353044921875,0.08126490927934646,-0.00034701420622877774,-0.005602094323374331
1772563478752113000,10.36311279296875,0.07199030045568942,0.002316560713527724,-0.0028275881087407467
1772563478762181000,10.37318115234375,0.05762801310420036,-0.0028039241053629664,0.007522139133140445
1772563478772249000,10.3832490234375,0.07379062787592411,-0.00395450064628385,-0.013425262229703366
1772563478782316800,10.39331689453125,0.07513327465653419,0.0066786831794772294,0.019128076981194318
1772563478792384800,10.403384765625,0.06884615721106528,0.0021342720823362468,-0.007096168806031346
1772563478802454000,10.4134541015625,0.08425883039832115,0.0013801749125588684,-0.005438172465935349
1772563478812522000,10.42352197265625,0.07244447396397591,-0.006194680788507685,0.016232355539686976
1772563478822590000,10.43358984375,0.06945756710767746,0.00046137956720776853,0.011088234116882085
1772563478832658000,10.443657958984375,0.07260872461497783,-0.0007532021206337958,0.002305354332923889
1772563478842726000,10.453725830078126,0.06812310363352299,0.002768916724063456,-0.002778159476444125
1772563478852793900,10.4637939453125,0.08188976317942143,-0.00623548772293143,0.0004961494864895939
1772563478862861800,10.47386181640625,0.07889934919178486,0.0005560812464915216,-0.0014168079953640698
1772563478872931000,10.48393115234375,0.07545885334908962,0.008896825019828974,0.0011533712862059474
1772563478882999000,10.4939990234375,0.10045359387397766,0.001120126603730023,-0.000980681600421667
1772563478893067000,10.50406689453125,0.06169219380319118,-0.008693301804363727,-0.01742715481482446
1772563478903134700,10.514134765625,0.07455693607330321,-0.011182634402066469,-0.009753149588219821
1772563478913203000,10.524202880859375,0.09296236133575439,0.007713670516712591,-0.0068108490586280815
1772563478923271000,10.53427099609375,0.07560381477773188,-0.0008957523964811116,0.012569302987493574
1772563478933340000,10.54433984375,0.06796878985464573,-0.013448433042736723,-0.0065390098473057144
1772563478943408000,10.554408203125,0.07395370948314667,-0.011749593235598876,-0.010374277161248028
1772563478953475800,10.564475830078125,0.07141103926301003,-0.0007638605119660496,0.0059423591284081334
1772563478963543800,10.574543701171875,0.07799626287221909,-0.004212923253607005,-0.015634462711773812
1772563478973611800,10.58461181640625,0.07635024923086166,0.016569980863062665,-0.015942176954075692
1772563478983680000,10.594679931640625,0.07096621810495853,-0.0042646351745352145,0.012560863952711224
1772563478993749000,10.6047490234375,0.07874620445668697,0.0013052830454427747,-0.011159801515750587
1772563479003817000,10.61481689453125,0.08188567152619361,-0.00425738344984129,-0.01838504006154835
1772563479013885000,10.624885009765626,0.06767243725657462,-0.014911098606977612,0.0017354820230975746
1772563479023953000,10.634952880859375,0.09715279876291752,0.011643548178393394,-0.010814677872508763
1772563479034020900,10.645020751953124,0.07410919230580329,-0.007028473864682018,0.00596731090657413
1772563479044088800,10.6550888671875,0.08967442570626735,-0.01495457242252305,0.01944876030292362
1772563479054158000,10.665157958984375,0.08174129461944103,0.004598269309382885,0.007539199865795671
1772563479064225800,10.675225830078125,0.07994973502755165,-0.0016631200397852807,-0.004302227238565683
1772563479074293800,10.685293701171876,0.06783084268867969,-0.005979083542758599,-0.0015485811488702892
1772563479084362000,10.695362060546875,0.09641279405057429,-0.004334677336597815,-0.000008658230490982533
1772563479094430000,10.705429931640625,0.07740180411040783,0.011592639975063502,-0.0011964432429522275
1772563479104498000,10.715497802734374,0.0721656570225954,0.015502013704832642,0.0190489838629961
1772563479114567200,10.725567138671876,0.0657300710171461,0.0026717764925211665,0.01403630680013448
1772563479124635000,10.735634765625,0.07889642658233642,-0.008898706449661403,0.0013883856184780598
1772563479134702800,10.745702880859374,0.05884323411285877,-0.0018321655969135461,0.002181874083727598
1772563479144770800,10.755770751953126,0.04927051912546158,-0.006851893455069512,-0.0018193974468857048
1772563479154839000,10.765839111328125,0.06289163272082805,0.002056064880127087,-0.00934065979719162
1772563479164907000,10.775906982421875,0.08144669558703899,0.0095331044962164,0.0034356004718691107
1772563479174975000,10.78597509765625,0.07201835750639438,-0.00542164145624265,0.011841682832688093
1772563479185043700,10.796043701171875,0.08264087380766869,0.008515534084662794,-0.0024253274507820607
1772563479195112000,10.80611181640625,0.07336334237456321,-0.0023309180324431506,0.0023328268617391584
1772563479205180000,10.816179931640624,0.0847352157384157,-0.004905782622285187,-0.006221358732879162
1772563479215248000,10.826247802734375,0.07261632339954376,-0.0015643449735827744,0.0106981388207525
1772563479225315800,10.83631591796875,0.07680909891426563,0.003052345908479765,0.0025984555279836056
1772563479235384000,10.846384033203124,0.07426233704090118,-0.0009066939156036824,0.018618921882659196
1772563479245452800,10.856452880859376,0.08100012086331844,0.011523483728989958,0.011201594830863177
1772563479255520800,10.866520751953125,0.06783201173245906,0.014646666383976116,-0.007656140776351094
1772563479265589000,10.876589111328125,0.07068097142279148,0.0036364933388307688,0.005658683348819613
1772563479275657000,10.886656982421876,0.07367489254176617,0.0018635836484842002,0.010951967451348901
1772563479285725000,10.896724853515625,0.05302373417913914,0.001863811977347359,0.0037839389855042096
1772563479295793000,10.90679296875,0.06858604497015476,-0.0030900567035190758,0.007823350569419562
1772563479305862000,10.91686181640625,0.08474164547920227,0.013687475096154957,-0.005421769320406019
1772563479315929900,10.926929931640625,0.07052198146879672,0.0027191684313584118,0.005221314844861626
1772563479325997800,10.936997802734375,0.08219429908394812,-0.00048181956703774627,0.00991374697741121
1772563479336066000,10.947066162109374,0.08848083200752735,-0.005602651445800438,0.007996040255203842
1772563479346134000,10.957134033203126,0.08564122466742992,-0.009351847911486402,0.009300327786803245
1772563479356202000,10.967201904296875,0.08055179257392883,0.010207587957987561,0.008600070562958717
1772563479366271000,10.97727099609375,0.0757604666441679,0.005314436488412321,-0.0004510682357475161
1772563479376339000,10.9873388671875,0.07606032637357711,0.009410994220199063,0.01877780223879963
1772563479386407000,10.997406982421875,0.09012801469266414,0.00359852681546472,0.009408391271159052
1772563479396475000,11.007474853515625,0.08055471518337726,-0.00535608367305249,0.004529679318889975
1772563479406543000,11.017543212890626,0.0875853444725275,0.007587505120085552,0.011406835079379379
1772563479416611000,11.027611083984375,0.07755845597684383,0.00010958872116170823,0.011973529051430523
1772563479426679800,11.0376796875,0.06947802537381649,0.00783620091783814,0.000033463878184556956
1772563479436748000,11.047748046875,0.07531038478910923,0.000856370234163478,0.00869454391337931
1772563479446816000,11.05781591796875,0.06154372524321079,0.005987650441704318,-0.008511734692379832
1772563479456884000,11.067884033203125,0.08368892155587673,-0.0014718991834670305,-0.005388195844367146
1772563479466952000,11.077951904296874,0.089380411195755,0.006304689634777605,0.014166362920589743
1772563479477020000,11.08802001953125,0.06753507461249827,-0.002801403354713693,0.004350194566138089
1772563479487087900,11.098087890625,0.08084814517199992,0.008500656175939366,0.02109064575843513
1772563479497156900,11.108156982421875,0.07575345238149166,0.007642998166987672,0.001826594372652471
1772563479507225000,11.11822509765625,0.07425824538767338,0.0025721520429477095,0.0005483911303803325
1772563479517293300,11.128293212890625,0.06902092925608158,0.007821496539050713,0.0012544570405036211
1772563479527361300,11.138361328125,0.06782324390411376,0.00988765355492942,0.007954064277000725
1772563479537429200,11.14842919921875,0.07650748561918735,0.006188999966392293,0.01016622390113771
1772563479547497200,11.158497314453125,0.08189443935453891,-0.0014026972716208546,0.01063778693564236
1772563479557566200,11.168566162109375,0.07037175934314728,-0.0007776698416098952,-0.011308598869293928
1772563479567634200,11.17863427734375,0.0777075090587139,0.0038859380552545186,-0.003117803226970136
1772563479577702400,11.188702392578126,0.0545154340416193,0.011621774738002568,-0.008609276782721281
1772563479587770000,11.19877001953125,0.07426701321601867,-0.008792122536338865,0.0021254677213728428
1772563479597838000,11.208838134765625,0.08189327031075953,-0.001447120935237035,-0.006370594477839767
1772563479607906000,11.218906005859376,0.0652817427277565,0.001965948044415563,-0.004640957673639059
1772563479617975300,11.228975341796875,0.07620587232410907,-0.015613191594881936,0.0014408464580774306
1772563479628043300,11.239043212890625,0.07022270626127719,-0.010767194602126254,0.00027114509157836434
1772563479638111200,11.249111328125,0.0631903234064579,0.015188271580543368,-0.008362425882183016
1772563479648179200,11.25917919921875,0.06453589279651642,0.005669780131569132,0.006388239732384681
1772563479658247200,11.2692470703125,0.06917348946928978,0.011370841317391023,0.01736943327821791
1772563479668315100,11.279315185546874,0.0703705902993679,0.01310418618232943,0.01418988992664963
1772563479678384400,11.28938427734375,0.06812193458974361,0.010761714709410444,0.0019611074725165963
1772563479688452400,11.299452392578125,0.0741045161306858,0.0011327760227490217,0.0008150427099317312
1772563479698520000,11.30952001953125,0.07724749033153057,-0.005630589765496552,-0.002125138927809894
1772563479708588000,11.319588134765626,0.07500351079702376,0.004498973653372377,-0.003097564156539738
1772563479718656300,11.32965625,0.0732072750300169,-0.005374486979423091,0.002263013028539717
1772563479728724200,11.33972412109375,0.08727262526154518,-0.005492533001676202,0.006150631584227084
1772563479738792200,11.349792236328126,0.08203297104239464,0.008909264376293868,0.0037885055627673862
1772563479748861400,11.359861328125,0.06706745710074902,0.005389355754991993,0.007444434254430234
1772563479758929200,11.36992919921875,0.07903904992341995,-0.009912742330413312,-0.003930471316725016
1772563479768997000,11.3799970703125,0.06422668071687221,0.001787824131688103,0.01259027271028608
1772563479779065000,11.390065185546876,0.06647066025137902,0.005373765460215509,0.010786109365150332
1772563479789133300,11.40013330078125,0.07769289601147174,-0.0005063603532500565,-0.014030607711710035
1772563479799201300,11.410201171875,0.08546995975375175,-0.012435657537309451,0.0011769348248839378
1772563479809270000,11.42027001953125,0.08980886574089526,-0.007089337206445634,0.00429039067029953
1772563479819338200,11.430338134765625,0.07215396658480167,-0.005997249387111514,0.013135412437655031
1772563479829406200,11.44040625,0.061679918843507764,-0.01429005323234014,0.0019653817888349292
1772563479839474200,11.45047412109375,0.07455109085440635,-0.020777104563545434,-0.001422689746879041
1772563479849542100,11.460542236328125,0.07993746006786823,-0.003999737160652875,-0.0026177812829613683
1772563479859610400,11.4706103515625,0.07275310152173042,0.0007272091628517956,0.014060308730229735
1772563479869679000,11.48067919921875,0.0794856246471405,0.0064829505448229605,0.011795103744603692
1772563479879747000,11.4907470703125,0.08771043215692043,0.0020626224850770086,0.01740552750490606
1772563479889815300,11.500815185546875,0.0754424867361784,0.007996213785139844,-0.019347016961500048
1772563479899883300,11.51088330078125,0.05943184765577316,0.0014129629373084752,0.0020763678826391696
1772563479909951200,11.520951171875,0.06242693781852722,0.0036930823642760515,0.01616648722924292
1772563479920019200,11.531019287109375,0.07155716973543166,0.0068846540803555395,0.009771379364654421
1772563479930087400,11.54108740234375,0.07065875959098339,0.00014137209891341626,-0.0143523870119825
1772563479940156200,11.55115625,0.0729021546036005,-0.0029967889294959605,0.021683679748140273
1772563479950224100,11.56122412109375,0.07948854725658894,0.005875093445321545,-0.01464841081649065
1772563479960292000,11.5712919921875,0.07439969968497753,0.0017296824699733406,-0.017133944021910427
1772563479970360300,11.5813603515625,0.07335340550243855,-0.008603385898051782,0.01202975275069475
1772563479980428300,11.59142822265625,0.08083820829987526,0.004306711617438123,-0.004781681318581104
1772563479990496300,11.601496337890625,0.07829670712351798,0.00005655249282717705,0.008194923828169703
1772563480000565200,11.611565185546874,0.06273498085439205,-0.002937149430438876,-0.0011108838513493537
1772563480010633200,11.62163330078125,0.07859715137481689,-0.0011121533598285169,-0.005117598742060363
1772563480020701200,11.631701171875,0.07694704608023166,-0.006031115124095231,0.012924290437623857
1772563480030769200,11.64176904296875,0.05869242746531963,-0.017825780477281658,0.0185041729291901
1772563480040837400,11.65183740234375,0.06557751080393791,-0.013495724516874178,-0.005541632840409875
1772563480050905300,11.6619052734375,0.0767407098531723,0.011715362172434105,-0.0005286269839853048
1772563480060974000,11.67197412109375,0.001807341682910919,0.03833078096802346,-0.01665438034404069
1772563480071042300,11.682042236328124,0.09531213933229446,0.0936594584881328,-0.052042102730646723
1772563480081110300,11.6921103515625,0.3823696703135967,-0.1487588664301671,0.013116598139330743
1772563480091178200,11.70217822265625,-0.2813736401259899,0.04649819573475979,0.10381886905599384
1772563480101246200,11.71224609375,0.07581541170179844,-0.03411351946601644,0.008569127435423433
1772563480111314200,11.722314208984375,0.26126784068644043,-0.07260925433794035,-0.02760959919840097
1772563480121382100,11.732382080078125,-0.027198972570896148,0.06883103270716964,0.00044131402671337126
1772563480131451100,11.742451171875,0.036709143716096876,0.009619193610781803,0.022473880277760327
