time,seconds_elapsed,z,y,x
1772458710720978700,0.057978759765625,0.28001508116722107,0.5879523754119873,-0.515807032585144
1772458710731048000,0.0680478515625,0.2614904046058655,0.6322359442710876,-0.5050148367881775
1772458710741116700,0.07811669921875,0.26335182785987854,0.5754936337471008,-0.5117039680480957
1772458710751184600,0.0881845703125,0.2733418643474579,0.4717637598514557,-0.5195123553276062
1772458710761254000,0.09825390625,0.26616159081459045,0.4424870014190674,-0.5042542815208435
1772458710771321900,0.10832177734375,0.21540787816047668,0.42368826270103455,-0.4464106559753418
1772458710781390600,0.118390625,0.13238659501075745,0.3873050808906555,-0.3723412752151489
1772458710791458800,0.128458740234375,0.0357721745967865,0.31775397062301636,-0.29455217719078064
1772458710801527800,0.13852783203125,-0.03923187777400017,0.2469286471605301,-0.22144672274589539
1772458710811596800,0.1485966796875,-0.07937183976173401,0.18625730276107788,-0.17982177436351776
1772458710821664800,0.158664794921875,-0.09531346708536148,0.14758428931236267,-0.1520991176366806
1772458710831733800,0.168733642578125,-0.09974096715450287,0.10978897660970688,-0.15358728170394897
1772458710841802000,0.178802001953125,-0.09221991151571274,0.08132072538137436,-0.17710594832897186
1772458710851870700,0.18887060546875,-0.06542797386646271,0.08007250726222992,-0.21863128244876862
1772458710861938700,0.198938720703125,-0.016505733132362366,0.09675173461437225,-0.265289306640625
1772458710872008000,0.209008056640625,0.023928774520754814,0.12000086903572083,-0.32580938935279846
1772458710882076700,0.21907666015625,0.03928538039326668,0.14402347803115845,-0.39744114875793457
1772458710892144600,0.22914453125,0.026090746745467186,0.19344641268253326,-0.44760844111442566
1772458710902214000,0.2392138671875,-0.005809759721159935,0.26942312717437744,-0.48963692784309387
1772458710912281900,0.24928173828125,-0.03254736214876175,0.32783159613609314,-0.5292360186576843
1772458710922350800,0.259350830078125,-0.04337388277053833,0.3583851754665375,-0.5640180110931396
1772458710932418800,0.269418701171875,-0.035706907510757446,0.3676393926143646,-0.5977698564529419
1772458710942487800,0.27948779296875,-0.026610763743519783,0.36514657735824585,-0.6281739473342896
1772458710952556800,0.289556884765625,-0.025000082328915596,0.3625617027282715,-0.633226752281189
1772458710962624800,0.299624755859375,-0.025418782606720924,0.3758319616317749,-0.6178140044212341
1772458710972693800,0.30969384765625,-0.020834149792790413,0.38908305764198303,-0.5730233788490295
1772458710982762000,0.319761962890625,0.00042923749424517155,0.3744950294494629,-0.5123692750930786
1772458710992830700,0.329830810546875,0.04466940090060234,0.3182053864002228,-0.4370627701282501
1772458711002898700,0.339898681640625,0.0999043881893158,0.25056782364845276,-0.35188066959381104
1772458711012968000,0.349968017578125,0.15637831389904022,0.1896304190158844,-0.26417985558509827
1772458711023036700,0.36003662109375,0.20700888335704803,0.12587039172649384,-0.18895605206489563
1772458711033104600,0.370104736328125,0.2582353353500366,0.048857107758522034,-0.14166656136512756
1772458711043174000,0.380173828125,0.3027660846710205,-0.04205013066530228,-0.1337667852640152
1772458711053241900,0.390241943359375,0.3307793438434601,-0.1262984275817871,-0.15791793167591095
1772458711063310800,0.400310791015625,0.3381668031215668,-0.20979192852973938,-0.20238998532295227
1772458711073378800,0.41037890625,0.3232930302619934,-0.2840706706047058,-0.27101030945777893
1772458711083447800,0.42044775390625,0.29447272419929504,-0.3328772485256195,-0.35483717918395996
1772458711093516800,0.430516845703125,0.24986398220062256,-0.32534822821617126,-0.4277838468551636
1772458711103584800,0.440584716796875,0.20173020660877228,-0.2583055794239044,-0.49247071146965027
1772458711113653800,0.45065380859375,0.1543658971786499,-0.15425190329551697,-0.5419131517410278
1772458711123721700,0.4607216796875,0.11845709383487701,-0.05004573240876198,-0.5826404094696045
1772458711133790700,0.470790771484375,0.10989715903997421,0.029400626197457314,-0.604932427406311
1772458711143858700,0.480858642578125,0.11632978171110153,0.08978976309299469,-0.59771728515625
1772458711153927700,0.490927734375,0.13735170662403107,0.15478740632534027,-0.5482376217842102
1772458711163996700,0.50099658203125,0.15693044662475586,0.21497321128845215,-0.46835070848464966
1772458711174065000,0.51106494140625,0.18575385212898254,0.2549344599246979,-0.36673805117607117
1772458711184134000,0.5211337890625,0.22955334186553955,0.27208802103996277,-0.25687935948371887
1772458711194201600,0.53120166015625,0.2797546982765198,0.2719101011753082,-0.1477440595626831
1772458711204270800,0.541270751953125,0.32849034667015076,0.22374030947685242,-0.03973013535141945
1772458711214339800,0.55133984375,0.3670329451560974,0.13212305307388306,0.036363035440444946
1772458711224407600,0.561407470703125,0.3965308666229248,0.01688394695520401,0.08653154969215393
1772458711234476800,0.571476806640625,0.4139247536659241,-0.11403811722993851,0.11469554901123047
1772458711244544800,0.581544677734375,0.4223637282848358,-0.23954956233501434,0.1396138221025467
1772458711254613800,0.59161376953125,0.41939324140548706,-0.3589308261871338,0.1619710624217987
1772458711264681700,0.601681640625,0.41415369510650635,-0.48274749517440796,0.16774404048919678
1772458711274750700,0.611750732421875,0.4013423025608063,-0.573745846748352,0.16975580155849457
1772458711284820000,0.621820068359375,0.3866702914237976,-0.6130284070968628,0.1628081500530243
1772458711294887700,0.6318876953125,0.36609578132629395,-0.6131522059440613,0.1483309417963028
1772458711304956700,0.641956787109375,0.3350442945957184,-0.5557289719581604,0.11878985166549683
1772458711315025000,0.65202490234375,0.3062848150730133,-0.45154187083244324,0.08178310096263885
1772458711325093600,0.66209375,0.2858595550060272,-0.3347729444503784,0.03218095749616623
1772458711335161600,0.67216162109375,0.2769922912120819,-0.23908394575119019,-0.027951890602707863
1772458711345230800,0.68223095703125,0.28403159976005554,-0.17695309221744537,-0.10210779309272766
1772458711355299600,0.692299560546875,0.300885409116745,-0.10303892195224762,-0.16191041469573975
1772458711365367600,0.702367431640625,0.3243790864944458,-0.015823638066649437,-0.21684004366397858
1772458711375436800,0.712436767578125,0.3512818217277527,0.09146233648061752,-0.24997243285179138
1772458711385504800,0.7225048828125,0.384056955575943,0.1971859335899353,-0.2726590037345886
1772458711395573800,0.73257373046875,0.40921077132225037,0.2693786323070526,-0.28760838508605957
1772458711405641700,0.742641845703125,0.4359130859375,0.30841952562332153,-0.3020658493041992
1772458711415710700,0.752710693359375,0.4587496817111969,0.3234853148460388,-0.30799299478530884
1772458711425779700,0.76277978515625,0.46918702125549316,0.32158395648002625,-0.29753750562667847
1772458711435847700,0.77284765625,0.47466540336608887,0.2998048961162567,-0.27465030550956726
1772458711445916700,0.782916748046875,0.480415403842926,0.27722927927970886,-0.23492726683616638
1772458711455985000,0.79298486328125,0.48377525806427,0.2554089426994324,-0.182967409491539
1772458711466053600,0.8030537109375,0.49151381850242615,0.24711759388446808,-0.12053515762090683
1772458711476123000,0.813122802734375,0.49793684482574463,0.25368309020996094,-0.05788003280758858
1772458711486190800,0.82319091796875,0.5006164908409119,0.2791283130645752,0.005813231226056814
1772458711496259600,0.833259521484375,0.5062136650085449,0.33173853158950806,0.0891302302479744
1772458711506327800,0.843327880859375,0.5252352952957153,0.4178362488746643,0.18614813685417175
1772458711516396800,0.853396728515625,0.5497885346412659,0.48768430948257446,0.29800063371658325
1772458711526464800,0.86346484375,0.5621225833892822,0.4860268235206604,0.39534708857536316
1772458711536533800,0.87353369140625,0.5539411306381226,0.3974412977695465,0.4698021411895752
1772458711546602800,0.883602783203125,0.5267209410667419,0.2911089360713959,0.535484790802002
1772458711556670700,0.893670654296875,0.4886177182197571,0.23152922093868256,0.6043709516525269
1772458711566739700,0.90373974609375,0.42422494292259216,0.2125024050474167,0.6706418991088867
1772458711576807700,0.9138076171875,0.3363776206970215,0.21624600887298584,0.7224901914596558
1772458711586877000,0.923876953125,0.2514954209327698,0.22599506378173828,0.7684572339057922
1772458711596945000,0.93394482421875,0.19445344805717468,0.19943615794181824,0.7879577279090881
1772458711607014000,0.944013916015625,0.16962572932243347,0.15025663375854492,0.7832524180412292
1772458711617083000,0.954082763671875,0.16163331270217896,0.08860072493553162,0.7499804496765137
1772458711627150800,0.96415087890625,0.15881654620170593,0.018109377473592758,0.6912330985069275
1772458711637219800,0.9742197265625,0.16391997039318085,-0.05018738657236099,0.6108341217041016
1772458711647287800,0.984287841796875,0.1781311184167862,-0.11661338061094284,0.5225033760070801
1772458711657357000,0.994357177734375,0.19763478636741638,-0.18567845225334167,0.4222055673599243
1772458711667425000,1.004425048828125,0.21302880346775055,-0.2177789956331253,0.35544440150260925
1772458711677493800,1.01449365234375,0.21044179797172546,-0.20694126188755035,0.32486119866371155
1772458711687563000,1.02456298828125,0.18330195546150208,-0.19316932559013367,0.3218240439891815
1772458711697631000,1.034630859375,0.14703530073165894,-0.17998374998569489,0.3249599039554596
1772458711707699700,1.04469970703125,0.12394610792398453,-0.12584643065929413,0.35449644923210144
1772458711717768000,1.054767822265625,0.11917851865291595,-0.005645180121064186,0.4350011348724365
1772458711727837000,1.0648369140625,0.11352352052927017,0.15157055854797363,0.5627139806747437
1772458711737905000,1.07490478515625,0.10771170258522034,0.27275821566581726,0.7003189921379089
1772458711747974000,1.084973876953125,0.10546446591615677,0.34581080079078674,0.8116133213043213
1772458711758043000,1.09504296875,0.11547902226448059,0.3849733769893646,0.8867592215538025
1772458711768111000,1.105111083984375,0.14495952427387238,0.37315788865089417,0.8973925709724426
1772458711778179800,1.115179931640625,0.18683427572250366,0.31433558464050293,0.85232013463974
1772458711788247800,1.125247802734375,0.22922922670841217,0.24225448071956635,0.77455735206604
1772458711798317000,1.135317138671875,0.2615125775337219,0.17621688544750214,0.6812748312950134
1772458711808385800,1.1453857421875,0.283963143825531,0.09849658608436584,0.5890147089958191
1772458711818453800,1.155453857421875,0.30767327547073364,0.021071303635835648,0.5017125606536865
1772458711828523000,1.16552294921875,0.3266124129295349,-0.059925056993961334,0.41975662112236023
1772458711838591000,1.175591064453125,0.3386126160621643,-0.12483666837215424,0.338664710521698
1772458711848660000,1.185659912109375,0.34678760170936584,-0.16903896629810333,0.26488208770751953
1772458711858728000,1.19572802734375,0.3475034534931183,-0.18952134251594543,0.19065922498703003
1772458711868797000,1.205796875,0.33308330178260803,-0.20073644816875458,0.1111898347735405
1772458711878866000,1.215865966796875,0.31018757820129395,-0.21184156835079193,0.023975571617484093
1772458711888934000,1.225933837890625,0.28878486156463623,-0.22307027876377106,-0.06185619533061981
1772458711899003000,1.2360029296875,0.26465821266174316,-0.21185250580310822,-0.11213774234056473
1772458711909070800,1.24607080078125,0.2374844253063202,-0.1500951647758484,-0.1298164576292038
1772458711919139800,1.256139892578125,0.20235680043697357,-0.04877146705985069,-0.11034796386957169
1772458711929207800,1.266207763671875,0.1621457040309906,0.05905481427907944,-0.06773462146520615
1772458711939277000,1.276277099609375,0.12477010488510132,0.1411305069923401,-0.009621253237128258
1772458711949345800,1.286345703125,0.09042281657457352,0.16099444031715393,0.04291648790240288
1772458711959414000,1.2964140625,0.06017782911658287,0.0938449576497078,0.09475278109312057
1772458711969483000,1.30648291015625,0.03691496700048447,-0.009671414270997047,0.17356012761592865
1772458711979550700,1.31655078125,0.018478436395525932,-0.11882346868515015,0.28417134284973145
1772458711989620000,1.326619873046875,0.00535250548273325,-0.24606135487556458,0.40769124031066895
1772458711999688000,1.33668798828125,0.006366104353219271,-0.41646984219551086,0.5220761299133301
1772458712009757000,1.3467568359375,0.029528049752116203,-0.6127411723136902,0.6191269755363464
1772458712019826000,1.356825927734375,0.06512945145368576,-0.7710047960281372,0.6952603459358215
1772458712029894000,1.366893798828125,0.11038493365049362,-0.8793148994445801,0.7365195155143738
1772458712039963000,1.376962890625,0.16645166277885437,-0.9446792006492615,0.7430272102355957
1772458712050030800,1.38703076171875,0.2175692468881607,-0.9526936411857605,0.7290457487106323
1772458712060099800,1.397099853515625,0.2510984539985657,-0.9128815531730652,0.7016037702560425
1772458712070167800,1.407167724609375,0.26359155774116516,-0.8361181616783142,0.6512364149093628
1772458712080236800,1.41723681640625,0.2663854956626892,-0.7285174131393433,0.584261417388916
1772458712090305800,1.427305908203125,0.26449212431907654,-0.6114752292633057,0.5042464137077332
1772458712100374000,1.4373740234375,0.2603634297847748,-0.5014289021492004,0.4052487313747406
1772458712110442800,1.44744287109375,0.2504011392593384,-0.4199007451534271,0.2941443622112274
1772458712120510700,1.4575107421875,0.23422935605049133,-0.3378482162952423,0.18468815088272095
1772458712130580000,1.467580078125,0.2175726443529129,-0.24758726358413696,0.08479022234678268
1772458712140649000,1.47764892578125,0.20475591719150543,-0.1425338089466095,-0.006361790932714939
1772458712150716700,1.487716552734375,0.19546648859977722,-0.03190682455897331,-0.07462382316589355
1772458712160786000,1.497785888671875,0.18323272466659546,0.07085790485143661,-0.11403008550405502
1772458712170854000,1.50785400390625,0.16698557138442993,0.13998430967330933,-0.1291900873184204
1772458712180923000,1.5179228515625,0.15085187554359436,0.1471215784549713,-0.1343936324119568
1772458712190990800,1.527990966796875,0.13526791334152222,0.11174561083316803,-0.14338275790214539
1772458712201059800,1.538059814453125,0.1234072595834732,0.07610692083835602,-0.14788669347763062
1772458712211128800,1.54812890625,0.11248227208852768,0.05042053386569023,-0.15391016006469727
1772458712221196800,1.55819677734375,0.09812011569738388,0.0195947103202343,-0.17152030766010284
1772458712231265800,1.568265869140625,0.09537757933139801,-0.02661943808197975,-0.21011660993099213
1772458712241334000,1.578333984375,0.09501884877681732,-0.06746620684862137,-0.2648014426231384
1772458712251402800,1.58840283203125,0.0900844857096672,-0.09042033553123474,-0.3289955258369446
1772458712261470700,1.598470703125,0.07960627973079681,-0.0602821446955204,-0.3821090757846832
1772458712271540000,1.6085400390625,0.07501361519098282,0.027161167934536934,-0.4180927872657776
1772458712281608700,1.618608642578125,0.07964485138654709,0.11864128708839417,-0.43814584612846375
1772458712291677000,1.628677001953125,0.09572253376245499,0.1879417598247528,-0.41305264830589294
1772458712301746000,1.638745849609375,0.12832576036453247,0.20938527584075928,-0.3534708023071289
1772458712311814000,1.64881396484375,0.1548750251531601,0.16054339706897736,-0.245967835187912
1772458712321883000,1.6588828125,0.17616939544677734,0.06033344566822052,-0.14735044538974762
1772458712331951900,1.668951904296875,0.16922928392887115,-0.06637014448642731,-0.06387829035520554
1772458712342019800,1.679019775390625,0.12531855702400208,-0.22956226766109467,-0.019816288724541664
1772458712352088800,1.6890888671875,0.05787448212504387,-0.38705259561538696,-0.004504749551415443
1772458712362156800,1.69915673828125,-0.016164593398571014,-0.5212056040763855,-0.011471845209598541
1772458712372226000,1.70922607421875,-0.08239323645830154,-0.6194626688957214,-0.03404151275753975
1772458712382294000,1.7192939453125,-0.11323238164186478,-0.670139729976654,-0.0725574791431427
1772458712392362800,1.72936279296875,-0.1252763271331787,-0.6243457794189453,-0.12786921858787537
1772458712402432000,1.739431884765625,-0.11805251240730286,-0.4834429621696472,-0.17853718996047974
1772458712412500000,1.7495,-0.09735046327114105,-0.25799599289894104,-0.2251671403646469
1772458712422568700,1.759568603515625,-0.08019758015871048,-0.009364072233438492,-0.26192381978034973
1772458712432637000,1.769636962890625,-0.05942945182323456,0.16398906707763672,-0.31192681193351746
1772458712442706000,1.779705810546875,-0.02790667861700058,0.26147061586380005,-0.35825568437576294
1772458712452775000,1.78977490234375,0.021755674853920937,0.3261086642742157,-0.38059473037719727
1772458712462843000,1.7998427734375,0.06439155340194702,0.3815884292125702,-0.3460063934326172
1772458712472912000,1.809911865234375,0.09910310059785843,0.41971027851104736,-0.253246545791626
1772458712482979800,1.819979736328125,0.12181880325078964,0.4242831766605377,-0.10991786420345306
1772458712493048800,1.830048828125,0.14446350932121277,0.3671470284461975,0.05099404230713844
1772458712503116800,1.84011669921875,0.16008320450782776,0.2568223774433136,0.21816597878932953
1772458712513186000,1.85018603515625,0.16520196199417114,0.13740506768226624,0.3807879388332367
1772458712523254800,1.8602548828125,0.15579994022846222,0.04494676738977432,0.527174711227417
1772458712533322800,1.87032275390625,0.1477249562740326,-0.02070131152868271,0.6448972821235657
1772458712543392000,1.88039208984375,0.15467926859855652,-0.07065023481845856,0.7128222584724426
1772458712553460000,1.8904599609375,0.17554624378681183,-0.09953004866838455,0.7365087270736694
1772458712563528700,1.90052880859375,0.2055499404668808,-0.12120392173528671,0.7205646634101868
1772458712573597000,1.910596923828125,0.23696663975715637,-0.14584185183048248,0.6794023513793945
1772458712583666000,1.920666015625,0.2620965242385864,-0.1421395242214203,0.6154603362083435
1772458712593735000,1.93073486328125,0.26741111278533936,-0.13192710280418396,0.5321950316429138
1772458712603803000,1.940802978515625,0.2466733306646347,-0.14207588136196136,0.4333765506744385
1772458712613871900,1.950871826171875,0.20538298785686493,-0.16880379617214203,0.30415061116218567
1772458712623940000,1.960940185546875,0.14694151282310486,-0.17615970969200134,0.1654244363307953
1772458712634008800,1.9710087890625,0.0736822634935379,-0.1795557737350464,0.02727069891989231
1772458712644078000,1.981078125,0.002413677517324686,-0.17984525859355927,-0.11615543812513351
1772458712654146000,1.99114599609375,-0.05712991952896118,-0.17430733144283295,-0.25174546241760254
1772458712664214800,2.00121484375,-0.10264015197753906,-0.14400961995124817,-0.35844793915748596
1772458712674283000,2.011282958984375,-0.13188619911670685,-0.07681608945131302,-0.43396222591400146
1772458712684352000,2.02135205078125,-0.15026254951953888,0.007387734949588776,-0.4861367642879486
1772458712694420000,2.031419921875,-0.15741215646266937,0.09376053512096405,-0.5075549483299255
1772458712704489000,2.041489013671875,-0.15487761795520782,0.1923494189977646,-0.5019159913063049
1772458712714558000,2.051557861328125,-0.14010360836982727,0.282743901014328,-0.46137362718582153
1772458712724626000,2.0616259765625,-0.11741215735673904,0.3280802071094513,-0.39271068572998047
1772458712734695000,2.07169482421875,-0.09674794971942902,0.3200003504753113,-0.30716004967689514
1772458712744763000,2.081762939453125,-0.08052583783864975,0.2682657837867737,-0.20307064056396484
1772458712754832100,2.09183203125,-0.06842382997274399,0.16311021149158478,-0.10811207443475723
1772458712764900900,2.10190087890625,-0.06636734306812286,0.03131302818655968,-0.03661924600601196
1772458712774968800,2.11196875,-0.06586610525846481,-0.07786305248737335,0.012920845299959183
1772458712785038000,2.1220380859375,-0.07066752016544342,-0.15003977715969086,0.05613702908158302
1772458712795106000,2.13210595703125,-0.07867243885993958,-0.19399520754814148,0.07981296628713608
1772458712805174800,2.1421748046875,-0.09100820124149323,-0.21305358409881592,0.08587298542261124
1772458712815243000,2.152242919921875,-0.10164721310138702,-0.22270192205905914,0.07973284274339676
1772458712825312000,2.16231201171875,-0.11873351782560349,-0.2253885120153427,0.06203453987836838
1772458712835381000,2.172381103515625,-0.14082741737365723,-0.2263786643743515,0.04411665350198746
1772458712845449000,2.182448974609375,-0.15216422080993652,-0.2284407615661621,0.025921937078237534
1772458712855518000,2.19251806640625,-0.15158872306346893,-0.2498965561389923,0.016538653522729874
1772458712865586000,2.2025859375,-0.13913977146148682,-0.2766152322292328,-0.003871547058224678
1772458712875655000,2.212655029296875,-0.11885286867618561,-0.2779952585697174,-0.022445330396294594
1772458712885724000,2.222723876953125,-0.10896322131156921,-0.2507082521915436,-0.051275648176670074
1772458712895792000,2.232792236328125,-0.10869978368282318,-0.20514604449272156,-0.07976903021335602
1772458712905860900,2.24286083984375,-0.11272621899843216,-0.14764200150966644,-0.12349148094654083
1772458712915928800,2.2529287109375,-0.11841712146997452,-0.09092333167791367,-0.17962586879730225
1772458712925998000,2.262998046875,-0.11829940974712372,-0.0018089031800627708,-0.22498348355293274
1772458712936065800,2.273065673828125,-0.10768316686153412,0.11569005250930786,-0.2575383186340332
1772458712946135000,2.283135009765625,-0.0952501967549324,0.25133681297302246,-0.26635977625846863
1772458712956204000,2.2932041015625,-0.0709107518196106,0.3737914562225342,-0.2643090784549713
1772458712966272000,2.30327197265625,-0.047670409083366394,0.4742187261581421,-0.2540639042854309
1772458712976341000,2.313341064453125,-0.013039532117545605,0.5708039999008179,-0.22720840573310852
1772458712986409000,2.323408935546875,0.02817901037633419,0.6826935410499573,-0.17073234915733337
1772458712996478000,2.33347802734375,0.08506657928228378,0.8260549902915955,-0.08441714197397232
1772458713006546000,2.3435458984375,0.14984983205795288,0.969768762588501,0.01123987790197134
1772458713016615000,2.353614990234375,0.23299241065979004,1.0532863140106201,0.08111286908388138
1772458713026684200,2.36368408203125,0.30762535333633423,1.026698112487793,0.11763599514961243
1772458713036752000,2.373751953125,0.3664360046386719,0.8994928002357483,0.11419433355331421
1772458713046820900,2.38382080078125,0.38652902841567993,0.6689765453338623,0.0318286195397377
1772458713056888800,2.393888916015625,0.35721704363822937,0.3560040593147278,-0.12064526230096817
1772458713066957800,2.403957763671875,0.28404057025909424,0.03300096094608307,-0.29287269711494446
1772458713077026800,2.41402685546875,0.1987072080373764,-0.2161841094493866,-0.42175841331481934
1772458713087095000,2.424094970703125,0.12337169796228409,-0.3327259123325348,-0.477144718170166
1772458713097164000,2.4341640625,0.09016494452953339,-0.30515992641448975,-0.4520096480846405
1772458713107231700,2.444231689453125,0.08630549162626266,-0.17298829555511475,-0.3581063151359558
1772458713117301000,2.454301025390625,0.11289925128221512,0.02538635954260826,-0.20741583406925201
1772458713127369000,2.464368896484375,0.1478431224822998,0.1709108054637909,-0.06630851328372955
1772458713137437700,2.474437744140625,0.1777430921792984,0.15214724838733673,0.007125807460397482
1772458713147507000,2.4845068359375,0.19615380465984344,0.0662485808134079,0.03765415772795677
1772458713157575000,2.494574951171875,0.19582420587539673,0.045926161110401154,0.07225009799003601
1772458713167644000,2.504643798828125,0.16859231889247894,0.14253446459770203,0.13790500164031982
1772458713177711900,2.5147119140625,0.12427157163619995,0.32413288950920105,0.24246655404567719
1772458713187780900,2.52478076171875,0.07395966351032257,0.5356011390686035,0.39651548862457275
1772458713197850000,2.53485009765625,0.03445103019475937,0.7196416854858398,0.5427204370498657
1772458713207917800,2.544917724609375,0.009525708854198456,0.820263147354126,0.6587809920310974
1772458713217986800,2.55498681640625,0.006827176548540592,0.8094078302383423,0.7089546918869019
1772458713228055000,2.565054931640625,0.012064283713698387,0.6964368224143982,0.6898166537284851
1772458713238123800,2.575123779296875,0.028245165944099426,0.5238374471664429,0.6020916700363159
1772458713248193000,2.585193115234375,0.04084032028913498,0.35566970705986023,0.49351567029953003
1772458713258261000,2.595260986328125,0.04293123632669449,0.19383326172828674,0.3637321889400482
1772458713268330000,2.605330078125,0.04326333478093147,0.031131701543927193,0.2226661592721939
1772458713278398000,2.61539794921875,0.029286561533808708,-0.10825714468955994,0.09120184183120728
1772458713288467000,2.625467041015625,0.013009320013225079,-0.19184577465057373,-0.033840227872133255
1772458713298535000,2.635534912109375,-0.019496235996484756,-0.21752049028873444,-0.1310964822769165
1772458713308604000,2.64560400390625,-0.06888455897569656,-0.20947641134262085,-0.2070663422346115
1772458713318673000,2.6556728515625,-0.12340106070041656,-0.16674119234085083,-0.2608829736709595
1772458713328740900,2.665740966796875,-0.17797349393367767,-0.09307310730218887,-0.279671311378479
1772458713338809900,2.675809814453125,-0.23017753660678864,0.014928183518350124,-0.2780764698982239
1772458713348877800,2.6858779296875,-0.2711654603481293,0.1544296145439148,-0.25441640615463257
1772458713358947000,2.695947021484375,-0.2942086458206177,0.2936200499534607,-0.2296675741672516
1772458713369015800,2.706015869140625,-0.3028990626335144,0.3918185234069824,-0.20013391971588135
1772458713379083800,2.716083740234375,-0.2902095317840576,0.41961565613746643,-0.19139252603054047
1772458713389153000,2.726153076171875,-0.267536461353302,0.389458566904068,-0.19886694848537445
1772458713399221000,2.736220947265625,-0.2380436509847641,0.3444436192512512,-0.218547523021698
1772458713409289700,2.746289794921875,-0.20060759782791138,0.29176709055900574,-0.23600587248802185
1772458713419358000,2.75635791015625,-0.1620323210954666,0.22135843336582184,-0.2712170481681824
1772458713429427000,2.766427001953125,-0.12786902487277985,0.1400236338376999,-0.29818448424339294
1772458713439496000,2.776495849609375,-0.10152867436408997,0.0762510597705841,-0.3225969672203064
1772458713449564000,2.78656396484375,-0.07991313189268112,0.02729922905564308,-0.3410241901874542
1772458713459633000,2.7966328125,-0.0633564293384552,-0.013145331293344498,-0.363188773393631
1772458713469700900,2.806700927734375,-0.037693675607442856,-0.037491150200366974,-0.38542377948760986
1772458713479769900,2.816769775390625,-0.007026763167232275,-0.04454275965690613,-0.40091004967689514
1772458713489838800,2.8268388671875,0.029248686507344246,-0.04462238773703575,-0.41628050804138184
1772458713499907000,2.836906982421875,0.06177801638841629,-0.02131722867488861,-0.41182518005371094
1772458713509975800,2.846975830078125,0.09389413893222809,0.017271975055336952,-0.3972126841545105
1772458713520043800,2.857043701171875,0.1178167387843132,0.05873735994100571,-0.3701153099536896
1772458713530113000,2.867113037109375,0.1450941562652588,0.09400719404220581,-0.3487918972969055
1772458713540181000,2.877180908203125,0.18402372300624847,0.10898242145776749,-0.32092565298080444
1772458713550249700,2.887249755859375,0.23688240349292755,0.09577154368162155,-0.29968589544296265
1772458713560319000,2.897319091796875,0.2806873619556427,0.05072467401623726,-0.2758338451385498
1772458713570387000,2.907386962890625,0.32004567980766296,0.005029621534049511,-0.24857348203659058
1772458713580456000,2.9174560546875,0.34774500131607056,-0.047598183155059814,-0.2147357314825058
1772458713590524000,2.92752392578125,0.3715728223323822,-0.11247332394123077,-0.18506892025470734
1772458713600593000,2.937593017578125,0.38916948437690735,-0.19484512507915497,-0.16729480028152466
1772458713610662000,2.947661865234375,0.40211430191993713,-0.27223312854766846,-0.15965153276920319
1772458713620729900,2.957729736328125,0.41209307312965393,-0.3159641921520233,-0.14667004346847534
1772458713630799000,2.967799072265625,0.42129644751548767,-0.309560626745224,-0.12502625584602356
1772458713640867000,2.9778671875,0.4254418611526489,-0.29593220353126526,-0.08604791015386581
1772458713650936000,2.98793603515625,0.42568525671958923,-0.2709277868270874,-0.03289946913719177
1772458713661004000,2.998004150390625,0.42098093032836914,-0.22968646883964539,0.042535919696092606
1772458713671073000,3.008072998046875,0.40733250975608826,-0.1667807400226593,0.11203163862228394
1772458713681142000,3.01814208984375,0.35955318808555603,-0.16200970113277435,0.14616307616233826
1772458713691210000,3.0282099609375,0.29250863194465637,-0.25669386982917786,0.11735618114471436
1772458713701279000,3.038279052734375,0.20188477635383606,-0.37508732080459595,0.05383184552192688
1772458713711347200,3.04834716796875,0.0848148837685585,-0.4323407709598541,-0.011518931947648525
1772458713721416000,3.058416015625,-0.05542260408401489,-0.4020369052886963,-0.07012281566858292
1772458713731485200,3.068485107421875,-0.18681098520755768,-0.32452425360679626,-0.10936369746923447
1772458713741553200,3.07855322265625,-0.2903793752193451,-0.22316394746303558,-0.12903396785259247
1772458713751622000,3.088621826171875,-0.3408718407154083,-0.1274547278881073,-0.1510487198829651
1772458713761689900,3.09868994140625,-0.34436944127082825,-0.05838089436292648,-0.149606391787529
1772458713771759000,3.108759033203125,-0.31050094962120056,-0.021140843629837036,-0.1371726244688034
1772458713781827800,3.118827880859375,-0.26161283254623413,-0.01794327050447464,-0.10602051019668579
1772458713791896000,3.12889599609375,-0.22209285199642181,-0.0019888044334948063,-0.03476869314908981
1772458713801965000,3.138965087890625,-0.19196785986423492,0.06061636656522751,0.08079809695482254
1772458713812033000,3.149032958984375,-0.1592160314321518,0.15392154455184937,0.2192411869764328
1772458713822102000,3.15910205078125,-0.1389242261648178,0.2121562957763672,0.3497704863548279
1772458713832170000,3.169169921875,-0.12270238250494003,0.20833998918533325,0.4522649049758911
1772458713842239000,3.179239013671875,-0.11018965393304825,0.15238513052463531,0.5244776606559753
1772458713852308000,3.189307861328125,-0.10293147712945938,0.08797923475503922,0.581361711025238
1772458713862376000,3.1993759765625,-0.09937489032745361,0.02366829663515091,0.6118443608283997
1772458713872445200,3.209445068359375,-0.0854920968413353,-0.03582752123475075,0.6343326568603516
1772458713882513200,3.21951318359375,-0.05886933580040932,-0.07821127772331238,0.6507670879364014
1772458713892582000,3.229581787109375,-0.02345036156475544,-0.11015456169843674,0.6565051078796387
1772458713902651100,3.239651123046875,0.009781470522284508,-0.14798171818256378,0.6581104397773743
1772458713912719000,3.249718994140625,0.03200501576066017,-0.16506244242191315,0.6586337685585022
1772458713922787800,3.259787841796875,0.02076554112136364,-0.1368630826473236,0.6519780158996582
1772458713932856000,3.26985595703125,-0.006308421026915312,-0.08551441133022308,0.6327593326568604
1772458713942925000,3.279925048828125,-0.05204317346215248,-0.0335458405315876,0.5906501412391663
1772458713952993000,3.289992919921875,-0.09946075826883316,0.00873290654271841,0.5194340348243713
1772458713963062000,3.30006201171875,-0.15663807094097137,0.040110502392053604,0.43219125270843506
1772458713973131000,3.310131103515625,-0.21501323580741882,0.07292490452528,0.33986613154411316
1772458713983199200,3.32019921875,-0.26396921277046204,0.10988624393939972,0.24449004232883453
1772458713993268000,3.33026806640625,-0.28499433398246765,0.13544832170009613,0.15365521609783173
1772458714003336000,3.3403359375,-0.2945418059825897,0.16471780836582184,0.07668518275022507
1772458714013405200,3.3504052734375,-0.28426840901374817,0.20886583626270294,0.024586834013462067
1772458714023474000,3.360473876953125,-0.27253738045692444,0.24681882560253143,-0.007314728107303381
1772458714033542000,3.3705419921875,-0.2581064999103546,0.2640044689178467,-0.019200947135686874
1772458714043611100,3.380611083984375,-0.2395794838666916,0.2643674612045288,-0.0343058779835701
1772458714053679000,3.39067919921875,-0.21788910031318665,0.24119772017002106,-0.03936641663312912
1772458714063748000,3.400748046875,-0.1973821371793747,0.1899302899837494,-0.04348002374172211
1772458714073816000,3.410816162109375,-0.17599056661128998,0.12328361719846725,-0.045215338468551636
1772458714083885000,3.420885009765625,-0.15226863324642181,0.05689001455903053,-0.052423372864723206
1772458714093954000,3.4309541015625,-0.13351544737815857,-0.003873467445373535,-0.066560760140419
1772458714104022000,3.44102197265625,-0.12042269855737686,-0.040753073990345,-0.08252110332250595
1772458714114091000,3.451091064453125,-0.11601436883211136,-0.056121375411748886,-0.09966147691011429
1772458714124159000,3.461158935546875,-0.11567752808332443,-0.07219704985618591,-0.1276574581861496
1772458714134228000,3.47122802734375,-0.10262830555438995,-0.09077499061822891,-0.15413355827331543
1772458714144297200,3.481297119140625,-0.08787018805742264,-0.11596107482910156,-0.17375575006008148
1772458714154365200,3.491365234375,-0.06687115877866745,-0.15662622451782227,-0.1924024075269699
1772458714164434000,3.501433837890625,-0.05973952263593674,-0.17922738194465637,-0.2199588119983673
1772458714174502000,3.511501953125,-0.05427471175789833,-0.17216014862060547,-0.23987659811973572
1772458714184571100,3.521571044921875,-0.05854837968945503,-0.14028392732143402,-0.2627730071544647
1772458714194640000,3.531639892578125,-0.06528883427381516,-0.09897218644618988,-0.28400319814682007
1772458714204708000,3.5417080078125,-0.06695923954248428,-0.08318062871694565,-0.31062987446784973
1772458714214777000,3.551777099609375,-0.06188352033495903,-0.08620598167181015,-0.34677615761756897
1772458714224845000,3.561844970703125,-0.05683610215783119,-0.07962144166231155,-0.37648677825927734
1772458714234914000,3.5719140625,-0.059729091823101044,-0.0503985770046711,-0.3856230080127716
1772458714244982000,3.58198193359375,-0.07271608710289001,0.0064066266641020775,-0.37130311131477356
1772458714255051000,3.592051025390625,-0.08629341423511505,0.08959339559078217,-0.32914474606513977
1772458714265120000,3.6021201171875,-0.09079889953136444,0.19065213203430176,-0.27278658747673035
1772458714275188000,3.61218798828125,-0.08890512585639954,0.28284329175949097,-0.20910190045833588
1772458714285257200,3.62225732421875,-0.07248514145612717,0.3451569974422455,-0.1514817476272583
1772458714295325000,3.632324951171875,-0.054132767021656036,0.38361865282058716,-0.08903727680444717
1772458714305394000,3.642393798828125,-0.02951541170477867,0.4159570634365082,-0.0350366085767746
1772458714315463200,3.652463134765625,0.005816211923956871,0.4328630566596985,0.0021440491545945406
1772458714325531000,3.66253076171875,0.06217671185731888,0.42186346650123596,0.0287000872194767
1772458714335599900,3.672599853515625,0.13334089517593384,0.4081721603870392,0.06047239899635315
1772458714345668000,3.682668212890625,0.2091509848833084,0.39780011773109436,0.10607591271400452
1772458714355737000,3.692737060546875,0.2826864719390869,0.40355387330055237,0.1651589423418045
1772458714365806000,3.70280615234375,0.3289555311203003,0.4232674837112427,0.24409005045890808
1772458714375874000,3.7128740234375,0.3524395525455475,0.4417530298233032,0.3200993537902832
1772458714385943000,3.722943115234375,0.33702969551086426,0.4285605549812317,0.38620102405548096
1772458714396011000,3.733010986328125,0.273421972990036,0.36755338311195374,0.42509275674819946
1772458714406080000,3.743080078125,0.16388952732086182,0.2569812834262848,0.4084242284297943
1772458714416148000,3.75314794921875,0.030319206416606903,0.12573857605457306,0.3413456082344055
1772458714426217000,3.763217041015625,-0.0920516848564148,0.014711853116750717,0.2526950538158417
1772458714436286000,3.773285888671875,-0.1685672402381897,-0.025811070576310158,0.17996864020824432
1772458714446354000,3.78335400390625,-0.21181818842887878,-0.006483977194875479,0.1538257896900177
1772458714456423200,3.793423095703125,-0.22747677564620972,0.055527463555336,0.19121605157852173
1772458714466491000,3.803490966796875,-0.2049212008714676,0.11679371446371078,0.28211769461631775
1772458714476560100,3.81356005859375,-0.15348143875598907,0.1307862401008606,0.42085587978363037
1772458714486629000,3.823629150390625,-0.09703894704580307,0.0435924269258976,0.5493050217628479
1772458714496696800,3.83369677734375,-0.05537059158086777,-0.15875402092933655,0.5924663543701172
1772458714506766000,3.84376611328125,-0.020384183153510094,-0.40086397528648376,0.5599471926689148
1772458714516834000,3.853833984375,0.0182188693434,-0.5644901990890503,0.48569798469543457
1772458714526903000,3.863903076171875,0.03170647472143173,-0.6236273050308228,0.41117045283317566
1772458714536971000,3.873970947265625,0.023485831916332245,-0.5766978859901428,0.37756988406181335
1772458714547040000,3.8840400390625,-0.010069416835904121,-0.4464339017868042,0.39886295795440674
1772458714557109000,3.89410888671875,-0.06542881578207016,-0.2607945203781128,0.4607420265674591
1772458714567177000,3.904177001953125,-0.1399572342634201,-0.04275327920913696,0.5502769351005554
1772458714577246000,3.914245849609375,-0.21459871530532837,0.15047982335090637,0.6252560615539551
1772458714587314200,3.924314208984375,-0.2683109641075134,0.2501206696033478,0.6635730862617493
1772458714597383000,3.9343828125,-0.2980310320854187,0.26485514640808105,0.6640274524688721
1772458714607452000,3.944451904296875,-0.30885931849479675,0.22848016023635864,0.6345756649971008
1772458714617520000,3.95452001953125,-0.3103855848312378,0.15505734086036682,0.5820770263671875
1772458714627588900,3.9645888671875,-0.3018365502357483,0.05411345139145851,0.5266068577766418
1772458714637656000,3.974656005859375,-0.2891835868358612,-0.036071036010980606,0.46731024980545044
1772458714647725000,3.98472509765625,-0.2821139097213745,-0.08956614136695862,0.41718044877052307
1772458714657793000,3.99479296875,-0.2880133390426636,-0.10794621706008911,0.36481738090515137
1772458714667862000,4.004862060546875,-0.3140414357185364,-0.10155676305294037,0.29909947514533997
1772458714677931000,4.014930908203125,-0.350911021232605,-0.06043516471982002,0.24132061004638672
1772458714687999000,4.0249990234375,-0.3848535418510437,0.00667862594127655,0.1969478279352188
1772458714698068000,4.03506787109375,-0.42497727274894714,0.09242868423461914,0.15701346099376678
1772458714708136200,4.04513623046875,-0.46397665143013,0.16834355890750885,0.11496362835168839
1772458714718205000,4.055204833984375,-0.49101492762565613,0.2203867882490158,0.08311115950345993
1772458714728273000,4.06527294921875,-0.4959462285041809,0.2534324526786804,0.05236654356122017
1772458714738342100,4.075342041015625,-0.47311681509017944,0.27191826701164246,0.027780238538980484
1772458714748411000,4.085410888671875,-0.4381380081176758,0.2714174687862396,0.007099699694663286
1772458714758479000,4.09547900390625,-0.39237478375434875,0.26898202300071716,-0.005675750784575939
1772458714768548000,4.105548095703125,-0.3390040397644043,0.25293904542922974,-0.012445978820323944
1772458714778616000,4.115615966796875,-0.2870505452156067,0.23368039727210999,-0.01628252863883972
1772458714788685000,4.12568505859375,-0.2480505406856537,0.2078116536140442,-0.009430727921426296
1772458714798754000,4.135754150390625,-0.217504620552063,0.15347358584403992,-0.008537503890693188
1772458714808822000,4.145822021484375,-0.1955510675907135,0.06576769798994064,-0.020436635240912437
1772458714818891000,4.15589111328125,-0.17772865295410156,-0.030220352113246918,-0.03236120566725731
1772458714828959000,4.165958984375,-0.1673177182674408,-0.10603217780590057,-0.04848799481987953
1772458714839028200,4.1760283203125,-0.15590821206569672,-0.1442088484764099,-0.05666682869195938
1772458714849096000,4.186095947265625,-0.14557816088199615,-0.15929915010929108,-0.06621763855218887
1772458714859165000,4.1961650390625,-0.1304175853729248,-0.1610831916332245,-0.08395642787218094
1772458714869234200,4.206234130859375,-0.1203976646065712,-0.16031169891357422,-0.1031840369105339
1772458714879302100,4.21630224609375,-0.12304218858480453,-0.1676092892885208,-0.1339121311903
1772458714889371000,4.226370849609375,-0.12581241130828857,-0.17117291688919067,-0.16552427411079407
1772458714899439000,4.236439208984375,-0.13342639803886414,-0.1445237249135971,-0.1929851919412613
1772458714909508000,4.246508056640625,-0.1392827183008194,-0.11800208687782288,-0.22325269877910614
1772458714919577000,4.2565771484375,-0.14629057049751282,-0.10837475955486298,-0.26062801480293274
1772458714929645000,4.26664501953125,-0.15628407895565033,-0.1174774020910263,-0.2972452640533447
1772458714939714000,4.276714111328125,-0.16201838850975037,-0.1295364499092102,-0.3394007086753845
1772458714949782000,4.286781982421875,-0.17187975347042084,-0.13838450610637665,-0.3697793483734131
1772458714959851000,4.29685107421875,-0.17676639556884766,-0.1468839943408966,-0.3909972608089447
1772458714969920000,4.306919921875,-0.18104010820388794,-0.1532788723707199,-0.41130852699279785
1772458714979988200,4.31698828125,-0.1885741949081421,-0.13854892551898956,-0.42034730315208435
1772458714990057000,4.327056884765625,-0.1952364295721054,-0.13219954073429108,-0.42542871832847595
1772458715000125000,4.337125,-0.19262734055519104,-0.1315036565065384,-0.43581876158714294
1772458715010194200,4.347194091796875,-0.17815691232681274,-0.1446249634027481,-0.4577942490577698
1772458715020262000,4.357261962890625,-0.16067776083946228,-0.17740261554718018,-0.494608998298645
1772458715030332200,4.367332275390625,-0.1467251479625702,-0.19496554136276245,-0.5398172736167908
1772458715040400100,4.377400146484375,-0.1279381513595581,-0.1971733123064041,-0.5736194252967834
1772458715050468900,4.38746875,-0.11557939648628235,-0.2006901055574417,-0.6160625219345093
1772458715060537000,4.397537109375,-0.10477469116449356,-0.21107244491577148,-0.6456052660942078
1772458715070606000,4.407606201171875,-0.09259060025215149,-0.22916726768016815,-0.661602258682251
1772458715080675000,4.417675048828125,-0.06857767701148987,-0.25998085737228394,-0.6552868485450745
1772458715090743000,4.427742919921875,-0.02138398215174675,-0.25857797265052795,-0.622828483581543
1772458715100812000,4.43781201171875,0.03601139783859253,-0.22009530663490295,-0.5639979243278503
1772458715110880000,4.4478798828125,0.07693113386631012,-0.19444799423217773,-0.5234856605529785
1772458715120949000,4.457948974609375,0.10000529140233994,-0.21220196783542633,-0.5181580185890198
1772458715131017000,4.468016845703125,0.10069780051708221,-0.25124359130859375,-0.5558775067329407
1772458715141086200,4.478086181640625,0.08470764756202698,-0.29122909903526306,-0.6201462149620056
1772458715151155000,4.488155029296875,0.04871269315481186,-0.3497770428657532,-0.6992355585098267
1772458715161223000,4.498222900390625,0.008873134851455688,-0.3986436426639557,-0.771694004535675
1772458715171292200,4.508292236328125,-0.023181676864624023,-0.39571645855903625,-0.8183790445327759
1772458715181360000,4.518360107421875,-0.027570566162467003,-0.32833078503608704,-0.8333579897880554
1772458715191428900,4.528428955078125,-0.01727309077978134,-0.23457545042037964,-0.8155974745750427
1772458715201498000,4.538498046875,-0.012735861353576183,-0.16373589634895325,-0.7697503566741943
1772458715211566000,4.548566162109375,-0.013559142127633095,-0.1447439044713974,-0.7028977274894714
1772458715221635000,4.558635009765625,-0.006455161143094301,-0.1779431402683258,-0.6270354390144348
1772458715231703000,4.568703125,0.013462679460644722,-0.20697684586048126,-0.5245147347450256
1772458715241772000,4.57877197265625,0.03505266085267067,-0.19715642929077148,-0.38431045413017273
1772458715251841000,4.588841064453125,0.05003843829035759,-0.15880033373832703,-0.22391127049922943
1772458715261909000,4.598908935546875,0.06550447642803192,-0.1299295276403427,-0.06252823024988174
1772458715271978000,4.60897802734375,0.08019445091485977,-0.14020170271396637,0.08576369285583496
1772458715282046000,4.6190458984375,0.09191582351922989,-0.1648133099079132,0.22734427452087402
1772458715292115000,4.629114990234375,0.09335997700691223,-0.21265803277492523,0.3637353777885437
1772458715302184200,4.63918408203125,0.0909695252776146,-0.2730925977230072,0.4883156716823578
1772458715312252200,4.649252197265625,0.08721616864204407,-0.3255315124988556,0.5898500680923462
1772458715322321000,4.65932080078125,0.09783818572759628,-0.3799721300601959,0.660165548324585
1772458715332389000,4.66938916015625,0.12062195688486099,-0.41513124108314514,0.7025608420372009
1772458715342458000,4.6794580078125,0.1347513645887375,-0.41933611035346985,0.7135702967643738
1772458715352525800,4.68952587890625,0.1314494013786316,-0.41576239466667175,0.705863356590271
1772458715362595000,4.699594970703125,0.10732275247573853,-0.42862996459007263,0.6733176708221436
1772458715372664000,4.7096640625,0.07362938672304153,-0.44556787610054016,0.6232706308364868
1772458715382732000,4.71973193359375,0.02059999108314514,-0.46021124720573425,0.5637779831886292
1772458715392801000,4.729801025390625,-0.04231914132833481,-0.43893343210220337,0.4880766272544861
1772458715402869000,4.739868896484375,-0.11442502588033676,-0.385320246219635,0.40980100631713867
1772458715412938200,4.749938232421875,-0.18402351438999176,-0.3142800033092499,0.33646389842033386
1772458715423007000,4.760007080078125,-0.258215993642807,-0.24533583223819733,0.247484490275383
1772458715433075000,4.770074951171875,-0.32501140236854553,-0.17494134604930878,0.1576695442199707
1772458715443144200,4.780144287109375,-0.3841109275817871,-0.0992036983370781,0.06964274495840073
1772458715453212000,4.7902119140625,-0.4328596889972687,-0.018705151975154877,-0.008732136338949203
1772458715463281000,4.800281005859375,-0.46224045753479004,0.06242964789271355,-0.06906471401453018
1772458715473349000,4.81034912109375,-0.4714643359184265,0.12365753948688507,-0.12456649541854858
1772458715483418000,4.820418212890625,-0.46915483474731445,0.15814733505249023,-0.16666360199451447
1772458715493487000,4.830487060546875,-0.454297810792923,0.1692335307598114,-0.19635479152202606
1772458715503555000,4.84055517578125,-0.4374226927757263,0.1711779087781906,-0.21277983486652374
1772458715513624000,4.8506240234375,-0.42137065529823303,0.1858464926481247,-0.20825764536857605
1772458715523692000,4.860692138671875,-0.4036087095737457,0.2133428305387497,-0.21171708405017853
1772458715533761000,4.870760986328125,-0.3779270648956299,0.2345869392156601,-0.2077942192554474
1772458715543830000,4.880830078125,-0.3497247099876404,0.23922722041606903,-0.20538991689682007
1772458715553898000,4.89089794921875,-0.32763758301734924,0.2278876155614853,-0.20755304396152496
1772458715563967000,4.900967041015625,-0.30828866362571716,0.2312740832567215,-0.19693449139595032
1772458715574035000,4.911034912109375,-0.29766416549682617,0.25368329882621765,-0.18856053054332733
1772458715584104000,4.92110400390625,-0.29311123490333557,0.26593223214149475,-0.19694149494171143
1772458715594173000,4.9311728515625,-0.29788604378700256,0.26934343576431274,-0.21905429661273956
1772458715604241200,4.9412412109375,-0.29440048336982727,0.2582532465457916,-0.2598917484283447
1772458715614309600,4.9513095703125,-0.28333958983421326,0.23974986374378204,-0.29928654432296753
1772458715624377600,4.961377685546875,-0.2677534222602844,0.24332888424396515,-0.3165188133716583
1772458715634446600,4.971446533203125,-0.24768701195716858,0.2745371460914612,-0.32571759819984436
1772458715644514600,4.9815146484375,-0.22008016705513,0.29877591133117676,-0.3223532438278198
1772458715654583800,4.991583740234375,-0.1847783625125885,0.29518142342567444,-0.3313623070716858
1772458715664652500,5.001652587890625,-0.1394745409488678,0.2731568217277527,-0.3420506417751312
1772458715674720500,5.011720458984375,-0.08452378213405609,0.27268490195274353,-0.33929842710494995
1772458715684789800,5.021789794921875,-0.017889361828565598,0.30672651529312134,-0.3123253881931305
1772458715694857500,5.031857421875,0.057482507079839706,0.343852162361145,-0.27165135741233826
1772458715704926700,5.0419267578125,0.13153275847434998,0.35117849707603455,-0.2363692671060562
1772458715714995700,5.05199560546875,0.19633039832115173,0.31791451573371887,-0.21263587474822998
1772458715725063700,5.062063720703125,0.24791502952575684,0.27033501863479614,-0.19075188040733337
1772458715735132700,5.072132568359375,0.2847139537334442,0.2304454892873764,-0.16765549778938293
1772458715745200600,5.08220068359375,0.31238552927970886,0.1916152685880661,-0.1316157430410385
1772458715755269600,5.09226953125,0.33927303552627563,0.16363780200481415,-0.08400142937898636
1772458715765338600,5.102338623046875,0.3624723553657532,0.14183370769023895,-0.022395053878426552
1772458715775406600,5.112406494140625,0.390626460313797,0.14062821865081787,0.05784948915243149
1772458715785475800,5.122475830078125,0.4199622571468353,0.17962807416915894,0.16237589716911316
1772458715795543600,5.13254345703125,0.4374305307865143,0.26903900504112244,0.2890017032623291
1772458715805612500,5.142612548828125,0.4438631236553192,0.3529647886753082,0.40496185421943665
1772458715815680800,5.1526806640625,0.44486579298973083,0.40318354964256287,0.48048514127731323
1772458715825749800,5.162749755859375,0.4327007234096527,0.3965091109275818,0.5128909945487976
1772458715835818500,5.172818603515625,0.40049198269844055,0.34001344442367554,0.499765545129776
1772458715845886700,5.18288671875,0.3475278317928314,0.21606753766536713,0.4220012426376343
1772458715855955700,5.192955810546875,0.2793510854244232,0.006426831241697073,0.2870446741580963
1772458715866023400,5.2030234375,0.2023218274116516,-0.2225954383611679,0.13698352873325348
1772458715876092700,5.2130927734375,0.1357010304927826,-0.37286829948425293,0.022899167612195015
1772458715886161700,5.22316162109375,0.10528106242418289,-0.41002604365348816,-0.006322366185486317
1772458715896229600,5.233229736328125,0.09787246584892273,-0.3895769417285919,0.050130296498537064
1772458715906298600,5.243298583984375,0.10813789069652557,-0.3576168715953827,0.167641744017601
1772458715916366600,5.25336669921875,0.11305069178342819,-0.35898375511169434,0.28727105259895325
1772458715926435600,5.263435546875,0.10868576914072037,-0.45844191312789917,0.3439987897872925
1772458715936504600,5.273504638671875,0.09815788269042969,-0.6094541549682617,0.33906251192092896
1772458715946572500,5.283572509765625,0.09179665148258209,-0.7456817626953125,0.2982996106147766
1772458715956641800,5.293641845703125,0.07349471002817154,-0.7978211045265198,0.25386351346969604
1772458715966709500,5.30370947265625,0.050305236130952835,-0.7023376822471619,0.24403299391269684
1772458715976778800,5.31377880859375,0.026340356096625328,-0.44779929518699646,0.29573264718055725
1772458715986846700,5.3238466796875,0.000732998363673687,-0.07138916850090027,0.40019914507865906
1772458715996915500,5.33391552734375,-0.03375670686364174,0.3193269670009613,0.5164238214492798
1772458716006984700,5.343984619140625,-0.06607576459646225,0.612338662147522,0.5939433574676514
1772458716017052700,5.354052734375,-0.08774599432945251,0.7899162173271179,0.6112112402915955
1772458716027121700,5.36412158203125,-0.0959530621767044,0.881137490272522,0.5899501442909241
1772458716037189600,5.374189697265625,-0.08881422877311707,0.8976843953132629,0.5455420017242432
1772458716047258600,5.384258544921875,-0.08205591887235641,0.8440960049629211,0.45218196511268616
1772458716057327900,5.394327880859375,-0.0787539929151535,0.7411687970161438,0.32335519790649414
1772458716067395600,5.4043955078125,-0.07534568011760712,0.6087297797203064,0.1767633706331253
1772458716077464600,5.414464599609375,-0.05785633623600006,0.48366251587867737,0.034454770386219025
1772458716087532500,5.424532470703125,-0.033509451895952225,0.3693622946739197,-0.0847531110048294
1772458716097601500,5.4346015625,-0.005921697244048119,0.2780463695526123,-0.18360182642936707
1772458716107670500,5.44467041015625,0.0073525626212358475,0.2081245332956314,-0.25281471014022827
1772458716117738800,5.45473876953125,0.01065486017614603,0.16703161597251892,-0.29092276096343994
1772458716127807700,5.464807861328125,-0.004712644033133984,0.1394505798816681,-0.30185502767562866
1772458716137875500,5.47487548828125,-0.032615676522254944,0.11220703274011612,-0.2962239980697632
1772458716147944700,5.48494482421875,-0.06997476518154144,0.09431325644254684,-0.27973371744155884
1772458716158013700,5.495013671875,-0.10417087376117706,0.10699275135993958,-0.25495800375938416
1772458716168081400,5.505081298828125,-0.12851430475711823,0.15677256882190704,-0.21569235622882843
1772458716178150700,5.515150634765625,-0.13582788407802582,0.21712005138397217,-0.17825497686862946
1772458716188218600,5.525218505859375,-0.14672847092151642,0.2656486928462982,-0.14737215638160706
1772458716198287600,5.53528759765625,-0.14876560866832733,0.3113309144973755,-0.11368752270936966
1772458716208355600,5.54535546875,-0.14529603719711304,0.3293178975582123,-0.09420783072710037
1772458716218424600,5.555424560546875,-0.14207682013511658,0.30074718594551086,-0.07908496260643005
1772458716228493600,5.56549365234375,-0.1306995302438736,0.2441350519657135,-0.08251059055328369
1772458716238561500,5.5755615234375,-0.11556632816791534,0.18112899363040924,-0.10093706101179123
1772458716248630500,5.585630615234375,-0.09385890513658524,0.10433940589427948,-0.12759743630886078
1772458716258698800,5.59569873046875,-0.07403764128684998,0.032780107110738754,-0.16594922542572021
1772458716268767500,5.605767578125,-0.06065020337700844,-0.0012481673620641232,-0.2113553285598755
1772458716278836700,5.615836669921875,-0.045641906559467316,0.020965561270713806,-0.248652845621109
1772458716288904700,5.62590478515625,-0.028980372473597527,0.08462443202733994,-0.2688015401363373
1772458716298973400,5.635973388671875,-0.01229902170598507,0.15090903639793396,-0.27712154388427734
1772458716309041700,5.646041748046875,0.004193933680653572,0.18957732617855072,-0.2654092311859131
1772458716319110700,5.656110595703125,0.016808735206723213,0.1784215271472931,-0.24054640531539917
1772458716329179600,5.6661796875,0.03623862564563751,0.13523410260677338,-0.20463581383228302
1772458716339247600,5.67624755859375,0.05352787673473358,0.08366097509860992,-0.16783662140369415
1772458716349316600,5.686316650390625,0.07151060551404953,0.013264045119285583,-0.12845885753631592
1772458716359384600,5.696384521484375,0.08817930519580841,-0.07205121219158173,-0.09341492503881454
1772458716369453600,5.70645361328125,0.10728615522384644,-0.14803119003772736,-0.05776344984769821
1772458716379522600,5.7165224609375,0.12016395479440689,-0.19687525928020477,-0.017334003001451492
1772458716389590800,5.7265908203125,0.12920378148555756,-0.22851920127868652,0.01035994291305542
1772458716399659500,5.736659423828125,0.12871615588665009,-0.24278393387794495,0.028644245117902756
1772458716409727500,5.7467275390625,0.12581411004066467,-0.21946290135383606,0.037550654262304306
1772458716419796700,5.756796630859375,0.11815457046031952,-0.1723540723323822,0.03457237407565117
1772458716429865500,5.766865478515625,0.1062217429280281,-0.13008837401866913,0.024324798956513405
1772458716439933400,5.776933349609375,0.09514734894037247,-0.1139930784702301,-0.0011705420911312103
1772458716450002700,5.787002685546875,0.08156070113182068,-0.12545186281204224,-0.04797746241092682
1772458716460070700,5.797070556640625,0.05886005982756615,-0.16438744962215424,-0.10414259880781174
1772458716470139600,5.8071396484375,0.03095945157110691,-0.21638725697994232,-0.16455242037773132
1772458716480207600,5.81720751953125,0.006668542977422476,-0.28681397438049316,-0.22059939801692963
1772458716490276600,5.827276611328125,-0.014240466058254242,-0.35266757011413574,-0.272441029548645
1772458716500345600,5.837345703125,-0.02768206037580967,-0.3873467445373535,-0.30645298957824707
1772458716510413600,5.84741357421875,-0.029985161498188972,-0.37635454535484314,-0.32491347193717957
1772458716520482600,5.857482666015625,-0.008352609351277351,-0.3085200786590576,-0.315310001373291
1772458716530550800,5.86755078125,0.03764604032039642,-0.1917511373758316,-0.2740168869495392
1772458716540619500,5.87761962890625,0.10291191190481186,-0.05450429022312164,-0.20899203419685364
1772458716550688800,5.887688720703125,0.16190838813781738,0.06380530446767807,-0.1446428745985031
1772458716560756700,5.8977568359375,0.19852635264396667,0.10888031125068665,-0.12428329139947891
1772458716570825500,5.907825439453125,0.22000926733016968,0.05303515866398811,-0.16819003224372864
1772458716580893700,5.917893798828125,0.22428913414478302,-0.09464890509843826,-0.26873111724853516
1772458716590962700,5.927962646484375,0.20419691503047943,-0.28266116976737976,-0.39517107605934143
1772458716601031400,5.938031494140625,0.15255270898342133,-0.43268394470214844,-0.5239455103874207
1772458716611099600,5.948099609375,0.07171298563480377,-0.48294180631637573,-0.6197530031204224
1772458716621169400,5.95816943359375,-0.0018677855841815472,-0.44372379779815674,-0.6674184799194336
1772458716631237600,5.968237548828125,-0.03600471466779709,-0.36145341396331787,-0.6804384589195251
1772458716641306400,5.978306396484375,-0.03330427408218384,-0.27187666296958923,-0.6687642335891724
1772458716651375400,5.988375244140625,-0.020937083289027214,-0.21474571526050568,-0.6274553537368774
1772458716661443600,5.998443603515625,-0.0010353676043450832,-0.20565903186798096,-0.5567094683647156
1772458716671512300,6.00851220703125,0.028562739491462708,-0.22614885866641998,-0.4606676697731018
1772458716681580300,6.018580322265625,0.06143323332071304,-0.23976348340511322,-0.3453022539615631
1772458716691649500,6.0286494140625,0.10828995704650879,-0.2327314019203186,-0.19899190962314606
1772458716701718300,6.03871826171875,0.160150408744812,-0.20835576951503754,-0.029218502342700958
1772458716711786200,6.0487861328125,0.20227788388729095,-0.1868472844362259,0.14498472213745117
1772458716721855500,6.05885546875,0.2379458099603653,-0.1933385580778122,0.3068128228187561
1772458716731923500,6.06892333984375,0.26861369609832764,-0.23107688128948212,0.4480818212032318
1772458716741992400,6.078992431640625,0.2899262011051178,-0.286124587059021,0.5696679353713989
1772458716752061400,6.0890615234375,0.3116975426673889,-0.34184539318084717,0.6613224744796753
1772458716762129400,6.09912939453125,0.337043434381485,-0.41250482201576233,0.7346190214157104
1772458716772198400,6.109198486328125,0.35972291231155396,-0.4936380088329315,0.7682350277900696
1772458716782266400,6.119266357421875,0.3669123351573944,-0.573459267616272,0.7587650418281555
1772458716792335400,6.12933544921875,0.35426950454711914,-0.6261458992958069,0.7123112678527832
1772458716802403300,6.1394033203125,0.3150458037853241,-0.6453335285186768,0.6478282809257507
1772458716812472300,6.149472412109375,0.2523896098136902,-0.649660587310791,0.560168981552124
1772458716822541600,6.15954150390625,0.16731007397174835,-0.6341592073440552,0.4689841568470001
1772458716832609500,6.169609619140625,0.07182855159044266,-0.5841764211654663,0.38109371066093445
1772458716842678300,6.17967822265625,-0.03622608631849289,-0.49838098883628845,0.28549015522003174
1772458716852746500,6.18974658203125,-0.15273885428905487,-0.4031277000904083,0.17060747742652893
1772458716862815500,6.1998154296875,-0.2627331018447876,-0.2874287962913513,0.03974595665931702
1772458716872884200,6.20988427734375,-0.36438143253326416,-0.15945115685462952,-0.10248629003763199
1772458716882952400,6.219952392578125,-0.4470809996128082,-0.030842013657093048,-0.23954328894615173
1772458716893021400,6.230021484375,-0.5068433880805969,0.06942280381917953,-0.36911699175834656
1772458716903089400,6.24008935546875,-0.5476471185684204,0.13380469381809235,-0.47191134095191956
1772458716913158400,6.250158447265625,-0.5756241083145142,0.18401886522769928,-0.5422443747520447
1772458716923227400,6.260227294921875,-0.5845827460289001,0.22429275512695312,-0.5795108079910278
1772458716933295600,6.270295654296875,-0.580036997795105,0.23832868039608002,-0.5878185629844666
1772458716943364400,6.2803642578125,-0.5570201277732849,0.23079459369182587,-0.5684180855751038
1772458716953432300,6.290432373046875,-0.5318716764450073,0.20692016184329987,-0.5187780857086182
1772458716963501600,6.30050146484375,-0.503079891204834,0.18140433728694916,-0.45770448446273804
1772458716973570300,6.3105703125,-0.4748850166797638,0.1557610183954239,-0.3871975541114807
1772458716983638300,6.32063818359375,-0.4425719976425171,0.11791609227657318,-0.31544533371925354
1772458716993707500,6.33070751953125,-0.40518227219581604,0.05422525480389595,-0.2561759054660797
1772458717003775200,6.340775146484375,-0.38357478380203247,-0.02077609673142433,-0.2136901617050171
1772458717013844500,6.350844482421875,-0.3709780275821686,-0.08953332155942917,-0.18554241955280304
1772458717023913500,6.36091357421875,-0.36650824546813965,-0.1250770092010498,-0.18078354001045227
1772458717033981400,6.3709814453125,-0.37329208850860596,-0.11825799942016602,-0.1943528801202774
1772458717044050400,6.381050537109375,-0.3743416666984558,-0.0796656385064125,-0.22610458731651306
1772458717054118400,6.391118408203125,-0.38075295090675354,-0.027602704241871834,-0.26174432039260864
1772458717064187400,6.4011875,-0.37686118483543396,0.023145277053117752,-0.2987058460712433
1772458717074256400,6.41125634765625,-0.37787237763404846,0.07817603647708893,-0.3281870186328888
1772458717084324400,6.421324462890625,-0.3799112141132355,0.14449691772460938,-0.33173224329948425
1772458717094393600,6.4313935546875,-0.37810584902763367,0.20399326086044312,-0.31117716431617737
1772458717104461300,6.44146142578125,-0.37368983030319214,0.2388235330581665,-0.2730209529399872
1772458717114530300,6.4515302734375,-0.35461094975471497,0.25124531984329224,-0.22189517319202423
1772458717124598500,6.4615986328125,-0.32912564277648926,0.24291542172431946,-0.16350331902503967
1772458717134667500,6.47166748046875,-0.29017239809036255,0.22657239437103271,-0.10748691856861115
1772458717144736300,6.481736328125,-0.23947641253471375,0.22402596473693848,-0.03889220952987671
1772458717154804500,6.491804443359375,-0.17625083029270172,0.21097248792648315,0.021739445626735687
1772458717164873500,6.50187353515625,-0.11446662992238998,0.1665465533733368,0.06335709244012833
1772458717174941200,6.511941162109375,-0.049604810774326324,0.1079849898815155,0.08597159385681152
1772458717185010400,6.522010498046875,0.01584729552268982,0.057661302387714386,0.10474079102277756
1772458717195079400,6.532079345703125,0.0844215601682663,0.029031788930296898,0.11124023795127869
1772458717205147400,6.5421474609375,0.1619734913110733,0.02447761967778206,0.11208724975585938
1772458717215216400,6.55221630859375,0.2399790734052658,0.060204993933439255,0.12078353762626648
1772458717225284400,6.562284423828125,0.31250882148742676,0.13018205761909485,0.14172062277793884
1772458717235353300,6.572353271484375,0.37836959958076477,0.21890127658843994,0.17505860328674316
1772458717245422300,6.58242236328125,0.4418274462223053,0.29787737131118774,0.20919041335582733
1772458717255490300,6.592490234375,0.5116806030273438,0.3370572626590729,0.23549845814704895
1772458717265559600,6.6025595703125,0.5758413076400757,0.34015366435050964,0.2283841222524643
1772458717275627300,6.612627197265625,0.6306707262992859,0.3575912415981293,0.19090625643730164
1772458717285696500,6.622696533203125,0.6648476123809814,0.36940664052963257,0.11537767946720123
1772458717295765500,6.632765625,0.65367192029953,0.3212769329547882,-0.0006421289872378111
1772458717305833200,6.642833251953125,0.5876936316490173,0.266434907913208,-0.13137131929397583
1772458717315902500,6.65290234375,0.4805789291858673,0.2307373583316803,-0.21867693960666656
1772458717325970400,6.662970458984375,0.35960471630096436,0.22043773531913757,-0.22224873304367065
1772458717336039400,6.673039306640625,0.2560679316520691,0.21233773231506348,-0.1560438871383667
1772458717346108400,6.6831083984375,0.19009681046009064,0.18168014287948608,-0.04036424309015274
1772458717356176400,6.69317626953125,0.16910365223884583,0.13803759217262268,0.1071101725101471
1772458717366245600,6.70324560546875,0.18430128693580627,0.11451096087694168,0.2796306908130646
1772458717376313300,6.713313232421875,0.20997335016727448,0.1375398486852646,0.47394078969955444
1772458717386382300,6.72338232421875,0.24030566215515137,0.22227178514003754,0.6854925751686096
1772458717396451600,6.73345166015625,0.2619997560977936,0.36334794759750366,0.8712746500968933
1772458717406519300,6.743519287109375,0.26445338129997253,0.4979880750179291,1.000247597694397
1772458717416588300,6.75358837890625,0.27246925234794617,0.5947415232658386,1.0566797256469727
1772458717426656500,6.763656494140625,0.2559095621109009,0.5960121750831604,1.0367296934127808
1772458717436725500,6.7737255859375,0.22238382697105408,0.5275271534919739,0.9485085010528564
1772458717446794200,6.783794189453125,0.1715032011270523,0.4071143567562103,0.8152410387992859
1772458717456862500,6.793862548828125,0.11162868142127991,0.2798123359680176,0.6425619125366211
1772458717466931500,6.803931396484375,0.058743786066770554,0.15718990564346313,0.46259135007858276
1772458717476999200,6.813999267578125,0.019278138875961304,0.06475371867418289,0.28461283445358276
1772458717487068400,6.824068359375,-0.005849744193255901,0.010621356777846813,0.11170762032270432
1772458717497136400,6.834136474609375,-0.025818658992648125,-0.0025176149792969227,-0.033843450248241425
1772458717507205400,6.844205322265625,-0.05083532631397247,0.01279556192457676,-0.16557379066944122
1772458717517274400,6.8542744140625,-0.08607906848192215,0.02916654571890831,-0.2635725140571594
1772458717527342300,6.86434228515625,-0.13059251010417938,0.06104033440351486,-0.3294781744480133
1772458717537411300,6.874411376953125,-0.17863807082176208,0.12112630158662796,-0.3533661961555481
1772458717547479300,6.884479248046875,-0.2161208540201187,0.21442168951034546,-0.339798241853714
1772458717557548300,6.89454833984375,-0.23705889284610748,0.3010346293449402,-0.30921903252601624
1772458717567617500,6.904617431640625,-0.23189853131771088,0.37954750657081604,-0.28394433856010437
1772458717577685200,6.914685302734375,-0.20260855555534363,0.4492062032222748,-0.2584347128868103
1772458717587754500,6.92475439453125,-0.15922312438488007,0.5149190425872803,-0.234330952167511
1772458717597822500,6.934822509765625,-0.10157925635576248,0.5605837106704712,-0.2134416401386261
1772458717607891200,6.94489111328125,-0.03602815419435501,0.5688076615333557,-0.1995016634464264
1772458717617960200,6.954960205078125,0.034345611929893494,0.5415568351745605,-0.1925569325685501
1772458717628028200,6.965028076171875,0.09585686773061752,0.4668821096420288,-0.19946078956127167
1772458717638097400,6.975097412109375,0.14958001673221588,0.3581300675868988,-0.21900519728660583
1772458717648165000,6.9851650390625,0.18927355110645294,0.25425010919570923,-0.25432270765304565
1772458717658234400,6.995234375,0.21553577482700348,0.17578937113285065,-0.29936128854751587
1772458717668303400,7.005303466796875,0.23410841822624207,0.13145902752876282,-0.34277793765068054
1772458717678371000,7.01537109375,0.24730812013149261,0.11099689453840256,-0.3948501944541931
1772458717688440300,7.0254404296875,0.25807303190231323,0.11837741732597351,-0.4469148814678192
1772458717698508300,7.03550830078125,0.25382155179977417,0.14589105546474457,-0.5046525001525879
1772458717708577300,7.045577392578125,0.24622011184692383,0.1919565498828888,-0.5567194223403931
1772458717718646300,7.055646240234375,0.22813378274440765,0.24097417294979095,-0.5948463082313538
1772458717728714200,7.06571435546875,0.21942518651485443,0.2813936769962311,-0.6120017766952515
1772458717738783200,7.075783203125,0.2217317521572113,0.304595410823822,-0.6145104765892029
1772458717748851200,7.085851318359375,0.24164168536663055,0.3183073401451111,-0.6058441400527954
1772458717758920200,7.095920166015625,0.28293904662132263,0.3324071764945984,-0.5787022709846497
1772458717768989400,7.105989501953125,0.3459923267364502,0.3400297164916992,-0.5483716130256653
1772458717779057200,7.11605712890625,0.4145253300666809,0.3106933832168579,-0.5247701406478882
1772458717789126100,7.126126220703125,0.48537588119506836,0.2355228215456009,-0.5151014924049377
1772458717799194400,7.1361943359375,0.5589914917945862,0.13392455875873566,-0.5119485855102539
1772458717809263000,7.14626318359375,0.6158626079559326,0.03748735785484314,-0.5181297063827515
1772458717819332400,7.156332275390625,0.650585412979126,-0.04843074455857277,-0.5097426176071167
1772458717829400300,7.166400390625,0.6603948473930359,-0.12750354409217834,-0.4975590705871582
1772458717839469300,7.17646923828125,0.6515712738037109,-0.22008167207241058,-0.47684207558631897
1772458717849537300,7.186537353515625,0.6360598206520081,-0.3225775361061096,-0.4305814802646637
1772458717859606300,7.196606201171875,0.6133055090904236,-0.4162350594997406,-0.3686142563819885
1772458717869674200,7.20667431640625,0.5931923985481262,-0.4783478379249573,-0.27574875950813293
1772458717879743200,7.2167431640625,0.5753204226493835,-0.4591059684753418,-0.16450348496437073
1772458717889812200,7.226812255859375,0.5662544965744019,-0.38454997539520264,-0.04244150593876839
1772458717899880200,7.236880126953125,0.5604684948921204,-0.38202714920043945,0.036508433520793915
1772458717909949200,7.24694921875,0.5448546409606934,-0.49120450019836426,0.049258094280958176
1772458717920017200,7.25701708984375,0.5101086497306824,-0.6449596881866455,0.0011952270288020372
1772458717930086400,7.26708642578125,0.4578516483306885,-0.7936040759086609,-0.10263318568468094
1772458717940155400,7.2771552734375,0.36057648062705994,-0.8738309741020203,-0.24800796806812286
1772458717950223000,7.28722314453125,0.2308282107114792,-0.9074382185935974,-0.4146113693714142
1772458717960292400,7.297292236328125,0.0918402373790741,-0.9172594547271729,-0.5711230039596558
1772458717970360300,7.3073603515625,-0.04065224900841713,-0.8223257064819336,-0.6841983199119568
1772458717980429000,7.317428955078125,-0.15254522860050201,-0.6159775853157043,-0.7482260465621948
1772458717990498300,7.327498291015625,-0.24141354858875275,-0.3715292811393738,-0.7722755074501038
1772458718000566300,7.337566162109375,-0.28852328658103943,-0.19161705672740936,-0.7670663595199585
1772458718010635300,7.34763525390625,-0.2919054329395294,-0.11188602447509766,-0.7414630651473999
1772458718020703200,7.357703125,-0.2577040493488312,-0.07708250731229782,-0.6550179123878479
1772458718030772200,7.367772216796875,-0.21248877048492432,-0.029991386458277702,-0.49641329050064087
1772458718040841200,7.37784130859375,-0.1681213080883026,0.029254360124468803,-0.275010347366333
1772458718050909200,7.3879091796875,-0.14196112751960754,0.07871588319540024,-0.012907400727272034
1772458718060978200,7.397978271484375,-0.12537814676761627,0.0998920127749443,0.2636970281600952
1772458718071046400,7.40804638671875,-0.11508078128099442,0.09190061688423157,0.5214951038360596
1772458718081115100,7.418115234375,-0.09671029448509216,0.05858366936445236,0.7395256757736206
1772458718091184400,7.428184326171875,-0.06123845651745796,-0.00497846957296133,0.9149912595748901
1772458718101252400,7.43825244140625,-0.020048141479492188,-0.08792635053396225,1.0335650444030762
1772458718111321000,7.448321044921875,0.033553410321474075,-0.16137434542179108,1.103243350982666
1772458718121389000,7.45838916015625,0.08808855712413788,-0.23695272207260132,1.1319117546081543
1772458718131458300,7.468458251953125,0.1361711472272873,-0.3208344876766205,1.1089357137680054
1772458718141527300,7.47852734375,0.15224093198776245,-0.4056471288204193,1.048044204711914
1772458718151595300,7.48859521484375,0.13089580833911896,-0.46045058965682983,0.9579749703407288
1772458718161664300,7.498664306640625,0.07659953832626343,-0.4737861156463623,0.864188551902771
1772458718171732200,7.508732177734375,0.0004824437201023102,-0.43228980898857117,0.7749738097190857
1772458718181801200,7.51880126953125,-0.09078941494226456,-0.34354662895202637,0.7017003893852234
1772458718191870200,7.5288701171875,-0.18016742169857025,-0.2184746414422989,0.6415728330612183
1772458718201938200,7.538938232421875,-0.2624977231025696,-0.08161638677120209,0.5816786289215088
1772458718212007200,7.549007080078125,-0.3305940330028534,0.057910654693841934,0.5295529961585999
1772458718222075100,7.5590751953125,-0.38963791728019714,0.17821389436721802,0.4670823812484741
1772458718232144400,7.569144287109375,-0.4339902102947235,0.24792201817035675,0.40811261534690857
1772458718242212400,7.57921240234375,-0.47155436873435974,0.25700366497039795,0.3457765281200409
1772458718252281000,7.589281005859375,-0.5083425045013428,0.22639352083206177,0.2791275978088379
1772458718262350300,7.599350341796875,-0.5356393456459045,0.18339383602142334,0.2181214690208435
1772458718272418300,7.609418212890625,-0.5445852875709534,0.1540878266096115,0.16696128249168396
1772458718282487000,7.619487060546875,-0.535488486289978,0.13544277846813202,0.11967764049768448
1772458718292555300,7.62955517578125,-0.5198135375976562,0.12148973345756531,0.08956003934144974
1772458718302624300,7.639624267578125,-0.5015794038772583,0.12172169983386993,0.06286344677209854
1772458718312693200,7.649693359375,-0.4757872521877289,0.13457976281642914,0.044826142489910126
1772458718322761200,7.65976123046875,-0.4388955533504486,0.14319190382957458,0.03989902511239052
1772458718332830200,7.669830322265625,-0.40013110637664795,0.12261307239532471,0.04198598489165306
1772458718342898400,7.6798984375,-0.3633959889411926,0.08194606751203537,0.055845607072114944
1772458718352967200,7.68996728515625,-0.3354647159576416,0.03738844022154808,0.05395251139998436
1772458718363036200,7.7000361328125,-0.31326887011528015,0.00024639861658215523,0.04303994029760361
1772458718373104400,7.7101044921875,-0.29967501759529114,-0.01328028179705143,0.004515881184488535
1772458718383173000,7.720173095703125,-0.28375011682510376,0.00018386077135801315,-0.053390827029943466
1772458718393241000,7.730240966796875,-0.26605984568595886,0.02549375593662262,-0.12616825103759766
1772458718403310300,7.740310302734375,-0.2372007668018341,0.04108496755361557,-0.20790758728981018
1772458718413379000,7.750379150390625,-0.20073966681957245,0.044458866119384766,-0.28385135531425476
1772458718423447300,7.760447265625,-0.14657709002494812,0.05154260993003845,-0.34312185645103455
1772458718433516300,7.770516357421875,-0.08615566790103912,0.06887620687484741,-0.3990253508090973
1772458718443584300,7.780584228515625,-0.016962483525276184,0.08266711980104446,-0.4476003348827362
1772458718453653200,7.7906533203125,0.060776203870773315,0.08823709189891815,-0.4811950623989105
1772458718463722200,7.80072216796875,0.130340114235878,0.09725642204284668,-0.4864140748977661
1772458718473790200,7.810790283203125,0.19407758116722107,0.1305193454027176,-0.47544634342193604
1772458718483859200,7.820859130859375,0.2583705484867096,0.19222530722618103,-0.46478384733200073
1772458718493927200,7.83092724609375,0.323941707611084,0.25883057713508606,-0.4553692936897278
1772458718503996400,7.840996337890625,0.3864879310131073,0.33688756823539734,-0.44989460706710815
1772458718514065200,7.851065185546875,0.4293064773082733,0.39184001088142395,-0.4607996344566345
1772458718524133000,7.861133056640625,0.4358067214488983,0.4167991578578949,-0.4782888889312744
1772458718534202400,7.871202392578125,0.42097771167755127,0.4214714467525482,-0.4906611144542694
1772458718544270300,7.881270263671875,0.39763137698173523,0.4148569405078888,-0.49319058656692505
1772458718554339000,7.891339111328125,0.3770219683647156,0.3898186683654785,-0.47771403193473816
1772458718564407300,7.9014072265625,0.3707515299320221,0.3358457088470459,-0.44461092352867126
1772458718574476300,7.911476318359375,0.3708067834377289,0.27604272961616516,-0.3819980323314667
1772458718584545300,7.921545166015625,0.374526709318161,0.24351008236408234,-0.2853942811489105
1772458718594613200,7.93161328125,0.36616992950439453,0.2361079901456833,-0.16534779965877533
1772458718604682200,7.94168212890625,0.346672385931015,0.19457653164863586,-0.0524928942322731
1772458718614749700,7.951749755859375,0.3141506612300873,0.1037144884467125,0.014553619548678398
1772458718624818700,7.961818603515625,0.2577531635761261,-0.02176780067384243,0.04662207514047623
1772458718634887700,7.9718876953125,0.1724294275045395,-0.15944911539554596,0.04482288286089897
1772458718644956000,7.981955810546875,0.06482253223657608,-0.27673447132110596,0.021550847217440605
1772458718655023900,7.99202392578125,-0.03570106625556946,-0.34531381726264954,-0.007184368092566729
1772458718665092600,8.002092529296876,-0.10926689952611923,-0.37064817547798157,-0.01103156991302967
1772458718675160600,8.01216064453125,-0.1608283519744873,-0.3951713740825653,0.026717938482761383
1772458718685229800,8.022229736328125,-0.17903397977352142,-0.45326903462409973,0.0952080562710762
1772458718695298600,8.032298583984375,-0.160861998796463,-0.5345914959907532,0.18356692790985107
1772458718705366800,8.04236669921875,-0.09783056378364563,-0.6018933057785034,0.2956298291683197
1772458718715435800,8.052435791015625,-0.005781538784503937,-0.6142444610595703,0.44172438979148865
1772458718725503700,8.062503662109375,0.10308422148227692,-0.5611849427223206,0.6269413828849792
1772458718735572700,8.07257275390625,0.1884513944387436,-0.4981224536895752,0.8293589353561401
1772458718745641700,8.082641845703124,0.22944916784763336,-0.47524937987327576,1.005312442779541
1772458718755709700,8.092709716796875,0.20086455345153809,-0.4863263666629791,1.1509013175964355
1772458718765778700,8.10277880859375,0.13057520985603333,-0.5026877522468567,1.2305740118026733
1772458718775846700,8.1128466796875,0.053741633892059326,-0.5147671103477478,1.2335948944091797
1772458718785916000,8.122916015625,-0.01573997363448143,-0.521113395690918,1.1727765798568726
1772458718795984600,8.132984619140625,-0.07095246762037277,-0.5170090794563293,1.0616928339004517
1772458718806052600,8.143052490234375,-0.11374680697917938,-0.5024697780609131,0.9158493280410767
1772458718816121900,8.153121826171875,-0.1483401209115982,-0.4825032651424408,0.7545373439788818
1772458718826189800,8.16318994140625,-0.17541328072547913,-0.45706793665885925,0.5900112390518188
1772458718836258600,8.173258544921875,-0.1964649111032486,-0.4348665773868561,0.4455389082431793
1772458718846326800,8.183326904296875,-0.20758706331253052,-0.4309179186820984,0.3104149103164673
1772458718856395800,8.193395751953124,-0.21606872975826263,-0.45069700479507446,0.20481693744659424
1772458718866464800,8.20346484375,-0.22377990186214447,-0.4775099754333496,0.13080449402332306
1772458718876532700,8.21353271484375,-0.24862150847911835,-0.5013576149940491,0.08850789815187454
1772458718886601700,8.223601806640625,-0.28501495718955994,-0.49104052782058716,0.08075197786092758
1772458718896670000,8.233669921875,-0.32496702671051025,-0.42605605721473694,0.09594917297363281
1772458718906738700,8.24373876953125,-0.3688141107559204,-0.34289485216140747,0.12389771640300751
1772458718916807700,8.2538076171875,-0.40802425146102905,-0.27866220474243164,0.13794416189193726
1772458718926876000,8.2638759765625,-0.4341945946216583,-0.2555457055568695,0.11692356318235397
1772458718936944600,8.273944580078124,-0.4523381292819977,-0.24340255558490753,0.06957414746284485
1772458718947012600,8.2840126953125,-0.45948606729507446,-0.23607701063156128,-0.008074580691754818
1772458718957081900,8.294081787109375,-0.46860942244529724,-0.24991737306118011,-0.11925242096185684
1772458718967150600,8.304150634765625,-0.47061264514923096,-0.29858583211898804,-0.24738988280296326
1772458718977218800,8.31421875,-0.4627823531627655,-0.35052773356437683,-0.39014479517936707
1772458718987287800,8.324287841796876,-0.44040781259536743,-0.36639404296875,-0.5210421085357666
1772458718997356500,8.3343564453125,-0.41003453731536865,-0.3403809666633606,-0.6262897849082947
1772458719007425800,8.34442578125,-0.3799629211425781,-0.29817917943000793,-0.7178399562835693
1772458719017493800,8.35449365234375,-0.3468220829963684,-0.24967308342456818,-0.7891696095466614
1772458719027562800,8.364562744140626,-0.2948065400123596,-0.1812647432088852,-0.8294816017150879
1772458719037630700,8.374630615234375,-0.24094657599925995,-0.08034998178482056,-0.8280481696128845
1772458719047699700,8.38469970703125,-0.18787217140197754,0.04123477265238762,-0.7997965812683105
1772458719057768700,8.394768798828125,-0.13045553863048553,0.17009280622005463,-0.7538173198699951
1772458719067836700,8.404836669921876,-0.06951628625392914,0.2960518002510071,-0.7052114009857178
1772458719077905700,8.41490576171875,-0.02193562313914299,0.3837420344352722,-0.6607663631439209
1772458719087974000,8.424973876953125,0.00361953885294497,0.42278024554252625,-0.6337462067604065
1772458719098042600,8.435042724609374,0.020439423620700836,0.4169829785823822,-0.6178218126296997
1772458719108112000,8.44511181640625,0.030194049701094627,0.3822345733642578,-0.5954954624176025
1772458719118179800,8.455179931640625,0.0482652373611927,0.3257632255554199,-0.5769736170768738
1772458719128248600,8.46524853515625,0.06959769129753113,0.23762992024421692,-0.5569743514060974
1772458719138316800,8.47531689453125,0.08013103902339935,0.14077436923980713,-0.5377576351165771
1772458719148385800,8.4853857421875,0.0873735100030899,0.05084474757313728,-0.5144991874694824
1772458719158453800,8.495453857421875,0.09227464348077774,-0.012970557436347008,-0.48719313740730286
1772458719168522800,8.505522705078125,0.09427094459533691,-0.059403035789728165,-0.4422807991504669
1772458719178591700,8.515591796875,0.0924760103225708,-0.09880771487951279,-0.3779109716415405
1772458719188659700,8.52565966796875,0.08279622346162796,-0.12215085327625275,-0.31379270553588867
1772458719198728700,8.535728759765625,0.07158070802688599,-0.11397159099578857,-0.25268393754959106
1772458719208796700,8.545796630859375,0.06429349631071091,-0.08423952758312225,-0.20398510992527008
1772458719218866000,8.555865966796874,0.06157093867659569,-0.06216835603117943,-0.17778082191944122
1772458719228934700,8.5659345703125,0.07322067022323608,-0.061929475516080856,-0.1675417721271515
1772458719239002600,8.576002685546875,0.08460733294487,-0.07322151213884354,-0.16191154718399048
1772458719249071900,8.58607177734375,0.09273317456245422,-0.07640478760004044,-0.14340950548648834
1772458719259139800,8.596139892578124,0.12469536811113358,-0.032768357545137405,-0.10135285556316376
1772458719269208600,8.60620849609375,0.1775340735912323,0.05200272426009178,-0.03670888766646385
1772458719279277800,8.61627783203125,0.23783454298973083,0.0925539955496788,0.02516697533428669
1772458719289345800,8.626345703125,0.2914391756057739,0.03706969693303108,0.05922241508960724
1772458719299414800,8.636414794921874,0.31458914279937744,-0.07067166268825531,0.04922941327095032
1772458719309482800,8.646482666015626,0.30701085925102234,-0.22672703862190247,-0.019377347081899643
1772458719319551700,8.6565517578125,0.26287344098091125,-0.43211629986763,-0.13472923636436462
1772458719329620700,8.666620849609375,0.1787063479423523,-0.6000598073005676,-0.2701911926269531
1772458719339688700,8.676688720703124,0.0631452426314354,-0.6550020575523376,-0.38955461978912354
1772458719349757700,8.6867578125,-0.06775098294019699,-0.5916840434074402,-0.47558990120887756
1772458719359826000,8.696825927734375,-0.18881163001060486,-0.448284775018692,-0.5416567921638489
1772458719369894700,8.706894775390625,-0.2876252830028534,-0.29126399755477905,-0.5950782299041748
1772458719379964000,8.7169638671875,-0.3599961996078491,-0.17544637620449066,-0.6459718942642212
1772458719390032000,8.727031982421876,-0.40118542313575745,-0.1126282662153244,-0.7004621028900146
1772458719400100600,8.7371005859375,-0.41333121061325073,-0.0713571310043335,-0.7446885108947754
1772458719410168600,8.74716845703125,-0.4114518165588379,-0.001555148046463728,-0.742240309715271
1772458719420237800,8.75723779296875,-0.3925858736038208,0.13273735344409943,-0.6689580678939819
1772458719430305800,8.767305908203125,-0.3667635917663574,0.3062388300895691,-0.5268831849098206
1772458719440374800,8.777374755859375,-0.3267524838447571,0.477170467376709,-0.3259050250053406
1772458719450443800,8.78744384765625,-0.2811011075973511,0.6274286508560181,-0.08207692950963974
1772458719460511700,8.79751171875,-0.24271558225154877,0.725111722946167,0.18009993433952332
1772458719470580700,8.807580810546876,-0.20380891859531403,0.7267447710037231,0.4069160223007202
1772458719480648700,8.817648681640625,-0.16103291511535645,0.6123975515365601,0.5851688385009766
1772458719490717700,8.8277177734375,-0.09427227824926376,0.41107961535453796,0.707157552242279
1772458719500786700,8.83778662109375,-0.015501750633120537,0.18547415733337402,0.79313725233078
1772458719510854700,8.847854736328125,0.061286237090826035,-0.03144325315952301,0.8493549823760986
1772458719520924000,8.857923828125,0.11953484266996384,-0.22536829113960266,0.8769274353981018
1772458719530991900,8.867991943359375,0.14649136364459991,-0.3553140461444855,0.8818992376327515
1772458719541060600,8.878060546875,0.13910502195358276,-0.4198245108127594,0.8642791509628296
1772458719551129900,8.8881298828125,0.10895510762929916,-0.4348822832107544,0.8300091028213501
1772458719561197800,8.89819775390625,0.06166496127843857,-0.40610918402671814,0.7826569080352783
1772458719571266600,8.9082666015625,-0.003872770583257079,-0.3573419153690338,0.718045711517334
1772458719581334800,8.918334716796876,-0.09023365378379822,-0.30150461196899414,0.626740574836731
1772458719591403800,8.92840380859375,-0.18291644752025604,-0.26140379905700684,0.5140858888626099
1772458719601472800,8.93847265625,-0.2770007252693176,-0.23980163037776947,0.3945174813270569
1772458719611540700,8.948540771484375,-0.35641008615493774,-0.23044541478157043,0.27058833837509155
1772458719621610000,8.95860986328125,-0.41437870264053345,-0.22188036143779755,0.14766691625118256
1772458719631678200,8.96867822265625,-0.45557114481925964,-0.1885461062192917,0.033504389226436615
1772458719641747000,8.978746826171875,-0.47609013319015503,-0.10974258184432983,-0.06565818935632706
1772458719651816200,8.988816162109375,-0.4774739146232605,-0.004463830031454563,-0.15145592391490936
1772458719661884200,8.99888427734375,-0.4597758650779724,0.10324962437152863,-0.22133442759513855
1772458719671953000,9.008952880859376,-0.4269758462905884,0.16852077841758728,-0.26821061968803406
1772458719682020900,9.019020751953125,-0.3828122019767761,0.1762651801109314,-0.3007257282733917
1772458719692090000,9.029090087890625,-0.33027389645576477,0.1408640444278717,-0.30426639318466187
1772458719702158000,9.039157958984376,-0.2803458571434021,0.08687002956867218,-0.278713583946228
1772458719712227000,9.04922705078125,-0.2394186407327652,0.021319516003131866,-0.23678797483444214
1772458719722296000,9.059296142578125,-0.20458415150642395,-0.04972534254193306,-0.19554446637630463
1772458719732364000,9.069364013671875,-0.17324966192245483,-0.10200372338294983,-0.14915911853313446
1772458719742433000,9.07943310546875,-0.1452358365058899,-0.12640659511089325,-0.10023234784603119
1772458719752501000,9.0895009765625,-0.11896881461143494,-0.1425434798002243,-0.06462029367685318
1772458719762570000,9.099570068359375,-0.08724362403154373,-0.15001755952835083,-0.04955020174384117
1772458719772639000,9.109638916015625,-0.05748492479324341,-0.14935842156410217,-0.045712586492300034
1772458719782707000,9.11970703125,-0.02853315696120262,-0.14256252348423004,-0.0704028531908989
1772458719792776200,9.129776123046875,0.00847998633980751,-0.13233305513858795,-0.12160611897706985
1772458719802844200,9.13984423828125,0.055391088128089905,-0.11732584238052368,-0.16621161997318268
1772458719812913000,9.149912841796874,0.10377006977796555,-0.09472811967134476,-0.20805227756500244
1772458719822982100,9.159982177734374,0.14555010199546814,-0.0711636021733284,-0.23132237792015076
1772458719833050000,9.170050048828125,0.17507816851139069,-0.05285356938838959,-0.2465418130159378
1772458719843118800,9.180118896484375,0.2027372270822525,-0.028811350464820862,-0.24849604070186615
1772458719853187000,9.19018701171875,0.21991993486881256,0.01500670239329338,-0.22819635272026062
1772458719863256000,9.200256103515626,0.2320893406867981,0.045791640877723694,-0.2009076476097107
1772458719873325000,9.210324951171875,0.23446913063526154,0.04102298617362976,-0.1756129413843155
1772458719883393000,9.22039306640625,0.22422683238983154,0.0017016418278217316,-0.1622239351272583
1772458719893462000,9.2304619140625,0.20772267878055573,-0.026134515181183815,-0.1471152901649475
1772458719903530200,9.2405302734375,0.19702641665935516,-0.0024059819988906384,-0.11357913166284561
1772458719913599000,9.250598876953125,0.18681453168392181,0.06587107479572296,-0.06680816411972046
1772458719923668000,9.26066796875,0.18542130291461945,0.14344826340675354,-0.02384752221405506
1772458719933736200,9.270736083984374,0.18361222743988037,0.18193359673023224,-0.004546793643385172
1772458719943805000,9.280804931640626,0.1809813678264618,0.20027843117713928,0.006433946080505848
1772458719953873000,9.290872802734375,0.187764972448349,0.2297002375125885,0.009747983887791634
1772458719963942100,9.300942138671875,0.20123529434204102,0.28856372833251953,0.019775712862610817
1772458719974011000,9.311010986328125,0.23188535869121552,0.4001754820346832,0.06322252005338669
1772458719984079000,9.3210791015625,0.2767021358013153,0.5303086042404175,0.1287732571363449
1772458719994148000,9.331148193359375,0.3390834927558899,0.6318879723548889,0.20051881670951843
1772458720004216000,9.341216064453125,0.39542028307914734,0.6743017435073853,0.24847786128520966
1772458720014285000,9.35128515625,0.44145089387893677,0.6554279327392578,0.2781217694282532
1772458720024353000,9.36135302734375,0.4580223560333252,0.5307196974754333,0.2527758479118347
1772458720034422000,9.371422119140625,0.42493629455566406,0.2526382803916931,0.13136020302772522
1772458720044491000,9.381490966796875,0.32334741950035095,-0.09302711486816406,-0.054859377443790436
1772458720054559000,9.39155908203125,0.16463050246238708,-0.38503551483154297,-0.25812649726867676
1772458720064628200,9.401628173828126,0.016375558450818062,-0.5289498567581177,-0.4038686156272888
1772458720074696000,9.411696044921875,-0.07653094083070755,-0.5849838256835938,-0.48555949330329895
1772458720084765000,9.421764892578125,-0.1424841731786728,-0.6569027304649353,-0.5206949710845947
1772458720094834200,9.431834228515624,-0.18768785893917084,-0.7754101753234863,-0.5238646864891052
1772458720104902100,9.441902099609376,-0.19241060316562653,-0.812441349029541,-0.47315704822540283
1772458720114971000,9.451970947265625,-0.16171234846115112,-0.7116726636886597,-0.34760549664497375
1772458720125039000,9.4620390625,-0.10520590841770172,-0.4620676636695862,-0.15661826729774475
1772458720135108000,9.472108154296874,-0.03500950336456299,-0.11085692048072815,0.08268246799707413
1772458720145177000,9.482177001953126,0.037124935537576675,0.25507986545562744,0.34348204731941223
1772458720155245000,9.4922451171875,0.09566041827201843,0.5343319773674011,0.562393069267273
1772458720165314000,9.50231396484375,0.12235879898071289,0.6377986669540405,0.7063498497009277
1772458720175382000,9.512382080078124,0.13310092687606812,0.6024428009986877,0.7625753283500671
1772458720185451000,9.522450927734376,0.12465233355760574,0.5185878872871399,0.7602605819702148
1772458720195520000,9.53252001953125,0.13704748451709747,0.40573590993881226,0.7054255604743958
1772458720205588200,9.542588134765625,0.1607898324728012,0.2699066996574402,0.6270926594734192
1772458720215657000,9.552656982421874,0.18414229154586792,0.13128279149532318,0.5352506637573242
1772458720225725000,9.562724853515626,0.19752320647239685,0.0228201262652874,0.438556969165802
1772458720235794200,9.572794189453125,0.20397578179836273,-0.05970244109630585,0.35599684715270996
1772458720245863000,9.58286279296875,0.20652657747268677,-0.10563963651657104,0.29506880044937134
1772458720255931000,9.592930908203124,0.19288772344589233,-0.11949979513883591,0.26157981157302856
1772458720266000100,9.603000244140626,0.1562211662530899,-0.1292673945426941,0.2429627925157547
1772458720276068000,9.613068115234375,0.09402276575565338,-0.14840567111968994,0.21865825355052948
1772458720286137000,9.62313720703125,0.029431292787194252,-0.16871187090873718,0.188112273812294
1772458720296206000,9.6332060546875,-0.03738928586244583,-0.16373680531978607,0.15061816573143005
1772458720306274000,9.643274169921876,-0.10493190586566925,-0.13572464883327484,0.1018696054816246
1772458720316343000,9.653343017578125,-0.1684805154800415,-0.0857810452580452,0.05698495730757713
1772458720326411000,9.663410888671875,-0.21854890882968903,-0.02418075129389763,0.00028436374850571156
1772458720336480000,9.67347998046875,-0.25667816400527954,0.02461634948849678,-0.056810613721609116
1772458720346548000,9.6835478515625,-0.2782047986984253,0.07982683181762695,-0.10886332392692566
1772458720356617000,9.693616943359375,-0.28572049736976624,0.1512938141822815,-0.15125951170921326
1772458720366686200,9.703686279296875,-0.27597513794898987,0.22008894383907318,-0.17954713106155396
1772458720376754000,9.71375390625,-0.25116246938705444,0.2629551887512207,-0.1910914033651352
1772458720386823000,9.723822998046876,-0.20767609775066376,0.277741938829422,-0.1837776154279709
1772458720396891100,9.73389111328125,-0.1557236909866333,0.27940428256988525,-0.16644921898841858
1772458720406960000,9.743960205078125,-0.10683512687683105,0.2715775966644287,-0.1423463076353073
1772458720417028900,9.75402880859375,-0.05824442207813263,0.25782904028892517,-0.12416170537471771
1772458720427097000,9.76409716796875,-0.012202133424580097,0.23112180829048157,-0.10332155227661133
1772458720437166000,9.774166015625,0.026229411363601685,0.2069552093744278,-0.07215271145105362
1772458720447233800,9.78423388671875,0.056092336773872375,0.18951663374900818,-0.03164941444993019
1772458720457303000,9.794302978515624,0.086913101375103,0.17359226942062378,0.01739935390651226
1772458720467372000,9.8043720703125,0.10612817853689194,0.16388410329818726,0.06036091595888138
1772458720477440000,9.81443994140625,0.11883731186389923,0.14222487807273865,0.0973397046327591
1772458720487509000,9.824509033203125,0.12607532739639282,0.08112276345491409,0.11791006475687027
1772458720497577000,9.834576904296876,0.1209506019949913,-0.005333827342838049,0.12578849494457245
1772458720507646200,9.844646240234376,0.11890272051095963,-0.12248280644416809,0.12354815751314163
1772458720517715000,9.85471484375,0.11172177642583847,-0.24254609644412994,0.11394453793764114
1772458720527783000,9.864782958984375,0.09745504707098007,-0.3381727933883667,0.10560846328735352
1772458720537852200,9.87485205078125,0.08444470167160034,-0.39251992106437683,0.09067185968160629
1772458720547920000,9.884919921875,0.08109015971422195,-0.40731126070022583,0.07343938946723938
1772458720557989000,9.894989013671875,0.09511835873126984,-0.40041178464889526,0.04698541387915611
1772458720568058000,9.90505810546875,0.11976740509271622,-0.38174235820770264,0.022782891988754272
1772458720578126000,9.9151259765625,0.1568700224161148,-0.331875205039978,0.014115368947386742
1772458720588195000,9.925195068359375,0.20159347355365753,-0.25617992877960205,0.003433509962633252
1772458720598263000,9.935262939453125,0.22575873136520386,-0.17640893161296844,0.015636378899216652
1772458720608332000,9.94533203125,0.21984902024269104,-0.12788443267345428,0.02292436547577381
1772458720618400800,9.95540087890625,0.18073409795761108,-0.11725921183824539,0.027762264013290405
1772458720628468700,9.96546875,0.12258311361074448,-0.1349043846130371,0.024397259578108788
1772458720638538000,9.9755380859375,0.06839390844106674,-0.16163933277130127,-0.00013338285498321056
1772458720648605700,9.985605712890624,0.028886567801237106,-0.19103486835956573,-0.04105031117796898
1772458720658674700,9.9956748046875,0.003264294471591711,-0.20329393446445465,-0.08949108421802521
1772458720668744000,10.005743896484375,-0.011525955982506275,-0.18989919126033783,-0.13448666036128998
1772458720678812000,10.01581201171875,-0.018590524792671204,-0.1371944397687912,-0.17658910155296326
1772458720688881000,10.025880859375,-0.015634115785360336,-0.049313176423311234,-0.20459921658039093
1772458720698948900,10.035948974609376,-0.004812627099454403,0.05782446265220642,-0.2051936388015747
1772458720709017900,10.046017822265625,0.021365627646446228,0.1660260111093521,-0.19059863686561584
1772458720719086800,10.0560869140625,0.06478660553693771,0.2515627443790436,-0.17803117632865906
1772458720729154800,10.06615478515625,0.1144222840666771,0.2642495930194855,-0.18525032699108124
1772458720739223800,10.076223876953126,0.15091478824615479,0.20282138884067535,-0.2250342220067978
1772458720749291800,10.086291748046875,0.1649417281150818,0.10128738731145859,-0.28678420186042786
1772458720759360800,10.09636083984375,0.15565234422683716,-0.019233431667089462,-0.36869531869888306
1772458720769428700,10.1064287109375,0.11177366971969604,-0.13819782435894012,-0.4692298173904419
1772458720779498000,10.116498046875,0.03578249737620354,-0.2214983105659485,-0.5763214230537415
1772458720789566700,10.126566650390625,-0.03734416514635086,-0.23056979477405548,-0.668018639087677
1772458720799634700,10.136634765625,-0.07325982302427292,-0.16475909948349,-0.718836784362793
1772458720809704000,10.146703857421874,-0.06935003399848938,-0.056756190955638885,-0.7215058207511902
1772458720819772700,10.156772705078126,-0.03997909650206566,0.048788078129291534,-0.6878466606140137
1772458720829841000,10.1668408203125,-0.0038188383914530277,0.09373053163290024,-0.6226527094841003
1772458720839910000,10.176909912109375,0.02429002895951271,0.06443522870540619,-0.5476194620132446
1772458720849977900,10.186977783203124,0.03542109578847885,-0.01694548688828945,-0.46664485335350037
1772458720860046800,10.197046875,0.02964629791676998,-0.08096814900636673,-0.37432533502578735
1772458720870114800,10.20711474609375,0.020117130130529404,-0.10526134818792343,-0.25553658604621887
1772458720880183800,10.217183837890625,-0.0032534387428313494,-0.08911966532468796,-0.12982499599456787
1772458720890252800,10.227252685546874,-0.027943801134824753,-0.06469089537858963,-0.00797782652080059
1772458720900320800,10.23732080078125,-0.0430724211037159,-0.043655917048454285,0.12091571092605591
1772458720910390000,10.24739013671875,-0.04870310425758362,-0.0495297946035862,0.24071629345417023
1772458720920457700,10.257457763671875,-0.045423153787851334,-0.08566676080226898,0.3342571556568146
1772458720930526700,10.267526611328124,-0.035834748297929764,-0.13926100730895996,0.40607258677482605
1772458720940596000,10.277595947265626,-0.01619446650147438,-0.18667060136795044,0.4709551930427551
1772458720950663700,10.28766357421875,0.00016922899521887302,-0.24221915006637573,0.5258756279945374
1772458720960732700,10.297732666015625,0.008919044397771358,-0.31006503105163574,0.5649718642234802
1772458720970801000,10.30780078125,0.007386432960629463,-0.386168897151947,0.5892539620399475
1772458720980870000,10.317869873046876,-0.010784314945340157,-0.44932442903518677,0.593166172504425
1772458720990939000,10.32793896484375,-0.046581171452999115,-0.4912792146205902,0.5750452280044556
1772458721001006800,10.3380068359375,-0.10449214279651642,-0.4958156645298004,0.533392071723938
1772458721011075800,10.348075927734374,-0.1781793087720871,-0.4439568519592285,0.47861242294311523
1772458721021143800,10.358143798828126,-0.25575292110443115,-0.3510841727256775,0.3987213373184204
1772458721031212800,10.368212890625,-0.3276026248931885,-0.22900386154651642,0.2972557842731476
1772458721041281800,10.37828173828125,-0.3942567706108093,-0.10424647480249405,0.19309823215007782
1772458721051349800,10.388349853515624,-0.4485049843788147,0.009868932887911797,0.08914937824010849
1772458721061418800,10.398418701171876,-0.4839596450328827,0.10816061496734619,0.004099998623132706
1772458721071486700,10.40848681640625,-0.5101752877235413,0.16617043316364288,-0.06435000151395798
1772458721081556000,10.418555908203125,-0.5265622138977051,0.18736280500888824,-0.12081381678581238
1772458721091624700,10.428624755859374,-0.5325213074684143,0.17989391088485718,-0.15867306292057037
1772458721101693000,10.43869287109375,-0.5331167578697205,0.1619548499584198,-0.17368902266025543
1772458721111762000,10.448761962890625,-0.5240523219108582,0.13314318656921387,-0.1709086298942566
1772458721121829600,10.45882958984375,-0.5088770985603333,0.11490105837583542,-0.15588679909706116
1772458721131899000,10.46889892578125,-0.4930400848388672,0.09087343513965607,-0.13224300742149353
1772458721141968000,10.4789677734375,-0.48354750871658325,0.08377238363027573,-0.10943304002285004
1772458721152035800,10.489035888671875,-0.47618919610977173,0.10252344608306885,-0.08105240762233734
1772458721162104800,10.499104736328125,-0.46750038862228394,0.14210307598114014,-0.04751628637313843
1772458721172172800,10.5091728515625,-0.4648342728614807,0.19042107462882996,-0.00877753272652626
1772458721182241800,10.51924169921875,-0.45396164059638977,0.23312698304653168,0.022071726620197296
1772458721192309800,10.529309814453125,-0.4428861737251282,0.2731393575668335,0.05088507756590843
1772458721202378800,10.539378662109375,-0.43934470415115356,0.29710379242897034,0.06909523904323578
1772458721212448000,10.549447998046874,-0.4397205412387848,0.3128611445426941,0.06446219980716705
1772458721222515700,10.559515625,-0.4356749355792999,0.29863080382347107,0.04639238864183426
1772458721232584700,10.569584716796875,-0.43180277943611145,0.29444634914398193,0.012966967187821865
1772458721242653000,10.57965283203125,-0.4300008714199066,0.29503998160362244,-0.027192700654268265
1772458721252721700,10.5897216796875,-0.4200384318828583,0.2809385657310486,-0.07491861283779144
1772458721262791000,10.599791015625,-0.40976208448410034,0.25931236147880554,-0.1181797981262207
1772458721272859000,10.60985888671875,-0.38230836391448975,0.2662781774997711,-0.15240752696990967
1772458721282927900,10.619927978515625,-0.3473637104034424,0.2988339960575104,-0.17410457134246826
1772458721292995600,10.62999560546875,-0.3047008812427521,0.3251130282878876,-0.20084452629089355
1772458721303064800,10.64006494140625,-0.2496354877948761,0.33015120029449463,-0.22364304959774017
1772458721313133800,10.6501337890625,-0.19370128214359283,0.3119180202484131,-0.23860187828540802
1772458721323201800,10.660201904296875,-0.1313856989145279,0.2805747389793396,-0.22912555932998657
1772458721333270800,10.670270751953124,-0.06232459098100662,0.24062803387641907,-0.214191272854805
1772458721343338800,10.6803388671875,-0.00025163195095956326,0.19389674067497253,-0.19780883193016052
1772458721353407700,10.69040771484375,0.06033322215080261,0.1573180854320526,-0.17162346839904785
1772458721363476700,10.700476806640625,0.10560855269432068,0.14866147935390472,-0.13956166803836823
1772458721373544700,10.710544677734376,0.1419273018836975,0.17660139501094818,-0.0943523570895195
1772458721383614000,10.720614013671875,0.17422425746917725,0.22744034230709076,-0.051166266202926636
1772458721393681700,10.730681640625,0.21128030121326447,0.2703918516635895,-0.015802523121237755
1772458721403751000,10.7407509765625,0.24652670323848724,0.3017739951610565,0.01359451375901699
1772458721413820000,10.75081982421875,0.2838636040687561,0.3506458103656769,0.05033697932958603
1772458721423887600,10.7608876953125,0.3149706721305847,0.44139596819877625,0.09461896121501923
1772458721433956900,10.770956787109375,0.34925970435142517,0.5453668236732483,0.14706526696681976
1772458721444024800,10.78102490234375,0.37437596917152405,0.5597590804100037,0.19483411312103271
1772458721454093600,10.791093505859376,0.3653814196586609,0.4668276906013489,0.23202165961265564
1772458721464162800,10.801162841796875,0.3293488621711731,0.31428685784339905,0.2503244876861572
1772458721474230800,10.811230712890625,0.2656415104866028,0.14804914593696594,0.24417179822921753
1772458721484299800,10.8212998046875,0.14699424803256989,-0.005633617751300335,0.19244202971458435
1772458721494367700,10.83136767578125,-0.01390510518103838,-0.13532233238220215,0.08927121013402939
1772458721504436700,10.841436767578125,-0.19532230496406555,-0.25995826721191406,-0.04194886237382889
1772458721514506000,10.851506103515625,-0.3526507318019867,-0.3657587766647339,-0.1746174693107605
1772458721524573700,10.86157373046875,-0.4590919613838196,-0.422094464302063,-0.26482275128364563
1772458721534642700,10.871642578125,-0.50721275806427,-0.42970597743988037,-0.3192045986652374
1772458721544711000,10.8817109375,-0.5118077397346497,-0.42113059759140015,-0.31594622135162354
1772458721554779600,10.891779541015625,-0.493813157081604,-0.4076016843318939,-0.26184216141700745
1772458721564849000,10.901848876953125,-0.4531637132167816,-0.37326768040657043,-0.17495468258857727
1772458721574916900,10.911916748046876,-0.38874831795692444,-0.27654361724853516,-0.05275668948888779
1772458721584985900,10.92198583984375,-0.30978721380233765,-0.10938951373100281,0.09804347902536392
1772458721595053800,10.9320537109375,-0.2457205206155777,0.10274487733840942,0.27175766229629517
1772458721605122800,10.942122802734374,-0.22100132703781128,0.325433611869812,0.4475816786289215
1772458721615190800,10.952190673828126,-0.2340872436761856,0.517190158367157,0.581203281879425
1772458721625259500,10.962259521484375,-0.25504815578460693,0.660793125629425,0.6617066264152527
1772458721635328500,10.97232861328125,-0.24221912026405334,0.7025378346443176,0.6768787503242493
1772458721645396500,10.982396484375,-0.21318906545639038,0.6448231339454651,0.6499691009521484
1772458721655465700,10.9924658203125,-0.1837625950574875,0.544671893119812,0.5935383439064026
1772458721665533400,11.002533447265625,-0.15357272326946259,0.44173672795295715,0.5134413838386536
1772458721675602400,11.0126025390625,-0.12196111679077148,0.34056177735328674,0.42557385563850403
1772458721685671700,11.022671630859374,-0.08106427639722824,0.2516055703163147,0.3347773849964142
1772458721695739400,11.032739501953126,-0.02435464784502983,0.17886827886104584,0.25031647086143494
1772458721705808400,11.042808349609375,0.03572173789143562,0.12868447601795197,0.18771620094776154
1772458721715876600,11.052876708984375,0.07510948926210403,0.12360736727714539,0.15495535731315613
1772458721725945600,11.062945556640624,0.10150221735239029,0.152200385928154,0.1495603322982788
1772458721736014600,11.0730146484375,0.10466549545526505,0.20660921931266785,0.15994898974895477
1772458721746082600,11.08308251953125,0.10594248026609421,0.26971492171287537,0.17869019508361816
1772458721756151600,11.093151611328125,0.10090725868940353,0.31989091634750366,0.1881285309791565
1772458721766219500,11.103219482421874,0.09648268669843674,0.35906973481178284,0.18284668028354645
1772458721776288500,11.11328857421875,0.08841056376695633,0.40784958004951477,0.17802900075912476
1772458721786357500,11.123357421875,0.07496080547571182,0.4582158029079437,0.17826814949512482
1772458721796425500,11.133425537109375,0.05453803762793541,0.4978678226470947,0.17169250547885895
1772458721806494500,11.143494384765624,0.047891587018966675,0.505006730556488,0.15088388323783875
1772458721816562400,11.1535625,0.06317344307899475,0.4821299910545349,0.10369931161403656
1772458721826631400,11.16363134765625,0.09534123539924622,0.42717885971069336,0.04335208237171173
1772458721836700400,11.173700439453125,0.1307571977376938,0.349206805229187,-0.04253106191754341
1772458721846768600,11.1837685546875,0.16695915162563324,0.27895262837409973,-0.11855978518724442
1772458721856837600,11.193837646484376,0.1893555372953415,0.2373688668012619,-0.1629207581281662
1772458721866905300,11.2039052734375,0.21023578941822052,0.19904305040836334,-0.19480732083320618
1772458721876974600,11.213974609375,0.23644888401031494,0.14647752046585083,-0.21295593678951263
1772458721887043600,11.224043701171874,0.2718747854232788,0.09571926295757294,-0.23004862666130066
1772458721897111300,11.234111328125,0.3120215833187103,0.06434129178524017,-0.22780661284923553
1772458721907180500,11.2441806640625,0.3465670347213745,0.05543142557144165,-0.21557657420635223
1772458721917248500,11.25424853515625,0.3728557825088501,0.08646325767040253,-0.186163529753685
1772458721927317500,11.2643173828125,0.3879428505897522,0.1316179484128952,-0.14551517367362976
1772458721937386500,11.274386474609376,0.39542481303215027,0.14956684410572052,-0.11266931146383286
1772458721947454500,11.284454345703125,0.3975178003311157,0.15834036469459534,-0.11491941660642624
1772458721957523700,11.294523681640625,0.395658016204834,0.1720888614654541,-0.14098785817623138
1772458721967591400,11.30459130859375,0.3919293284416199,0.17360606789588928,-0.17076359689235687
1772458721977660400,11.314660400390625,0.38337254524230957,0.1541048139333725,-0.18920107185840607
1772458721987729700,11.324729736328125,0.3570362627506256,0.14100071787834167,-0.18684950470924377
1772458721997797400,11.33479736328125,0.3300075829029083,0.1452382504940033,-0.1648329347372055
1772458722007866600,11.34486669921875,0.29454997181892395,0.1635647863149643,-0.1402471661567688
1772458722017934600,11.3549345703125,0.26276761293411255,0.18789473176002502,-0.1229310855269432
1772458722028003300,11.36500341796875,0.24511432647705078,0.22967466711997986,-0.09127675741910934
1772458722038072600,11.375072509765625,0.2038014680147171,0.2824411988258362,0.029417825862765312
1772458722048140500,11.385140625,0.14319564402103424,0.18864041566848755,0.09229292720556259
1772458722058209500,11.39520947265625,0.11958678066730499,0.0719480887055397,0.10965633392333984
1772458722068277500,11.405277587890625,0.14979341626167297,-0.06466808170080185,0.07359473407268524
1772458722078346500,11.415346435546875,0.17796215415000916,-0.15482383966445923,0.009311845526099205
1772458722088414500,11.42541455078125,0.15596897900104523,-0.2290128469467163,-0.0751740112900734
1772458722098483500,11.4354833984375,0.10561374574899673,-0.28385743498802185,-0.19062505662441254
1772458722108552400,11.445552490234375,0.0580504834651947,-0.24151290953159332,-0.31845226883888245
1772458722118620400,11.455620361328124,0.007310277782380581,-0.11740181595087051,-0.40410763025283813
1772458722128689400,11.465689453125,-0.017902400344610214,0.0316728912293911,-0.3778688311576843
1772458722138758400,11.47575830078125,-0.011110709980130196,0.11792928725481033,-0.3275720179080963
