time,seconds_elapsed,z,y,x
1772458155589632500,0.073632568359375,0.05396735295653343,0.19876135885715485,-0.2990332841873169
1772458155599700700,0.08370068359375,0.029802363365888596,0.07127370685338974,-0.3011600971221924
1772458155609769500,0.09376953125,-0.004675191827118397,-0.07116679847240448,-0.3103075325489044
1772458155619837400,0.10383740234375,-0.05089088901877403,-0.1480056643486023,-0.32505422830581665
1772458155629906700,0.11390673828125,-0.10663782060146332,-0.21279269456863403,-0.3411514461040497
1772458155639974700,0.123974609375,-0.15280452370643616,-0.27880632877349854,-0.3727157711982727
1772458155650043600,0.134043701171875,-0.18312840163707733,-0.310983270406723,-0.417754590511322
1772458155660111600,0.144111572265625,-0.20529122650623322,-0.3016611337661743,-0.45184144377708435
1772458155670179600,0.1541796875,-0.21269460022449493,-0.230508953332901,-0.4610546827316284
1772458155680248800,0.164248779296875,-0.20432880520820618,-0.11008906364440918,-0.4472728371620178
1772458155690316800,0.17431689453125,-0.16558608412742615,0.01448415219783783,-0.41701164841651917
1772458155700385500,0.184385498046875,-0.10839869827032089,0.10227179527282715,-0.3885754942893982
1772458155710453500,0.19445361328125,-0.02523239329457283,0.14763584733009338,-0.3584095239639282
1772458155720522800,0.204522705078125,0.06212887912988663,0.17813703417778015,-0.3220645785331726
1772458155730590500,0.214590576171875,0.13459977507591248,0.16205117106437683,-0.27937784790992737
1772458155740659700,0.22465966796875,0.18812958896160126,0.10631521046161652,-0.23931777477264404
1772458155750727700,0.234727783203125,0.22317427396774292,0.028291400521993637,-0.19367490708827972
1772458155760796700,0.244796630859375,0.24356023967266083,-0.041455723345279694,-0.1497945338487625
1772458155770864600,0.25486474609375,0.2618805170059204,-0.10591952502727509,-0.09451273083686829
1772458155780933600,0.26493359375,0.2819647490978241,-0.17321841418743134,-0.03397907689213753
1772458155791001600,0.275001708984375,0.2827266454696655,-0.2377721220254898,0.03638969734311104
1772458155801070600,0.285070556640625,0.28106775879859924,-0.30422624945640564,0.1128261461853981
1772458155811138600,0.295138671875,0.27723050117492676,-0.3682709336280823,0.1847999095916748
1772458155821207600,0.30520751953125,0.2804467976093292,-0.4366540014743805,0.2383507490158081
1772458155831275800,0.31527587890625,0.28746750950813293,-0.5158839821815491,0.28239360451698303
1772458155841344500,0.325344482421875,0.2928345799446106,-0.5732160210609436,0.2985142469406128
1772458155851412500,0.33541259765625,0.2952021062374115,-0.5890743732452393,0.31323081254959106
1772458155861481700,0.345481689453125,0.3026259243488312,-0.5783229470252991,0.31064727902412415
1772458155871549700,0.3555498046875,0.3081739544868469,-0.5875567197799683,0.29044753313064575
1772458155881618700,0.36561865234375,0.30620133876800537,-0.609310507774353,0.2542109489440918
1772458155891686700,0.375686767578125,0.290609747171402,-0.5855661630630493,0.22800195217132568
1772458155901754600,0.385754638671875,0.2645528316497803,-0.5348172783851624,0.20630943775177002
1772458155911823600,0.39582373046875,0.23724894225597382,-0.4567025899887085,0.2026132494211197
1772458155921891600,0.4058916015625,0.21842971444129944,-0.3812536597251892,0.20964612066745758
1772458155931960600,0.415960693359375,0.1941649615764618,-0.39520397782325745,0.21505579352378845
1772458155942028500,0.426028564453125,0.14759346842765808,-0.47893083095550537,0.18966281414031982
1772458155952097500,0.43609765625,0.07813917845487595,-0.539153516292572,0.16817881166934967
1772458155962165500,0.44616552734375,-0.006300334818661213,-0.5152431726455688,0.15173779428005219
1772458155972234800,0.45623486328125,-0.10087984055280685,-0.4776688814163208,0.14603225886821747
1772458155982302700,0.466302734375,-0.18362586200237274,-0.4525770843029022,0.1688627451658249
1772458155992371500,0.476371337890625,-0.272088885307312,-0.43312588334083557,0.22780033946037292
1772458156002439700,0.486439697265625,-0.3541795015335083,-0.41866812109947205,0.31797468662261963
1772458156012508700,0.4965087890625,-0.4144253730773926,-0.4091269373893738,0.4162546992301941
1772458156022576600,0.50657666015625,-0.45078548789024353,-0.41231608390808105,0.5091547966003418
1772458156032645600,0.516645751953125,-0.46986499428749084,-0.44089746475219727,0.5658175349235535
1772458156042713600,0.526713623046875,-0.47386986017227173,-0.4773540198802948,0.5828380584716797
1772458156052782600,0.536782470703125,-0.45858511328697205,-0.5130559802055359,0.5630473494529724
1772458156062850800,0.546850830078125,-0.4181034564971924,-0.537176787853241,0.5168254971504211
1772458156072919600,0.55691943359375,-0.367771714925766,-0.5325688123703003,0.4630383849143982
1772458156082987500,0.566987548828125,-0.30699676275253296,-0.5201334357261658,0.4085642099380493
1772458156093056800,0.577056884765625,-0.25131362676620483,-0.5304312109947205,0.3553524315357208
1772458156103124700,0.587124755859375,-0.2022983878850937,-0.5424396395683289,0.305989146232605
1772458156113193500,0.597193359375,-0.1551591157913208,-0.5331148505210876,0.262685626745224
1772458156123261700,0.60726171875,-0.1136857122182846,-0.5127105116844177,0.22823099792003632
1772458156133330700,0.61733056640625,-0.07556510716676712,-0.5052149295806885,0.19014059007167816
1772458156143398400,0.6273984375,-0.05036814510822296,-0.5155948400497437,0.14675502479076385
1772458156153466600,0.637466552734375,-0.041000306606292725,-0.5135502219200134,0.10445788502693176
1772458156163535600,0.64753564453125,-0.0457170307636261,-0.4782809019088745,0.06333202123641968
1772458156173603600,0.657603515625,-0.05586128681898117,-0.4080764949321747,0.03835691511631012
1772458156183672600,0.667672607421875,-0.06795735657215118,-0.3050238788127899,0.027859266847372055
1772458156193740500,0.677740478515625,-0.07387939095497131,-0.1620675027370453,0.04137750715017319
1772458156203809800,0.687809814453125,-0.05763117969036102,0.012939728796482086,0.07912541925907135
1772458156213877800,0.697877685546875,-0.021917372941970825,0.18319430947303772,0.12792246043682098
1772458156223946500,0.707946533203125,0.024660782888531685,0.3024786114692688,0.17412804067134857
1772458156234014500,0.718014404296875,0.06618984043598175,0.3676144778728485,0.21567416191101074
1772458156244083700,0.728083740234375,0.10110308229923248,0.3822126090526581,0.2691695988178253
1772458156254151700,0.738151611328125,0.13003641366958618,0.35394203662872314,0.3116361200809479
1772458156264220700,0.748220703125,0.15175849199295044,0.2698487341403961,0.3350445032119751
1772458156274288600,0.75828857421875,0.17573001980781555,0.14705611765384674,0.3490561544895172
1772458156284357600,0.768357666015625,0.19228263199329376,0.01376703754067421,0.34473198652267456
1772458156294425600,0.778425537109375,0.19429203867912292,-0.09956720471382141,0.3298979699611664
1772458156304494600,0.78849462890625,0.18368281424045563,-0.15922653675079346,0.3113645017147064
1772458156314562600,0.7985625,0.16896648705005646,-0.17561878263950348,0.2866748571395874
1772458156324631800,0.8086318359375,0.16036660969257355,-0.21535314619541168,0.24636977910995483
1772458156334699500,0.818699462890625,0.14979462325572968,-0.27831587195396423,0.18017472326755524
1772458156344768500,0.8287685546875,0.11668327450752258,-0.3212447166442871,0.10081865638494492
1772458156354836700,0.838836669921875,0.05146096274256706,-0.34183990955352783,0.01720741204917431
1772458156364904700,0.84890478515625,-0.021620701998472214,-0.33738258481025696,-0.07545755058526993
1772458156374973400,0.858973388671875,-0.07616756856441498,-0.3017582595348358,-0.1586323231458664
1772458156385041700,0.869041748046875,-0.10163990408182144,-0.2006782740354538,-0.21583117544651031
1772458156395110700,0.879110595703125,-0.11051009595394135,-0.07162787020206451,-0.25598499178886414
1772458156405178600,0.8891787109375,-0.08920454233884811,0.05240140110254288,-0.2874486446380615
1772458156415247600,0.89924755859375,-0.039745066314935684,0.14902199804782867,-0.30192315578460693
1772458156425315600,0.909315673828125,0.027711205184459686,0.21131493151187897,-0.293176531791687
1772458156435384600,0.919384521484375,0.0959153100848198,0.22481876611709595,-0.2716297507286072
1772458156445452800,0.929452880859375,0.15456344187259674,0.21077032387256622,-0.228997603058815
1772458156455521500,0.939521484375,0.19738492369651794,0.17729997634887695,-0.16511042416095734
1772458156465589500,0.949589599609375,0.2313878983259201,0.11656764149665833,-0.10071519762277603
1772458156475658800,0.95965869140625,0.26040729880332947,0.03375212103128433,-0.030127311125397682
1772458156485726700,0.969726806640625,0.27860763669013977,-0.06736810505390167,0.019211743026971817
1772458156495795000,0.979794921875,0.28143513202667236,-0.16269619762897491,0.05292995646595955
1772458156505863000,0.98986279296875,0.2728903591632843,-0.22137123346328735,0.06657625734806061
1772458156515932200,0.99993212890625,0.24521109461784363,-0.24230016767978668,0.06497256457805634
1772458156526000000,1.010000244140625,0.19967716932296753,-0.2519858181476593,0.040925282984972
1772458156536069000,1.020069091796875,0.13170062005519867,-0.2552467882633209,-0.012193321250379086
1772458156546137000,1.03013720703125,0.05224946513772011,-0.22164592146873474,-0.07669348269701004
1772458156556206000,1.0402060546875,-0.027661865577101707,-0.15050409734249115,-0.14556607604026794
1772458156566274000,1.050274169921875,-0.10182211548089981,-0.0988755151629448,-0.21599683165550232
1772458156576342000,1.060342041015625,-0.16035398840904236,-0.06196076050400734,-0.29036661982536316
1772458156586411000,1.070410888671875,-0.21347738802433014,-0.037025585770606995,-0.37535154819488525
1772458156596479000,1.08047900390625,-0.25972503423690796,-0.009392095729708672,-0.4542714059352875
1772458156606548000,1.0905478515625,-0.2854330539703369,0.05087790638208389,-0.5123400092124939
1772458156616616000,1.100615966796875,-0.2983444035053253,0.14002582430839539,-0.5625829100608826
1772458156626685200,1.110685302734375,-0.2929195463657379,0.23900087177753448,-0.6021204590797424
1772458156636753200,1.120753173828125,-0.2671359181404114,0.3426113724708557,-0.624772846698761
1772458156646822000,1.13082177734375,-0.22126777470111847,0.45621275901794434,-0.623584508895874
1772458156656890000,1.14089013671875,-0.1682417243719101,0.5763952136039734,-0.6034857034683228
1772458156666959000,1.150958984375,-0.11614043265581131,0.6873360872268677,-0.571111798286438
1772458156677027000,1.161027099609375,-0.06730007380247116,0.7831214070320129,-0.5374225974082947
1772458156687096000,1.171095947265625,-0.023703064769506454,0.8552739024162292,-0.48818978667259216
1772458156697164000,1.1811640625,0.011060439981520176,0.8997493982315063,-0.43275630474090576
1772458156707233000,1.19123291015625,0.04433557018637657,0.9107975363731384,-0.3644917607307434
1772458156717301200,1.20130126953125,0.07065633684396744,0.8807910680770874,-0.27431097626686096
1772458156727370000,1.211369873046875,0.09669991582632065,0.7957826852798462,-0.15536195039749146
1772458156737438000,1.22143798828125,0.12413575500249863,0.6854929327964783,-0.02199617028236389
1772458156747507200,1.231507080078125,0.14903044700622559,0.5637166500091553,0.12113089114427567
1772458156757575000,1.241574951171875,0.16571152210235596,0.44020572304725647,0.25955429673194885
1772458156767643000,1.251642822265625,0.1779194474220276,0.3465239703655243,0.398404598236084
1772458156777712000,1.261712158203125,0.19173134863376617,0.2829638421535492,0.5255862474441528
1772458156787780000,1.271780029296875,0.19752824306488037,0.20981934666633606,0.6179103255271912
1772458156797848800,1.281848876953125,0.19309675693511963,0.11869769543409348,0.6633052229881287
1772458156807917000,1.2919169921875,0.16806145012378693,0.04309268668293953,0.6708614230155945
1772458156817986000,1.301986083984375,0.11000752449035645,-0.0010430286638438702,0.6505129933357239
1772458156828054000,1.312053955078125,0.034607574343681335,-0.027617916464805603,0.6274194121360779
1772458156838123000,1.322123046875,-0.05862479656934738,-0.04929913580417633,0.6138162612915039
1772458156848191000,1.33219091796875,-0.1572277992963791,-0.06804300099611282,0.6120092868804932
1772458156858260200,1.34226025390625,-0.24597229063510895,-0.06024254858493805,0.6267691850662231
1772458156868328200,1.352328125,-0.31664031744003296,-0.03491349518299103,0.6574637293815613
1772458156878397000,1.36239697265625,-0.3676396310329437,0.0006513879634439945,0.6757416725158691
1772458156888465000,1.37246484375,-0.3894786238670349,0.034096695482730865,0.6871333122253418
1772458156898534100,1.3825341796875,-0.3890337646007538,0.0557970367372036,0.6784620881080627
1772458156908602000,1.39260205078125,-0.376613050699234,0.05104782059788704,0.6456050872802734
1772458156918671000,1.402671142578125,-0.35807862877845764,0.009697879664599895,0.5855947136878967
1772458156928739000,1.412739013671875,-0.3322472870349884,-0.05862338840961456,0.5074618458747864
1772458156938808000,1.42280810546875,-0.31164121627807617,-0.14496350288391113,0.4097674787044525
1772458156948876000,1.4328759765625,-0.2958276569843292,-0.23292185366153717,0.3019501864910126
1772458156958944000,1.442944091796875,-0.2871067225933075,-0.2909916639328003,0.20047371089458466
1772458156969013000,1.453012939453125,-0.27915453910827637,-0.31431376934051514,0.10000408440828323
1772458156979081200,1.463081298828125,-0.27681490778923035,-0.32104620337486267,0.011944448575377464
1772458156989150000,1.47314990234375,-0.2650589048862457,-0.29919445514678955,-0.06373193860054016
1772458156999218000,1.483218017578125,-0.253332257270813,-0.2416614294052124,-0.10412675142288208
1772458157009287200,1.493287109375,-0.2342669814825058,-0.1427508294582367,-0.12015312910079956
1772458157019355100,1.503355224609375,-0.2084353268146515,-0.011443889699876308,-0.10668524354696274
1772458157029423900,1.513423828125,-0.18311184644699097,0.13793760538101196,-0.0650099664926529
1772458157039492000,1.5234921875,-0.15828503668308258,0.312794953584671,-0.002999286400154233
1772458157049561000,1.53356103515625,-0.13742582499980927,0.4642601013183594,0.0688895508646965
1772458157059629000,1.543629150390625,-0.11529223620891571,0.5570380091667175,0.12114741653203964
1772458157069698000,1.553697998046875,-0.09209743142127991,0.5706436038017273,0.15840184688568115
1772458157079766000,1.56376611328125,-0.07719656080007553,0.5512003302574158,0.18440280854701996
1772458157089835000,1.5738349609375,-0.0737171396613121,0.5434383153915405,0.18939943611621857
1772458157099903200,1.5839033203125,-0.07734078913927078,0.5254996418952942,0.1622234284877777
1772458157109972000,1.593971923828125,-0.07782948017120361,0.4780309200286865,0.10045913606882095
1772458157120040000,1.6040400390625,-0.07453921437263489,0.40090861916542053,0.015258272178471088
1772458157130109200,1.614109130859375,-0.06545969843864441,0.29219892621040344,-0.08568352460861206
1772458157140177000,1.624177001953125,-0.06363434344530106,0.16282522678375244,-0.1901753842830658
1772458157150244900,1.634244873046875,-0.06636648625135422,0.010011456906795502,-0.2865264117717743
1772458157160314000,1.644314208984375,-0.08672530204057693,-0.16128867864608765,-0.36868995428085327
1772458157170382000,1.654382080078125,-0.11782782524824142,-0.33682507276535034,-0.4389478862285614
1772458157180451000,1.664451171875,-0.16893510520458221,-0.4819459319114685,-0.5131161212921143
1772458157190519000,1.67451904296875,-0.21511459350585938,-0.5659177899360657,-0.5961902737617493
1772458157200588000,1.684588134765625,-0.25707292556762695,-0.5878206491470337,-0.6706689596176147
1772458157210656000,1.694656005859375,-0.29968616366386414,-0.5401455760002136,-0.7094126343727112
1772458157220725000,1.70472509765625,-0.3420976400375366,-0.41370540857315063,-0.7027611136436462
1772458157230793000,1.71479296875,-0.37363505363464355,-0.22931747138500214,-0.6584929823875427
1772458157240862200,1.7248623046875,-0.38017117977142334,-0.0075764963403344154,-0.5834057331085205
1772458157250930200,1.73493017578125,-0.352852463722229,0.19302929937839508,-0.5091898441314697
1772458157260999000,1.7449990234375,-0.28261837363243103,0.34827709197998047,-0.437185138463974
1772458157271067100,1.755067138671875,-0.18361614644527435,0.45357954502105713,-0.3746964633464813
1772458157281136000,1.76513623046875,-0.07548371702432632,0.5025341510772705,-0.32445353269577026
1772458157291204000,1.7752041015625,0.014764687046408653,0.5060197114944458,-0.2690296769142151
1772458157301273000,1.785273193359375,0.08125629276037216,0.477673202753067,-0.21294958889484406
1772458157311341000,1.795341064453125,0.131358340382576,0.4253985583782196,-0.15560027956962585
1772458157321409000,1.805408935546875,0.16805975139141083,0.3717189133167267,-0.09420964121818542
1772458157331478000,1.81547802734375,0.1859162449836731,0.3221535086631775,-0.025897424668073654
1772458157341546000,1.8255458984375,0.1897255778312683,0.26872193813323975,0.034235116094350815
1772458157351615000,1.835614990234375,0.1841941922903061,0.1990419179201126,0.07641266286373138
1772458157361683200,1.84568310546875,0.16979148983955383,0.12117209285497665,0.10145280510187149
1772458157371752000,1.855751953125,0.15134990215301514,0.04859829321503639,0.10163203626871109
1772458157381820000,1.86581982421875,0.13926886022090912,-0.013535271398723125,0.09228404611349106
1772458157391889200,1.87588916015625,0.12883326411247253,-0.062302276492118835,0.06739974021911621
1772458157401957000,1.88595703125,0.11519626528024673,-0.11589333415031433,0.03016022965312004
1772458157412025900,1.89602587890625,0.09937921911478043,-0.16668088734149933,-0.017314080148935318
1772458157422094000,1.906093994140625,0.0682055875658989,-0.19693413376808167,-0.056227657943964005
1772458157432163000,1.9161630859375,0.028752457350492477,-0.19445978105068207,-0.08601325005292892
1772458157442231000,1.92623095703125,-0.01764512248337269,-0.1905137598514557,-0.10598354041576385
1772458157452300000,1.936300048828125,-0.07019408047199249,-0.20124070346355438,-0.1136944591999054
1772458157462368000,1.946367919921875,-0.12934602797031403,-0.2218170315027237,-0.10774176567792892
1772458157472437200,1.956437255859375,-0.19300542771816254,-0.23556213080883026,-0.09641800820827484
1772458157482505000,1.9665048828125,-0.25581663846969604,-0.25080606341362,-0.07754494249820709
1772458157492574000,1.976573974609375,-0.31607785820961,-0.25476112961769104,-0.057519566267728806
1772458157502641700,1.9866416015625,-0.3729080557823181,-0.25381937623023987,-0.03476712480187416
1772458157512710000,1.9967099609375,-0.42248332500457764,-0.2584221363067627,-0.01839188113808632
1772458157522778600,2.006778564453125,-0.4662066698074341,-0.24822445213794708,-0.004031879361718893
1772458157532846600,2.0168466796875,-0.49545857310295105,-0.2169693410396576,0.009908437728881836
1772458157542915800,2.026915771484375,-0.5182414054870605,-0.18061301112174988,0.022667966783046722
1772458157552983800,2.03698388671875,-0.5365908741950989,-0.12815512716770172,0.043389756232500076
1772458157563052500,2.047052490234375,-0.5422794222831726,-0.059040263295173645,0.07566853612661362
1772458157573120800,2.057120849609375,-0.5351016521453857,0.025738809257745743,0.11456373333930969
1772458157583189800,2.067189697265625,-0.505781352519989,0.04170684888958931,0.13269323110580444
1772458157593257700,2.0772578125,-0.48031941056251526,-0.0446179173886776,0.10210363566875458
1772458157603326700,2.08732666015625,-0.45670458674430847,-0.13569054007530212,0.07526038587093353
1772458157613394700,2.097394775390625,-0.45296868681907654,-0.19423268735408783,0.047943271696567535
1772458157623463700,2.107463623046875,-0.4700612723827362,-0.22154779732227325,0.02182343602180481
1772458157633532000,2.117531982421875,-0.4963594377040863,-0.21914881467819214,0.005926493555307388
1772458157643600600,2.1276005859375,-0.5164687037467957,-0.19912052154541016,-0.001909833401441574
1772458157653668600,2.137668701171875,-0.5338042974472046,-0.18301533162593842,-0.00886334665119648
1772458157663737900,2.14773779296875,-0.5434401035308838,-0.17811983823776245,-0.030388647690415382
1772458157673805800,2.157805908203125,-0.5499441027641296,-0.18850590288639069,-0.05715261772274971
1772458157683874800,2.167874755859375,-0.5489041209220886,-0.216205433011055,-0.09428669512271881
1772458157693942800,2.17794287109375,-0.5462992787361145,-0.25988444685935974,-0.13666130602359772
1772458157704010800,2.1880107421875,-0.5459524989128113,-0.30414384603500366,-0.17032358050346375
1772458157714079700,2.198079833984375,-0.5476779937744141,-0.33848556876182556,-0.19350959360599518
1772458157724147700,2.208147705078125,-0.5532259345054626,-0.37545743584632874,-0.21600459516048431
1772458157734216700,2.218216796875,-0.5525447130203247,-0.4219825863838196,-0.2179044932126999
1772458157744284700,2.22828466796875,-0.5490102171897888,-0.46890437602996826,-0.21535368263721466
1772458157754353700,2.238353759765625,-0.5312352180480957,-0.5047198534011841,-0.19466544687747955
1772458157764421600,2.248421630859375,-0.4976124167442322,-0.5153447389602661,-0.15264792740345
1772458157774491000,2.258490966796875,-0.4557301998138428,-0.5140770673751831,-0.09524188190698624
1772458157784558800,2.268558837890625,-0.4076204299926758,-0.4884403645992279,-0.011874869465827942
1772458157794627600,2.278627685546875,-0.36236587166786194,-0.43806400895118713,0.08865014463663101
1772458157804695800,2.28869580078125,-0.3096078634262085,-0.36574772000312805,0.2072412371635437
1772458157814764800,2.298764892578125,-0.254468709230423,-0.2642352283000946,0.34280863404273987
1772458157824832800,2.308832763671875,-0.19794736802577972,-0.1462382972240448,0.48039719462394714
1772458157834901800,2.31890185546875,-0.15142939984798431,-0.040435973554849625,0.6060483455657959
1772458157844969700,2.3289697265625,-0.12470059096813202,0.04549945890903473,0.7065067291259766
1772458157855038700,2.339038818359375,-0.11204364150762558,0.1059207171201706,0.7849919199943542
1772458157865107000,2.34910693359375,-0.10772059857845306,0.1410544067621231,0.8248696327209473
1772458157875174700,2.359174560546875,-0.11488530039787292,0.14333726465702057,0.830041229724884
1772458157885243600,2.36924365234375,-0.12080053985118866,0.13812057673931122,0.8055834770202637
1772458157895312000,2.379311767578125,-0.1306569129228592,0.15745139122009277,0.7567659020423889
1772458157905380600,2.389380615234375,-0.139259934425354,0.18356505036354065,0.6833814382553101
1772458157915448600,2.399448486328125,-0.13828815519809723,0.20381572842597961,0.5860354900360107
1772458157925517800,2.409517822265625,-0.13727912306785583,0.19632261991500854,0.4634557366371155
1772458157935585800,2.419585693359375,-0.13660240173339844,0.1567741334438324,0.332364022731781
1772458157945654500,2.429654541015625,-0.13769686222076416,0.10893642157316208,0.19981157779693604
1772458157955722800,2.43972265625,-0.14806029200553894,0.05304732173681259,0.07790938019752502
1772458157965791700,2.449791748046875,-0.1669343262910843,-0.017340226098895073,-0.03815973550081253
1772458157975859700,2.459859619140625,-0.17499758303165436,-0.07310974597930908,-0.14331305027008057
1772458157985928700,2.4699287109375,-0.17179447412490845,-0.0928303450345993,-0.23935598134994507
1772458157995996700,2.47999658203125,-0.16844342648983002,-0.09085693955421448,-0.3169189691543579
1772458158006066000,2.49006591796875,-0.1652395874261856,-0.04649581015110016,-0.37821000814437866
1772458158016134000,2.5001337890625,-0.16164830327033997,0.03443073108792305,-0.4114510715007782
1772458158026202600,2.51020263671875,-0.1450597494840622,0.13852889835834503,-0.42875173687934875
1772458158036270800,2.520270751953125,-0.10987114161252975,0.23068012297153473,-0.4231433868408203
1772458158046338800,2.5303388671875,-0.0550784170627594,0.30900827050209045,-0.4002857208251953
1772458158056407800,2.54040771484375,0.007811333984136581,0.33078283071517944,-0.36528512835502625
1772458158066475500,2.5504755859375,0.062157031148672104,0.3081008493900299,-0.31859248876571655
1772458158076544800,2.560544677734375,0.11280716210603714,0.2474694401025772,-0.2634197771549225
1772458158086612700,2.57061279296875,0.15463653206825256,0.17068322002887726,-0.20481134951114655
1772458158096681700,2.580681640625,0.18944431841373444,0.08617047220468521,-0.14906392991542816
1772458158106749700,2.590749755859375,0.21655799448490143,0.0006478861905634403,-0.09526164829730988
1772458158116818700,2.600818603515625,0.2336597591638565,-0.0864819586277008,-0.05935344845056534
1772458158126887000,2.610886962890625,0.2435658723115921,-0.15430739521980286,-0.0388718917965889
1772458158136955600,2.62095556640625,0.2505611777305603,-0.1928824782371521,-0.03827746957540512
1772458158147023600,2.631023681640625,0.25457414984703064,-0.19432634115219116,-0.054593853652477264
1772458158157092900,2.6410927734375,0.25836381316185,-0.1772509515285492,-0.0910397469997406
1772458158167160800,2.651160888671875,0.2549411356449127,-0.1535232663154602,-0.1524604707956314
1772458158177229600,2.6612294921875,0.24674071371555328,-0.12026651203632355,-0.21253179013729095
1772458158187297800,2.6712978515625,0.22997824847698212,-0.08649468421936035,-0.2842606008052826
1772458158197366800,2.68136669921875,0.21349728107452393,-0.05412370339035988,-0.346922904253006
1772458158207434800,2.691434814453125,0.20127905905246735,-0.01953553408384323,-0.4014854431152344
1772458158217502700,2.701502685546875,0.19076409935951233,0.0017748137470334768,-0.44888758659362793
1772458158227571700,2.71157177734375,0.1901465803384781,0.013813166879117489,-0.4844890236854553
1772458158237639700,2.7216396484375,0.19845589995384216,0.009859170764684677,-0.505061149597168
1772458158247708700,2.731708740234375,0.22137334942817688,-0.0070315091870725155,-0.5005675554275513
1772458158257776600,2.741776611328125,0.2483208179473877,-0.03347510099411011,-0.46763384342193604
1772458158267845600,2.751845703125,0.27438884973526,-0.055200397968292236,-0.42103472352027893
1772458158277913900,2.761913818359375,0.30512893199920654,-0.06558059900999069,-0.3610944151878357
1772458158287982600,2.771982666015625,0.33095669746398926,-0.07094085961580276,-0.2927478551864624
1772458158298050600,2.782050537109375,0.3523320257663727,-0.0754016563296318,-0.22927698493003845
1772458158308119800,2.792119873046875,0.3651524782180786,-0.08600369840860367,-0.1685129702091217
1772458158318187800,2.802187744140625,0.3690081834793091,-0.07851542532444,-0.10965365171432495
1772458158328256800,2.8122568359375,0.36823514103889465,-0.04742775484919548,-0.05092483386397362
1772458158338324700,2.82232470703125,0.3699456751346588,-0.0034080990590155125,0.008805607445538044
1772458158348393700,2.832393798828125,0.37286365032196045,0.04888993501663208,0.0601700022816658
1772458158358462000,2.8424619140625,0.37463706731796265,0.0855049341917038,0.10447248816490173
1772458158368530700,2.85253076171875,0.3645695745944977,0.11703360825777054,0.14069204032421112
1772458158378598700,2.8625986328125,0.3539709746837616,0.14141005277633667,0.17134477198123932
1772458158388666600,2.87266650390625,0.3416517972946167,0.15848124027252197,0.19734011590480804
1772458158398736000,2.88273583984375,0.33539628982543945,0.1841152310371399,0.22596430778503418
1772458158408803600,2.892803466796875,0.3414316475391388,0.2524688243865967,0.2607143521308899
1772458158418872800,2.902872802734375,0.356476366519928,0.321261465549469,0.2863193154335022
1772458158428940800,2.91294091796875,0.36986902356147766,0.30276060104370117,0.2972456216812134
1772458158439009800,2.923009765625,0.36901041865348816,0.22773884236812592,0.2778751254081726
1772458158449077800,2.933077880859375,0.3606266975402832,0.1864379346370697,0.26238784193992615
1772458158459146800,2.943146728515625,0.33966201543807983,0.18935489654541016,0.2465508133172989
1772458158469214700,2.953214599609375,0.30713415145874023,0.20998799800872803,0.23263798654079437
1772458158479283700,2.96328369140625,0.2669087052345276,0.2201564759016037,0.19973541796207428
1772458158489351700,2.9733515625,0.22241953015327454,0.1889849454164505,0.1548597514629364
1772458158499421000,2.9834208984375,0.17356090247631073,0.15341496467590332,0.08814782649278641
1772458158509489000,2.993489013671875,0.12113801389932632,0.12786683440208435,0.021673204377293587
1772458158519558000,3.003557861328125,0.07157605141401291,0.10996346920728683,-0.048677124083042145
1772458158529625900,3.0136259765625,0.03148370236158371,0.10752448439598083,-0.10233821719884872
1772458158539694800,3.02369482421875,0.0017234102124348283,0.11058152467012405,-0.14473120868206024
1772458158549763000,3.03376318359375,-0.015859955921769142,0.1279745250940323,-0.17551253736019135
1772458158559831800,3.043831787109375,-0.007885387167334557,0.1682867854833603,-0.17487044632434845
1772458158569899800,3.053899658203125,0.02752958983182907,0.23102791607379913,-0.16576240956783295
1772458158579968000,3.063968017578125,0.09906449168920517,0.3075597286224365,-0.14077609777450562
1772458158590037000,3.074037109375,0.19665540754795074,0.38609492778778076,-0.08850736171007156
1772458158600104700,3.084104736328125,0.2979540526866913,0.4451633095741272,-0.016858210787177086
1772458158610174000,3.094174072265625,0.38094639778137207,0.48255088925361633,0.0713566243648529
1772458158620242000,3.104241943359375,0.4315507411956787,0.48347368836402893,0.15345683693885803
1772458158630310700,3.114310546875,0.4554184675216675,0.4641800820827484,0.2334565967321396
1772458158640379000,3.12437890625,0.4615993797779083,0.4428103566169739,0.31447046995162964
1772458158650448000,3.13444775390625,0.4486684203147888,0.4229860305786133,0.380530446767807
1772458158660515800,3.144515869140625,0.4341312646865845,0.39717626571655273,0.4277712106704712
1772458158670584800,3.154584716796875,0.4179643988609314,0.3599235713481903,0.44996702671051025
1772458158680652800,3.16465283203125,0.3961254060268402,0.31093257665634155,0.4671308398246765
1772458158690722000,3.17472216796875,0.3733045160770416,0.2645949125289917,0.46891674399375916
1772458158700790000,3.1847900390625,0.36111655831336975,0.1989852637052536,0.44872358441352844
1772458158710858000,3.19485791015625,0.3675433099269867,0.13523665070533752,0.4145943820476532
1772458158720926700,3.2049267578125,0.38760730624198914,0.07636161148548126,0.3682790994644165
1772458158730995000,3.214994873046875,0.414201021194458,-0.0108050387352705,0.28848788142204285
1772458158741064000,3.22506396484375,0.43181997537612915,-0.13530568778514862,0.18405495584011078
1772458158751131600,3.235131591796875,0.43189287185668945,-0.29928454756736755,0.03603271394968033
1772458158761201000,3.245200927734375,0.39430156350135803,-0.49433714151382446,-0.15459901094436646
1772458158771268900,3.255268798828125,0.33159083127975464,-0.6336342096328735,-0.3513834774494171
1772458158781337900,3.265337890625,0.25313785672187805,-0.6569445729255676,-0.5243512988090515
1772458158791405800,3.27540576171875,0.1814393848180771,-0.5912314653396606,-0.6398682594299316
1772458158801474800,3.285474853515625,0.11935178935527802,-0.4358533024787903,-0.6726901531219482
1772458158811543000,3.29554296875,0.053011901676654816,-0.20674049854278564,-0.6397987604141235
1772458158821611800,3.30561181640625,-0.0027645418886095285,0.053099073469638824,-0.5637977719306946
1772458158831679700,3.3156796875,-0.02431296929717064,0.2828635573387146,-0.4711993634700775
1772458158841749000,3.3257490234375,0.004909895826131105,0.4378882944583893,-0.3909743130207062
1772458158851817000,3.33581689453125,0.06881015747785568,0.49642786383628845,-0.3269420564174652
1772458158861885700,3.3458857421875,0.14033199846744537,0.46715787053108215,-0.28867751359939575
1772458158871954000,3.355953857421875,0.20183895528316498,0.3869212865829468,-0.2685307562351227
1772458158882022000,3.36602197265625,0.2614021599292755,0.28882214426994324,-0.2569819390773773
1772458158892091000,3.3760908203125,0.3158987760543823,0.1957322359085083,-0.25372645258903503
1772458158902158800,3.386158935546875,0.3671222925186157,0.12614595890045166,-0.24404264986515045
1772458158912227800,3.396227783203125,0.40508419275283813,0.09471708536148071,-0.24130278825759888
1772458158922295800,3.4062958984375,0.4326692223548889,0.09145338833332062,-0.24348710477352142
1772458158932365000,3.416364990234375,0.4432571232318878,0.0940622091293335,-0.24718327820301056
1772458158942432800,3.426432861328125,0.4488915801048279,0.09222595393657684,-0.2560822367668152
1772458158952501800,3.436501708984375,0.4462614953517914,0.08141463249921799,-0.2695780396461487
1772458158962570000,3.446570068359375,0.44257089495658875,0.07683319598436356,-0.2777877748012543
1772458158972638700,3.456638671875,0.43666359782218933,0.07573984563350677,-0.27919667959213257
1772458158982706700,3.466706787109375,0.429738312959671,0.06540650874376297,-0.28378185629844666
1772458158992776000,3.47677587890625,0.4269804358482361,0.04895251244306564,-0.2867916524410248
1772458159002844000,3.486843994140625,0.42285412549972534,0.028385451063513756,-0.29278457164764404
1772458159012913000,3.496912841796875,0.4269085228443146,0.01506195031106472,-0.2978992164134979
1772458159022980900,3.50698095703125,0.4207316040992737,0.008549190126359463,-0.2886516749858856
1772458159033048800,3.517048828125,0.41248011589050293,0.004574974998831749,-0.2733549177646637
1772458159043117800,3.527117919921875,0.40029293298721313,0.005395761225372553,-0.25200754404067993
1772458159053186000,3.53718603515625,0.3745197057723999,0.0235510915517807,-0.23350825905799866
1772458159063254800,3.5472548828125,0.3311873972415924,0.0565926656126976,-0.21508823335170746
1772458159073322800,3.55732275390625,0.2887243330478668,0.11028171330690384,-0.20203977823257446
1772458159083392000,3.56739208984375,0.24550789594650269,0.18061606585979462,-0.18094781041145325
1772458159093460000,3.5774599609375,0.2103179544210434,0.24753783643245697,-0.159578338265419
1772458159103529000,3.587529052734375,0.1768960803747177,0.2879425287246704,-0.13373689353466034
1772458159113597000,3.597596923828125,0.14394985139369965,0.32039153575897217,-0.10300563275814056
1772458159123666000,3.607666015625,0.11143346130847931,0.33723336458206177,-0.07895463705062866
1772458159133734000,3.61773388671875,0.09158789366483688,0.33804914355278015,-0.060620080679655075
1772458159143803000,3.627802978515625,0.07691387832164764,0.3168887495994568,-0.03478609025478363
1772458159153870800,3.637870849609375,0.06440016627311707,0.27876418828964233,-0.014039521105587482
1772458159163939800,3.64793994140625,0.05388573557138443,0.23082810640335083,0.006775746122002602
1772458159174007800,3.6580078125,0.046061623841524124,0.18169675767421722,0.02963876724243164
1772458159184075800,3.66807568359375,0.04260191321372986,0.11511240899562836,0.041105806827545166
1772458159194145000,3.67814501953125,0.04923254996538162,0.02637231908738613,0.048309627920389175
1772458159204213000,3.688212890625,0.06519154459238052,-0.08229956775903702,0.0420815572142601
1772458159214281700,3.69828173828125,0.0840718150138855,-0.19536881148815155,0.03862130641937256
1772458159224350000,3.708349853515625,0.10247452557086945,-0.27956730127334595,0.034067295491695404
1772458159234419000,3.7184189453125,0.11737288534641266,-0.32939839363098145,0.03469791263341904
1772458159244487000,3.72848681640625,0.12644174695014954,-0.36397209763526917,0.04416491836309433
1772458159254556000,3.738555908203125,0.13523773849010468,-0.3853435814380646,0.05181674286723137
1772458159264623900,3.748623779296875,0.1448107361793518,-0.3655019700527191,0.06911531090736389
1772458159274692900,3.75869287109375,0.16590569913387299,-0.30695709586143494,0.10324551910161972
1772458159284760800,3.7687607421875,0.18431586027145386,-0.3444269895553589,0.11215858161449432
1772458159294829800,3.778829833984375,0.18867658078670502,-0.4830079972743988,0.07142768800258636
1772458159304897800,3.788897705078125,0.17338444292545319,-0.5854344964027405,0.0276357289403677
1772458159314966000,3.798966064453125,0.14276553690433502,-0.6198305487632751,-0.0023634489625692368
1772458159325034800,3.80903466796875,0.10900438576936722,-0.6280538439750671,-0.028995059430599213
1772458159335102700,3.819102783203125,0.07527721673250198,-0.6086499094963074,-0.04134603217244148
1772458159345172000,3.829171875,0.055798329412937164,-0.5601028800010681,-0.026079729199409485
1772458159355240000,3.839239990234375,0.045427750796079636,-0.48394495248794556,0.011800342239439487
1772458159365308700,3.84930859375,0.044637590646743774,-0.41921842098236084,0.053274013102054596
1772458159375377000,3.859376953125,0.04143747687339783,-0.3983408808708191,0.08598297089338303
1772458159385446000,3.86944580078125,0.036789461970329285,-0.4014272093772888,0.10072144120931625
1772458159395513900,3.879513916015625,0.03380364552140236,-0.41290295124053955,0.10392864048480988
1772458159405582800,3.889582763671875,0.03503189608454704,-0.4121878743171692,0.10529537498950958
1772458159415650800,3.89965087890625,0.04248299077153206,-0.38131028413772583,0.10304393619298935
1772458159425720000,3.909719970703125,0.05506988987326622,-0.3171667158603668,0.11423693597316742
1772458159435788000,3.9197880859375,0.061986230313777924,-0.21348734200000763,0.1515326201915741
1772458159445856800,3.929856689453125,0.07311371713876724,-0.07149451225996017,0.20732878148555756
1772458159455925000,3.939925048828125,0.08361221104860306,0.07436605542898178,0.2847016453742981
1772458159465993000,3.949992919921875,0.10160879045724869,0.2167559564113617,0.37164559960365295
1772458159476061700,3.960061767578125,0.12911228835582733,0.33247295022010803,0.45564016699790955
1772458159486129700,3.970129638671875,0.17302942276000977,0.41882649064064026,0.532095193862915
1772458159496196900,3.98019677734375,0.22554761171340942,0.4425947964191437,0.5930776000022888
1772458159506266400,3.990266357421875,0.2834146320819855,0.41230881214141846,0.6361217498779297
1772458159516334300,4.000334228515625,0.3416053056716919,0.36949267983436584,0.6733758449554443
1772458159526403000,4.010403076171875,0.39385226368904114,0.3400873839855194,0.706124484539032
1772458159536471300,4.02047119140625,0.4245104193687439,0.33611831068992615,0.7280635833740234
1772458159546540300,4.030540283203125,0.4300295412540436,0.3521342873573303,0.7368203401565552
1772458159556608300,4.040608154296875,0.4222051203250885,0.3630468249320984,0.7195963263511658
1772458159566676500,4.050676513671875,0.4102102518081665,0.35324957966804504,0.6783820390701294
1772458159576745200,4.0607451171875,0.4094764292240143,0.34130120277404785,0.6157610416412354
1772458159586813200,4.070813232421875,0.4176882803440094,0.3198891282081604,0.5305742025375366
1772458159596882400,4.08088232421875,0.43508198857307434,0.30804184079170227,0.435275673866272
1772458159606950400,4.090950439453125,0.4534074664115906,0.3283817172050476,0.3312757611274719
1772458159617019100,4.10101904296875,0.48191139101982117,0.35476335883140564,0.2220081388950348
1772458159627087400,4.11108740234375,0.5226324200630188,0.3799275755882263,0.10278214514255524
1772458159637156400,4.12115625,0.568497359752655,0.38625630736351013,-0.020631669089198112
1772458159647224000,4.13122412109375,0.61176598072052,0.3786017596721649,-0.1411013901233673
1772458159657293300,4.141293212890625,0.6334190964698792,0.37306109070777893,-0.24671059846878052
1772458159667361300,4.151361328125,0.645388126373291,0.36725831031799316,-0.3389776945114136
1772458159677430300,4.16143017578125,0.6624324917793274,0.3690994679927826,-0.39871421456336975
1772458159687498200,4.171498291015625,0.6934889554977417,0.38137078285217285,-0.42251116037368774
1772458159697566200,4.181566162109375,0.7388340830802917,0.37831488251686096,-0.4228624999523163
1772458159707635500,4.191635498046875,0.804862916469574,0.3715786635875702,-0.4019750654697418
1772458159717703400,4.201703369140625,0.8732917308807373,0.36823803186416626,-0.3553790748119354
1772458159727772200,4.211772216796875,0.9388893842697144,0.36934056878089905,-0.28650039434432983
1772458159737840000,4.221840087890625,0.9797298908233643,0.3892744183540344,-0.20494423806667328
1772458159747909400,4.231909423828125,0.9998285174369812,0.4081583619117737,-0.13275499641895294
1772458159757977300,4.241977294921875,1.0099159479141235,0.4068502187728882,-0.07457398623228073
1772458159768046300,4.25204638671875,1.013586401939392,0.3843590021133423,-0.023998161777853966
1772458159778114300,4.2621142578125,1.0183520317077637,0.3545996844768524,0.020946405827999115
1772458159788183300,4.272183349609375,1.0058658123016357,0.3222697079181671,0.054225265979766846
1772458159798251300,4.282251220703125,0.9872967600822449,0.29389867186546326,0.07459685206413269
1772458159808320300,4.2923203125,0.9579042792320251,0.2781223654747009,0.08825406432151794
1772458159818388200,4.30238818359375,0.9184331297874451,0.272077351808548,0.0838916003704071
1772458159828457500,4.31245751953125,0.8813400864601135,0.2616923749446869,0.06315356492996216
1772458159838525200,4.322525146484375,0.8347493410110474,0.2491767704486847,0.02409875951707363
1772458159848593200,4.33259326171875,0.7880564332008362,0.25560882687568665,-0.026985464617609978
1772458159858662400,4.342662353515625,0.7340054512023926,0.27401241660118103,-0.0802452340722084
1772458159868730400,4.35273046875,0.6795936226844788,0.2661994993686676,-0.12536051869392395
1772458159878799000,4.362799072265625,0.6253991723060608,0.22838933765888214,-0.16438667476177216
1772458159888867300,4.372867431640625,0.5793941020965576,0.1983446180820465,-0.19585566222667694
1772458159898936300,4.382936279296875,0.5435681343078613,0.18603721261024475,-0.22908103466033936
1772458159909004300,4.39300439453125,0.5272424221038818,0.21865934133529663,-0.26378950476646423
1772458159919073300,4.4030732421875,0.5261843800544739,0.2810841500759125,-0.30112990736961365
1772458159929141200,4.413141357421875,0.5401915311813354,0.36400991678237915,-0.33395496010780334
1772458159939210200,4.423210205078125,0.5711925029754639,0.4403165876865387,-0.3647906482219696
1772458159949278500,4.433278564453125,0.6153186559677124,0.48477140069007874,-0.3908270299434662
1772458159959347200,4.44334716796875,0.6771951913833618,0.48873403668403625,-0.41021037101745605
1772458159969415200,4.453415283203125,0.7377259135246277,0.4803360104560852,-0.4145981967449188
1772458159979483400,4.4634833984375,0.7971832752227783,0.48388779163360596,-0.3921160101890564
1772458159989552400,4.473552490234375,0.8557568788528442,0.49621155858039856,-0.34541055560112
1772458159999620000,4.4836201171875,0.9144576191902161,0.4958378076553345,-0.2885656952857971
1772458160009689300,4.493689453125,0.9713835120201111,0.4691164493560791,-0.2296544760465622
1772458160019757300,4.50375732421875,1.026682734489441,0.4163655638694763,-0.17792785167694092
1772458160029826300,4.513826416015625,1.0606448650360107,0.3495599031448364,-0.1368722915649414
1772458160039894300,4.523894287109375,1.0933088064193726,0.3116433322429657,-0.09920370578765869
1772458160049963300,4.53396337890625,1.1195118427276611,0.29633787274360657,-0.07612821459770203
1772458160060031200,4.54403125,1.1459614038467407,0.282187283039093,-0.07065390050411224
1772458160070100200,4.554100341796875,1.177781105041504,0.22324515879154205,-0.09209554642438889
1772458160080168200,4.564168212890625,1.2019222974777222,0.11077921837568283,-0.14672225713729858
1772458160090237400,4.574237548828125,1.2205039262771606,0.021432289853692055,-0.19191688299179077
1772458160100305400,4.584305419921875,1.2287811040878296,-0.013590607792139053,-0.20335520803928375
1772458160110373400,4.594373291015625,1.225389003753662,0.0255954097956419,-0.17459386587142944
1772458160120442400,4.6044423828125,1.2088696956634521,0.13092710077762604,-0.09899364411830902
1772458160130510300,4.61451025390625,1.1965123414993286,0.2682915925979614,-0.017961636185646057
1772458160140579300,4.624579345703125,1.187735915184021,0.4158749282360077,0.051434509456157684
1772458160150647300,4.634647216796875,1.1937154531478882,0.567793071269989,0.11534291505813599
1772458160160716300,4.64471630859375,1.2125155925750732,0.6682497262954712,0.16617415845394135
1772458160170784300,4.6547841796875,1.2318520545959473,0.6699684858322144,0.2066936194896698
1772458160180853200,4.664853271484375,1.243875503540039,0.5679723620414734,0.2434968799352646
1772458160190921200,4.674921142578125,1.2510169744491577,0.4092048406600952,0.2710137367248535
1772458160200990200,4.684990234375,1.2437427043914795,0.23653773963451385,0.3005300462245941
1772458160211058400,4.695058349609375,1.2289451360702515,0.08485473692417145,0.3260473906993866
1772458160221127200,4.705127197265625,1.2065244913101196,-0.033050186932086945,0.341580331325531
1772458160231195100,4.715195068359375,1.181649923324585,-0.15492255985736847,0.340385377407074
1772458160241263400,4.725263427734375,1.1628363132476807,-0.29332685470581055,0.3337807059288025
1772458160251332400,4.735332275390625,1.146323323249817,-0.4219074845314026,0.3221730589866638
1772458160261400300,4.745400390625,1.126417636871338,-0.5124409794807434,0.3189760446548462
1772458160271469300,4.75546923828125,1.0970392227172852,-0.5465787053108215,0.3106379508972168
1772458160281537300,4.765537353515625,1.0674183368682861,-0.5301278233528137,0.30730146169662476
1772458160291606300,4.775606201171875,1.0470118522644043,-0.47732481360435486,0.30845674872398376
1772458160301674200,4.78567431640625,1.0380033254623413,-0.3909933269023895,0.3140897750854492
1772458160311743200,4.7957431640625,1.0344834327697754,-0.28928428888320923,0.3242236375808716
1772458160321811200,4.805811279296875,1.0379897356033325,-0.18523657321929932,0.339417040348053
1772458160331880400,4.81588037109375,1.037743330001831,-0.06422840058803558,0.3513581454753876
1772458160341948200,4.8259482421875,1.0419062376022339,0.10580594092607498,0.35790783166885376
1772458160352017400,4.836017333984375,1.0556031465530396,0.3156217336654663,0.33998554944992065
1772458160362085400,4.84608544921875,1.0953928232192993,0.5376082062721252,0.30052611231803894
1772458160372154000,4.856154052734375,1.147578239440918,0.7213199734687805,0.24078208208084106
1772458160382222000,4.86622216796875,1.2131239175796509,0.8705911636352539,0.18030615150928497
1772458160392290300,4.876290283203125,1.2920576333999634,0.9792643785476685,0.10732381790876389
1772458160402359300,4.886359375,1.3740465641021729,1.0466794967651367,0.04884539544582367
1772458160412427300,4.89642724609375,1.4629572629928589,1.0674771070480347,0.012281790375709534
1772458160422496300,4.906496337890625,1.5520267486572266,1.0827696323394775,-0.017810411751270294
1772458160432564200,4.916564208984375,1.6416906118392944,1.111525297164917,-0.06297150254249573
1772458160442633500,4.926633544921875,1.7339558601379395,1.1159217357635498,-0.13628427684307098
1772458160452701400,4.936701416015625,1.8197935819625854,1.0614405870437622,-0.25656622648239136
1772458160462770200,4.946770263671875,1.8692126274108887,0.9418846368789673,-0.4076167345046997
1772458160472838400,4.95683837890625,1.8677122592926025,0.774836003780365,-0.5952204465866089
1772458160482907400,4.966907470703125,1.8597911596298218,0.6067097783088684,-0.7998188138008118
1772458160492975400,4.976975341796875,1.846611738204956,0.443625807762146,-0.9816333651542664
1772458160503043000,4.98704296875,1.8123055696487427,0.28559431433677673,-1.1315556764602661
1772458160513111800,4.99711181640625,1.753381609916687,0.1570001095533371,-1.216495394706726
1772458160523179800,5.0071796875,1.6586374044418335,0.14919672906398773,-1.2062827348709106
1772458160533249000,5.0172490234375,1.554483413696289,0.2895064353942871,-1.0996507406234741
1772458160543316700,5.027316650390625,1.4583518505096436,0.5258693695068359,-0.9357255697250366
1772458160553386000,5.037385986328125,1.3963940143585205,0.788867712020874,-0.7499272227287292
1772458160563454000,5.047453857421875,1.3757458925247192,1.017533302307129,-0.5827099084854126
1772458160573522700,5.057522705078125,1.39398193359375,1.164099931716919,-0.46291109919548035
1772458160583591000,5.0675908203125,1.4373784065246582,1.2318370342254639,-0.394577294588089
1772458160593660000,5.077659912109375,1.4909108877182007,1.258439064025879,-0.3616742193698883
1772458160603728000,5.087727783203125,1.546981930732727,1.2442642450332642,-0.33281275629997253
1772458160613796900,5.097796875,1.597881555557251,1.1943751573562622,-0.30615559220314026
1772458160623864800,5.10786474609375,1.6376274824142456,1.1214812994003296,-0.2695709764957428
1772458160633932800,5.117932861328125,1.6613998413085938,1.0321530103683472,-0.22349481284618378
1772458160644002000,5.128001953125,1.675168514251709,0.9447506070137024,-0.16423895955085754
1772458160654070000,5.138070068359375,1.683236002922058,0.8645747900009155,-0.07454609870910645
1772458160664138800,5.148138671875,1.6865582466125488,0.7886890172958374,0.02075001783668995
1772458160674207000,5.15820703125,1.6819195747375488,0.722438633441925,0.13053297996520996
1772458160684276000,5.16827587890625,1.6838434934616089,0.6790891885757446,0.23378410935401917
1772458160694343700,5.17834375,1.6795624494552612,0.6603431701660156,0.32454994320869446
1772458160704413000,5.188412841796875,1.6746711730957031,0.6530352830886841,0.3763854205608368
1772458160714481000,5.19848095703125,1.6664942502975464,0.6025579571723938,0.37397047877311707
1772458160724550000,5.2085498046875,1.6514290571212769,0.47014814615249634,0.31158244609832764
1772458160734617900,5.218617919921875,1.6251412630081177,0.3459470868110657,0.22255347669124603
1772458160744686800,5.228686767578125,1.573960542678833,0.3191356062889099,0.10861150920391083
1772458160754754800,5.2387548828125,1.5106366872787476,0.3696818947792053,-0.011967100203037262
1772458160764823000,5.248822998046875,1.453210711479187,0.4309004843235016,-0.13551276922225952
1772458160774891800,5.258891845703125,1.392927646636963,0.4819149374961853,-0.2517096698284149
1772458160784959700,5.268959716796875,1.335233211517334,0.5532639026641846,-0.3572950065135956
1772458160795029000,5.279029052734375,1.2789565324783325,0.6627307534217834,-0.4502001702785492
1772458160805097000,5.289096923828125,1.2517755031585693,0.8035882711410522,-0.5434898734092712
1772458160815165700,5.299165771484375,1.2561748027801514,0.9244206547737122,-0.6426258087158203
1772458160825234000,5.30923388671875,1.2803562879562378,0.9631442427635193,-0.7361706495285034
1772458160835303000,5.319302978515625,1.3185821771621704,0.9216048121452332,-0.7985559701919556
1772458160845371000,5.329370849609375,1.3759082555770874,0.8272827863693237,-0.8208186626434326
1772458160855440000,5.33943994140625,1.4551469087600708,0.6963828802108765,-0.7938467264175415
1772458160865507800,5.3495078125,1.5527379512786865,0.5639649629592896,-0.7246095538139343
1772458160875575800,5.359575927734375,1.6612803936004639,0.469234436750412,-0.6234935522079468
1772458160885644800,5.369644775390625,1.7799229621887207,0.4220466911792755,-0.4898549020290375
1772458160895712800,5.379712646484375,1.8962393999099731,0.39596474170684814,-0.3463302254676819
1772458160905782000,5.389781982421875,2.0051400661468506,0.36464083194732666,-0.19699901342391968
1772458160915850000,5.39985009765625,2.1062850952148438,0.31122687458992004,-0.06376586109399796
1772458160925918700,5.409918701171875,2.1890954971313477,0.24248144030570984,0.05096947401762009
1772458160935986700,5.419986572265625,2.2338714599609375,0.17256468534469604,0.142927348613739
1772458160946056000,5.430055908203125,2.2506895065307617,0.11700412631034851,0.20730216801166534
1772458160956124000,5.4401240234375,2.2367165088653564,0.0855599120259285,0.25530940294265747
1772458160966193000,5.45019287109375,2.2085788249969482,0.08056341856718063,0.2830245792865753
1772458160976260900,5.4602607421875,2.1731672286987305,0.08726312965154648,0.30180519819259644
1772458160986329900,5.470329833984375,2.1274049282073975,0.11065085232257843,0.32329878211021423
1772458160996398000,5.480398193359375,2.082836866378784,0.1394721120595932,0.33258840441703796
1772458161006465800,5.4904658203125,2.0354363918304443,0.18192589282989502,0.33248665928840637
1772458161016534800,5.50053466796875,1.9828490018844604,0.2418917566537857,0.3195154666900635
1772458161026603000,5.51060302734375,1.9231302738189697,0.30683788657188416,0.2834155261516571
1772458161036672000,5.520672119140625,1.8683083057403564,0.3908717930316925,0.22728940844535828
1772458161046739700,5.53073974609375,1.815406084060669,0.4847615659236908,0.15796729922294617
1772458161056809000,5.54080908203125,1.7667254209518433,0.5615679025650024,0.06535826623439789
1772458161066877000,5.550876953125,1.7247098684310913,0.6316089034080505,-0.030310235917568207
1772458161076945700,5.560945556640625,1.6788628101348877,0.7015504240989685,-0.12408280372619629
1772458161087014000,5.571013916015625,1.6362873315811157,0.7280610799789429,-0.22700777649879456
1772458161097083000,5.581082763671875,1.5886415243148804,0.6865642070770264,-0.34219667315483093
1772458161107150800,5.59115087890625,1.5334057807922363,0.5948234796524048,-0.4611417055130005
1772458161117219800,5.6012197265625,1.464098572731018,0.47809526324272156,-0.5874474048614502
1772458161127287800,5.611287841796875,1.3731279373168945,0.3718563914299011,-0.7128703594207764
1772458161137355800,5.621355712890625,1.2710553407669067,0.28733912110328674,-0.8154628276824951
1772458161147425000,5.631425048828125,1.179085612297058,0.24775023758411407,-0.903420090675354
1772458161157493000,5.641492919921875,1.1047849655151367,0.254838228225708,-0.9487223029136658
1772458161167561700,5.651561767578125,1.0598299503326416,0.30786100029945374,-0.9615547060966492
1772458161177630000,5.6616298828125,1.0416184663772583,0.37784436345100403,-0.9403628706932068
1772458161187699000,5.671698974609375,1.0547376871109009,0.44243350625038147,-0.8886251449584961
1772458161197766700,5.6817666015625,1.0923486948013306,0.4985218346118927,-0.8085793256759644
1772458161207836000,5.6918359375,1.14220130443573,0.5373913645744324,-0.7037733197212219
1772458161217903900,5.70190380859375,1.1988544464111328,0.5497878789901733,-0.5856783390045166
1772458161227972900,5.711972900390625,1.2714409828186035,0.5136335492134094,-0.4733819365501404
1772458161238040800,5.722040771484375,1.3502048254013062,0.44154122471809387,-0.370038241147995
1772458161248108800,5.73210888671875,1.4220579862594604,0.36233943700790405,-0.2811141312122345
1772458161258177800,5.742177734375,1.482367992401123,0.28052499890327454,-0.19460666179656982
1772458161268246000,5.75224609375,1.5200458765029907,0.1916053593158722,-0.12468379735946655
1772458161278314800,5.762314697265625,1.538772702217102,0.09839391708374023,-0.07286000996828079
1772458161288382700,5.7723828125,1.5352755784988403,0.03860952705144882,-0.03360530361533165
1772458161298452000,5.782451904296875,1.5162763595581055,0.028869546949863434,-0.01405530609190464
1772458161308520000,5.79252001953125,1.4929307699203491,0.05825567618012428,-0.00672098807990551
1772458161318589000,5.8025888671875,1.4647990465164185,0.09354574978351593,-0.01448729820549488
1772458161328657000,5.812656982421875,1.438087821006775,0.1364353746175766,-0.042334605008363724
1772458161338726000,5.822725830078125,1.41193687915802,0.18586257100105286,-0.07974375784397125
1772458161348793900,5.8327939453125,1.3833181858062744,0.23503237962722778,-0.12494350969791412
1772458161358862800,5.84286279296875,1.357604742050171,0.2756221294403076,-0.16765183210372925
1772458161368930800,5.852930908203125,1.3365190029144287,0.3167220950126648,-0.20730921626091003
1772458161378998800,5.862998779296875,1.3207731246948242,0.3518630564212799,-0.23017165064811707
1772458161389067800,5.87306787109375,1.3177686929702759,0.3633011281490326,-0.2373962700366974
1772458161399135700,5.8831357421875,1.3148703575134277,0.35146790742874146,-0.2282128930091858
1772458161409205000,5.893205078125,1.30488920211792,0.3205435574054718,-0.20396478474140167
1772458161419273000,5.90327294921875,1.2994192838668823,0.29760444164276123,-0.1721983402967453
1772458161429341700,5.913341796875,1.2982319593429565,0.2788738012313843,-0.12767960131168365
1772458161439410000,5.923409912109375,1.3035963773727417,0.2790253162384033,-0.08037680387496948
1772458161449479000,5.93347900390625,1.3139387369155884,0.305015504360199,-0.03896893560886383
1772458161459547000,5.943546875,1.3263126611709595,0.3558003902435303,0.005606257822364569
1772458161469615900,5.953615966796875,1.3423810005187988,0.44145235419273376,0.05340151488780975
1772458161479683800,5.963683837890625,1.3615466356277466,0.5245323181152344,0.1058330312371254
1772458161489752800,5.9737529296875,1.3817654848098755,0.5156510472297668,0.1359434723854065
1772458161499821000,5.983821044921875,1.3907058238983154,0.41498273611068726,0.13328003883361816
1772458161509889000,5.993888916015625,1.3883450031280518,0.3241693675518036,0.11758391559123993
1772458161519958300,6.003958251953125,1.3778457641601562,0.32070061564445496,0.11149592697620392
1772458161530026200,6.014026123046875,1.3553738594055176,0.39843127131462097,0.12589138746261597
1772458161540095000,6.024094970703125,1.3185945749282837,0.47465944290161133,0.12909196317195892
1772458161550163200,6.0341630859375,1.2529383897781372,0.4955922067165375,0.12148143351078033
1772458161560232200,6.044232177734375,1.1734782457351685,0.4771077632904053,0.11626829952001572
1772458161570300200,6.054300048828125,1.0935888290405273,0.4785163402557373,0.11585733294487
1772458161580369200,6.064369140625,1.0180785655975342,0.5130770206451416,0.13001389801502228
1772458161590437000,6.07443701171875,0.9594615697860718,0.5741860866546631,0.15931826829910278
1772458161600506000,6.084506103515625,0.9213815331459045,0.636648416519165,0.19370420277118683
1772458161610574300,6.09457421875,0.9049491882324219,0.672486424446106,0.22530074417591095
1772458161620642300,6.104642333984375,0.9007278084754944,0.6573008298873901,0.2445162534713745
1772458161630711000,6.1147109375,0.8995519280433655,0.590915322303772,0.2585107088088989
1772458161640779300,6.124779296875,0.8894996047019958,0.5041892528533936,0.26193660497665405
1772458161650848300,6.13484814453125,0.8746559023857117,0.43382054567337036,0.2651006877422333
1772458161660916000,6.144916015625,0.8516395688056946,0.38798755407333374,0.2698863744735718
1772458161670985200,6.154985107421875,0.8392953872680664,0.3445137143135071,0.2821424603462219
1772458161681053200,6.16505322265625,0.8175666332244873,0.2799760103225708,0.29049360752105713
1772458161691122200,6.1751220703125,0.7883891463279724,0.2104036808013916,0.30430105328559875
1772458161701190100,6.185190185546875,0.7568570971488953,0.178394615650177,0.30483901500701904
1772458161711259100,6.195259033203125,0.7279547452926636,0.2053776979446411,0.30471092462539673
1772458161721327000,6.2053271484375,0.710507869720459,0.2811374366283417,0.31001514196395874
1772458161731395300,6.215395263671875,0.7013021111488342,0.38448482751846313,0.3039063513278961
1772458161741464000,6.225464111328125,0.7011244297027588,0.47879454493522644,0.29394692182540894
1772458161751532000,6.235531982421875,0.7024843692779541,0.5423719882965088,0.27749744057655334
1772458161761601300,6.245601318359375,0.7113329768180847,0.6015929579734802,0.2611898183822632
1772458161771669200,6.255669189453125,0.714957594871521,0.6845294237136841,0.24800987541675568
1772458161781738200,6.26573828125,0.7201472520828247,0.7946133017539978,0.22579696774482727
1772458161791806200,6.27580615234375,0.7344359159469604,0.8790629506111145,0.20075364410877228
1772458161801875200,6.285875244140625,0.7651240825653076,0.9215134382247925,0.17509008944034576
1772458161811943200,6.295943115234375,0.804356038570404,0.8922683596611023,0.14557217061519623
1772458161822012200,6.30601220703125,0.8355376720428467,0.8137357831001282,0.10600211471319199
1772458161832080100,6.316080078125,0.8568108677864075,0.7268249988555908,0.057191669940948486
1772458161842148000,6.326148193359375,0.8756418228149414,0.6452489495277405,-0.000902791041880846
1772458161852217000,6.336217041015625,0.8919937014579773,0.5503008365631104,-0.06583710759878159
1772458161862285000,6.34628515625,0.8979429006576538,0.4305132031440735,-0.14497213065624237
1772458161872354300,6.356354248046875,0.8856940865516663,0.282423734664917,-0.2442576289176941
1772458161882422300,6.36642236328125,0.8494892120361328,0.10198232531547546,-0.3632354140281677
1772458161892491000,6.376490966796875,0.7965527772903442,-0.0986117422580719,-0.5033408999443054
1772458161902559200,6.386559326171875,0.72319096326828,-0.2654513418674469,-0.6442431807518005
1772458161912628200,6.396628173828125,0.6441397666931152,-0.32805344462394714,-0.776623010635376
1772458161922696200,6.4066962890625,0.5765212774276733,-0.2805256247520447,-0.9002187252044678
1772458161932765200,6.41676513671875,0.5250647664070129,-0.16080646216869354,-0.983501672744751
1772458161942833200,6.426833251953125,0.4927464723587036,0.02412451058626175,-1.0093295574188232
1772458161952902100,6.436902099609375,0.4806172847747803,0.25917741656303406,-0.9831831455230713
1772458161962970400,6.446970458984375,0.4942319095134735,0.47900882363319397,-0.913866400718689
1772458161973038000,6.4570380859375,0.5263962149620056,0.6261290311813354,-0.821878969669342
1772458161983107000,6.467107177734375,0.5526357889175415,0.683917224407196,-0.7257286906242371
1772458161993175300,6.47717529296875,0.5625241994857788,0.7022190690040588,-0.6401312351226807
1772458162003244300,6.487244384765625,0.5749225616455078,0.7070960998535156,-0.5651227831840515
1772458162013312000,6.49731201171875,0.5985674262046814,0.6847689747810364,-0.5015177726745605
1772458162023381200,6.50738134765625,0.6394495964050293,0.6157856583595276,-0.45675772428512573
1772458162033449200,6.51744921875,0.6807461977005005,0.5188719034194946,-0.41930508613586426
1772458162043518000,6.52751806640625,0.7159917950630188,0.39956122636795044,-0.3813158869743347
1772458162053586200,6.537586181640625,0.7389336228370667,0.27562248706817627,-0.34294265508651733
1772458162063655200,6.5476552734375,0.7558848857879639,0.15266835689544678,-0.2988542914390564
1772458162073723100,6.55772314453125,0.7634087204933167,0.04522303491830826,-0.2534663677215576
1772458162083791400,6.567791259765625,0.7496282458305359,-0.041025567799806595,-0.19083306193351746
1772458162093860000,6.577860107421875,0.7245819568634033,-0.08794520795345306,-0.13126131892204285
1772458162103928000,6.587927978515625,0.6849328279495239,-0.1136913150548935,-0.07664787769317627
1772458162113997300,6.597997314453125,0.6418660283088684,-0.1556617021560669,-0.04376906529068947
1772458162124065300,6.608065185546875,0.6063866019248962,-0.19995778799057007,-0.034417640417814255
1772458162134134000,6.618134033203125,0.5810495018959045,-0.2292637974023819,-0.040960121899843216
1772458162144202200,6.6282021484375,0.5535086989402771,-0.23650972545146942,-0.0477336049079895
1772458162154271200,6.638271240234375,0.5277785062789917,-0.23831292986869812,-0.05627015233039856
1772458162164339000,6.6483388671875,0.4995708763599396,-0.231449693441391,-0.060699257999658585
1772458162174408200,6.658408203125,0.46371281147003174,-0.22703038156032562,-0.057676345109939575
1772458162184476200,6.66847607421875,0.42788052558898926,-0.23292821645736694,-0.04741012305021286
1772458162194544000,6.678544189453125,0.39070698618888855,-0.253825306892395,-0.02878478914499283
1772458162204613000,6.688613037109375,0.35361501574516296,-0.27794742584228516,-0.005767621099948883
1772458162214681000,6.69868115234375,0.31509923934936523,-0.305512011051178,0.02366730011999607
1772458162224750300,6.708750244140625,0.2725411355495453,-0.3194022476673126,0.058770161122083664
1772458162234818300,6.718818359375,0.2360675185918808,-0.27040812373161316,0.112352654337883
1772458162244887000,6.728886962890625,0.20160168409347534,-0.1744951605796814,0.16930514574050903
1772458162254955000,6.738955078125,0.19239181280136108,-0.06187551096081734,0.2332785278558731
1772458162265024300,6.749024169921875,0.19841217994689941,-0.10075180977582932,0.2488851696252823
1772458162275092200,6.75909228515625,0.1957395374774933,-0.2612665295600891,0.21814613044261932
1772458162285160200,6.76916015625,0.17920130491256714,-0.37538617849349976,0.1752745658159256
1772458162295229200,6.779229248046875,0.1396368443965912,-0.3821660876274109,0.1254522055387497
1772458162305297200,6.789297119140625,0.09180194139480591,-0.3211839497089386,0.06940305233001709
1772458162315366100,6.7993662109375,0.039434291422367096,-0.23555509746074677,0.007595861330628395
1772458162325434000,6.80943408203125,-0.01710382103919983,-0.14195643365383148,-0.05969955772161484
1772458162335503000,6.819503173828125,-0.07195724546909332,-0.04875434190034866,-0.12204080075025558
1772458162345571300,6.8295712890625,-0.11158694326877594,0.010440538637340069,-0.18277046084403992
1772458162355640000,6.83964013671875,-0.14174482226371765,0.033166103065013885,-0.24918213486671448
1772458162365708000,6.8497080078125,-0.16067376732826233,0.04103627800941467,-0.30660948157310486
1772458162375777300,6.85977734375,-0.18108810484409332,0.06203090026974678,-0.34300053119659424
1772458162385845200,6.86984521484375,-0.2013355940580368,0.0983915701508522,-0.3571472465991974
1772458162395914000,6.8799140625,-0.2120250016450882,0.1613667756319046,-0.33447542786598206
1772458162405982200,6.889982177734375,-0.2197284698486328,0.2186063677072525,-0.283596009016037
1772458162416050200,6.90005029296875,-0.2127366065979004,0.2635410726070404,-0.21071995794773102
1772458162426119200,6.910119140625,-0.20312659442424774,0.30243176221847534,-0.11988459527492523
1772458162436187400,6.9201875,-0.1859533190727234,0.36876991391181946,-0.0017577694961801171
1772458162446256000,6.930256103515625,-0.16946250200271606,0.45506057143211365,0.1191452145576477
1772458162456324000,6.940323974609375,-0.1451546847820282,0.5225979089736938,0.2407529354095459
1772458162466393300,6.950393310546875,-0.11173759400844574,0.5288576483726501,0.34020310640335083
1772458162476461000,6.9604609375,-0.06106235086917877,0.458757221698761,0.4100334048271179
1772458162486530000,6.970530029296875,0.014493126422166824,0.3458045721054077,0.4608696699142456
1772458162496598300,6.980598388671875,0.10864309221506119,0.21988210082054138,0.4917036294937134
1772458162506666200,6.990666259765625,0.19680143892765045,0.1110386997461319,0.4959676265716553
1772458162516735200,7.0007353515625,0.2627691626548767,0.04613683372735977,0.4921606481075287
1772458162526803200,7.01080322265625,0.2800975739955902,0.022283431142568588,0.47381359338760376
1772458162536872200,7.0208720703125,0.2734037935733795,0.01792629435658455,0.43621519207954407
1772458162546940400,7.0309404296875,0.24919670820236206,-0.00032940786331892014,0.38203051686286926
1772458162557009200,7.041009033203125,0.2172541320323944,-0.061460766941308975,0.31685709953308105
1772458162567077000,7.0510771484375,0.17856186628341675,-0.17665739357471466,0.22891737520694733
1772458162577146400,7.061146484375,0.13279657065868378,-0.3162570297718048,0.14398430287837982
1772458162587214300,7.07121435546875,0.08092991262674332,-0.42727622389793396,0.07412133365869522
1772458162597283300,7.081283447265625,0.030094753950834274,-0.4761528968811035,0.028565820306539536
1772458162607351300,7.091351318359375,-0.017122559249401093,-0.44523945450782776,-0.00032681156881153584
1772458162617419300,7.101419189453125,-0.06908690184354782,-0.3609865605831146,-0.03959539905190468
1772458162627488300,7.11148828125,-0.10354501008987427,-0.2706119120121002,-0.08790966868400574
1772458162637556200,7.12155615234375,-0.12636230885982513,-0.1662542223930359,-0.15004436671733856
1772458162647625200,7.131625244140625,-0.1364745944738388,-0.05997385457158089,-0.2206633985042572
1772458162657693200,7.141693115234375,-0.13417233526706696,0.03749752789735794,-0.288707971572876
1772458162667762200,7.15176220703125,-0.1191752701997757,0.12003554403781891,-0.34068942070007324
1772458162677830100,7.161830078125,-0.08929646015167236,0.15005125105381012,-0.35711023211479187
1772458162687899400,7.1718994140625,-0.05144868046045303,0.1477697193622589,-0.33799806237220764
1772458162697967400,7.18196728515625,-0.019675303250551224,0.13510586321353912,-0.28616470098495483
1772458162708036000,7.1920361328125,0.0019194695632904768,0.12051226198673248,-0.21582821011543274
1772458162718104300,7.202104248046875,0.012753789313137531,0.10163822025060654,-0.1425744891166687
1772458162728172300,7.21217236328125,0.01418763492256403,0.052281856536865234,-0.08161632716655731
1772458162738241300,7.2222412109375,0.013395225629210472,-0.014416871592402458,-0.03713216632604599
1772458162748309200,7.232309326171875,0.006060080602765083,-0.07507169991731644,-0.011105893179774284
1772458162758378200,7.242378173828125,-0.006082054227590561,-0.12274838238954544,0.005886881612241268
1772458162768446200,7.2524462890625,-0.02659505419433117,-0.14317083358764648,0.00021301698870956898
1772458162778515500,7.262515380859375,-0.053436413407325745,-0.12458346039056778,-0.021709054708480835
1772458162788583200,7.272583251953125,-0.07901954650878906,-0.06937427073717117,-0.06719451397657394
1772458162798652200,7.282652099609375,-0.10637951642274857,-0.0012095868587493896,-0.12452893704175949
1772458162808720400,7.292720458984375,-0.12611301243305206,0.07238846272230148,-0.1887470781803131
1772458162818789000,7.3027890625,-0.1394197791814804,0.14696547389030457,-0.24423660337924957
1772458162828857000,7.312857177734375,-0.13747620582580566,0.20056931674480438,-0.2820918560028076
1772458162838925300,7.32292529296875,-0.12613587081432343,0.22361931204795837,-0.3005252480506897
1772458162848994300,7.332994384765625,-0.10695045441389084,0.22978799045085907,-0.28777509927749634
1772458162859062300,7.343062255859375,-0.08070467412471771,0.22877205908298492,-0.2496839165687561
1772458162869131300,7.35313134765625,-0.05522541329264641,0.2041868269443512,-0.19118918478488922
1772458162879199200,7.36319921875,-0.04292432963848114,0.16000385582447052,-0.12494650483131409
1772458162889268200,7.373268310546875,-0.04569055140018463,0.12122183293104172,-0.046284183859825134
1772458162899336400,7.38333642578125,-0.07255733013153076,0.12183088064193726,0.029187701642513275
1772458162909405200,7.3934052734375,-0.09463732689619064,0.16751129925251007,0.10540230572223663
1772458162919473200,7.40347314453125,-0.09542973339557648,0.21656447649002075,0.18025074899196625
1772458162929541400,7.413541259765625,-0.07787498086690903,0.2231920212507248,0.23934975266456604
1772458162939610400,7.4236103515625,-0.05315912142395973,0.21278530359268188,0.2880338728427887
1772458162949678000,7.433677978515625,-0.020625948905944824,0.1689736545085907,0.31030747294425964
1772458162959747300,7.443747314453125,0.023099452257156372,0.1068168357014656,0.3033655881881714
1772458162969815300,7.453815185546875,0.06546688079833984,0.054796770215034485,0.2717043459415436
1772458162979884000,7.463884033203125,0.10236702859401703,0.028107278048992157,0.2237963080406189
1772458162989952300,7.4739521484375,0.13588955998420715,0.021132726222276688,0.1667274385690689
1772458163000021200,7.484021240234375,0.16071510314941406,-0.04556286707520485,0.0952390655875206
1772458163010089200,7.494089111328125,0.17816253006458282,-0.14662502706050873,0.03248460218310356
1772458163020158200,7.504158203125,0.170878067612648,-0.1984439492225647,0.01749642938375473
1772458163030226200,7.51422607421875,0.12831568717956543,-0.16771985590457916,0.03506743162870407
1772458163040294100,7.524294189453125,0.05926370993256569,-0.060021836310625076,0.09108701348304749
1772458163050363400,7.53436328125,-0.02152913808822632,0.06903573870658875,0.1679980456829071
1772458163060431400,7.544431396484375,-0.09691065549850464,0.14342482388019562,0.23128272593021393
1772458163070500000,7.5545,-0.1569657325744629,0.13696186244487762,0.26879629492759705
1772458163080568300,7.564568359375,-0.1987355351448059,0.09263195842504501,0.271586149930954
1772458163090637300,7.57463720703125,-0.2247740626335144,0.0563352108001709,0.2600930333137512
1772458163100705000,7.584705078125,-0.23172235488891602,0.048871319741010666,0.235226571559906
1772458163110774300,7.594774169921875,-0.2224031686782837,0.0678442120552063,0.21141710877418518
1772458163120842200,7.60484228515625,-0.1941385269165039,0.10055737942457199,0.20002338290214539
1772458163130911200,7.6149111328125,-0.15749795734882355,0.11772172152996063,0.19224321842193604
1772458163140979200,7.624979248046875,-0.11752112954854965,0.10458766669034958,0.21024295687675476
1772458163151047200,7.635047119140625,-0.088076151907444,0.06723231077194214,0.23534750938415527
1772458163161116400,7.645116455078125,-0.06585855782032013,0.027850456535816193,0.28129497170448303
1772458163171184400,7.655184326171875,-0.04322728514671326,-0.007196477148681879,0.3355587422847748
1772458163181253000,7.665253173828125,-0.033159226179122925,-0.05286998674273491,0.40427663922309875
1772458163191321000,7.675321044921875,-0.027688296511769295,-0.0754605233669281,0.4792041480541229
1772458163201390300,7.685390380859375,-0.03312128409743309,-0.05487068369984627,0.5525237917900085
1772458163211458300,7.695458251953125,-0.04274994134902954,-0.018020790070295334,0.609421968460083
1772458163221527300,7.70552734375,-0.047764576971530914,0.035883281379938126,0.6469315886497498
1772458163231595300,7.71559521484375,-0.056076835840940475,0.11586492508649826,0.654608428478241
1772458163241663200,7.725663330078125,-0.05847632884979248,0.19340236485004425,0.6144252419471741
1772458163251732200,7.735732177734375,-0.05307783558964729,0.25409767031669617,0.531627357006073
1772458163261800200,7.74580029296875,-0.04262077808380127,0.29846125841140747,0.4173268675804138
1772458163271869200,7.755869140625,-0.0215021762996912,0.3340893089771271,0.2820926308631897
1772458163281937400,7.7659375,0.00964701920747757,0.3533459007740021,0.1446761190891266
1772458163292006100,7.776006103515625,0.0469331368803978,0.33211252093315125,-0.0028875002171844244
1772458163302074000,7.78607421875,0.08025800436735153,0.2683907151222229,-0.1522175520658493
1772458163312143400,7.796143310546875,0.10765554010868073,0.16283607482910156,-0.3117041289806366
1772458163322211300,7.80621142578125,0.13629616796970367,0.03705943748354912,-0.4689115881919861
1772458163332280000,7.816280029296875,0.15804114937782288,-0.10420528054237366,-0.6360059976577759
1772458163342348300,7.826348388671875,0.1782355010509491,-0.2683866322040558,-0.7948825359344482
1772458163352416300,7.836416259765625,0.1881168931722641,-0.4341178238391876,-0.9270299077033997
1772458163362485200,7.8464853515625,0.18990248441696167,-0.5675760507583618,-1.0297385454177856
1772458163372553500,7.856553466796875,0.18326616287231445,-0.6053444743156433,-1.0766512155532837
1772458163382622200,7.866622314453125,0.18061216175556183,-0.5046899318695068,-1.0493316650390625
1772458163392690200,7.876690185546875,0.17761103808879852,-0.2819700539112091,-0.9423761367797852
1772458163402759400,7.886759521484375,0.1922161728143692,0.0013861390762031078,-0.7676016688346863
1772458163412827100,7.8968271484375,0.2125864326953888,0.24750164151191711,-0.5670374035835266
1772458163422896000,7.906896240234375,0.23949749767780304,0.37912872433662415,-0.3771619200706482
1772458163432964400,7.91696435546875,0.2714352011680603,0.38900506496429443,-0.21095936000347137
1772458163443032300,7.9270322265625,0.3040916323661804,0.34096986055374146,-0.07431423664093018
1772458163453101000,7.93710107421875,0.3352130651473999,0.28043246269226074,0.03348599374294281
1772458163463169300,7.947169189453125,0.3559875786304474,0.2102038711309433,0.1086646020412445
1772458163473238300,7.95723828125,0.3634745180606842,0.11704063415527344,0.14810362458229065
1772458163483306200,7.96730615234375,0.3590375483036041,0.02533959411084652,0.16858890652656555
1772458163493375200,7.977375244140625,0.3362600803375244,-0.01580890826880932,0.17425769567489624
1772458163503443200,7.987443115234375,0.31903746724128723,-0.00803268700838089,0.15899085998535156
1772458163513512000,7.997511962890625,0.30973291397094727,-0.009492099285125732,0.1280023157596588
1772458163523580000,8.007579833984375,0.30793944001197815,-0.0165362861007452,0.090324766933918
1772458163533648000,8.01764794921875,0.31131523847579956,-0.013652615249156952,0.06072106584906578
1772458163543716900,8.027716796875,0.30505746603012085,-0.02711237221956253,0.04337824136018753
1772458163553784800,8.037784912109375,0.2910263240337372,-0.06317423284053802,0.02918439358472824
1772458163563854000,8.04785400390625,0.27745333313941956,-0.11509118974208832,0.02711832895874977
1772458163573921800,8.057921875,0.2529844641685486,-0.1624714732170105,0.03260497376322746
1772458163583990800,8.06799072265625,0.22957706451416016,-0.21950902044773102,0.0421447828412056
1772458163594059000,8.07805908203125,0.19380228221416473,-0.28276947140693665,0.05173136293888092
1772458163604128000,8.0881279296875,0.15863510966300964,-0.33685949444770813,0.04463957995176315
1772458163614195700,8.09819580078125,0.1221548542380333,-0.3894803822040558,0.02043197862803936
1772458163624265000,8.108264892578125,0.08207593858242035,-0.43136247992515564,-0.02028859406709671
1772458163634333000,8.1183330078125,0.0459781289100647,-0.42528143525123596,-0.05952681228518486
1772458163644401000,8.12840087890625,0.01087447814643383,-0.36009976267814636,-0.09138943254947662
1772458163654470000,8.138469970703126,-0.01818646863102913,-0.2376880794763565,-0.1071433573961258
1772458163664537900,8.148537841796875,-0.04021262377500534,-0.14066535234451294,-0.11922717094421387
1772458163674606800,8.15860693359375,-0.0681406632065773,-0.09945693612098694,-0.14137908816337585
1772458163684675000,8.168675048828124,-0.10016246140003204,-0.060619745403528214,-0.15708957612514496
1772458163694743800,8.178743896484375,-0.13314837217330933,0.004945951513946056,-0.15833806991577148
1772458163704811800,8.188811767578125,-0.16194605827331543,0.09279950708150864,-0.14161816239356995
1772458163714881000,8.198881103515625,-0.18439650535583496,0.17694422602653503,-0.12219998240470886
1772458163724949000,8.208948974609376,-0.19061118364334106,0.18473085761070251,-0.11634696274995804
1772458163735016700,8.2190166015625,-0.16815248131752014,0.11839629709720612,-0.1231239065527916
1772458163745086000,8.2290859375,-0.12658679485321045,0.014821579679846764,-0.13099949061870575
1772458163755154000,8.23915380859375,-0.07665972411632538,-0.09854279458522797,-0.1407724916934967
1772458163765223000,8.249222900390626,-0.030187727883458138,-0.18425467610359192,-0.1325339674949646
1772458163775291000,8.259290771484375,-0.0027678224723786116,-0.23742415010929108,-0.12707795202732086
1772458163785360000,8.26935986328125,0.005679707508534193,-0.2763574719429016,-0.1275644451379776
1772458163795427800,8.279427734375,0.008274691179394722,-0.30101779103279114,-0.13203376531600952
1772458163805496800,8.289496826171876,-0.0009104055352509022,-0.3220806121826172,-0.14430636167526245
1772458163815564800,8.299564697265625,-0.014465095475316048,-0.3564242124557495,-0.15734119713306427
1772458163825632800,8.3096328125,-0.040750276297330856,-0.3641356825828552,-0.16356928646564484
1772458163835702000,8.319701904296876,-0.07483181357383728,-0.35196346044540405,-0.16579675674438477
1772458163845771800,8.329771728515626,-0.10280554741621017,-0.3418526351451874,-0.1570778638124466
1772458163855840000,8.339840087890625,-0.12584614753723145,-0.33883342146873474,-0.14218465983867645
1772458163865908700,8.34990869140625,-0.15144941210746765,-0.31635305285453796,-0.1187693178653717
1772458163875976700,8.359976806640624,-0.17693693935871124,-0.2661455273628235,-0.08519484102725983
1772458163886046000,8.3700458984375,-0.20581166446208954,-0.17940180003643036,-0.045210953801870346
1772458163896114000,8.380114013671875,-0.23195752501487732,-0.050126634538173676,0.01259429007768631
1772458163906182700,8.3901826171875,-0.2600657343864441,0.07836861908435822,0.09666942805051804
1772458163916251000,8.4002509765625,-0.28648215532302856,0.1834694743156433,0.17751501500606537
1772458163926319900,8.41031982421875,-0.3089621961116791,0.22880761325359344,0.2404983639717102
1772458163936387800,8.420387939453125,-0.317518413066864,0.2090512216091156,0.27761080861091614
1772458163946456000,8.4304560546875,-0.3163144588470459,0.15111437439918518,0.2941254675388336
1772458163956524800,8.44052490234375,-0.3141216039657593,0.06780882924795151,0.2846406102180481
1772458163966592800,8.4505927734375,-0.3136342167854309,-0.02807561308145523,0.2578650414943695
1772458163976662000,8.460662109375,-0.31636983156204224,-0.13657546043395996,0.20841974020004272
1772458163986730000,8.47072998046875,-0.3208983838558197,-0.23054733872413635,0.1381296068429947
1772458163996799000,8.480799072265626,-0.33249804377555847,-0.28218045830726624,0.04303852468729019
1772458164006867000,8.490866943359375,-0.3531990349292755,-0.2856105864048004,-0.05187979340553284
1772458164016936000,8.50093603515625,-0.3695220947265625,-0.25317302346229553,-0.133182093501091
1772458164027003600,8.511003662109376,-0.39898255467414856,-0.1947145313024521,-0.19073064625263214
1772458164037073000,8.521072998046876,-0.436228483915329,-0.10612474381923676,-0.23819643259048462
1772458164047140900,8.531140869140625,-0.45517200231552124,-0.01367732509970665,-0.27894487977027893
1772458164057208800,8.541208740234374,-0.44303199648857117,0.061577215790748596,-0.2946556806564331
1772458164067277800,8.55127783203125,-0.40850141644477844,0.11185400187969208,-0.288849800825119
1772458164077345800,8.561345703125,-0.3717428743839264,0.1377527117729187,-0.25352030992507935
1772458164087415000,8.5714150390625,-0.33309659361839294,0.13754506409168243,-0.1863851547241211
1772458164097483000,8.58148291015625,-0.2968562841415405,0.12132588028907776,-0.11040277779102325
1772458164107551700,8.5915517578125,-0.25213685631752014,0.09801191836595535,-0.036032918840646744
1772458164117620000,8.601619873046875,-0.19672581553459167,0.06463772058486938,0.02746669389307499
1772458164127688000,8.61168798828125,-0.1394776850938797,-0.00009226333349943161,0.07444695383310318
1772458164137757000,8.6217568359375,-0.09714595228433609,-0.09881724417209625,0.10220348834991455
1772458164147824600,8.63182470703125,-0.07351958006620407,-0.1936892867088318,0.11576411873102188
1772458164157894000,8.641893798828125,-0.06907210499048233,-0.23093466460704803,0.12277302145957947
1772458164167961900,8.6519619140625,-0.06432788819074631,-0.19542135298252106,0.11993222683668137
1772458164178030800,8.66203076171875,-0.05772963911294937,-0.12032527476549149,0.10523903369903564
1772458164188098800,8.672098876953125,-0.059653930366039276,-0.0419003963470459,0.08059011399745941
1772458164198167800,8.682167724609375,-0.058259498327970505,0.02481711655855179,0.03768233209848404
1772458164208236000,8.692236083984374,-0.053013093769550323,0.07375748455524445,-0.00846716295927763
1772458164218304800,8.7023046875,-0.0327826552093029,0.123224638402462,-0.04528643190860748
1772458164228372700,8.712372802734375,-0.0037941732443869114,0.1705537736415863,-0.06232497841119766
1772458164238441000,8.72244091796875,0.032189127057790756,0.2006235271692276,-0.05119030177593231
1772458164248510000,8.732510009765624,0.06897414475679398,0.21734561026096344,-0.016599293798208237
1772458164258578000,8.742577880859375,0.11563139408826828,0.22571246325969696,0.027808118611574173
1772458164268647000,8.75264697265625,0.16462242603302002,0.223469078540802,0.08403781801462173
1772458164278715000,8.76271484375,0.22364313900470734,0.20529194176197052,0.14187714457511902
1772458164288784000,8.772783935546874,0.29019060730934143,0.1827758550643921,0.20480048656463623
1772458164298851800,8.782851806640625,0.3616293668746948,0.17185823619365692,0.26743456721305847
1772458164308920800,8.7929208984375,0.4302409291267395,0.21549226343631744,0.34685108065605164
1772458164318988800,8.80298876953125,0.504023551940918,0.250105082988739,0.41888827085494995
1772458164329057000,8.81305712890625,0.5648446679115295,0.16572162508964539,0.457631915807724
1772458164339125800,8.823125732421875,0.6023632884025574,0.039704035967588425,0.44905680418014526
1772458164349193700,8.83319384765625,0.6042523384094238,-0.09823167324066162,0.3884965181350708
1772458164359263000,8.843262939453124,0.5807557702064514,-0.24037761986255646,0.26932403445243835
1772458164369331000,8.8533310546875,0.5322292447090149,-0.36683356761932373,0.1289035528898239
1772458164379399700,8.863399658203125,0.46290796995162964,-0.44147130846977234,-0.007418069988489151
1772458164389468000,8.873468017578125,0.37322521209716797,-0.41842222213745117,-0.11513727903366089
1772458164399537000,8.883536865234374,0.2916960120201111,-0.3013613820075989,-0.17782463133335114
1772458164409604900,8.89360498046875,0.24096955358982086,-0.14000378549098969,-0.18030965328216553
1772458164419673000,8.903673095703125,0.2129347175359726,0.046470481902360916,-0.12628422677516937
1772458164429741800,8.913741943359375,0.2058022916316986,0.21693894267082214,-0.04958464205265045
1772458164439809800,8.923809814453126,0.20875972509384155,0.29032790660858154,0.003827447537332773
1772458164449879000,8.933879150390625,0.235841765999794,0.2738635241985321,0.031003335490822792
1772458164459946800,8.94394677734375,0.2754512131214142,0.23338882625102997,0.04427173733711243
1772458164470015700,8.954015625,0.31752634048461914,0.19525328278541565,0.0568745918571949
1772458164480084000,8.964083984375,0.35990869998931885,0.21046365797519684,0.09518948942422867
1772458164490153000,8.974153076171875,0.39636796712875366,0.27349862456321716,0.15746358036994934
1772458164500220700,8.984220703125,0.4241655170917511,0.33930081129074097,0.2353048473596573
1772458164510288100,8.9942880859375,0.43442490696907043,0.37303221225738525,0.3112531304359436
1772458164520357400,9.004357421875,0.42921069264411926,0.36592182517051697,0.3724283277988434
1772458164530425300,9.01442529296875,0.40290629863739014,0.34769830107688904,0.4182102084159851
1772458164540494000,9.024494140625,0.3681054413318634,0.3353135287761688,0.4402609169483185
1772458164550562300,9.034562255859376,0.33901742100715637,0.31772580742836,0.4395122826099396
1772458164560631300,9.04463134765625,0.314162939786911,0.2828682065010071,0.4204863905906677
1772458164570699300,9.05469921875,0.29719629883766174,0.1987806260585785,0.3752685785293579
1772458164580768300,9.064768310546874,0.28194382786750793,0.07813569903373718,0.30261489748954773
1772458164590836200,9.074836181640626,0.26364466547966003,-0.0485466830432415,0.21172016859054565
1772458164600904200,9.084904296875,0.2372008115053177,-0.1379988044500351,0.11135069280862808
1772458164610973400,9.094973388671875,0.2008696049451828,-0.1703997105360031,0.02001488022506237
1772458164621041400,9.10504150390625,0.1527968794107437,-0.19205281138420105,-0.07089265435934067
1772458164631110100,9.115110107421875,0.09920289367437363,-0.2305045872926712,-0.1787850260734558
1772458164641178400,9.125178466796875,0.03993877395987511,-0.273790568113327,-0.3120320439338684
1772458164651247400,9.135247314453125,-0.02135097235441208,-0.2932004928588867,-0.4485469162464142
1772458164661315300,9.1453154296875,-0.08530891686677933,-0.25043785572052,-0.5822594165802002
1772458164671384300,9.15538427734375,-0.14045540988445282,-0.1955007016658783,-0.6925740242004395
1772458164681452300,9.165452392578125,-0.18048538267612457,-0.14965784549713135,-0.7624636292457581
1772458164691520300,9.175520263671874,-0.20673342049121857,-0.07798333466053009,-0.7837391495704651
1772458164701589200,9.18558935546875,-0.21007488667964935,0.0298608411103487,-0.7677689790725708
1772458164711657200,9.1956572265625,-0.1778765171766281,0.1599237322807312,-0.7142785787582397
1772458164721726200,9.205726318359375,-0.11765313893556595,0.2842371463775635,-0.6307018995285034
1772458164731794400,9.21579443359375,-0.040885187685489655,0.3854510486125946,-0.5366776585578918
1772458164741863200,9.22586328125,0.037574730813503265,0.45285218954086304,-0.4233044683933258
1772458164751931100,9.23593115234375,0.09071385860443115,0.4625205397605896,-0.3208353817462921
1772458164762000400,9.24600048828125,0.1341276466846466,0.3956261873245239,-0.22923916578292847
1772458164772068400,9.256068359375,0.16135278344154358,0.28688499331474304,-0.15352317690849304
1772458164782136300,9.26613623046875,0.1809065043926239,0.18182915449142456,-0.093203105032444
1772458164792205300,9.276205322265625,0.19445016980171204,0.09497428685426712,-0.05947251245379448
1772458164802273300,9.286273193359374,0.20709165930747986,0.0402228869497776,-0.039591215550899506
1772458164812342500,9.296342529296876,0.21710950136184692,0.029117867350578308,-0.028620021417737007
1772458164822410200,9.30641015625,0.22533494234085083,0.03979794308543205,-0.02435576729476452
1772458164832479200,9.316479248046875,0.2244012951850891,0.05522169545292854,-0.022553885355591774
1772458164842547200,9.326547119140624,0.22006966173648834,0.0332556776702404,-0.031407829374074936
1772458164852616200,9.3366162109375,0.21680499613285065,-0.03323403000831604,-0.043363556265830994
1772458164862684200,9.34668408203125,0.21147121489048004,-0.1302226185798645,-0.06314418464899063
1772458164872752000,9.356752197265624,0.20134583115577698,-0.22282610833644867,-0.08209099620580673
1772458164882821400,9.3668212890625,0.19192543625831604,-0.2872623801231384,-0.10149957984685898
1772458164892889300,9.376889404296875,0.17059242725372314,-0.31376591324806213,-0.11773441731929779
1772458164902958300,9.386958251953125,0.14309023320674896,-0.30885744094848633,-0.13654352724552155
1772458164913026300,9.3970263671875,0.11079414933919907,-0.2827088236808777,-0.14291946589946747
1772458164923095300,9.40709521484375,0.07335489988327026,-0.24430550634860992,-0.139419287443161
1772458164933163500,9.41716357421875,0.03303539380431175,-0.20798936486244202,-0.12991607189178467
1772458164943232300,9.427232177734375,-0.01621178165078163,-0.15375487506389618,-0.10224077105522156
1772458164953300200,9.43730029296875,-0.06251586228609085,-0.10579665005207062,-0.06714744120836258
1772458164963368200,9.4473681640625,-0.10253731161355972,-0.09206752479076385,-0.04257286339998245
1772458164973437200,9.457437255859375,-0.13539838790893555,-0.0840354934334755,-0.02048349566757679
1772458164983505200,9.467505126953125,-0.16605882346630096,-0.0530293732881546,-0.011321423575282097
1772458164993574400,9.477574462890624,-0.1976862996816635,0.01691320165991783,-0.006424747407436371
1772458165003642400,9.487642333984375,-0.22039134800434113,0.09673559665679932,-0.008478044532239437
1772458165013711000,9.497711181640625,-0.23170369863510132,0.17681387066841125,-0.009222949855029583
1772458165023779300,9.507779296875,-0.23269812762737274,0.23245662450790405,-0.004198363516479731
1772458165033848300,9.517848388671876,-0.22446225583553314,0.24837704002857208,0.010220838710665703
1772458165043916300,9.527916259765625,-0.2128268927335739,0.2487855702638626,0.027489306405186653
1772458165053985300,9.5379853515625,-0.19748598337173462,0.2192724645137787,0.05730663985013962
1772458165064053200,9.54805322265625,-0.17266426980495453,0.1873704493045807,0.09406012296676636
1772458165074121200,9.558121337890626,-0.14085045456886292,0.11420087516307831,0.1257103830575943
1772458165084190500,9.5681904296875,-0.11292293667793274,-0.033971816301345825,0.13041645288467407
1772458165094258400,9.578258544921875,-0.08824917674064636,-0.1727951020002365,0.11666949838399887
1772458165104327200,9.5883271484375,-0.07376344501972198,-0.24717266857624054,0.09655331075191498
1772458165114395400,9.5983955078125,-0.06352780759334564,-0.25985488295555115,0.06858403980731964
1772458165124464400,9.60846435546875,-0.05427545681595802,-0.24813376367092133,0.031715236604213715
1772458165134532000,9.618531982421874,-0.031031379476189613,-0.2132900208234787,-0.004803124349564314
1772458165144600300,9.628600341796876,-0.003730782074853778,-0.19417704641819,-0.04353906959295273
1772458165154669300,9.63866943359375,0.024268249049782753,-0.2150326371192932,-0.08614829182624817
1772458165164737300,9.6487373046875,0.05510126054286957,-0.26210668683052063,-0.11823379248380661
1772458165174806300,9.65880615234375,0.0844966471195221,-0.3174722492694855,-0.14731338620185852
1772458165184874200,9.668874267578126,0.10159094631671906,-0.35009679198265076,-0.16786473989486694
1772458165194943200,9.678943115234375,0.10820896178483963,-0.3485496938228607,-0.18218401074409485
1772458165205011500,9.689011474609375,0.10572023689746857,-0.3100630044937134,-0.18457525968551636
1772458165215080200,9.699080078125,0.09686453640460968,-0.24316322803497314,-0.1710064709186554
1772458165225148200,9.709148193359376,0.08543797582387924,-0.16915318369865417,-0.1346157193183899
1772458165235216400,9.71921630859375,0.08344385772943497,-0.10058046132326126,-0.07963397353887558
1772458165245285400,9.729285400390625,0.0780877098441124,-0.041821807622909546,-0.011910581029951572
1772458165255353000,9.73935302734375,0.06928295642137527,0.03664522245526314,0.02616949938237667
1772458165265422300,9.74942236328125,0.06865471601486206,0.10865123569965363,0.05715351179242134
1772458165275490300,9.759490234375,0.08643592894077301,0.17068834602832794,0.062344178557395935
1772458165285559300,9.769559326171875,0.10110408812761307,0.2063395380973816,0.06866945326328278
1772458165295627300,9.779627197265626,0.10636775940656662,0.22528652846813202,0.09213913232088089
1772458165305696300,9.7896962890625,0.10252295434474945,0.24262824654579163,0.12775066494941711
1772458165315764200,9.79976416015625,0.09134774655103683,0.24827809631824493,0.1867561638355255
1772458165325832400,9.80983251953125,0.07898961752653122,0.23383817076683044,0.2600620687007904
1772458165335901200,9.819901123046876,0.055167242884635925,0.1952059417963028,0.3441070020198822
1772458165345969200,9.82996923828125,0.035438813269138336,0.13889819383621216,0.4168344736099243
1772458165356038400,9.840038330078125,0.020960450172424316,0.07607467472553253,0.4636130928993225
1772458165366106400,9.8501064453125,0.015456494875252247,0.03642100840806961,0.4883679747581482
1772458165376175400,9.86017529296875,0.020651239901781082,0.021510478109121323,0.483175128698349
1772458165386243300,9.870243408203125,0.029206112027168274,0.012725774198770523,0.43950355052948
1772458165396312300,9.880312255859375,0.040823690593242645,-0.007509641814976931,0.3622787296772003
1772458165406380300,9.89038037109375,0.05593713000416756,-0.04697103053331375,0.25582870841026306
1772458165416448300,9.9004482421875,0.056604914367198944,-0.11241461336612701,0.12668423354625702
1772458165426517200,9.910517333984375,0.044039055705070496,-0.1895887553691864,-0.010290134698152542
1772458165436585200,9.920585205078124,0.016886910423636436,-0.26908642053604126,-0.14008469879627228
1772458165446654200,9.930654296875,-0.03236984834074974,-0.31496763229370117,-0.2564121186733246
1772458165456722200,9.94072216796875,-0.08174318820238113,-0.31149134039878845,-0.34722545742988586
1772458165466791400,9.95079150390625,-0.11705031245946884,-0.2517819404602051,-0.4167533814907074
1772458165476859400,9.960859375,-0.12708371877670288,-0.14371556043624878,-0.47295331954956055
1772458165486928100,9.97092822265625,-0.11549309641122818,-0.017159754410386086,-0.5130605101585388
1772458165496996400,9.980996337890625,-0.07532627880573273,0.0955052375793457,-0.5331397652626038
1772458165507065300,9.9910654296875,-0.02377466671168804,0.1779061108827591,-0.533430278301239
1772458165517134000,10.001134033203124,0.024168824777007103,0.19607119262218475,-0.5038542151451111
1772458165527202300,10.011202392578125,0.06218598410487175,0.17385190725326538,-0.4629254639148712
1772458165537271300,10.021271240234375,0.099388986825943,0.1402214914560318,-0.4010993242263794
1772458165547339300,10.03133935546875,0.14319533109664917,0.11455979943275452,-0.3454344570636749
1772458165557408300,10.041408203125,0.19034437835216522,0.0753001868724823,-0.2955431044101715
1772458165567476200,10.051476318359375,0.22817324101924896,0.03226696327328682,-0.25411444902420044
1772458165577545200,10.061545166015625,0.24960045516490936,-0.012343151494860649,-0.21116168797016144
1772458165587613400,10.071613525390624,0.25624239444732666,-0.06459490209817886,-0.17923757433891296
1772458165597681400,10.081681396484376,0.25257816910743713,-0.11961337924003601,-0.15619133412837982
1772458165607750100,10.091750244140625,0.24079689383506775,-0.15875652432441711,-0.14331655204296112
1772458165617818400,10.101818359375,0.23226097226142883,-0.1652790904045105,-0.15220612287521362
1772458165627887400,10.111887451171874,0.23485009372234344,-0.1356612890958786,-0.1766803115606308
1772458165637955000,10.121955078125,0.2403927594423294,-0.07869723439216614,-0.2046939879655838
1772458165648024300,10.1320244140625,0.2506195604801178,0.011547975242137909,-0.23201029002666473
1772458165658092300,10.14209228515625,0.24833279848098755,0.12005244195461273,-0.2404884248971939
1772458165668161300,10.152161376953124,0.24389463663101196,0.21157623827457428,-0.2349836677312851
1772458165678229200,10.162229248046875,0.24396447837352753,0.2646224796772003,-0.22009503841400146
1772458165688297200,10.172297119140625,0.25999030470848083,0.2757536768913269,-0.2027442753314972
1772458165698366200,10.1823662109375,0.2864685356616974,0.24361200630664825,-0.17025800049304962
1772458165708434400,10.192434326171876,0.32212531566619873,0.20186643302440643,-0.12837500870227814
1772458165718503200,10.202503173828125,0.3552454113960266,0.16879098117351532,-0.06780790537595749
1772458165728571100,10.212571044921875,0.38832321763038635,0.15106657147407532,-0.0015982638578861952
1772458165738640400,10.222640380859374,0.41692402958869934,0.14750997722148895,0.06160146743059158
1772458165748708400,10.232708251953126,0.4447473883628845,0.14811958372592926,0.12013481557369232
1772458165758777000,10.242777099609375,0.47674641013145447,0.1513678878545761,0.1693556159734726
1772458165768845300,10.25284521484375,0.5156498551368713,0.16719931364059448,0.2086060792207718
1772458165778913300,10.262913330078124,0.5572313666343689,0.18536388874053955,0.24870559573173523
1772458165788982300,10.272982177734375,0.5962834358215332,0.189310684800148,0.28811103105545044
1772458165799050200,10.28305029296875,0.627826452255249,0.12659703195095062,0.3160132169723511
1772458165809119200,10.293119140625,0.637317419052124,0.011682428419589996,0.31597593426704407
1772458165819187200,10.303187255859376,0.6265634298324585,-0.09661892056465149,0.29448482394218445
1772458165829256200,10.313256103515625,0.5993571281433105,-0.17508628964424133,0.269710510969162
1772458165839324200,10.32332421875,0.5578815937042236,-0.20797178149223328,0.24319465458393097
1772458165849392000,10.33339208984375,0.5178660154342651,-0.1867477148771286,0.22060759365558624
1772458165859461400,10.34346142578125,0.4883570373058319,-0.09813031554222107,0.23267708718776703
1772458165869529300,10.353529296875,0.46835988759994507,0.03927921503782272,0.2785702645778656
1772458165879598000,10.36359814453125,0.44740596413612366,0.1633477360010147,0.35723817348480225
1772458165889666300,10.373666259765624,0.4477660357952118,0.2630482316017151,0.45354288816452026
1772458165899735300,10.3837353515625,0.46266794204711914,0.294274240732193,0.5672512650489807
1772458165909803300,10.39380322265625,0.4796599745750427,0.2222525179386139,0.6455007791519165
1772458165919872300,10.403872314453125,0.4764508008956909,0.11774815618991852,0.6875612139701843
1772458165929940200,10.413940185546876,0.46794813871383667,0.018406391143798828,0.7101083397865295
1772458165940008200,10.42400830078125,0.46028098464012146,-0.07854801416397095,0.7091378569602966
1772458165950077200,10.4340771484375,0.43619856238365173,-0.12501245737075806,0.686836302280426
1772458165960145200,10.444145263671874,0.39288851618766785,-0.1120203360915184,0.6528794169425964
1772458165970214400,10.45421435546875,0.3447055518627167,-0.05985726788640022,0.6059960126876831
1772458165980282400,10.464282470703125,0.30478209257125854,-0.012501470744609833,0.5465971827507019
1772458165990351000,10.47435107421875,0.28319984674453735,0.009074928238987923,0.48147913813591003
1772458166000419000,10.484419189453124,0.2871686518192291,0.028085798025131226,0.4306207597255707
1772458166010488300,10.49448828125,0.30864226818084717,0.05884664133191109,0.3994676470756531
1772458166020556300,10.504556396484375,0.32918959856033325,0.1119426041841507,0.3988679051399231
1772458166030624300,10.514624267578125,0.36683496832847595,0.19382601976394653,0.42710861563682556
1772458166040693200,10.524693359375,0.4069994390010834,0.2543327808380127,0.4694581925868988
1772458166050761200,10.53476123046875,0.44860970973968506,0.29219838976860046,0.5106224417686462
1772458166060830500,10.54483056640625,0.501544713973999,0.34973078966140747,0.5443012714385986
1772458166070898200,10.554898193359374,0.5494943857192993,0.44217443466186523,0.5605076551437378
1772458166080967200,10.56496728515625,0.5955405235290527,0.5509707927703857,0.5543991327285767
1772458166091035400,10.575035400390625,0.6393975019454956,0.6298706531524658,0.5195349454879761
1772458166101104400,10.5851044921875,0.681969165802002,0.6550471186637878,0.45209643244743347
1772458166111172000,10.595172119140624,0.7180483341217041,0.6131630539894104,0.36904361844062805
1772458166121240000,10.605239990234375,0.7487961053848267,0.5655125975608826,0.29478538036346436
1772458166131309300,10.615309326171875,0.7620522379875183,0.5418472290039062,0.23914287984371185
1772458166141377300,10.625377197265625,0.7586367130279541,0.5059406757354736,0.1933116316795349
1772458166151446300,10.6354462890625,0.7444335222244263,0.45373228192329407,0.15670514106750488
1772458166161514200,10.64551416015625,0.7277144193649292,0.40772825479507446,0.12891420722007751
1772458166171583200,10.655583251953125,0.7237207293510437,0.39419272541999817,0.12014973163604736
1772458166181651500,10.6656513671875,0.7335286736488342,0.41489991545677185,0.12650533020496368
1772458166191720200,10.67572021484375,0.7575956583023071,0.42283374071121216,0.12966729700565338
1772458166201788200,10.6857880859375,0.7799142599105835,0.39368465542793274,0.11795949935913086
1772458166211856400,10.6958564453125,0.8020336627960205,0.3126893937587738,0.08239724487066269
1772458166221925400,10.70592529296875,0.8343948125839233,0.2087278664112091,0.012614971026778221
1772458166231993000,10.7159931640625,0.867298424243927,0.06870204955339432,-0.08258025348186493
1772458166242062300,10.726062255859375,0.8632140755653381,-0.0574006550014019,-0.19203616678714752
1772458166252130300,10.73613037109375,0.804792582988739,-0.1386294662952423,-0.3016611933708191
1772458166262199000,10.746198974609374,0.7425158619880676,-0.20047180354595184,-0.37005484104156494
1772458166272267300,10.756267333984376,0.7014371752738953,-0.20008085668087006,-0.39045146107673645
1772458166282335200,10.766335205078125,0.6812530755996704,-0.09311971813440323,-0.35100823640823364
1772458166292404200,10.776404296875,0.6781046986579895,0.10968106240034103,-0.253328800201416
1772458166302472400,10.786472412109376,0.6875321269035339,0.35089269280433655,-0.10976022481918335
1772458166312541200,10.796541259765625,0.6991528272628784,0.5491112470626831,0.016617683693766594
1772458166322609200,10.806609130859375,0.716410219669342,0.6455009579658508,0.11632998287677765
1772458166332678400,10.816678466796875,0.7441486716270447,0.6399062275886536,0.19889329373836517
1772458166342746400,10.826746337890626,0.768860936164856,0.5799848437309265,0.27693819999694824
1772458166352815000,10.836815185546875,0.7842841148376465,0.5185849070549011,0.34338992834091187
1772458166362883300,10.84688330078125,0.7990316152572632,0.476609468460083,0.3956241011619568
1772458166372951300,10.856951416015624,0.8029065132141113,0.464237779378891,0.44150716066360474
1772458166383020300,10.867020263671876,0.8156074285507202,0.4836261570453644,0.4786708652973175
1772458166393088300,10.877088134765625,0.8288379907608032,0.5392374992370605,0.49500617384910583
1772458166403157200,10.8871572265625,0.8518273234367371,0.6377625465393066,0.4866184890270233
1772458166413225200,10.89722509765625,0.8732987642288208,0.6813850998878479,0.455377995967865
1772458166423294200,10.907294189453125,0.8608001470565796,0.6422340273857117,0.3988298177719116
1772458166433362200,10.917362060546875,0.8327993750572205,0.5951099395751953,0.3518420457839966
1772458166443431200,10.92743115234375,0.7978948354721069,0.5408738255500793,0.3163841962814331
1772458166453499400,10.93749951171875,0.7430363893508911,0.4663862884044647,0.2969364523887634
1772458166463567400,10.9475673828125,0.6250168085098267,0.25872576236724854,0.27135810256004333
1772458166473636000,10.957635986328125,0.5050120949745178,-0.05162249505519867,0.16697312891483307
1772458166483704300,10.967704345703124,0.435983270406723,-0.2723814845085144,0.1015181839466095
1772458166493773300,10.977773193359376,0.4046645164489746,-0.39888298511505127,0.06830083578824997
1772458166503841300,10.98784130859375,0.3768770396709442,-0.4597269296646118,0.05283571779727936
1772458166513909800,10.99790966796875,0.35045766830444336,-0.49568894505500793,0.025459755212068558
1772458166523977700,11.007977783203126,0.3079332709312439,-0.4466003477573395,0.016223561018705368
1772458166534047000,11.018046875,0.2378753423690796,-0.3175278306007385,0.026990721002221107
1772458166544115000,11.028114990234375,0.1809866726398468,-0.22026503086090088,0.0008813182357698679
