time,seconds_elapsed,z,y,x
1772468062859834400,0.06283447265625,-0.862548828125,-0.4446563720703125,-0.0067138671875
1772468062869806300,0.072806396484375,-0.8690948486328125,-0.4779205322265625,0.008056640625
1772468062879778300,0.0827783203125,-0.86822509765625,-0.4947662353515625,0.0396270751953125
1772468062889751600,0.09275146484375,-0.9030303955078125,-0.49041748046875,0.0423431396484375
1772468062899723300,0.10272314453125,-0.9605255126953125,-0.4891357421875,0.0117950439453125
1772468062909695500,0.112695556640625,-0.9910736083984375,-0.4824066162109375,-0.009002685546875
1772468062919668500,0.12266845703125,-1.018402099609375,-0.45123291015625,-0.01513671875
1772468062929640200,0.13264013671875,-0.94281005859375,-0.443695068359375,-0.0136871337890625
1772468062939612400,0.1426123046875,-0.923797607421875,-0.4583587646484375,0.0326995849609375
1772468062949584400,0.15258447265625,-1.008392333984375,-0.49041748046875,0.0766448974609375
1772468062959556600,0.162556640625,-1.0374603271484375,-0.5060882568359375,0.046173095703125
1772468062969529300,0.172529296875,-1.090850830078125,-0.52435302734375,0.0072174072265625
1772468062979501600,0.18250146484375,-1.0535430908203125,-0.51220703125,0.025146484375
1772468062989474600,0.192474609375,-0.9728546142578125,-0.4847412109375,0.057373046875
1772468062999446300,0.2024462890625,-0.9165496826171875,-0.4885711669921875,0.1181488037109375
1772468063009418500,0.21241845703125,-0.8480224609375,-0.531036376953125,0.1938018798828125
1772468063019391500,0.2223916015625,-0.7819976806640625,-0.6153106689453125,0.2685699462890625
1772468063029363500,0.232363525390625,-0.7411041259765625,-0.582183837890625,0.4033966064453125
1772468063039336400,0.24233642578125,-0.7301788330078125,-0.50384521484375,0.423828125
1772468063049308400,0.252308349609375,-0.7645263671875,-0.463470458984375,0.3406829833984375
1772468063059280400,0.2622802734375,-0.96771240234375,-0.362274169921875,0.463226318359375
1772468063069253400,0.27225341796875,-1.06640625,-0.3521881103515625,0.3584442138671875
1772468063079225600,0.2822255859375,-0.975067138671875,-0.3023223876953125,0.2281341552734375
1772468063089197300,0.292197265625,-0.9524383544921875,-0.281097412109375,0.140838623046875
1772468063099170600,0.302170654296875,-0.9022979736328125,-0.31396484375,0.132110595703125
1772468063109142500,0.312142578125,-0.7660369873046875,-0.3882904052734375,0.22039794921875
1772468063119115500,0.322115478515625,-0.621551513671875,-0.50457763671875,0.3376312255859375
1772468063129087500,0.33208740234375,-0.5135345458984375,-0.6304168701171875,0.4361114501953125
1772468063139059500,0.3420595703125,-0.48602294921875,-0.705657958984375,0.4339447021484375
1772468063149032700,0.35203271484375,-0.630340576171875,-0.6798553466796875,0.2450714111328125
1772468063159004400,0.36200439453125,-0.689788818359375,-0.597564697265625,0.0056915283203125
1772468063168977400,0.371977294921875,-0.557586669921875,-0.5620880126953125,-0.0269622802734375
1772468063178949600,0.38194970703125,-0.390289306640625,-0.5550384521484375,0.0647125244140625
1772468063188921300,0.39192138671875,-0.307708740234375,-0.533294677734375,0.1094512939453125
1772468063198894600,0.40189453125,-0.3808135986328125,-0.5196075439453125,0.129150390625
1772468063208866600,0.411866455078125,-0.5250396728515625,-0.5257110595703125,0.1715850830078125
1772468063218838500,0.421838623046875,-0.7610015869140625,-0.5574188232421875,0.3106536865234375
1772468063228811500,0.4318115234375,-1.0228424072265625,-0.6224517822265625,0.55364990234375
1772468063238783500,0.441783447265625,-1.0135650634765625,-0.619232177734375,0.747955322265625
1772468063248756500,0.451756591796875,-0.923309326171875,-0.603363037109375,0.6724395751953125
1772468063258728400,0.461728515625,-0.855438232421875,-0.5178985595703125,0.289398193359375
1772468063268700700,0.47170068359375,-0.7818145751953125,-0.4080810546875,-0.0334625244140625
1772468063278673400,0.48167333984375,-0.696441650390625,-0.42755126953125,-0.0204620361328125
1772468063288645600,0.491645751953125,-0.70623779296875,-0.4366607666015625,0.0781707763671875
1772468063298618600,0.50161865234375,-0.7985687255859375,-0.384674072265625,0.1308746337890625
1772468063308590300,0.51159033203125,-0.816162109375,-0.39312744140625,0.1377716064453125
1772468063318562600,0.5215625,-0.802886962890625,-0.4304046630859375,0.098907470703125
1772468063328535600,0.53153564453125,-0.73004150390625,-0.429962158203125,0.046783447265625
1772468063338507500,0.541507568359375,-0.68463134765625,-0.441436767578125,0.0550689697265625
1772468063348479500,0.5514794921875,-0.64996337890625,-0.425506591796875,0.0706329345703125
1772468063358452500,0.561452392578125,-0.618438720703125,-0.4131622314453125,0.073944091796875
1772468063368424400,0.571424560546875,-0.656494140625,-0.3670806884765625,0.0775299072265625
1772468063378397400,0.5813974609375,-0.7017059326171875,-0.303070068359375,0.0689849853515625
1772468063388369700,0.59136962890625,-0.6200714111328125,-0.3122711181640625,0.0524749755859375
1772468063398341400,0.60134130859375,-0.5095062255859375,-0.3737945556640625,-0.0399932861328125
1772468063408314400,0.611314453125,-0.4542999267578125,-0.3413848876953125,-0.154815673828125
1772468063418286600,0.62128662109375,-0.4194488525390625,-0.296722412109375,-0.2096710205078125
1772468063428259300,0.63125927734375,-0.37200927734375,-0.3353118896484375,-0.3055877685546875
1772468063438231600,0.6412314453125,-0.375762939453125,-0.3401947021484375,-0.19024658203125
1772468063448203500,0.65120361328125,-0.3735198974609375,-0.2489166259765625,0.0764007568359375
1772468063458176300,0.66117626953125,-0.39117431640625,-0.145263671875,0.1380462646484375
1772468063468148500,0.6711484375,-0.5106048583984375,-0.1350555419921875,0.01617431640625
1772468063478121500,0.68112158203125,-0.6126556396484375,-0.2884368896484375,-0.0076751708984375
1772468063488093400,0.691093505859375,-0.599395751953125,-0.388153076171875,0.03424072265625
1772468063498065400,0.7010654296875,-0.7459259033203125,-0.5576171875,0.081817626953125
1772468063508038400,0.711038330078125,-0.982696533203125,-0.5803375244140625,0.159149169921875
1772468063518010400,0.72101025390625,-1.177276611328125,-0.63958740234375,0.113800048828125
1772468063527983400,0.7309833984375,-1.3945159912109375,-0.7404937744140625,-0.0742645263671875
1772468063537955600,0.74095556640625,-1.5823974609375,-0.816131591796875,-0.2123870849609375
1772468063547927300,0.75092724609375,-1.77569580078125,-0.84014892578125,-0.343963623046875
1772468063557900500,0.760900634765625,-1.9320068359375,-0.818115234375,-0.4440155029296875
1772468063567872500,0.77087255859375,-2.0227508544921875,-0.7950286865234375,-0.433319091796875
1772468063577845500,0.780845458984375,-2.0815277099609375,-0.7704620361328125,-0.3879241943359375
1772468063587817500,0.7908173828125,-2.1330108642578125,-0.7318572998046875,-0.3555450439453125
1772468063597789400,0.80078955078125,-2.140228271484375,-0.694671630859375,-0.3341827392578125
1772468063607762700,0.8107626953125,-2.0971527099609375,-0.682220458984375,-0.3625640869140625
1772468063617734400,0.820734375,-2.02447509765625,-0.6959075927734375,-0.364654541015625
1772468063627707400,0.830707275390625,-1.9442291259765625,-0.7197723388671875,-0.337982177734375
1772468063637679600,0.8406796875,-1.840576171875,-0.74639892578125,-0.28936767578125
1772468063647651300,0.8506513671875,-1.7149200439453125,-0.7808380126953125,-0.22064208984375
1772468063657624600,0.86062451171875,-1.579010009765625,-0.8281402587890625,-0.160064697265625
1772468063667596500,0.870596435546875,-1.4538421630859375,-0.8636322021484375,-0.108245849609375
1772468063677569300,0.8805693359375,-1.3543701171875,-0.8801422119140625,-0.0926666259765625
1772468063687541500,0.89054150390625,-1.2497711181640625,-0.88946533203125,-0.1063232421875
1772468063697513500,0.900513427734375,-1.161407470703125,-0.89642333984375,-0.1161651611328125
1772468063707486500,0.910486572265625,-1.0938720703125,-0.890960693359375,-0.119964599609375
1772468063717458400,0.92045849609375,-1.031890869140625,-0.860870361328125,-0.1556396484375
1772468063727431400,0.930431396484375,-0.9243927001953125,-0.8564300537109375,-0.1946868896484375
1772468063737403400,0.9404033203125,-0.8398895263671875,-0.84228515625,-0.096435546875
1772468063747375600,0.950375732421875,-0.8399810791015625,-0.7637481689453125,-0.12213134765625
1772468063757348600,0.9603486328125,-0.7278900146484375,-0.7088775634765625,-0.2198028564453125
1772468063767320300,0.9703203125,-0.6256561279296875,-0.6197052001953125,-0.251800537109375
1772468063777293600,0.98029345703125,-0.5777130126953125,-0.4799041748046875,-0.2753753662109375
1772468063787265500,0.990265625,-0.522430419921875,-0.3374481201171875,-0.2975006103515625
1772468063797237500,1.000237548828125,-0.4443359375,-0.217926025390625,-0.315399169921875
1772468063807210500,1.01021044921875,-0.3964691162109375,-0.07818603515625,-0.3230133056640625
1772468063817182500,1.020182373046875,-0.351348876953125,0.0248260498046875,-0.3317413330078125
1772468063827155700,1.03015576171875,-0.2549896240234375,0.0717926025390625,-0.3199615478515625
1772468063837127400,1.04012744140625,-0.181610107421875,0.1077117919921875,-0.2910003662109375
1772468063847099600,1.050099609375,-0.1291656494140625,0.123046875,-0.243743896484375
1772468063857072600,1.06007275390625,-0.078399658203125,0.1248016357421875,-0.1815643310546875
1772468063867044400,1.07004443359375,-0.0388641357421875,0.1292724609375,-0.13238525390625
1772468063877017600,1.080017578125,0.0043487548828125,0.101898193359375,-0.0760040283203125
1772468063886989600,1.089989501953125,0.0154876708984375,0.066314697265625,-0.0260772705078125
1772468063896961500,1.09996142578125,0.0368499755859375,0.0103912353515625,0.037261962890625
1772468063906934500,1.1099345703125,0.0444793701171875,-0.02191162109375,0.0767364501953125
1772468063916906500,1.119906494140625,0.04730224609375,-0.0290985107421875,0.0957489013671875
1772468063926879500,1.12987939453125,0.0962677001953125,-0.023468017578125,0.0784454345703125
1772468063936851500,1.1398515625,0.1390228271484375,-0.036590576171875,0.0267791748046875
1772468063946824400,1.149824462890625,0.1574859619140625,-0.046905517578125,0.004119873046875
1772468063956797700,1.159797607421875,0.16162109375,-0.0580596923828125,-0.013153076171875
1772468063966769400,1.169769287109375,0.1562957763671875,-0.0756988525390625,-0.042144775390625
1772468063976742400,1.179742431640625,0.14849853515625,-0.0956268310546875,-0.0524749755859375
1772468063986714600,1.189714599609375,0.120086669921875,-0.125518798828125,-0.05029296875
1772468063996687400,1.199687255859375,0.055633544921875,-0.15594482421875,-0.0519256591796875
1772468064006659600,1.20965966796875,-0.0337677001953125,-0.17718505859375,-0.039031982421875
1772468064016631600,1.219631591796875,-0.104736328125,-0.24615478515625,0.03814697265625
1772468064026604300,1.229604248046875,-0.169830322265625,-0.34478759765625,0.094024658203125
1772468064036576500,1.239576416015625,-0.2707366943359375,-0.440704345703125,0.1155548095703125
1772468064046549500,1.249549560546875,-0.395477294921875,-0.524871826171875,0.103485107421875
1772468064056521500,1.259521484375,-0.5531463623046875,-0.60357666015625,0.0734710693359375
1772468064066493400,1.269493408203125,-0.72784423828125,-0.9242401123046875,0.2896881103515625
1772468064076466700,1.279466796875,-0.9904022216796875,-1.2171478271484375,0.5281524658203125
1772468064086438400,1.2894384765625,-1.26593017578125,-1.1630401611328125,0.3581695556640625
1772468064096411400,1.299411376953125,-1.291961669921875,-1.1966400146484375,0.150604248046875
1772468064106383600,1.309383544921875,-1.32806396484375,-1.1711578369140625,-0.070770263671875
1772468064116356400,1.3193564453125,-1.4657745361328125,-1.0861358642578125,-0.2974395751953125
1772468064126328600,1.32932861328125,-1.619354248046875,-1.006134033203125,-0.3710174560546875
1772468064136300500,1.339300537109375,-1.6069793701171875,-1.0040740966796875,-0.530914306640625
1772468064146273300,1.349273193359375,-1.5675201416015625,-1.021148681640625,-0.6505584716796875
1772468064156245500,1.35924560546875,-1.5947265625,-1.04046630859375,-0.6910552978515625
1772468064166218500,1.369218505859375,-1.59271240234375,-1.038604736328125,-0.68304443359375
1772468064176190500,1.3791904296875,-1.6054534912109375,-1.0173492431640625,-0.6273956298828125
1772468064186162400,1.389162353515625,-1.569488525390625,-1.0408477783203125,-0.565765380859375
1772468064196135400,1.399135498046875,-1.561676025390625,-1.0542144775390625,-0.4999847412109375
1772468064206107400,1.409107421875,-1.5819244384765625,-1.0494842529296875,-0.3883514404296875
1772468064216080400,1.419080322265625,-1.5692901611328125,-1.027374267578125,-0.321624755859375
1772468064226052600,1.429052490234375,-1.5153045654296875,-0.9867095947265625,-0.3055572509765625
1772468064236025600,1.439025634765625,-1.488494873046875,-0.95440673828125,-0.27410888671875
1772468064245997300,1.448997314453125,-1.49560546875,-0.9371490478515625,-0.2352294921875
1772468064255969500,1.458969482421875,-1.4853363037109375,-0.936279296875,-0.2330169677734375
1772468064265942500,1.468942626953125,-1.4963836669921875,-0.949951171875,-0.2545623779296875
1772468064275914500,1.47891455078125,-1.5355987548828125,-0.9755859375,-0.266754150390625
1772468064285887500,1.488887451171875,-1.5479278564453125,-1.02862548828125,-0.2547607421875
1772468064295859500,1.498859375,-1.527252197265625,-1.0826873779296875,-0.2664947509765625
1772468064305831400,1.50883154296875,-1.4734039306640625,-1.1255340576171875,-0.276458740234375
1772468064315804400,1.518804443359375,-1.4183502197265625,-1.1245880126953125,-0.2665557861328125
1772468064325776600,1.528776611328125,-1.349456787109375,-1.0750274658203125,-0.266021728515625
1772468064335749400,1.538749267578125,-1.25439453125,-1.019927978515625,-0.234771728515625
1772468064345721600,1.5487216796875,-1.1771392822265625,-0.9708099365234375,-0.164459228515625
1772468064355694600,1.558694580078125,-1.1098480224609375,-0.9129180908203125,-0.0847625732421875
1772468064365666300,1.568666259765625,-1.021514892578125,-0.8546905517578125,-0.0112762451171875
1772468064375638500,1.578638427734375,-0.9143524169921875,-0.78765869140625,0.0320281982421875
1772468064385611500,1.588611572265625,-0.8132171630859375,-0.7211151123046875,0.05322265625
1772468064395583500,1.59858349609375,-0.689178466796875,-0.6479644775390625,0.050750732421875
1772468064405556500,1.608556396484375,-0.555694580078125,-0.5697174072265625,0.047760009765625
1772468064415528400,1.618528564453125,-0.446746826171875,-0.4919281005859375,0.027191162109375
1772468064425500400,1.62850048828125,-0.340911865234375,-0.412200927734375,-0.013397216796875
1772468064435473400,1.638473388671875,-0.2313995361328125,-0.3460845947265625,-0.0465240478515625
1772468064445445600,1.648445556640625,-0.15618896484375,-0.26788330078125,-0.0713043212890625
1772468064455418600,1.658418701171875,-0.11962890625,-0.18865966796875,-0.0728912353515625
1772468064465390300,1.668390380859375,-0.0874481201171875,-0.1158599853515625,-0.064300537109375
1772468064475363600,1.678363525390625,-0.053314208984375,-0.045135498046875,-0.06488037109375
1772468064485335600,1.68833544921875,-0.022705078125,0.0081634521484375,-0.0548553466796875
1772468064495307500,1.6983076171875,0.0027008056640625,0.0415191650390625,-0.0209808349609375
1772468064505280500,1.708280517578125,0.020294189453125,0.058563232421875,0.02215576171875
1772468064515252500,1.71825244140625,0.0329742431640625,0.0622100830078125,0.0686798095703125
1772468064525225500,1.7282255859375,0.05218505859375,0.065704345703125,0.1024322509765625
1772468064535197400,1.738197509765625,0.0565185546875,0.0719146728515625,0.130279541015625
1772468064545170400,1.74817041015625,0.02728271484375,0.0767669677734375,0.1440582275390625
1772468064555142400,1.758142333984375,0.0286712646484375,0.0679473876953125,0.1311492919921875
1772468064565114600,1.768114501953125,0.0439910888671875,0.071319580078125,0.09967041015625
1772468064575087600,1.778087646484375,0.02001953125,0.088470458984375,0.090728759765625
1772468064585059300,1.788059326171875,-0.021484375,0.09100341796875,0.094085693359375
1772468064595032600,1.798032470703125,-0.038726806640625,0.073760986328125,0.088134765625
1772468064605004500,1.808004638671875,-0.0561981201171875,0.0374908447265625,0.0941314697265625
1772468064614977500,1.8179775390625,-0.0724029541015625,0.004638671875,0.078460693359375
1772468064624949500,1.827949462890625,-0.1172027587890625,-0.0376129150390625,0.0482177734375
1772468064634921500,1.83792138671875,-0.1727447509765625,-0.07550048828125,0.0285491943359375
1772468064644894700,1.847894775390625,-0.19586181640625,-0.1092071533203125,0.0069580078125
1772468064654866400,1.857866455078125,-0.2277984619140625,-0.1676788330078125,-0.0042266845703125
1772468064664839400,1.86783935546875,-0.283599853515625,-0.2555999755859375,0.018280029296875
1772468064674811600,1.877811767578125,-0.357269287109375,-0.360992431640625,0.0792999267578125
1772468064684784400,1.887784423828125,-0.4465789794921875,-0.4788360595703125,0.1743621826171875
1772468064694756600,1.897756591796875,-0.5362701416015625,-0.5462646484375,0.241668701171875
1772468064704728600,1.907728515625,-0.653411865234375,-0.5083770751953125,0.23883056640625
1772468064714701300,1.917701416015625,-0.7769622802734375,-0.48577880859375,0.2183837890625
1772468064724673500,1.927673583984375,-0.82818603515625,-0.6034698486328125,0.219146728515625
1772468064734646500,1.937646484375,-0.8737335205078125,-0.59619140625,0.1414947509765625
1772468064744618500,1.947618408203125,-0.9500274658203125,-0.426300048828125,-0.029144287109375
1772468064754591500,1.957591552734375,-1.0239105224609375,-0.350311279296875,-0.172515869140625
1772468064764563500,1.9675634765625,-1.2430267333984375,-0.2744903564453125,-0.3206024169921875
1772468064774535400,1.977535400390625,-1.490936279296875,-0.1749114990234375,-0.45751953125
1772468064784508400,1.98750830078125,-1.6255645751953125,-0.1981201171875,-0.6837158203125
1772468064794480600,1.997480712890625,-1.79345703125,-0.20269775390625,-0.8903045654296875
1772468064804453400,2.007453369140625,-1.959930419921875,-0.189117431640625,-1.0232696533203125
1772468064814425300,2.01742529296875,-2.0860443115234375,-0.226898193359375,-1.1120452880859375
1772468064824398600,2.027398681640625,-2.26605224609375,-0.318603515625,-1.0677947998046875
1772468064834370300,2.037370361328125,-2.48675537109375,-0.421600341796875,-0.9048309326171875
1772468064844342500,2.047342529296875,-2.5625152587890625,-0.4478759765625,-0.8120880126953125
1772468064854315500,2.0573154296875,-2.65594482421875,-0.36370849609375,-0.7735137939453125
1772468064864287500,2.06728759765625,-2.7440338134765625,-0.23138427734375,-0.766632080078125
1772468064874260500,2.077260498046875,-2.7667388916015625,-0.0800628662109375,-0.849273681640625
1772468064884232400,2.087232421875,-2.81121826171875,0.068389892578125,-0.9114227294921875
1772468064894205700,2.097205810546875,-2.785919189453125,0.1484527587890625,-0.8999481201171875
1772468064904177400,2.107177490234375,-2.7070465087890625,0.187835693359375,-0.8596343994140625
1772468064914150400,2.117150390625,-2.6216888427734375,0.2165679931640625,-0.7228240966796875
1772468064924122600,2.12712255859375,-2.5015411376953125,0.2465362548828125,-0.56353759765625
1772468064934094300,2.13709423828125,-2.3380889892578125,0.2486572265625,-0.4137725830078125
1772468064944067800,2.14706787109375,-2.1947174072265625,0.2305908203125,-0.2624359130859375
1772468064954039600,2.15703955078125,-2.0229034423828125,0.207000732421875,-0.164764404296875
1772468064964012500,2.167012451171875,-1.8570404052734375,0.1772003173828125,-0.1023101806640625
1772468064973984800,2.17698486328125,-1.7176361083984375,0.1337738037109375,-0.0157012939453125
1772468064983957500,2.18695751953125,-1.5861358642578125,0.0805816650390625,0.0746612548828125
1772468064993929700,2.1969296875,-1.4633636474609375,0.0006866455078125,0.1544036865234375
1772468065003902700,2.20690283203125,-1.336578369140625,-0.09283447265625,0.2307586669921875
1772468065013874400,2.21687451171875,-1.1739654541015625,-0.1818695068359375,0.2908782958984375
1772468065023846700,2.2268466796875,-1.00048828125,-0.263153076171875,0.328857421875
1772468065033819600,2.236819580078125,-0.814483642578125,-0.3204345703125,0.35235595703125
1772468065043791600,2.24679150390625,-0.6299896240234375,-0.33721923828125,0.37359619140625
1772468065053764600,2.2567646484375,-0.4146728515625,-0.3299560546875,0.4007720947265625
1772468065063736600,2.266736572265625,-0.2024383544921875,-0.299407958984375,0.4334564208984375
1772468065073709800,2.276709716796875,-0.008880615234375,-0.2559051513671875,0.4703216552734375
1772468065083681500,2.286681640625,0.1648406982421875,-0.1888885498046875,0.467559814453125
1772468065093653800,2.29665380859375,0.2694854736328125,-0.104034423828125,0.460845947265625
1772468065103626800,2.306626708984375,0.327056884765625,-0.03179931640625,0.4981842041015625
1772468065113598500,2.316598388671875,0.3468170166015625,0.015380859375,0.5665435791015625
1772468065123571700,2.32657177734375,0.3884735107421875,0.06219482421875,0.56781005859375
1772468065133543700,2.336543701171875,0.4535675048828125,0.1092529296875,0.518524169921875
1772468065143516400,2.346516357421875,0.44171142578125,0.2196502685546875,0.4646759033203125
1772468065153488600,2.356488525390625,0.3917388916015625,0.29150390625,0.4155426025390625
1772468065163461600,2.366461669921875,0.3726654052734375,0.31341552734375,0.4034881591796875
1772468065173433600,2.37643359375,0.3570556640625,0.3543701171875,0.400909423828125
1772468065183405600,2.386405517578125,0.3371734619140625,0.3875579833984375,0.3850860595703125
1772468065193378600,2.396378662109375,0.3260040283203125,0.403961181640625,0.357940673828125
1772468065203350500,2.4063505859375,0.3172760009765625,0.4310302734375,0.32928466796875
1772468065213323500,2.416323486328125,0.3218536376953125,0.43951416015625,0.2923431396484375
1772468065223295700,2.426295654296875,0.3184967041015625,0.4220123291015625,0.248138427734375
1772468065233268500,2.4362685546875,0.3374786376953125,0.3868255615234375,0.2258758544921875
1772468065243240700,2.44624072265625,0.3368072509765625,0.3253021240234375,0.1929779052734375
1772468065253213700,2.456213623046875,0.327728271484375,0.2537689208984375,0.152801513671875
1772468065263185400,2.466185302734375,0.332122802734375,0.2100830078125,0.0493316650390625
1772468065273157600,2.47615771484375,0.3446044921875,0.185760498046875,-0.0789031982421875
1772468065283130600,2.486130615234375,0.3072967529296875,0.1606903076171875,-0.182098388671875
1772468065293102600,2.4961025390625,0.284393310546875,0.200531005859375,-0.306243896484375
1772468065303075600,2.50607568359375,0.2715301513671875,0.30413818359375,-0.4815216064453125
1772468065313047600,2.516047607421875,0.2429656982421875,0.43927001953125,-0.645477294921875
1772468065323020800,2.526020751953125,0.205841064453125,0.5382537841796875,-0.875213623046875
1772468065332992500,2.535992431640625,0.1332244873046875,0.6358489990234375,-1.1355133056640625
1772468065342965500,2.545965576171875,0.0505523681640625,0.63482666015625,-1.3455047607421875
1772468065352937700,2.555937744140625,-0.0145263671875,0.56365966796875,-1.5683746337890625
1772468065362909400,2.565909423828125,-0.1005859375,0.432281494140625,-1.7862091064453125
1772468065372882700,2.575882568359375,-0.1867828369140625,0.372772216796875,-2.083984375
1772468065382854700,2.585854736328125,-0.2445220947265625,0.4133758544921875,-2.462188720703125
1772468065392827400,2.595827392578125,-0.29974365234375,0.406829833984375,-2.7718963623046875
1772468065402799600,2.605799560546875,-0.4272308349609375,0.28533935546875,-2.8698272705078125
1772468065412772600,2.615772705078125,-0.5749359130859375,0.1056060791015625,-2.81719970703125
1772468065422744600,2.62574462890625,-0.7125701904296875,-0.0040435791015625,-2.7166290283203125
1772468065432717600,2.635717529296875,-0.82684326171875,-0.1254425048828125,-2.55950927734375
1772468065442689500,2.645689453125,-0.88360595703125,-0.2028961181640625,-2.35260009765625
1772468065452661500,2.65566162109375,-0.8983612060546875,-0.1560516357421875,-2.1702728271484375
1772468065462634500,2.665634521484375,-0.8976898193359375,-0.057861328125,-2.009063720703125
1772468065472606700,2.675606689453125,-0.8903045654296875,-0.029754638671875,-1.8469085693359375
1772468065482579700,2.685579833984375,-0.8836517333984375,-0.042236328125,-1.772491455078125
1772468065492551700,2.6955517578125,-0.87646484375,-0.086090087890625,-1.7981109619140625
1772468065502524700,2.705524658203125,-0.867767333984375,-0.1063690185546875,-1.8915252685546875
1772468065512496600,2.71549658203125,-0.8521728515625,-0.129638671875,-1.9927825927734375
1772468065522469600,2.7254697265625,-0.823150634765625,-0.1208648681640625,-2.059326171875
1772468065532441600,2.735441650390625,-0.790679931640625,-0.098480224609375,-2.0406646728515625
1772468065542414600,2.74541455078125,-0.7624664306640625,-0.042327880859375,-1.98687744140625
1772468065552386600,2.755386474609375,-0.73284912109375,0.0438079833984375,-1.9268341064453125
1772468065562358500,2.765358642578125,-0.7020263671875,0.1385345458984375,-1.8768768310546875
1772468065572331800,2.775331787109375,-0.6669464111328125,0.238372802734375,-1.85015869140625
1772468065582303500,2.785303466796875,-0.6290130615234375,0.3251953125,-1.831298828125
1772468065592276500,2.7952763671875,-0.604736328125,0.41705322265625,-1.76824951171875
1772468065602248700,2.805248779296875,-0.635009765625,0.4714202880859375,-1.660552978515625
1772468065612221700,2.8152216796875,-0.6711883544921875,0.4722137451171875,-1.5671539306640625
1772468065622193700,2.825193603515625,-0.66754150390625,0.4235076904296875,-1.48809814453125
1772468065632166700,2.835166748046875,-0.6555938720703125,0.43701171875,-1.472564697265625
1772468065642138600,2.845138671875,-0.6407012939453125,0.4703521728515625,-1.46636962890625
1772468065652110600,2.855110595703125,-0.6204681396484375,0.4695281982421875,-1.3963775634765625
1772468065662083600,2.86508349609375,-0.6166229248046875,0.4445648193359375,-1.262847900390625
1772468065672055800,2.875055908203125,-0.615509033203125,0.38525390625,-1.092041015625
1772468065682028500,2.885028564453125,-0.593994140625,0.2987823486328125,-0.88824462890625
1772468065692000500,2.89500048828125,-0.58404541015625,0.207794189453125,-0.6679840087890625
1772468065701973800,2.904973876953125,-0.572723388671875,0.1602630615234375,-0.500823974609375
1772468065711945500,2.914945556640625,-0.5612945556640625,0.1699981689453125,-0.372283935546875
1772468065721918500,2.92491845703125,-0.5502471923828125,0.1671905517578125,-0.2095794677734375
1772468065731890700,2.934890625,-0.553009033203125,0.1381683349609375,-0.0305633544921875
1772468065741862700,2.944862548828125,-0.545379638671875,0.085357666015625,0.1203765869140625
1772468065751835600,2.954835693359375,-0.5224151611328125,0.0312042236328125,0.244140625
1772468065761807600,2.9648076171875,-0.4718170166015625,0.015960693359375,0.316864013671875
1772468065771780600,2.974780517578125,-0.4336395263671875,0.0581512451171875,0.362701416015625
1772468065781752600,2.984752685546875,-0.4020843505859375,0.1373138427734375,0.34552001953125
1772468065791725600,2.9947255859375,-0.3886871337890625,0.211395263671875,0.3130950927734375
1772468065801697500,3.004697509765625,-0.3722076416015625,0.25750732421875,0.3009490966796875
1772468065811670500,3.01467041015625,-0.353790283203125,0.3059844970703125,0.2647705078125
1772468065821642800,3.024642822265625,-0.3441009521484375,0.3294219970703125,0.207672119140625
1772468065831614500,3.034614501953125,-0.319091796875,0.2982940673828125,0.1669921875
1772468065841587500,3.04458740234375,-0.2815093994140625,0.2679595947265625,0.1341094970703125
1772468065851559700,3.0545595703125,-0.2618560791015625,0.2320404052734375,0.1122283935546875
1772468065861532700,3.06453271484375,-0.2377471923828125,0.197357177734375,0.0792694091796875
1772468065871504600,3.074504638671875,-0.21337890625,0.19219970703125,0.0312957763671875
1772468065881477600,3.0844775390625,-0.20538330078125,0.1998748779296875,-0.01422119140625
1772468065891449600,3.09444970703125,-0.2119293212890625,0.1940460205078125,-0.0536956787109375
1772468065901421600,3.104421630859375,-0.20367431640625,0.173797607421875,-0.1113739013671875
1772468065911394600,3.11439453125,-0.191741943359375,0.1674346923828125,-0.18359375
1772468065921366800,3.12436669921875,-0.2111053466796875,0.1973876953125,-0.2813262939453125
1772468065931339500,3.134339599609375,-0.2252349853515625,0.270416259765625,-0.4078826904296875
1772468065941311500,3.1443115234375,-0.2514801025390625,0.402587890625,-0.5773162841796875
1772468065951284200,3.1542841796875,-0.3039703369140625,0.5537872314453125,-0.761749267578125
1772468065961256000,3.164255859375,-0.3023681640625,0.6281585693359375,-0.922882080078125
1772468065971229200,3.174229248046875,-0.285888671875,0.5736846923828125,-0.989166259765625
1772468065981201200,3.184201171875,-0.2932281494140625,0.5213470458984375,-1.0688629150390625
1772468065991174100,3.194174072265625,-0.33685302734375,0.5687713623046875,-1.237274169921875
1772468066001146000,3.20414599609375,-0.3382720947265625,0.6201934814453125,-1.42596435546875
1772468066011118000,3.2141181640625,-0.3479156494140625,0.6903533935546875,-1.5758514404296875
1772468066021091300,3.22409130859375,-0.37469482421875,0.722747802734375,-1.6576690673828125
1772468066031063000,3.23406298828125,-0.395355224609375,0.7747344970703125,-1.7413330078125
1772468066041036000,3.2440361328125,-0.427093505859375,0.8505096435546875,-1.837493896484375
1772468066051008300,3.25400830078125,-0.4346466064453125,0.9331207275390625,-1.9420928955078125
1772468066060981000,3.26398095703125,-0.4131317138671875,1.043487548828125,-2.101226806640625
1772468066070953200,3.273953125,-0.3898162841796875,1.0879974365234375,-2.1910858154296875
1772468066080926200,3.28392626953125,-0.3470611572265625,1.06793212890625,-2.1864166259765625
1772468066090898000,3.29389794921875,-0.2667236328125,1.0510101318359375,-2.2048187255859375
1772468066100871200,3.30387109375,-0.1637725830078125,1.0154876708984375,-2.2303314208984375
1772468066110843100,3.313843017578125,-0.0956268310546875,0.983795166015625,-2.2089996337890625
1772468066120815000,3.323815185546875,-0.0377960205078125,0.9326934814453125,-2.1911468505859375
1772468066130788000,3.3337880859375,0.0265045166015625,0.929656982421875,-2.2294464111328125
1772468066140760000,3.343760009765625,0.0741119384765625,0.904144287109375,-2.258941650390625
1772468066150733000,3.353733154296875,0.1394805908203125,0.8941802978515625,-2.3910675048828125
1772468066160705000,3.363705078125,0.230194091796875,0.97259521484375,-2.5882720947265625
1772468066170678000,3.373677978515625,0.298126220703125,1.100860595703125,-2.7447662353515625
1772468066180650000,3.38364990234375,0.3590087890625,1.214569091796875,-2.914886474609375
1772468066190623000,3.393623046875,0.4034423828125,1.344818115234375,-2.9918365478515625
1772468066200595200,3.40359521484375,0.406829833984375,1.3974151611328125,-2.92657470703125
1772468066210567000,3.41356689453125,0.3783721923828125,1.39166259765625,-2.7758331298828125
1772468066220540200,3.4235400390625,0.3613128662109375,1.3727264404296875,-2.5823974609375
1772468066230512000,3.43351220703125,0.3214111328125,1.349151611328125,-2.390838623046875
1772468066240485000,3.443485107421875,0.28717041015625,1.3209228515625,-2.190460205078125
1772468066250457000,3.45345703125,0.2432403564453125,1.2436065673828125,-1.99468994140625
1772468066260430000,3.46343017578125,0.23779296875,1.16143798828125,-1.8524932861328125
1772468066270402300,3.47340234375,0.2578277587890625,1.09539794921875,-1.7449188232421875
1772468066280375000,3.483375,0.272064208984375,0.9985809326171875,-1.6225128173828125
1772468066290347000,3.493346923828125,0.2546844482421875,0.8839569091796875,-1.4809722900390625
1772468066300319200,3.5033193359375,0.241363525390625,0.754547119140625,-1.331146240234375
1772468066310292000,3.5132919921875,0.22467041015625,0.6065673828125,-1.1857452392578125
1772468066320264200,3.52326416015625,0.2313232421875,0.452667236328125,-1.090850830078125
1772468066330237200,3.5332373046875,0.23089599609375,0.307891845703125,-1.0200958251953125
1772468066340209000,3.543208984375,0.207305908203125,0.19683837890625,-0.9553985595703125
1772468066350182100,3.55318212890625,0.17742919921875,0.1079864501953125,-0.9089508056640625
1772468066360154000,3.563154052734375,0.1481781005859375,0.0292510986328125,-0.8721923828125
1772468066370127000,3.573127197265625,0.116973876953125,-0.0270843505859375,-0.8277740478515625
1772468066380099000,3.58309912109375,0.079315185546875,-0.0661468505859375,-0.77081298828125
1772468066390072000,3.593072021484375,0.0500946044921875,-0.0757598876953125,-0.7417449951171875
1772468066400044300,3.603044189453125,0.0251922607421875,-0.0360870361328125,-0.7238922119140625
1772468066410016000,3.61301611328125,0.0159149169921875,0.02239990234375,-0.709136962890625
1772468066419989000,3.622989013671875,0.0040435791015625,0.0760650634765625,-0.672882080078125
1772468066429961200,3.632961181640625,-0.011962890625,0.1300048828125,-0.6331787109375
1772468066439934000,3.642933837890625,-0.0212860107421875,0.14825439453125,-0.5916290283203125
1772468066449906200,3.65290625,-0.0191192626953125,0.1427154541015625,-0.5404205322265625
1772468066459879200,3.662879150390625,-0.0153045654296875,0.1444854736328125,-0.491302490234375
1772468066469851100,3.67285107421875,-0.015472412109375,0.13482666015625,-0.4470672607421875
1772468066479824100,3.68282421875,-0.0099334716796875,0.1154632568359375,-0.4055938720703125
1772468066489796000,3.692796142578125,-0.02032470703125,0.100250244140625,-0.3655242919921875
1772468066499768000,3.70276806640625,-0.02667236328125,0.1007537841796875,-0.3221435546875
1772468066509741000,3.712740966796875,-0.0395660400390625,0.081939697265625,-0.28155517578125
1772468066519713300,3.72271337890625,-0.0569305419921875,0.0870208740234375,-0.2625732421875
1772468066529686300,3.732686279296875,-0.0887298583984375,0.1116943359375,-0.2508544921875
1772468066539658000,3.742657958984375,-0.11865234375,0.124664306640625,-0.2130584716796875
1772468066549631200,3.75263134765625,-0.1275177001953125,0.115447998046875,-0.157012939453125
1772468066559603200,3.762603271484375,-0.11468505859375,0.0917510986328125,-0.0911712646484375
1772468066569576000,3.772575927734375,-0.125732421875,0.0762786865234375,-0.0315399169921875
1772468066579548200,3.782548095703125,-0.1770477294921875,0.0850982666015625,0.0390777587890625
1772468066589520100,3.79252001953125,-0.19708251953125,0.0758819580078125,0.0700225830078125
1772468066599493000,3.8024931640625,-0.1922149658203125,0.02728271484375,0.0418853759765625
1772468066609465000,3.812465087890625,-0.272003173828125,0.00042724609375,0.0388946533203125
1772468066619438000,3.82243798828125,-0.365875244140625,-0.040740966796875,0.0687713623046875
1772468066629410000,3.83241015625,-0.3912811279296875,-0.156158447265625,0.0959625244140625
1772468066639383000,3.842383056640625,-0.3924713134765625,-0.2862091064453125,0.1547698974609375
1772468066649355300,3.852355224609375,-0.403167724609375,-0.3966522216796875,0.21563720703125
1772468066659328300,3.862328369140625,-0.427490234375,-0.4915618896484375,0.270355224609375
1772468066669300000,3.872300048828125,-0.4993133544921875,-0.5594482421875,0.3115692138671875
1772468066679272200,3.882272216796875,-0.603759765625,-0.623382568359375,0.3706512451171875
1772468066689245200,3.8922451171875,-0.7014007568359375,-0.7160491943359375,0.405914306640625
1772468066699217200,3.902217041015625,-0.772369384765625,-0.7934112548828125,0.3695831298828125
1772468066709190100,3.912190185546875,-0.8348236083984375,-0.85858154296875,0.312255859375
1772468066719162000,3.922162109375,-0.904998779296875,-0.931121826171875,0.2738037109375
1772468066729135000,3.932135009765625,-1.009002685546875,-0.995361328125,0.236907958984375
1772468066739107000,3.942107177734375,-1.055908203125,-1.033355712890625,0.199554443359375
1772468066749080000,3.952080078125,-1.099884033203125,-1.048980712890625,0.1754608154296875
1772468066759052000,3.962052001953125,-1.167388916015625,-1.043121337890625,0.1790618896484375
1772468066769024300,3.972024169921875,-1.19586181640625,-1.0450286865234375,0.2100830078125
1772468066778997200,3.981997314453125,-1.259246826171875,-1.02294921875,0.19610595703125
1772468066788969000,3.991968994140625,-1.29473876953125,-0.9703216552734375,0.14764404296875
1772468066798942200,4.001942138671875,-1.2819976806640625,-0.965576171875,0.1069183349609375
1772468066808914200,4.0119140625,-1.2506866455078125,-0.9853363037109375,0.060333251953125
1772468066818887000,4.021886962890625,-1.20574951171875,-1.0077972412109375,0.0414276123046875
1772468066828859100,4.031859130859375,-1.140411376953125,-1.047698974609375,0.0753326416015625
1772468066838832000,4.04183203125,-1.06597900390625,-1.0569305419921875,0.1382598876953125
1772468066848804000,4.05180419921875,-0.979095458984375,-1.0355072021484375,0.179901123046875
1772468066858777000,4.061777099609375,-0.898468017578125,-1.009552001953125,0.1982421875
1772468066868749000,4.0717490234375,-0.84228515625,-0.9787445068359375,0.1961212158203125
1772468066878721000,4.081720947265625,-0.791015625,-0.9429168701171875,0.1700592041015625
1772468066888694000,4.091694091796875,-0.73980712890625,-0.892364501953125,0.12139892578125
1772468066898666200,4.101666259765625,-0.6879425048828125,-0.8142547607421875,0.0678863525390625
1772468066908639200,4.11163916015625,-0.64996337890625,-0.7215576171875,0.009307861328125
1772468066918611000,4.12161083984375,-0.5805511474609375,-0.6100921630859375,-0.0803680419921875
1772468066928584200,4.131584228515625,-0.5224151611328125,-0.5069732666015625,-0.162933349609375
1772468066938556200,4.14155615234375,-0.4719085693359375,-0.4539947509765625,-0.19775390625
1772468066948533000,4.151532958984375,-0.4334564208984375,-0.3941192626953125,-0.20794677734375
1772468066958505200,4.161505126953125,-0.4035491943359375,-0.3266754150390625,-0.2028045654296875
1772468066968477200,4.171477294921875,-0.3699493408203125,-0.2641143798828125,-0.1785888671875
1772468066978450200,4.1814501953125,-0.3433380126953125,-0.2077178955078125,-0.146209716796875
1772468066988422100,4.191422119140625,-0.324920654296875,-0.1464691162109375,-0.1250457763671875
1772468066998395100,4.20139501953125,-0.3097076416015625,-0.098236083984375,-0.115478515625
1772468067008367000,4.2113671875,-0.2938690185546875,-0.085601806640625,-0.091033935546875
1772468067018340000,4.221340087890625,-0.28802490234375,-0.101226806640625,-0.0511932373046875
1772468067028312300,4.231312255859375,-0.2694244384765625,-0.1291351318359375,-0.028106689453125
1772468067038285300,4.241285400390625,-0.261810302734375,-0.129486083984375,-0.0023193359375
1772468067048257000,4.251257080078125,-0.2699432373046875,-0.129730224609375,0.0231170654296875
1772468067058229200,4.261229248046875,-0.278778076171875,-0.147216796875,0.048065185546875
1772468067068202200,4.2712021484375,-0.29193115234375,-0.1531982421875,0.0643463134765625
1772468067078174200,4.28117431640625,-0.306060791015625,-0.152801513671875,0.0678558349609375
1772468067088147200,4.291147216796875,-0.303131103515625,-0.157684326171875,0.0692291259765625
1772468067098119200,4.301119140625,-0.2938995361328125,-0.1619110107421875,0.0553131103515625
1772468067108092200,4.311092041015625,-0.3027191162109375,-0.149200439453125,0.0330047607421875
1772468067118064000,4.321064208984375,-0.32330322265625,-0.1319580078125,0.0225982666015625
1772468067128037000,4.331037109375,-0.336669921875,-0.132080078125,0.00579833984375
1772468067138009000,4.341009033203125,-0.34326171875,-0.134429931640625,-0.01837158203125
1772468067147982000,4.350982177734375,-0.3783416748046875,-0.13006591796875,-0.0195770263671875
1772468067157954300,4.360954345703125,-0.390594482421875,-0.1819305419921875,0.0078125
1772468067167926000,4.370926025390625,-0.42779541015625,-0.2637786865234375,0.0670166015625
1772468067177899000,4.38089892578125,-0.5032196044921875,-0.341064453125,0.137908935546875
1772468067187871200,4.390871337890625,-0.592254638671875,-0.4456939697265625,0.18475341796875
1772468067197844200,4.40084423828125,-0.672515869140625,-0.5534820556640625,0.2060699462890625
1772468067207816200,4.410816162109375,-0.7286224365234375,-0.5649261474609375,0.104095458984375
1772468067217789200,4.4207890625,-0.8235015869140625,-0.6117095947265625,0.052978515625
1772468067227761200,4.43076123046875,-0.9293212890625,-0.96783447265625,0.3002471923828125
1772468067237734100,4.440734130859375,-1.12481689453125,-1.0794525146484375,0.39599609375
1772468067247706000,4.4507060546875,-1.2739105224609375,-0.821502685546875,0.0693206787109375
1772468067257678300,4.46067822265625,-1.2834930419921875,-0.9497833251953125,0.038818359375
1772468067267651000,4.470651123046875,-1.4304962158203125,-1.0559539794921875,0.120361328125
1772468067277623300,4.480623291015625,-1.52716064453125,-0.894683837890625,-0.0164031982421875
1772468067287596300,4.49059619140625,-1.5250091552734375,-0.7868804931640625,-0.14569091796875
1772468067297568000,4.500568115234375,-1.5394287109375,-0.7824554443359375,-0.165679931640625
1772468067307541200,4.510541259765625,-1.5424957275390625,-0.725616455078125,-0.170989990234375
1772468067317513200,4.52051318359375,-1.50091552734375,-0.69659423828125,-0.127655029296875
1772468067327486000,4.53048583984375,-1.4669952392578125,-0.7206268310546875,-0.02301025390625
1772468067337458200,4.540458251953125,-1.4349365234375,-0.7419891357421875,0.056121826171875
1772468067347431200,4.55043115234375,-1.3507537841796875,-0.7885589599609375,0.093994140625
1772468067357403100,4.560403076171875,-1.3027191162109375,-0.850433349609375,0.13079833984375
1772468067367375000,4.570375,-1.3399810791015625,-0.8827362060546875,0.1578826904296875
1772468067377348000,4.58034814453125,-1.3667449951171875,-0.8844757080078125,0.142578125
1772468067387320000,4.590320068359375,-1.4020843505859375,-0.860198974609375,0.0993194580078125
1772468067397293000,4.60029296875,-1.4562530517578125,-0.808197021484375,0.0425262451171875
1772468067407265300,4.610265380859375,-1.501495361328125,-0.782073974609375,0.0209808349609375
1772468067417238300,4.62023828125,-1.5427398681640625,-0.7696075439453125,-0.0036163330078125
1772468067427210000,4.6302099609375,-1.601654052734375,-0.7341461181640625,-0.0219268798828125
1772468067437183200,4.640183349609375,-1.6177215576171875,-0.716949462890625,-0.002197265625
1772468067447155200,4.6501552734375,-1.584075927734375,-0.725006103515625,0.0420684814453125
1772468067457127200,4.660127197265625,-1.52386474609375,-0.720123291015625,0.060638427734375
1772468067467100200,4.67010009765625,-1.4441680908203125,-0.7093963623046875,0.048980712890625
1772468067477072100,4.680072021484375,-1.359954833984375,-0.719268798828125,0.0232391357421875
1772468067487045000,4.690045166015625,-1.2733001708984375,-0.7324371337890625,-0.0023193359375
1772468067497017000,4.70001708984375,-1.1860504150390625,-0.71820068359375,-0.0298004150390625
1772468067506990000,4.709989990234375,-1.0941314697265625,-0.6900482177734375,-0.0373992919921875
1772468067516962000,4.719962158203125,-0.99072265625,-0.6534423828125,-0.04473876953125
1772468067526935000,4.72993505859375,-0.8793792724609375,-0.6029052734375,-0.0579071044921875
1772468067536907300,4.7399072265625,-0.7837982177734375,-0.547698974609375,-0.0559844970703125
1772468067546880300,4.74988037109375,-0.67987060546875,-0.49066162109375,-0.0678558349609375
1772468067556852200,4.759852294921875,-0.57421875,-0.42926025390625,-0.0928955078125
1772468067566824200,4.76982421875,-0.4810333251953125,-0.3657379150390625,-0.1129913330078125
1772468067576797200,4.779797119140625,-0.4292755126953125,-0.2781219482421875,-0.095947265625
1772468067586769200,4.78976904296875,-0.383880615234375,-0.1876983642578125,-0.0856170654296875
1772468067596742100,4.7997421875,-0.31036376953125,-0.100830078125,-0.098480224609375
1772468067606714400,4.80971435546875,-0.2613677978515625,-0.01324462890625,-0.0942535400390625
1772468067616687000,4.81968701171875,-0.2257843017578125,0.047454833984375,-0.0750885009765625
1772468067626659000,4.8296591796875,-0.1878662109375,0.0795440673828125,-0.046844482421875
1772468067636632300,4.83963232421875,-0.153533935546875,0.0685272216796875,-0.01318359375
1772468067646604000,4.84960400390625,-0.12420654296875,0.022918701171875,0.0286712646484375
1772468067656577000,4.859576904296875,-0.100860595703125,-0.00531005859375,0.059967041015625
1772468067666549200,4.86954931640625,-0.0742340087890625,-0.022125244140625,0.0606842041015625
1772468067676521000,4.87952099609375,-0.0533294677734375,-0.0285797119140625,0.0485992431640625
1772468067686494200,4.889494140625,-0.05206298828125,-0.0367431640625,0.03466796875
1772468067696466200,4.899466064453125,-0.058868408203125,-0.050506591796875,0.021575927734375
1772468067706439200,4.909439208984375,-0.068450927734375,-0.0607452392578125,-0.0008087158203125
1772468067716411100,4.9194111328125,-0.07916259765625,-0.0643463134765625,-0.0367431640625
1772468067726384000,4.929384033203125,-0.1043701171875,-0.0658721923828125,-0.06640625
1772468067736356400,4.9393564453125,-0.132293701171875,-0.073333740234375,-0.0661163330078125
1772468067746329000,4.9493291015625,-0.1680450439453125,-0.099334716796875,-0.0416717529296875
1772468067756301000,4.959301025390625,-0.2204437255859375,-0.11279296875,-0.0194244384765625
1772468067766273300,4.969273193359375,-0.3170623779296875,-0.119354248046875,-0.015045166015625
1772468067776246000,4.97924609375,-0.4426422119140625,-0.14129638671875,-0.0382843017578125
1772468067786218200,4.98921826171875,-0.566558837890625,-0.20135498046875,-0.0750732421875
1772468067796191200,4.999191162109375,-0.69366455078125,-0.2889862060546875,-0.05780029296875
1772468067806163200,5.0091630859375,-0.817474365234375,-0.43145751953125,0.016448974609375
1772468067816136200,5.01913623046875,-0.900177001953125,-0.91046142578125,0.2737884521484375
1772468067826108200,5.029108154296875,-1.05694580078125,-1.1803131103515625,0.4607086181640625
1772468067836081200,5.0390810546875,-1.330169677734375,-0.4921875,0.046478271484375
1772468067846053000,5.04905322265625,-1.23907470703125,-0.618743896484375,-0.1516876220703125
1772468067856026000,5.059026123046875,-1.37896728515625,-0.957366943359375,0.012054443359375
1772468067865998300,5.068998291015625,-1.6147918701171875,-0.657135009765625,-0.2345428466796875
1772468067875970000,5.078969970703125,-1.5686492919921875,-0.417877197265625,-0.4888153076171875
1772468067885943300,5.088943359375,-1.4857330322265625,-0.3940277099609375,-0.5356903076171875
1772468067895915300,5.098915283203125,-1.5997467041015625,-0.3323211669921875,-0.482940673828125
1772468067905888000,5.108887939453125,-1.6404571533203125,-0.2963409423828125,-0.2937774658203125
1772468067915860200,5.118860107421875,-1.5756378173828125,-0.3203887939453125,-0.139007568359375
1772468067925833200,5.128833251953125,-1.5180206298828125,-0.3627471923828125,-0.029388427734375
1772468067935805200,5.13880517578125,-1.47003173828125,-0.41546630859375,0.062652587890625
1772468067945774300,5.1487744140625,-1.4027862548828125,-0.446441650390625,0.1016998291015625
1772468067955746300,5.158746337890625,-1.36737060546875,-0.492156982421875,0.155242919921875
1772468067965719600,5.168719482421875,-1.31597900390625,-0.5511932373046875,0.1783447265625
1772468067975691300,5.178691162109375,-1.29559326171875,-0.5406646728515625,0.1080169677734375
1772468067985663500,5.18866357421875,-1.27239990234375,-0.543701171875,0.0074615478515625
1772468067995636500,5.198636474609375,-1.27471923828125,-0.5276947021484375,-0.069671630859375
1772468068005608400,5.2086083984375,-1.3326873779296875,-0.4975433349609375,-0.1366729736328125
1772468068015581400,5.21858154296875,-1.366180419921875,-0.5042572021484375,-0.1892547607421875
1772468068025553400,5.228553466796875,-1.42266845703125,-0.5159759521484375,-0.236663818359375
1772468068035526400,5.2385263671875,-1.53948974609375,-0.53253173828125,-0.2333831787109375
1772468068045498400,5.248498291015625,-1.5824737548828125,-0.5624542236328125,-0.2423858642578125
1772468068055471400,5.258471435546875,-1.639862060546875,-0.5702362060546875,-0.278717041015625
1772468068065443600,5.268443603515625,-1.6927490234375,-0.570220947265625,-0.2962799072265625
1772468068075416300,5.278416259765625,-1.6624298095703125,-0.5698699951171875,-0.295654296875
1772468068085388500,5.288388427734375,-1.6522674560546875,-0.5611724853515625,-0.246429443359375
1772468068095360500,5.298360595703125,-1.6416473388671875,-0.560516357421875,-0.1607513427734375
1772468068105333200,5.308333251953125,-1.592376708984375,-0.5782623291015625,-0.09228515625
1772468068115305500,5.318305419921875,-1.5304107666015625,-0.6011505126953125,-0.05267333984375
1772468068125276400,5.3282763671875,-1.4576873779296875,-0.59259033203125,-0.0565643310546875
1772468068135249400,5.33824951171875,-1.3559112548828125,-0.5727386474609375,-0.0793609619140625
1772468068145221400,5.348221435546875,-1.24407958984375,-0.534912109375,-0.0984039306640625
1772468068155194600,5.358194580078125,-1.1339874267578125,-0.491363525390625,-0.101409912109375
1772468068165166300,5.368166259765625,-1.0156097412109375,-0.429229736328125,-0.1092376708984375
1772468068175138600,5.378138671875,-0.88861083984375,-0.36669921875,-0.131072998046875
1772468068185111300,5.388111328125,-0.7491912841796875,-0.3334197998046875,-0.1436920166015625
1772468068195083300,5.398083251953125,-0.6102752685546875,-0.3036956787109375,-0.1446380615234375
1772468068205056500,5.408056396484375,-0.479156494140625,-0.2427215576171875,-0.1634368896484375
1772468068215028200,5.4180283203125,-0.3653106689453125,-0.1716156005859375,-0.1852569580078125
1772468068225001200,5.428001220703125,-0.26434326171875,-0.103179931640625,-0.20391845703125
1772468068234973400,5.437973388671875,-0.17791748046875,-0.034423828125,-0.219696044921875
1772468068244946400,5.447946533203125,-0.100311279296875,0.002899169921875,-0.1978759765625
1772468068254918400,5.45791845703125,-0.048675537109375,0.0111541748046875,-0.135711669921875
1772468068264891400,5.467891357421875,-0.0072021484375,-0.0033721923828125,-0.058441162109375
1772468068274863400,5.47786328125,0.028289794921875,-0.0185089111328125,0.0034332275390625
1772468068284835300,5.48783544921875,0.0505523681640625,-0.0188751220703125,0.0334625244140625
1772468068294808300,5.497808349609375,0.0643463134765625,-0.02899169921875,0.0551605224609375
1772468068304780500,5.507780517578125,0.069244384765625,-0.0557403564453125,0.083648681640625
1772468068314753300,5.517753173828125,0.069915771484375,-0.0597381591796875,0.084747314453125
1772468068324725500,5.5277255859375,0.0568389892578125,-0.0598602294921875,0.0783538818359375
1772468068334698500,5.537698486328125,0.070098876953125,-0.0978240966796875,0.0831146240234375
1772468068344670200,5.547670166015625,0.0688934326171875,-0.1217498779296875,0.0824432373046875
1772468068354643500,5.5576435546875,0.0260009765625,-0.0980987548828125,0.0418243408203125
1772468068364615400,5.567615478515625,-0.029083251953125,-0.0836944580078125,-0.0149078369140625
1772468068374588400,5.57758837890625,-0.1025543212890625,-0.1311187744140625,-0.0491943359375
1772468068384560400,5.587560302734375,-0.2403564453125,-0.2239990234375,-0.0222320556640625
1772468068394532400,5.597532470703125,-0.3992462158203125,-0.3035430908203125,0.0052337646484375
1772468068404505600,5.607505615234375,-0.5418701171875,-0.3480682373046875,0.000640869140625
1772468068414477300,5.617477294921875,-0.6875762939453125,-0.3578948974609375,-0.0171051025390625
1772468068424450300,5.6274501953125,-0.823883056640625,-0.40435791015625,0.0312652587890625
1772468068434422500,5.637422607421875,-0.938262939453125,-0.6248626708984375,0.1420745849609375
1772468068444395300,5.647395263671875,-1.0810394287109375,-0.5854949951171875,0.056884765625
1772468068454367500,5.657367431640625,-1.201446533203125,-0.3831939697265625,-0.1351776123046875
1772468068464340500,5.667340576171875,-1.1831512451171875,-0.520294189453125,-0.1644439697265625
1772468068474312200,5.677312255859375,-1.2766571044921875,-0.5370330810546875,-0.1711273193359375
1772468068484285400,5.687285400390625,-1.3527069091796875,-0.481842041015625,-0.1975555419921875
1772468068494257400,5.69725732421875,-1.390869140625,-0.4821319580078125,-0.1711578369140625
1772468068504230400,5.70723046875,-1.4340972900390625,-0.4821624755859375,-0.1624298095703125
1772468068514202400,5.717202392578125,-1.50677490234375,-0.474334716796875,-0.1884765625
1772468068524174300,5.72717431640625,-1.5831146240234375,-0.4853363037109375,-0.1986541748046875
1772468068534147600,5.737147705078125,-1.6235504150390625,-0.508087158203125,-0.2302703857421875
1772468068544119300,5.747119384765625,-1.635467529296875,-0.51885986328125,-0.244659423828125
1772468068554092300,5.75709228515625,-1.60699462890625,-0.56317138671875,-0.2339324951171875
1772468068564064500,5.767064453125,-1.565765380859375,-0.6301422119140625,-0.1995849609375
1772468068574037200,5.777037353515625,-1.55255126953125,-0.6767425537109375,-0.150909423828125
1772468068584009500,5.787009521484375,-1.542816162109375,-0.68829345703125,-0.120269775390625
1772468068593982500,5.796982421875,-1.5097503662109375,-0.67852783203125,-0.10955810546875
1772468068603954400,5.806954345703125,-1.468109130859375,-0.6808319091796875,-0.0865631103515625
1772468068613927400,5.816927490234375,-1.41864013671875,-0.69061279296875,-0.065887451171875
1772468068623899400,5.8268994140625,-1.3569183349609375,-0.690399169921875,-0.0881500244140625
1772468068633871400,5.836871337890625,-1.3569488525390625,-0.6816558837890625,-0.1085968017578125
1772468068643844400,5.84684423828125,-1.3839569091796875,-0.675506591796875,-0.1374053955078125
1772468068653816600,5.856816650390625,-1.3931121826171875,-0.6709136962890625,-0.191650390625
1772468068663789600,5.86678955078125,-1.4267730712890625,-0.685394287109375,-0.1878204345703125
1772468068673761300,5.87676123046875,-1.4310302734375,-0.70086669921875,-0.1587066650390625
1772468068683734500,5.886734619140625,-1.40960693359375,-0.68505859375,-0.1376495361328125
1772468068693706500,5.89670654296875,-1.3788604736328125,-0.650726318359375,-0.1360931396484375
1772468068703679200,5.90667919921875,-1.35040283203125,-0.6287078857421875,-0.132568359375
1772468068713651500,5.9166513671875,-1.311492919921875,-0.6002197265625,-0.1245880126953125
1772468068723624400,5.92662451171875,-1.27960205078125,-0.56280517578125,-0.11627197265625
1772468068733597400,5.936597412109375,-1.24322509765625,-0.5077667236328125,-0.1207122802734375
1772468068743570400,5.9465703125,-1.191070556640625,-0.4392852783203125,-0.141387939453125
1772468068753542400,5.95654248046875,-1.1161651611328125,-0.39007568359375,-0.162445068359375
1772468068763515400,5.966515380859375,-1.0277099609375,-0.340789794921875,-0.1721343994140625
1772468068773487400,5.9764873046875,-0.938507080078125,-0.285247802734375,-0.172088623046875
1772468068783459300,5.986459228515625,-0.8271026611328125,-0.258087158203125,-0.1840972900390625
1772468068793432600,5.9964326171875,-0.7149810791015625,-0.2472991943359375,-0.1878662109375
1772468068803404300,6.006404296875,-0.612213134765625,-0.2302703857421875,-0.1653900146484375
1772468068813377300,6.016377197265625,-0.51416015625,-0.2073822021484375,-0.1503143310546875
1772468068823349500,6.026349609375,-0.421234130859375,-0.1597747802734375,-0.1520233154296875
1772468068833322200,6.036322265625,-0.324188232421875,-0.10040283203125,-0.1725006103515625
1772468068843294500,6.04629443359375,-0.232269287109375,-0.0503387451171875,-0.178985595703125
1772468068853267500,6.056267333984375,-0.1613311767578125,-0.0278472900390625,-0.13983154296875
1772468068863239200,6.0662392578125,-0.107330322265625,-0.0308074951171875,-0.08892822265625
1772468068873212400,6.07621240234375,-0.0684356689453125,-0.0198516845703125,-0.04388427734375
1772468068883184400,6.086184326171875,-0.0158233642578125,-0.0308990478515625,0.004974365234375
1772468068893156400,6.09615625,0.0162506103515625,-0.047515869140625,0.0664520263671875
1772468068903129300,6.10612939453125,0.021270751953125,-0.05206298828125,0.1087799072265625
1772468068913101300,6.116101318359375,0.0354461669921875,-0.063812255859375,0.1136932373046875
1772468068923074600,6.126074462890625,0.0181121826171875,-0.0717010498046875,0.0834808349609375
1772468068933046300,6.13604638671875,-0.0150909423828125,-0.074493408203125,0.0603485107421875
1772468068943019300,6.146019287109375,-0.0614776611328125,-0.08306884765625,0.047027587890625
1772468068952991700,6.15599169921875,-0.11370849609375,-0.0808258056640625,0.0177001953125
1772468068962964500,6.165964599609375,-0.1878204345703125,-0.0666351318359375,-0.0080108642578125
1772468068972936700,6.175936767578125,-0.239471435546875,-0.04705810546875,-0.025115966796875
1772468068982909700,6.18590966796875,-0.3219757080078125,-0.0634613037109375,-0.0998687744140625
1772468068992881700,6.195881591796875,-0.373992919921875,-0.1678314208984375,-0.0866241455078125
1772468069002853600,6.205853515625,-0.47265625,-0.23944091796875,-0.03179931640625
1772468069012826600,6.21582666015625,-0.5748138427734375,-0.3265533447265625,0.049163818359375
1772468069022798600,6.225798583984375,-0.5928955078125,-0.7189483642578125,0.2628021240234375
1772468069032771600,6.235771484375,-0.84716796875,-0.875,0.2663421630859375
1772468069042743800,6.245743896484375,-1.2163543701171875,-0.549896240234375,-0.0489044189453125
1772468069052716500,6.255716552734375,-1.20703125,-0.5818634033203125,-0.263763427734375
1772468069062688500,6.2656884765625,-1.26165771484375,-0.61627197265625,-0.2988433837890625
1772468069072661800,6.275661865234375,-1.4052276611328125,-0.4194488525390625,-0.405792236328125
1772468069082633500,6.285633544921875,-1.4300384521484375,-0.2688140869140625,-0.4908294677734375
1772468069092606500,6.2956064453125,-1.5141754150390625,-0.1968994140625,-0.3949737548828125
1772468069102578700,6.30557861328125,-1.576904296875,-0.239776611328125,-0.273773193359375
1772468069112551700,6.3155517578125,-1.5769195556640625,-0.314056396484375,-0.189178466796875
1772468069122523600,6.325523681640625,-1.600250244140625,-0.3943328857421875,-0.1574554443359375
1772468069132495600,6.33549560546875,-1.6304931640625,-0.451141357421875,-0.1667022705078125
1772468069142468600,6.345468505859375,-1.5894012451171875,-0.554962158203125,-0.199066162109375
1772468069152440600,6.355440673828125,-1.5537567138671875,-0.6578826904296875,-0.2275848388671875
1772468069162413600,6.36541357421875,-1.5435638427734375,-0.7004241943359375,-0.1727752685546875
1772468069172385800,6.3753857421875,-1.4814300537109375,-0.7098388671875,-0.127838134765625
1772468069182358500,6.385358642578125,-1.47100830078125,-0.6651153564453125,-0.1511383056640625
1772468069192330500,6.39533056640625,-1.4605560302734375,-0.6073150634765625,-0.1637115478515625
1772468069202303700,6.4053037109375,-1.42620849609375,-0.5813751220703125,-0.1717071533203125
1772468069212275500,6.415275390625,-1.43157958984375,-0.57745361328125,-0.1887054443359375
1772468069222248400,6.42524853515625,-1.45574951171875,-0.59613037109375,-0.213134765625
1772468069232220700,6.435220703125,-1.481201171875,-0.6037445068359375,-0.233184814453125
1772468069242192400,6.4451923828125,-1.466400146484375,-0.6068115234375,-0.245361328125
1772468069252165600,6.45516552734375,-1.444549560546875,-0.605133056640625,-0.2304229736328125
1772468069262137600,6.4651376953125,-1.421539306640625,-0.59600830078125,-0.2047119140625
1772468069272110600,6.475110595703125,-1.390350341796875,-0.58441162109375,-0.1909942626953125
1772468069282082600,6.48508251953125,-1.3458404541015625,-0.5750274658203125,-0.17559814453125
1772468069292055600,6.4950556640625,-1.3175506591796875,-0.571441650390625,-0.149017333984375
1772468069302027800,6.50502783203125,-1.3046112060546875,-0.5588836669921875,-0.1207427978515625
1772468069312000500,6.51500048828125,-1.27996826171875,-0.5583953857421875,-0.0916748046875
1772468069321972700,6.52497265625,-1.2479400634765625,-0.5517120361328125,-0.07391357421875
1772468069331945700,6.53494580078125,-1.241058349609375,-0.50811767578125,-0.0847320556640625
1772468069341917400,6.54491748046875,-1.2223052978515625,-0.4347076416015625,-0.1207427978515625
1772468069351889700,6.5548896484375,-1.1805572509765625,-0.35723876953125,-0.166351318359375
1772468069361862700,6.564862548828125,-1.1245574951171875,-0.297943115234375,-0.1915130615234375
1772468069371834600,6.574834716796875,-1.05999755859375,-0.2682342529296875,-0.1832733154296875
1772468069381807600,6.5848076171875,-0.9822540283203125,-0.261077880859375,-0.15594482421875
1772468069391779600,6.594779541015625,-0.8822479248046875,-0.2456817626953125,-0.1329193115234375
1772468069401752800,6.6047529296875,-0.781585693359375,-0.2096710205078125,-0.12567138671875
1772468069411724500,6.614724609375,-0.6884765625,-0.16778564453125,-0.125701904296875
1772468069421697500,6.624697509765625,-0.5938873291015625,-0.1332855224609375,-0.1247406005859375
1772468069431669800,6.634669677734375,-0.4992828369140625,-0.1088714599609375,-0.1243743896484375
1772468069441642500,6.644642578125,-0.421905517578125,-0.0777435302734375,-0.1298065185546875
1772468069451614700,6.65461474609375,-0.35736083984375,-0.0426483154296875,-0.133575439453125
1772468069461586700,6.664586669921875,-0.30181884765625,-0.02020263671875,-0.1211090087890625
1772468069471559400,6.674559326171875,-0.2667999267578125,-0.001129150390625,-0.0998687744140625
1772468069481531600,6.68453173828125,-0.2357330322265625,0.0085906982421875,-0.0726776123046875
1772468069491504600,6.694504638671875,-0.1883087158203125,-0.0014495849609375,-0.043609619140625
1772468069501476600,6.7044765625,-0.1567230224609375,-0.01702880859375,-0.001678466796875
1772468069511449600,6.71444970703125,-0.1383514404296875,-0.04278564453125,0.049835205078125
1772468069521421600,6.724421630859375,-0.1219940185546875,-0.073089599609375,0.099090576171875
1772468069531394800,6.734394775390625,-0.1205291748046875,-0.0937652587890625,0.1166839599609375
1772468069541366500,6.744366455078125,-0.1477813720703125,-0.1182098388671875,0.0560302734375
1772468069551339500,6.754339599609375,-0.19891357421875,-0.1078338623046875,-0.011016845703125
1772468069561311700,6.764311767578125,-0.2838287353515625,-0.11236572265625,0.005859375
1772468069571283500,6.774283447265625,-0.3328857421875,-0.0878143310546875,-0.07696533203125
1772468069581256700,6.784256591796875,-0.3833160400390625,-0.09173583984375,-0.122955322265625
1772468069591228700,6.794228759765625,-0.4683074951171875,-0.1659088134765625,-0.1068878173828125
1772468069601201400,6.804201416015625,-0.5626983642578125,-0.205169677734375,-0.0819244384765625
1772468069611173600,6.814173583984375,-0.6219329833984375,-0.239715576171875,-0.087371826171875
1772468069621146600,6.824146728515625,-0.673065185546875,-0.253631591796875,-0.160858154296875
1772468069631118600,6.83411865234375,-0.738494873046875,-0.26904296875,-0.2084808349609375
1772468069641091600,6.844091552734375,-0.7997894287109375,-0.21185302734375,-0.231842041015625
1772468069651063800,6.854063720703125,-0.8118896484375,-0.1544036865234375,-0.2946319580078125
1772468069661036800,6.864036865234375,-0.7946624755859375,-0.2038421630859375,-0.2740020751953125
1772468069671008500,6.874008544921875,-0.8002777099609375,-0.338287353515625,-0.233062744140625
1772468069680980700,6.883980712890625,-0.8513641357421875,-0.3847198486328125,-0.1959991455078125
1772468069690953500,6.893953369140625,-0.9179534912109375,-0.380523681640625,-0.1811676025390625
1772468069700925700,6.90392578125,-0.968994140625,-0.3985595703125,-0.1570892333984375
1772468069710898700,6.913898681640625,-1.054962158203125,-0.4372406005859375,-0.1287841796875
1772468069720870400,6.923870361328125,-1.1585845947265625,-0.447113037109375,-0.1219329833984375
1772468069730843600,6.93384375,-1.22772216796875,-0.422760009765625,-0.171112060546875
1772468069740815600,6.943815673828125,-1.3236846923828125,-0.446929931640625,-0.2048187255859375
1772468069750788600,6.95378857421875,-1.407928466796875,-0.5085906982421875,-0.25048828125
1772468069760760600,6.963760498046875,-1.54827880859375,-0.597381591796875,-0.2855987548828125
1772468069770733600,6.973733642578125,-1.6776580810546875,-0.67205810546875,-0.2770233154296875
1772468069780705800,6.983705810546875,-1.7802734375,-0.761322021484375,-0.250091552734375
1772468069790677500,6.993677490234375,-1.896514892578125,-0.84564208984375,-0.228057861328125
1772468069800650500,7.003650390625,-1.9788055419921875,-0.8808441162109375,-0.2185211181640625
1772468069810622700,7.013622802734375,-2.0121307373046875,-0.8571014404296875,-0.25396728515625
1772468069820595500,7.023595458984375,-2.0212860107421875,-0.815765380859375,-0.3000030517578125
1772468069830567700,7.033567626953125,-1.9659423828125,-0.8228607177734375,-0.2991180419921875
1772468069840540700,7.043540771484375,-1.8528900146484375,-0.84283447265625,-0.313751220703125
1772468069850512400,7.053512451171875,-1.7574920654296875,-0.84405517578125,-0.3016815185546875
1772468069860485600,7.063485595703125,-1.6678009033203125,-0.853790283203125,-0.2580718994140625
1772468069870457600,7.07345751953125,-1.611968994140625,-0.8277130126953125,-0.2073822021484375
1772468069880429600,7.0834296875,-1.4991912841796875,-0.797088623046875,-0.1755828857421875
1772468069890402600,7.093402587890625,-1.396209716796875,-0.7357635498046875,-0.171112060546875
1772468069900374500,7.10337451171875,-1.2832183837890625,-0.668701171875,-0.1782073974609375
1772468069910347800,7.11334765625,-1.152923583984375,-0.594696044921875,-0.1802825927734375
1772468069920319500,7.123319580078125,-1.0397186279296875,-0.5302276611328125,-0.1679534912109375
1772468069930292500,7.13329248046875,-0.924835205078125,-0.47113037109375,-0.1716461181640625
1772468069940264700,7.1432646484375,-0.8096923828125,-0.400360107421875,-0.1803741455078125
1772468069950237200,7.1532373046875,-0.72125244140625,-0.3206939697265625,-0.1795806884765625
1772468069960209400,7.16320947265625,-0.6389923095703125,-0.23114013671875,-0.1805267333984375
1772468069970182400,7.173182373046875,-0.5496063232421875,-0.152069091796875,-0.1728515625
1772468069980154400,7.183154296875,-0.4984588623046875,-0.0995025634765625,-0.150054931640625
1772468069990126300,7.193126220703125,-0.4421234130859375,-0.069000244140625,-0.14324951171875
1772468070000099300,7.203099365234375,-0.3780364990234375,-0.0469512939453125,-0.13958740234375
1772468070010071300,7.2130712890625,-0.3322296142578125,-0.0510406494140625,-0.1069793701171875
1772468070020044300,7.223044189453125,-0.2840728759765625,-0.06195068359375,-0.06732177734375
1772468070030016500,7.2330166015625,-0.23583984375,-0.062896728515625,-0.0286865234375
1772468070039989500,7.242989501953125,-0.2023773193359375,-0.06170654296875,0.0093536376953125
1772468070049961200,7.252961181640625,-0.1652374267578125,-0.0631103515625,0.04010009765625
1772468070059934500,7.2629345703125,-0.1411590576171875,-0.06500244140625,0.072357177734375
1772468070069906400,7.272906494140625,-0.118316650390625,-0.068145751953125,0.1121673583984375
1772468070079878400,7.28287841796875,-0.1172637939453125,-0.0699005126953125,0.143890380859375
1772468070089851400,7.292851318359375,-0.1190338134765625,-0.0712432861328125,0.1625518798828125
1772468070099823400,7.3028232421875,-0.1188812255859375,-0.0701141357421875,0.161285400390625
1772468070109796400,7.31279638671875,-0.1208953857421875,-0.0694122314453125,0.1460418701171875
1772468070119768300,7.322768310546875,-0.12847900390625,-0.0554962158203125,0.117034912109375
1772468070129741300,7.3327412109375,-0.1488037109375,-0.03460693359375,0.0693206787109375
1772468070139713300,7.34271337890625,-0.1715087890625,-0.0089874267578125,-0.0194854736328125
1772468070149686300,7.352686279296875,-0.18438720703125,0.054595947265625,-0.1927642822265625
1772468070159658500,7.362658447265625,-0.25738525390625,0.06414794921875,-0.124542236328125
1772468070169630200,7.372630126953125,-0.35546875,0.055877685546875,-0.054046630859375
1772468070179603500,7.382603515625,-0.3328704833984375,0.0396575927734375,-0.0512237548828125
1772468070189575400,7.392575439453125,-0.3725128173828125,0.0161590576171875,-0.050048828125
1772468070199548200,7.402548095703125,-0.4188079833984375,-0.068115234375,-0.0368194580078125
1772468070209520400,7.412520263671875,-0.4813079833984375,-0.1706390380859375,-0.0242462158203125
1772468070219493400,7.422493408203125,-0.513702392578125,-0.24462890625,0.00653076171875
1772468070229465300,7.43246533203125,-0.5748748779296875,-0.24383544921875,-0.05108642578125
1772468070239438300,7.442438232421875,-0.700775146484375,-0.2074737548828125,-0.1322174072265625
1772468070249410300,7.452410400390625,-0.7884063720703125,-0.3003387451171875,-0.1845703125
1772468070259382300,7.46238232421875,-0.8790283203125,-0.55462646484375,-0.13201904296875
1772468070269355300,7.472355224609375,-1.0157623291015625,-0.730743408203125,-0.0691986083984375
1772468070279327500,7.482327392578125,-1.23223876953125,-0.66217041015625,-0.1632537841796875
1772468070289300500,7.492300537109375,-1.4444580078125,-0.6076507568359375,-0.299530029296875
1772468070299272200,7.502272216796875,-1.6670989990234375,-0.59716796875,-0.3512725830078125
1772468070309245400,7.512245361328125,-1.8231964111328125,-0.562042236328125,-0.41339111328125
1772468070319217400,7.522217529296875,-1.925384521484375,-0.4878082275390625,-0.4976959228515625
1772468070329190100,7.532190185546875,-2.0306549072265625,-0.4217376708984375,-0.54278564453125
1772468070339162400,7.542162353515625,-2.0846405029296875,-0.4020538330078125,-0.53643798828125
1772468070349134300,7.55213427734375,-2.0619049072265625,-0.4055633544921875,-0.497955322265625
1772468070359107300,7.562107421875,-2.0080413818359375,-0.4482421875,-0.4230194091796875
1772468070369079300,7.572079345703125,-1.9639739990234375,-0.5481109619140625,-0.322479248046875
1772468070379052300,7.58205224609375,-1.8852691650390625,-0.69091796875,-0.2470703125
1772468070389024300,7.592024169921875,-1.8063812255859375,-0.7895660400390625,-0.2196044921875
1772468070398997200,7.601997314453125,-1.754486083984375,-0.8334503173828125,-0.21661376953125
1772468070408969500,7.611969482421875,-1.6856536865234375,-0.8340911865234375,-0.2056732177734375
1772468070418942500,7.6219423828125,-1.628448486328125,-0.8103179931640625,-0.2156982421875
1772468070428914400,7.63191455078125,-1.60699462890625,-0.8016357421875,-0.2511749267578125
1772468070438887400,7.641887451171875,-1.57208251953125,-0.7957611083984375,-0.299774169921875
1772468070448859400,7.651859375,-1.5620880126953125,-0.7752838134765625,-0.3400421142578125
1772468070458831400,7.661831298828125,-1.5416259765625,-0.740570068359375,-0.3406219482421875
1772468070468804400,7.671804443359375,-1.50994873046875,-0.680328369140625,-0.29705810546875
1772468070478776600,7.681776611328125,-1.4712982177734375,-0.593658447265625,-0.2218017578125
1772468070488749300,7.691749267578125,-1.4274139404296875,-0.5052337646484375,-0.16107177734375
1772468070498721300,7.70172119140625,-1.3646392822265625,-0.413482666015625,-0.123687744140625
1772468070508694500,7.711694580078125,-1.2928009033203125,-0.3321075439453125,-0.0958404541015625
1772468070518666200,7.721666259765625,-1.18621826171875,-0.2747802734375,-0.112823486328125
1772468070528639200,7.73163916015625,-1.0579071044921875,-0.2185211181640625,-0.1780853271484375
1772468070538611500,7.741611572265625,-0.96173095703125,-0.1280059814453125,-0.238555908203125
1772468070548583200,7.751583251953125,-0.9020233154296875,-0.0960540771484375,-0.2340240478515625
1772468070558556400,7.761556396484375,-0.814544677734375,-0.059326171875,-0.2379913330078125
1772468070568528400,7.7715283203125,-0.7233123779296875,-0.056915283203125,-0.2186737060546875
1772468070578501400,7.78150146484375,-0.6374664306640625,-0.0185546875,-0.18829345703125
1772468070588473300,7.791473388671875,-0.553558349609375,0.0680999755859375,-0.1939697265625
1772468070598446300,7.8014462890625,-0.5127105712890625,0.1214599609375,-0.185211181640625
1772468070608418600,7.81141845703125,-0.4693450927734375,0.122314453125,-0.1906890869140625
1772468070618390300,7.821390380859375,-0.37542724609375,0.028961181640625,-0.2443389892578125
1772468070628363300,7.83136328125,-0.32806396484375,0.0509796142578125,-0.2129364013671875
1772468070638335500,7.84133544921875,-0.244049072265625,0.0064239501953125,-0.200042724609375
1772468070648308200,7.85130810546875,-0.19110107421875,-0.0645751953125,-0.142852783203125
1772468070658280400,7.861280517578125,-0.2035675048828125,-0.03125,-0.0799102783203125
1772468070668253400,7.87125341796875,-0.23199462890625,0.018035888671875,-0.073028564453125
1772468070678225200,7.88122509765625,-0.2154388427734375,0.0568695068359375,-0.033111572265625
1772468070688197400,7.891197265625,-0.1994781494140625,-0.046539306640625,0.1121368408203125
1772468070698170400,7.90117041015625,-0.2048492431640625,-0.1528167724609375,0.130096435546875
1772468070708142300,7.911142333984375,-0.2473602294921875,-0.0540924072265625,0.0543212890625
1772468070718115300,7.921115234375,-0.210479736328125,0.0946044921875,-0.0345306396484375
1772468070728087600,7.931087646484375,-0.093048095703125,0.1281585693359375,0.010101318359375
1772468070738060500,7.941060546875,-0.1046295166015625,0.08905029296875,-0.0916900634765625
1772468070748032300,7.9510322265625,-0.244232177734375,0.0548248291015625,-0.2733001708984375
1772468070758005500,7.961005615234375,-0.2612762451171875,0.0850830078125,-0.1366119384765625
1772468070767977500,7.9709775390625,-0.3201904296875,0.0763397216796875,-0.02862548828125
1772468070777949400,7.980949462890625,-0.34246826171875,-0.004852294921875,0.0293731689453125
1772468070787922400,7.99092236328125,-0.301116943359375,-0.090789794921875,0.06048583984375
1772468070797894400,8.000894287109375,-0.292144775390625,-0.1487884521484375,0.0849761962890625
1772468070807867400,8.010867431640625,-0.2927703857421875,-0.1467132568359375,0.1157989501953125
1772468070817839400,8.02083935546875,-0.3924560546875,-0.132598876953125,0.0579376220703125
1772468070827812400,8.030812255859376,-0.4564361572265625,-0.129364013671875,-0.1018829345703125
1772468070837784300,8.040784423828125,-0.522613525390625,-0.084625244140625,-0.2228851318359375
1772468070847756300,8.05075634765625,-0.64959716796875,-0.081024169921875,-0.3379058837890625
1772468070857729500,8.0607294921875,-0.8750762939453125,-0.1471710205078125,-0.3588714599609375
1772468070867701200,8.070701171875,-0.946502685546875,-0.2372283935546875,-0.334014892578125
1772468070877674200,8.08067431640625,-0.9108123779296875,-0.2445220947265625,-0.4080810546875
1772468070887646500,8.090646484375,-1.0539703369140625,-0.2023162841796875,-0.5884857177734375
1772468070897619200,8.100619140625,-1.2152557373046875,-0.1926422119140625,-0.6378021240234375
1772468070907591400,8.11059130859375,-1.2703399658203125,-0.2546234130859375,-0.7747955322265625
1772468070917564400,8.120564453125,-1.2821044921875,-0.3080596923828125,-0.966400146484375
1772468070927536000,8.1305361328125,-1.3369140625,-0.338134765625,-0.9932708740234375
1772468070937508400,8.14050830078125,-1.4120330810546875,-0.3057708740234375,-0.974700927734375
1772468070947481300,8.1504814453125,-1.5086822509765625,-0.3029937744140625,-0.9512939453125
1772468070957452800,8.160452880859374,-1.59527587890625,-0.344818115234375,-0.890625
1772468070967425800,8.17042578125,-1.676605224609375,-0.3760223388671875,-0.8300018310546875
1772468070977398000,8.18039794921875,-1.6405029296875,-0.4505462646484375,-0.803466796875
1772468070987371000,8.19037109375,-1.4614410400390625,-0.524871826171875,-0.833587646484375
1772468070997342700,8.2003427734375,-1.24755859375,-0.54852294921875,-0.84576416015625
1772468071007316000,8.21031591796875,-1.212249755859375,-0.551055908203125,-0.7341766357421875
1772468071017288000,8.220287841796875,-2.02886962890625,-0.5537567138671875,-0.526214599609375
1772468071027260000,8.230260009765624,-3.7153778076171875,-0.6677398681640625,-0.666290283203125
1772468071037233000,8.24023291015625,-1.499786376953125,-0.7351531982421875,-0.6860809326171875
1772468071047204900,8.250204833984375,-1.278076171875,-0.6291046142578125,-0.4019622802734375
1772468071057177900,8.260177734375,-1.665740966796875,-0.7149810791015625,-0.3177642822265625
1772468071067149800,8.27014990234375,-1.549530029296875,-0.8100433349609375,-0.35546875
1772468071077122800,8.280122802734375,-1.439666748046875,-0.7669677734375,-0.3928985595703125
1772468071087094800,8.2900947265625,-1.3654937744140625,-0.74749755859375,-0.4251861572265625
1772468071097066800,8.300066650390624,-1.393707275390625,-0.7529754638671875,-0.405303955078125
1772468071107040000,8.3100400390625,-1.278961181640625,-0.7261810302734375,-0.3683929443359375
1772468071117011700,8.32001171875,-1.1223297119140625,-0.6585540771484375,-0.333587646484375
1772468071126985000,8.32998486328125,-1.076080322265625,-0.597015380859375,-0.3181610107421875
1772468071136957000,8.33995703125,-1.0391845703125,-0.5714874267578125,-0.2793731689453125
1772468071146930000,8.349929931640625,-0.9449615478515625,-0.5380096435546875,-0.21075439453125
1772468071156902000,8.35990185546875,-0.8476409912109375,-0.4987945556640625,-0.165863037109375
1772468071166873900,8.369873779296874,-0.7866058349609375,-0.4794921875,-0.1468505859375
1772468071176846800,8.379846923828126,-0.7057037353515625,-0.44110107421875,-0.13958740234375
1772468071186818800,8.38981884765625,-0.59466552734375,-0.3854522705078125,-0.1394500732421875
1772468071196791800,8.399791748046875,-0.49127197265625,-0.3285064697265625,-0.1650390625
1772468071206763800,8.409763671875,-0.4154815673828125,-0.27130126953125,-0.190582275390625
1772468071216736800,8.41973681640625,-0.3829498291015625,-0.224151611328125,-0.2596435546875
1772468071226709000,8.429708984375,-0.3952789306640625,-0.154144287109375,-0.33245849609375
1772468071236682000,8.439681884765625,-0.3677215576171875,-0.0561370849609375,-0.278564453125
1772468071246653700,8.44965380859375,-0.2995147705078125,0.035614013671875,-0.1782073974609375
1772468071256626000,8.4596259765625,-0.2381439208984375,0.0772247314453125,-0.1087493896484375
1772468071266599000,8.469598876953125,-0.208343505859375,0.0616302490234375,-0.061859130859375
1772468071276571000,8.47957080078125,-0.1914520263671875,0.0067291259765625,-0.021453857421875
1772468071286544000,8.4895439453125,-0.16546630859375,-0.0396270751953125,0.007476806640625
1772468071296515800,8.499515869140625,-0.1643829345703125,-0.0351104736328125,0.04681396484375
1772468071306488800,8.50948876953125,-0.28265380859375,-0.0298919677734375,0.090667724609375
1772468071316460800,8.519460693359376,-0.435516357421875,-0.111358642578125,0.05523681640625
1772468071326433000,8.52943310546875,-0.4700469970703125,-0.210357666015625,0.021697998046875
1772468071336405800,8.53940576171875,-0.430023193359375,-0.243804931640625,-0.0015869140625
1772468071346377700,8.549377685546874,-0.4645233154296875,-0.2609405517578125,-0.0909881591796875
1772468071356351000,8.55935107421875,-0.5242919921875,-0.2809906005859375,-0.177978515625
1772468071366322700,8.56932275390625,-0.4924163818359375,-0.2223968505859375,-0.147918701171875
1772468071376295700,8.579295654296875,-0.465179443359375,-0.1893463134765625,-0.10052490234375
1772468071386268000,8.589267822265626,-0.44647216796875,-0.2243194580078125,-0.03717041015625
1772468071396240000,8.599239990234375,-0.4466400146484375,-0.3012237548828125,0.0257415771484375
1772468071406212900,8.609212890625,-0.49853515625,-0.3655853271484375,0.03448486328125
1772468071416184800,8.619184814453124,-0.59783935546875,-0.3946533203125,-0.0017242431640625
1772468071426157800,8.62915771484375,-0.7335205078125,-0.398345947265625,-0.0829925537109375
1772468071436129800,8.6391298828125,-0.8573150634765625,-0.385101318359375,-0.1574554443359375
1772468071446102800,8.649102783203125,-0.8896484375,-0.393035888671875,-0.2054595947265625
1772468071456075000,8.659074951171876,-0.85968017578125,-0.462646484375,-0.25543212890625
1772468071466046700,8.669046630859375,-0.818817138671875,-0.561187744140625,-0.2827301025390625
1772468071476020000,8.67902001953125,-0.798736572265625,-0.5992431640625,-0.2577972412109375
1772468071485992000,8.688991943359374,-0.8081512451171875,-0.5889739990234375,-0.227264404296875
1772468071495964700,8.698964599609376,-0.85699462890625,-0.5650634765625,-0.190155029296875
1772468071505937000,8.70893701171875,-0.94775390625,-0.57757568359375,-0.13909912109375
1772468071515910000,8.718909912109375,-1.0240936279296875,-0.6136932373046875,-0.0945281982421875
1772468071525881900,8.7288818359375,-1.11578369140625,-0.69781494140625,-0.100494384765625
1772468071535853800,8.738853759765625,-1.1583099365234375,-0.7746124267578125,-0.1613311767578125
1772468071545826800,8.748826904296875,-1.12701416015625,-0.77789306640625,-0.209747314453125
1772468071555798800,8.758798828125,-1.143951416015625,-0.7357177734375,-0.235137939453125
1772468071565771800,8.768771728515626,-1.195068359375,-0.6818695068359375,-0.2226104736328125
1772468071575744000,8.778743896484375,-1.2317657470703125,-0.661407470703125,-0.166259765625
1772468071585715700,8.7887158203125,-1.2420196533203125,-0.68621826171875,-0.1275634765625
1772468071595688700,8.798688720703124,-1.2424163818359375,-0.7024078369140625,-0.114593505859375
1772468071605661000,8.808660888671875,-1.249664306640625,-0.715789794921875,-0.0963592529296875
1772468071615634000,8.818634033203125,-1.2544708251953125,-0.73486328125,-0.084259033203125
1772468071625606000,8.82860595703125,-1.244659423828125,-0.7613525390625,-0.1003875732421875
1772468071635579000,8.838578857421876,-1.2377471923828125,-0.7945709228515625,-0.096282958984375
1772468071645550800,8.84855078125,-1.2841644287109375,-0.8342742919921875,-0.09088134765625
1772468071655523800,8.85852392578125,-1.3339080810546875,-0.902069091796875,-0.1376953125
1772468071665495800,8.868495849609374,-1.308502197265625,-0.9118499755859375,-0.1881256103515625
1772468071675468000,8.878468017578125,-1.30810546875,-0.8730926513671875,-0.2375030517578125
1772468071685440800,8.888440673828125,-1.30743408203125,-0.8234405517578125,-0.2533111572265625
1772468071695413000,8.8984130859375,-1.3157806396484375,-0.7977447509765625,-0.2471923828125
1772468071705386000,8.908385986328126,-1.270050048828125,-0.77081298828125,-0.187652587890625
1772468071715357700,8.918357666015625,-1.1904449462890625,-0.719970703125,-0.1207122802734375
1772468071725330000,8.928329833984375,-1.14398193359375,-0.6524200439453125,-0.0967254638671875
1772468071735303000,8.938302978515624,-1.0844268798828125,-0.5899505615234375,-0.1064453125
1772468071745275000,8.94827490234375,-1.01702880859375,-0.5386505126953125,-0.128509521484375
1772468071755247900,8.958247802734375,-0.985260009765625,-0.5340118408203125,-0.139892578125
1772468071765219800,8.9682197265625,-0.9382171630859375,-0.5561676025390625,-0.1408843994140625
1772468071775193000,8.978193115234374,-0.8702392578125,-0.5373382568359375,-0.1204071044921875
1772468071785164800,8.988164794921875,-0.781829833984375,-0.4775543212890625,-0.107818603515625
1772468071795137000,8.998136962890625,-0.6854248046875,-0.407867431640625,-0.0879669189453125
1772468071805110000,9.008110107421874,-0.61566162109375,-0.3465118408203125,-0.089080810546875
1772468071815081700,9.018081787109375,-0.545867919921875,-0.2804412841796875,-0.1120147705078125
1772468071825055000,9.028054931640625,-0.4571685791015625,-0.200286865234375,-0.1175384521484375
1772468071835027000,9.03802685546875,-0.37445068359375,-0.14776611328125,-0.0800933837890625
1772468071844999700,9.047999755859376,-0.303955078125,-0.15936279296875,-0.0033416748046875
1772468071854972000,9.057971923828125,-0.2225494384765625,-0.21209716796875,0.0712432861328125
1772468071864943600,9.067943603515625,-0.14739990234375,-0.2513580322265625,0.128173828125
1772468071874916900,9.077916748046874,-0.1068115234375,-0.2702789306640625,0.1571502685546875
1772468071884888800,9.087888916015626,-0.1116790771484375,-0.2882537841796875,0.147064208984375
1772468071894861800,9.09786181640625,-0.1428375244140625,-0.305084228515625,0.11834716796875
1772468071904833800,9.107833740234375,-0.19378662109375,-0.3047943115234375,0.093658447265625
1772468071914806800,9.117806884765624,-0.2768096923828125,-0.3089752197265625,0.0728607177734375
1772468071924779000,9.127779052734375,-0.3986663818359375,-0.3360137939453125,0.05035400390625
1772468071934750700,9.137750732421875,-0.514007568359375,-0.3349761962890625,0.0274200439453125
1772468071944724000,9.147723876953124,-0.5708770751953125,-0.2876434326171875,-0.01605224609375
1772468071954699300,9.15769921875,-0.62493896484375,-0.208831787109375,-0.0911712646484375
1772468071964672300,9.16767236328125,-0.6724853515625,-0.134368896484375,-0.171234130859375
1772468071974644200,9.177644287109375,-0.697174072265625,-0.1053314208984375,-0.2312774658203125
1772468071984616200,9.1876162109375,-0.7521820068359375,-0.145538330078125,-0.1865081787109375
1772468071994589400,9.19758935546875,-0.281524658203125,-0.2876129150390625,0.333953857421875
1772468072004561200,9.20756103515625,-0.46649169921875,-0.7057037353515625,0.77203369140625
1772468072014534100,9.2175341796875,-0.913177490234375,-0.785980224609375,0.2607574462890625
1772468072024506400,9.22750634765625,-0.9849395751953125,-0.47100830078125,-0.256622314453125
1772468072034479000,9.23747900390625,-1.331207275390625,-0.3170623779296875,-0.287628173828125
1772468072044451300,9.247451416015625,-1.4334259033203125,-0.4066619873046875,-0.17376708984375
1772468072054423300,9.25742333984375,-1.3737030029296875,-0.6075592041015625,-0.127777099609375
1772468072064396000,9.26739599609375,-1.3123321533203125,-0.66192626953125,-0.2204742431640625
1772468072074368300,9.2773681640625,-1.299285888671875,-0.5421295166015625,-0.20697021484375
1772468072084341200,9.28734130859375,-1.3256072998046875,-0.5044708251953125,-0.142669677734375
1772468072094313200,9.297313232421875,-1.3131256103515625,-0.5303192138671875,-0.069854736328125
1772468072104286200,9.3072861328125,-1.317657470703125,-0.5485076904296875,-0.022918701171875
1772468072114258200,9.317258056640625,-1.3324127197265625,-0.54522705078125,0.0101470947265625
1772468072124230100,9.327230224609375,-1.24951171875,-0.497894287109375,0.01361083984375
1772468072134203100,9.337203125,-1.1697845458984375,-0.5216064453125,0.11798095703125
1772468072144175400,9.34717529296875,-1.290740966796875,-0.5108795166015625,0.1783447265625
