time,seconds_elapsed,z,y,x
1772458015598427400,0.076427490234375,-0.20478248596191406,-0.02890249341726303,-0.5931472778320312
1772458015608495400,0.086495361328125,-0.18902376294136047,0.0010343645699322224,-0.5663825273513794
1772458015618564400,0.096564453125,-0.16650228202342987,0.010994239710271358,-0.5561330318450928
1772458015628632300,0.10663232421875,-0.13967305421829224,0.024228552356362343,-0.5578587651252747
1772458015638700300,0.1167001953125,-0.1079341247677803,0.08247340470552444,-0.5401619672775269
1772458015648769300,0.126769287109375,-0.08056508004665375,0.15681368112564087,-0.5013666152954102
1772458015658837200,0.136837158203125,-0.056685611605644226,0.21803919970989227,-0.45023801922798157
1772458015668905200,0.1469052734375,-0.036225344985723495,0.29214298725128174,-0.3860504925251007
1772458015678974500,0.156974365234375,-0.007681922987103462,0.3612005412578583,-0.32344377040863037
1772458015689042400,0.16704248046875,0.026401210576295853,0.40429848432540894,-0.2737382650375366
1772458015699110100,0.177110107421875,0.07240726053714752,0.4060603678226471,-0.2544685900211334
1772458015709179400,0.187179443359375,0.1276465505361557,0.3494570255279541,-0.25768569111824036
1772458015719247400,0.197247314453125,0.17410708963871002,0.2272244095802307,-0.28068777918815613
1772458015729315300,0.2073154296875,0.17897509038448334,0.06531646102666855,-0.32567867636680603
1772458015739384300,0.21738427734375,0.16429674625396729,-0.07661488652229309,-0.36027729511260986
1772458015749452300,0.227452392578125,0.151351660490036,-0.16494102776050568,-0.3982779383659363
1772458015759520300,0.237520263671875,0.13668429851531982,-0.22647762298583984,-0.4302539825439453
1772458015769589500,0.247589599609375,0.12067976593971252,-0.28552788496017456,-0.46824902296066284
1772458015779657500,0.257657470703125,0.11435132473707199,-0.35076412558555603,-0.49570775032043457
1772458015789725200,0.26772509765625,0.1003636047244072,-0.4054739773273468,-0.5152231454849243
1772458015799794400,0.27779443359375,0.06702706217765808,-0.4374760091304779,-0.5246537923812866
1772458015809862400,0.2878623046875,0.04403600096702576,-0.402347594499588,-0.5259856581687927
1772458015819930400,0.297930419921875,0.03994843363761902,-0.2978021502494812,-0.4993777573108673
1772458015829999000,0.3079990234375,0.05686083436012268,-0.1676047444343567,-0.45674508810043335
1772458015840067300,0.3180673828125,0.08233104646205902,-0.05448324233293533,-0.41020235419273376
1772458015850135300,0.32813525390625,0.11591430008411407,0.019963296130299568,-0.3549281656742096
1772458015860204300,0.338204345703125,0.14504316449165344,0.06713426858186722,-0.29356682300567627
1772458015870272500,0.3482724609375,0.15760955214500427,0.07410988956689835,-0.22821682691574097
1772458015880340200,0.35834033203125,0.1589997261762619,0.06623225659132004,-0.16516540944576263
1772458015890409200,0.3684091796875,0.15866895020008087,0.0637131780385971,-0.09228748828172684
1772458015900477400,0.3784775390625,0.15275397896766663,0.05887969955801964,-0.025324173271656036
1772458015910545400,0.38854541015625,0.14123180508613586,0.01441982388496399,0.024187186732888222
1772458015920614100,0.3986142578125,0.12136289477348328,-0.050184328109025955,0.05437802895903587
1772458015930682400,0.408682373046875,0.11752022057771683,-0.10766998678445816,0.07457996904850006
1772458015940750300,0.418750244140625,0.11619725078344345,-0.1682291030883789,0.07115902751684189
1772458015950819300,0.4288193359375,0.10560852289199829,-0.248262420296669,0.039722006767988205
1772458015960887600,0.438887451171875,0.0870361253619194,-0.34049680829048157,-0.007948435842990875
1772458015970955300,0.448955322265625,0.0635736733675003,-0.39031150937080383,-0.060298193246126175
1772458015981024300,0.459024169921875,0.051790785044431686,-0.3671875298023224,-0.10194896161556244
1772458015991092200,0.46909228515625,0.05066852644085884,-0.31834331154823303,-0.13982045650482178
1772458016001160400,0.479160400390625,0.0545184351503849,-0.29108500480651855,-0.18314845860004425
1772458016011229200,0.489229248046875,0.061335861682891846,-0.29297080636024475,-0.2271081954240799
1772458016021297200,0.499297119140625,0.06088852509856224,-0.2900013029575348,-0.2759237289428711
1772458016031365400,0.509365478515625,0.05985202640295029,-0.25360971689224243,-0.31220370531082153
1772458016041434400,0.519434326171875,0.06925492733716965,-0.16226401925086975,-0.3337511420249939
1772458016051502300,0.52950244140625,0.0917956531047821,-0.049336131662130356,-0.33207467198371887
1772458016061570300,0.5395703125,0.1408243030309677,0.06361504644155502,-0.3243314325809479
1772458016071638300,0.54963818359375,0.20263174176216125,0.16533979773521423,-0.2879127264022827
1772458016081707300,0.559707275390625,0.27921634912490845,0.24397265911102295,-0.2398306280374527
1772458016091775500,0.569775390625,0.36290645599365234,0.29209011793136597,-0.18093694746494293
1772458016101843500,0.579843505859375,0.4347609877586365,0.30565574765205383,-0.12720373272895813
1772458016111912200,0.589912109375,0.491291880607605,0.292302668094635,-0.06986081600189209
1772458016121980400,0.59998046875,0.5389698147773743,0.2661527395248413,-0.004206227138638496
1772458016132048400,0.61004833984375,0.5754079818725586,0.23057901859283447,0.0710858628153801
1772458016142117400,0.620117431640625,0.5908209681510925,0.18170113861560822,0.15435098111629486
1772458016152185300,0.630185302734375,0.5840170979499817,0.12291719019412994,0.24297752976417542
1772458016162253300,0.64025341796875,0.5533692836761475,0.06274709850549698,0.3373239040374756
1772458016172322300,0.650322265625,0.4897702634334564,0.032571353018283844,0.4309587776660919
1772458016182390300,0.660390380859375,0.42268654704093933,0.02311789058148861,0.5197250247001648
1772458016192458500,0.67045849609375,0.37022894620895386,0.04142206534743309,0.6040739417076111
1772458016202527200,0.68052734375,0.3499603569507599,0.08949791640043259,0.6783965229988098
1772458016212595200,0.69059521484375,0.3561681807041168,0.15361085534095764,0.7376369833946228
1772458016222663400,0.700663330078125,0.37650561332702637,0.20096684992313385,0.7759428024291992
1772458016232732400,0.710732421875,0.38290199637413025,0.22580483555793762,0.8073976635932922
1772458016242800000,0.720800048828125,0.3518296778202057,0.21985593438148499,0.8210552334785461
1772458016252868400,0.730868408203125,0.2903045117855072,0.2059803307056427,0.8352013826370239
1772458016262937300,0.740937255859375,0.22668784856796265,0.195161372423172,0.8470699787139893
1772458016273005300,0.75100537109375,0.18266579508781433,0.18534442782402039,0.8701843619346619
1772458016283073500,0.761073486328125,0.15069514513015747,0.1054600402712822,0.8869618773460388
1772458016293142300,0.771142333984375,0.13372574746608734,-0.057882536202669144,0.9067906737327576
1772458016303210200,0.781210205078125,0.25120285153388977,-0.18442074954509735,0.9262571334838867
1772458016313278500,0.791278564453125,0.33495527505874634,-0.16475756466388702,0.9456660151481628
1772458016323347500,0.801347412109375,0.37101098895072937,-0.12262745201587677,0.9990643262863159
1772458016333415200,0.811415283203125,0.353924959897995,-0.06961217522621155,1.0682604312896729
1772458016343483100,0.821483154296875,0.30212974548339844,-0.03843790292739868,1.1077455282211304
1772458016353552400,0.831552490234375,0.25854071974754333,-0.009486943483352661,1.1127972602844238
1772458016363620900,0.841620849609375,0.20799016952514648,0.05721854045987129,1.0950003862380981
1772458016373688600,0.8516884765625,0.14773109555244446,0.16108527779579163,1.0432426929473877
1772458016383757800,0.8617578125,0.09741833806037903,0.26769477128982544,0.9572951197624207
1772458016393825800,0.87182568359375,0.06731502711772919,0.35765767097473145,0.8339979648590088
1772458016403893800,0.881893798828125,0.05493372678756714,0.4213098883628845,0.6778097152709961
1772458016413962800,0.891962646484375,0.06547212600708008,0.4698888659477234,0.5258966088294983
1772458016424030700,0.90203076171875,0.09212493151426315,0.49989885091781616,0.40866345167160034
1772458016434098700,0.9120986328125,0.11954430490732193,0.5085397362709045,0.31324532628059387
1772458016444168000,0.92216796875,0.14024718105793,0.488552451133728,0.2509622573852539
1772458016454236000,0.93223583984375,0.17818205058574677,0.6257907152175903,0.14260540902614594
1772458016464303600,0.9423037109375,0.20810487866401672,0.5848292708396912,0.14817722141742706
1772458016474371600,0.95237158203125,0.20167787373065948,0.508926272392273,0.17187908291816711
1772458016484440800,0.96244091796875,0.16689538955688477,0.3662061095237732,0.22005300223827362
1772458016494508800,0.9725087890625,0.12167651206254959,0.2363634556531906,0.2983749806880951
1772458016504576800,0.98257666015625,0.0883093923330307,0.10171152651309967,0.3625670075416565
1772458016514645800,0.992645751953125,0.08154390007257462,-0.06331764161586761,0.39640992879867554
1772458016524713700,1.002713623046875,0.09652510285377502,-0.1817762553691864,0.4001518785953522
1772458016534781700,1.01278173828125,0.13435690104961395,-0.23697693645954132,0.39491984248161316
1772458016544851000,1.022850830078125,0.1705392748117447,-0.22887574136257172,0.37623411417007446
1772458016554918700,1.032918701171875,0.18987861275672913,-0.2458464503288269,0.3503612279891968
1772458016564986600,1.042986572265625,0.2023349404335022,-0.27788251638412476,0.3207511007785797
1772458016575056000,1.053055908203125,0.29205575585365295,-0.20449671149253845,0.2772371768951416
1772458016585123800,1.063123779296875,0.3877534568309784,-0.1178273931145668,0.2908819019794464
1772458016595191800,1.07319189453125,0.4136124849319458,-0.03974057734012604,0.38281315565109253
1772458016605260800,1.0832607421875,0.2814541459083557,0.11325931549072266,0.44393375515937805
1772458016615328800,1.093328857421875,0.1830729842185974,0.18643926084041595,0.43846067786216736
1772458016625396700,1.103396728515625,0.17014123499393463,0.1793089509010315,0.39910438656806946
1772458016635465700,1.1134658203125,0.14867562055587769,0.19545409083366394,0.35284316539764404
1772458016645533700,1.12353369140625,0.10495946556329727,0.20451140403747559,0.28636986017227173
1772458016655601700,1.1336015625,0.06761076301336288,0.15389002859592438,0.19145558774471283
1772458016665670700,1.143670654296875,0.01978462003171444,0.08692561089992523,0.07651151716709137
1772458016675739000,1.15373876953125,-0.035486627370119095,0.05620977655053139,-0.04750790446996689
1772458016685806800,1.163806884765625,-0.07358071953058243,0.04568525403738022,-0.17406044900417328
1772458016695875600,1.17387548828125,-0.09264122694730759,0.042726483196020126,-0.3069998621940613
1772458016705943800,1.18394384765625,-0.11328507959842682,0.02780044451355934,-0.42523282766342163
1772458016716011800,1.19401171875,-0.1342199146747589,0.005652799271047115,-0.5342479348182678
1772458016726079700,1.204079833984375,-0.14814753830432892,0.15245361626148224,-0.6484435796737671
1772458016736148700,1.214148681640625,-0.12781722843647003,0.2481524497270584,-0.7298790216445923
1772458016746216700,1.224216796875,-0.13096033036708832,0.3232969343662262,-0.7568453550338745
1772458016756284700,1.23428466796875,-0.18152017891407013,0.3575153648853302,-0.7637554407119751
1772458016766354000,1.24435400390625,-0.2473965287208557,0.2886192798614502,-0.7661496996879578
1772458016776422000,1.254421875,-0.3076353669166565,0.2464262694120407,-0.7317941188812256
1772458016786489600,1.264489501953125,-0.33477485179901123,0.2554897964000702,-0.6592516899108887
1772458016796558800,1.274558837890625,-0.3294336199760437,0.29240280389785767,-0.5728062391281128
1772458016806626800,1.284626708984375,-0.3000551760196686,0.3345410227775574,-0.47844916582107544
1772458016816694800,1.29469482421875,-0.24981088936328888,0.3484184741973877,-0.3932588994503021
1772458016826763500,1.304763427734375,-0.19252341985702515,0.32716214656829834,-0.3167579174041748
1772458016836831700,1.314831787109375,-0.12240424752235413,0.2687552869319916,-0.2577268183231354
1772458016846899700,1.324899658203125,-0.062045469880104065,0.18466608226299286,-0.2004186362028122
1772458016856968700,1.33496875,-0.010786546394228935,0.120761938393116,-0.1388021558523178
1772458016867037000,1.345036865234375,0.028550148010253906,0.08677061647176743,-0.060302264988422394
1772458016877104600,1.355104736328125,0.04696963354945183,0.08331276476383209,0.025318099185824394
1772458016887173600,1.365173583984375,0.0648110955953598,0.0981922596693039,0.09842031449079514
1772458016897241900,1.375241943359375,0.07710744440555573,0.0906698927283287,0.15696725249290466
1772458016907309800,1.385309814453125,0.08829367160797119,0.04683069512248039,0.1876126378774643
1772458016917378600,1.395378662109375,0.08217639476060867,-0.02804887294769287,0.21161463856697083
1772458016927446800,1.40544677734375,0.06011425703763962,-0.09634721279144287,0.21912270784378052
1772458016937514800,1.4155146484375,0.03712984919548035,-0.15535886585712433,0.2202361673116684
1772458016947583700,1.425583740234375,0.021781576797366142,-0.19317275285720825,0.2060263305902481
1772458016957652000,1.43565185546875,0.008135804906487465,-0.22899946570396423,0.17740054428577423
1772458016967719700,1.4457197265625,-0.0033002651762217283,-0.2710307240486145,0.13537923991680145
1772458016977788700,1.45578857421875,-0.02317783236503601,-0.3086657226085663,0.09195268154144287
1772458016987856600,1.465856689453125,-0.062088631093502045,-0.3276166617870331,0.04433682560920715
1772458016997924900,1.4759248046875,-0.12593019008636475,-0.3075100779533386,0.003412562422454357
1772458017007993600,1.48599365234375,-0.19600751996040344,-0.2835511863231659,-0.04642432928085327
1772458017018061600,1.4960615234375,-0.26404890418052673,-0.2747763395309448,-0.11100970953702927
1772458017028129800,1.5061298828125,-0.32473224401474,-0.2817264199256897,-0.17850370705127716
1772458017038197800,1.51619775390625,-0.3739836812019348,-0.29696741700172424,-0.23705251514911652
1772458017048266800,1.526266845703125,-0.4215397834777832,-0.30926087498664856,-0.2736685574054718
1772458017058334700,1.536334716796875,-0.46916431188583374,-0.30441394448280334,-0.2737511098384857
1772458017068402700,1.546402587890625,-0.5048586130142212,-0.26016122102737427,-0.24600772559642792
1772458017078471700,1.5564716796875,-0.5235824584960938,-0.17750175297260284,-0.1871691793203354
1772458017088540000,1.566539794921875,-0.5314236283302307,-0.13008655607700348,-0.12278386205434799
1772458017098607900,1.57660791015625,-0.5388786196708679,-0.17285878956317902,-0.09630778431892395
1772458017108676600,1.586676513671875,-0.5462647676467896,-0.2525332570075989,-0.09249117970466614
1772458017118744800,1.596744873046875,-0.5524060130119324,-0.31030040979385376,-0.09563211351633072
1772458017128812800,1.606812744140625,-0.5722638368606567,-0.3620504140853882,-0.10279438644647598
1772458017138881800,1.6168818359375,-0.6066303253173828,-0.39922013878822327,-0.12705658376216888
1772458017148949500,1.626949462890625,-0.6516061425209045,-0.4088917076587677,-0.16294695436954498
1772458017159017700,1.637017822265625,-0.6975022554397583,-0.3718261122703552,-0.19843065738677979
1772458017169086700,1.647086669921875,-0.7217995524406433,-0.2872299551963806,-0.22256605327129364
1772458017179154700,1.65715478515625,-0.7212791442871094,-0.18696993589401245,-0.2476588934659958
1772458017189223000,1.667222900390625,-0.7074683308601379,-0.08755788207054138,-0.2698824107646942
1772458017199291600,1.677291748046875,-0.683255136013031,-0.0017593521624803543,-0.2887261211872101
1772458017209359600,1.687359619140625,-0.6590291857719421,0.08754733204841614,-0.31119224429130554
1772458017219427800,1.697427734375,-0.6259686946868896,0.15638978779315948,-0.33776044845581055
1772458017229496800,1.707496826171875,-0.5823200345039368,0.19623517990112305,-0.37159493565559387
1772458017239564500,1.717564453125,-0.5400285124778748,0.18300673365592957,-0.4113306403160095
1772458017249632800,1.7276328125,-0.5013262033462524,0.1312992125749588,-0.44556644558906555
1772458017259701800,1.73770166015625,-0.4654819667339325,0.052950602024793625,-0.45919889211654663
1772458017269769700,1.747769775390625,-0.4246830344200134,-0.020032182335853577,-0.43467167019844055
1772458017279838000,1.757837890625,-0.3826889991760254,-0.08104919642210007,-0.39058518409729004
1772458017289905700,1.76790576171875,-0.3403680622577667,-0.13778084516525269,-0.3267163932323456
1772458017299974700,1.777974609375,-0.29994553327560425,-0.19202090799808502,-0.2442270964384079
1772458017310042600,1.788042724609375,-0.2591809928417206,-0.23992520570755005,-0.15106280148029327
1772458017320110800,1.79811083984375,-0.22577160596847534,-0.2965455949306488,-0.05144858360290527
1772458017330179600,1.8081796875,-0.19499745965003967,-0.34558477997779846,0.06037435308098793
1772458017340247600,1.81824755859375,-0.17859451472759247,-0.3589482605457306,0.1880422979593277
1772458017350315800,1.828315673828125,-0.17598183453083038,-0.3321239948272705,0.31466010212898254
1772458017360384800,1.838384765625,-0.19021962583065033,-0.29182901978492737,0.431627482175827
1772458017370453000,1.848452880859375,-0.20994508266448975,-0.2398989498615265,0.5157373547554016
1772458017380521000,1.85852099609375,-0.22489634156227112,-0.19419671595096588,0.5701299905776978
1772458017390590000,1.86858984375,-0.23973245918750763,-0.16038325428962708,0.5980045795440674
1772458017400658000,1.878657958984375,-0.24695096909999847,-0.13300997018814087,0.5967195630073547
1772458017410726000,1.888725830078125,-0.2490992546081543,-0.10873492062091827,0.5792247653007507
1772458017420795000,1.898794921875,-0.23695683479309082,-0.0799485594034195,0.544315755367279
1772458017430862800,1.90886279296875,-0.20813125371932983,-0.05318503454327583,0.49672314524650574
1772458017440930800,1.918930908203125,-0.15301179885864258,-0.015758298337459564,0.44966718554496765
1772458017451000000,1.929,-0.06406954675912857,0.07264520227909088,0.395933598279953
1772458017461068000,1.939068115234375,0.05218808725476265,0.17413215339183807,0.31100913882255554
1772458017471135700,1.9491357421875,0.17270727455615997,0.24991102516651154,0.1884840875864029
1772458017481205000,1.959205078125,0.2626688480377197,0.3061082363128662,0.042352184653282166
1772458017491273000,1.96927294921875,0.2932359576225281,0.3527161478996277,-0.10952683538198471
1772458017501341000,1.9793408203125,0.2777230739593506,0.4107658565044403,-0.2467382252216339
1772458017511410000,1.989409912109375,0.20960962772369385,0.4962962567806244,-0.37417468428611755
1772458017521478000,1.999477783203125,0.12736934423446655,0.6020895838737488,-0.48016157746315
1772458017531545900,2.0095458984375,0.06065995246171951,0.6941724419593811,-0.5679075717926025
1772458017541615000,2.019614990234375,0.024025242775678635,0.7774178385734558,-0.6273605227470398
1772458017551683000,2.02968310546875,0.01351090706884861,0.8232088685035706,-0.6709765791893005
1772458017561750800,2.039750732421875,0.02248869091272354,0.8011115789413452,-0.6831522583961487
1772458017571818800,2.04981884765625,0.045945312827825546,0.7261864542961121,-0.6589103937149048
1772458017581888000,2.059887939453125,0.08529351651668549,0.6075687408447266,-0.5991045832633972
1772458017591956000,2.0699560546875,0.11548859626054764,0.46288520097732544,-0.5135005712509155
1772458017602024000,2.08002392578125,0.12164049595594406,0.2916831076145172,-0.39902564883232117
1772458017612093000,2.090093017578125,0.08996157348155975,0.10198152810335159,-0.2659696638584137
1772458017622161000,2.100160888671875,0.03602537512779236,-0.09950339049100876,-0.10797230899333954
1772458017632228900,2.110228759765625,-0.053096555173397064,-0.3118593692779541,0.06661304831504822
1772458017642297900,2.1202978515625,-0.15480907261371613,-0.5690094232559204,0.24833036959171295
1772458017652365800,2.13036572265625,-0.24493835866451263,-0.8319064378738403,0.41394269466400146
1772458017662433800,2.140433837890625,-0.31752413511276245,-1.0635205507278442,0.5510182976722717
1772458017672503000,2.1505029296875,-0.37212997674942017,-1.2444190979003906,0.636247456073761
1772458017682571000,2.160571044921875,-0.41729745268821716,-1.3626927137374878,0.6794772148132324
1772458017692639000,2.170638916015625,-0.4480535686016083,-1.405665636062622,0.6838770508766174
1772458017702708000,2.1807080078125,-0.4621161222457886,-1.3698769807815552,0.6413272023200989
1772458017712776000,2.19077587890625,-0.457692414522171,-1.2767630815505981,0.5709319114685059
1772458017722844000,2.200843994140625,-0.4311438798904419,-1.1578140258789062,0.47269749641418457
1772458017732913000,2.210912841796875,-0.39508891105651855,-1.0286871194839478,0.3696298897266388
1772458017742980900,2.22098095703125,-0.3544085621833801,-0.8917822241783142,0.27416515350341797
1772458017753048800,2.231048828125,-0.313631147146225,-0.7308788895606995,0.19777557253837585
1772458017763118000,2.2411181640625,-0.2824212908744812,-0.5488132238388062,0.1484663486480713
1772458017773186000,2.25118603515625,-0.2596549987792969,-0.3773975670337677,0.11531025916337967
1772458017783254000,2.26125390625,-0.2370908260345459,-0.22672788798809052,0.08422637730836868
1772458017793321700,2.27132177734375,-0.21869969367980957,-0.10382819920778275,0.061951737850904465
1772458017803391000,2.281390869140625,-0.19580475986003876,-0.01616944931447506,0.03677953779697418
1772458017813459000,2.291458984375,-0.1612284630537033,0.05474061518907547,0.03337230905890465
1772458017823527000,2.30152685546875,-0.12472879141569138,0.12333911657333374,0.03435368463397026
1772458017833596000,2.311595947265625,-0.09514615684747696,0.1867833137512207,0.04902150109410286
1772458017843664000,2.321663818359375,-0.06374162435531616,0.23672451078891754,0.06213570386171341
1772458017853731800,2.33173193359375,-0.03081662394106388,0.27584508061408997,0.07744774967432022
1772458017863801000,2.341801025390625,0.005030857864767313,0.3108765780925751,0.11462680995464325
1772458017873869000,2.351869140625,0.03404516726732254,0.33933135867118835,0.156571164727211
1772458017883936800,2.361936767578125,0.05993349105119705,0.3421148955821991,0.1948426514863968
1772458017894006000,2.372006103515625,0.08803117275238037,0.3207520842552185,0.22974203526973724
1772458017904074000,2.382073974609375,0.11934834718704224,0.2664235830307007,0.2558532655239105
1772458017914142000,2.392141845703125,0.15299035608768463,0.1832553744316101,0.2734575569629669
1772458017924211000,2.4022109375,0.17969733476638794,0.07173362374305725,0.2722655236721039
1772458017934279000,2.41227880859375,0.18794924020767212,-0.037831928580999374,0.23712490499019623
1772458017944347000,2.422346923828125,0.19493576884269714,-0.13177014887332916,0.17831245064735413
1772458017954416000,2.432416015625,0.20620690286159515,-0.19050046801567078,0.10379215329885483
1772458017964484000,2.442484130859375,0.21617911756038666,-0.22207197546958923,0.015033789910376072
1772458017974551800,2.4525517578125,0.21755847334861755,-0.23417112231254578,-0.06715166568756104
1772458017984621000,2.46262109375,0.21347478032112122,-0.2503508925437927,-0.13127738237380981
1772458017994689000,2.47268896484375,0.21099849045276642,-0.26109418272972107,-0.16728053987026215
1772458018004757000,2.482757080078125,0.21275511384010315,-0.24114684760570526,-0.17752812802791595
1772458018014825000,2.492824951171875,0.2169899046421051,-0.1684964895248413,-0.1617887318134308
1772458018024894000,2.50289404296875,0.22188718616962433,-0.05767036974430084,-0.14457592368125916
1772458018034962000,2.5129619140625,0.223353773355484,0.04091155529022217,-0.12000790983438492
1772458018045030000,2.52302978515625,0.2305147498846054,0.11688488721847534,-0.08524380624294281
1772458018055099100,2.53309912109375,0.22324852645397186,0.15722720324993134,-0.045149676501750946
1772458018065166800,2.543166748046875,0.21840211749076843,0.17832183837890625,0.00742245651781559
1772458018075234800,2.55323486328125,0.2027309238910675,0.20780400931835175,0.08376496285200119
1772458018085304000,2.563303955078125,0.18756474554538727,0.2253824770450592,0.18947355449199677
1772458018095372000,2.5733720703125,0.19368697702884674,0.23842734098434448,0.3289543390274048
1772458018105440000,2.58343994140625,0.21325401961803436,0.23874451220035553,0.4726947247982025
1772458018115509000,2.593509033203125,0.2449406087398529,0.21183808147907257,0.5885941982269287
1772458018125577000,2.603576904296875,0.2695538103580475,0.1658138781785965,0.6653223037719727
1772458018135645000,2.61364501953125,0.2744663655757904,0.11472788453102112,0.706188976764679
1772458018145714000,2.6237138671875,0.27371615171432495,0.05397053062915802,0.7136311531066895
1772458018155782000,2.633781982421875,0.27102282643318176,0.001933365361765027,0.6934223175048828
1772458018165849900,2.643849853515625,0.2772591710090637,-0.04607703536748886,0.6530490517616272
1772458018175919000,2.653919189453125,0.28836745023727417,-0.09845983982086182,0.5888080596923828
1772458018185987000,2.663987060546875,0.2941070795059204,-0.17099528014659882,0.5048503279685974
1772458018196055000,2.674054931640625,0.2775971293449402,-0.235743910074234,0.4129056930541992
1772458018206123800,2.684123779296875,0.24006465077400208,-0.28178542852401733,0.3159887492656708
1772458018216192000,2.69419189453125,0.18869979679584503,-0.3246082067489624,0.22437241673469543
1772458018226260000,2.704260009765625,0.1280774623155594,-0.3698880672454834,0.12280131131410599
1772458018236328000,2.714327880859375,0.051349204033613205,-0.4338406026363373,0.02559852972626686
1772458018246397000,2.72439697265625,-0.03882303461432457,-0.46863827109336853,-0.07829511165618896
1772458018256465000,2.73446484375,-0.12878432869911194,-0.48622122406959534,-0.19426974654197693
1772458018266532900,2.744532958984375,-0.20760057866573334,-0.44141942262649536,-0.3071613907814026
1772458018276602000,2.75460205078125,-0.2897765636444092,-0.31631413102149963,-0.36877936124801636
1772458018286670000,2.764670166015625,-0.36703699827194214,-0.10729245841503143,-0.3714323937892914
1772458018296737800,2.77473779296875,-0.42531102895736694,0.14554236829280853,-0.32620906829833984
1772458018306807000,2.78480712890625,-0.4468754529953003,0.3876245319843292,-0.2623331546783447
1772458018316875000,2.794875,-0.43218114972114563,0.5791617631912231,-0.21082091331481934
1772458018326943000,2.80494287109375,-0.37963005900382996,0.6818045377731323,-0.1876532882452011
1772458018337012000,2.815011962890625,-0.30585283041000366,0.7048850655555725,-0.16053567826747894
1772458018347080000,2.825079833984375,-0.22448816895484924,0.667647659778595,-0.13191920518875122
1772458018357148000,2.83514794921875,-0.15033847093582153,0.5776148438453674,-0.10425885766744614
1772458018367216400,2.84521630859375,-0.08795870840549469,0.4591664671897888,-0.08111944794654846
1772458018377284600,2.85528466796875,-0.043775834143161774,0.34115058183670044,-0.06157495081424713
1772458018387352600,2.8653525390625,-0.01056807953864336,0.2381935715675354,-0.03582218289375305
1772458018397421300,2.87542138671875,0.004107436165213585,0.15763446688652039,-0.006518800742924213
1772458018407489500,2.885489501953125,0.010662807151675224,0.09486162662506104,0.02150457724928856
1772458018417557500,2.8955576171875,0.012335047125816345,0.048638761043548584,0.035985447466373444
1772458018427626500,2.90562646484375,0.019120780751109123,0.028545474633574486,0.029276413843035698
1772458018437694500,2.915694580078125,0.02671302855014801,0.027285654097795486,0.00546386418864131
1772458018447762400,2.925762451171875,0.04308294504880905,0.03804216533899307,-0.02744135446846485
1772458018457830400,2.935830322265625,0.05565324425697327,0.03870973736047745,-0.063986636698246
1772458018467899600,2.945899658203125,0.06181393563747406,0.03485480695962906,-0.08700114488601685
1772458018477967600,2.955967529296875,0.06441644579172134,0.00015734462067484856,-0.11389604210853577
1772458018488035300,2.966035400390625,0.061553020030260086,-0.06912744790315628,-0.13007766008377075
1772458018498104300,2.976104248046875,0.047523096203804016,-0.13154888153076172,-0.13436666131019592
1772458018508172500,2.986172607421875,0.017504479736089706,-0.18239954113960266,-0.1306225210428238
1772458018518240500,2.996240478515625,-0.016863185912370682,-0.21145740151405334,-0.1268184632062912
1772458018528309200,3.006309326171875,-0.06020879000425339,-0.2164633423089981,-0.11300251632928848
1772458018538377500,3.01637744140625,-0.10962124168872833,-0.19198691844940186,-0.08619007468223572
1772458018548445400,3.026445556640625,-0.15629208087921143,-0.1641331911087036,-0.07466710358858109
1772458018558514400,3.036514404296875,-0.18455448746681213,-0.14702731370925903,-0.07845442742109299
1772458018568582700,3.046582763671875,-0.19625402987003326,-0.13977818191051483,-0.10443409532308578
1772458018578650400,3.056650390625,-0.19466924667358398,-0.13427697122097015,-0.1387549787759781
1772458018588719400,3.06671923828125,-0.18041734397411346,-0.12267491221427917,-0.16485528647899628
1772458018598787600,3.07678759765625,-0.1648840308189392,-0.09650786221027374,-0.17670556902885437
1772458018608855600,3.08685546875,-0.15235145390033722,-0.06924615055322647,-0.16008345782756805
1772458018618924300,3.09692431640625,-0.1493300348520279,-0.036515552550554276,-0.1226278766989708
1772458018628992500,3.106992431640625,-0.1502075493335724,-0.010916449129581451,-0.06195574253797531
1772458018639060500,3.117060546875,-0.15351110696792603,0.0011445572599768639,0.01241628360003233
1772458018649129500,3.12712939453125,-0.1416800171136856,0.02202320657670498,0.0980539545416832
1772458018659197400,3.137197509765625,-0.12293897569179535,0.005024353973567486,0.16637800633907318
1772458018669265400,3.147265380859375,-0.10207018256187439,-0.09851482510566711,0.18942128121852875
1772458018679333400,3.15733349609375,-0.0743560642004013,-0.2182048112154007,0.17690591514110565
1772458018689402400,3.16740234375,-0.04939026013016701,-0.2908771336078644,0.16523168981075287
1772458018699470600,3.177470703125,-0.03396887704730034,-0.31825968623161316,0.14058978855609894
1772458018709538600,3.18753857421875,-0.02410665526986122,-0.3074187636375427,0.09523402154445648
1772458018719607300,3.197607177734375,-0.01948533207178116,-0.28263649344444275,0.02618999034166336
1772458018729675500,3.207675537109375,-0.02424706518650055,-0.2812945246696472,-0.05805351585149765
1772458018739743500,3.217743408203125,-0.03031633235514164,-0.2968153655529022,-0.15972907841205597
1772458018749812500,3.2278125,-0.049537695944309235,-0.31218552589416504,-0.2591899037361145
1772458018759880400,3.23788037109375,-0.07557839155197144,-0.31102892756462097,-0.3406375050544739
1772458018769948400,3.247948486328125,-0.10510991513729095,-0.2902991473674774,-0.40181615948677063
1772458018780017400,3.258017333984375,-0.12966220080852509,-0.24137750267982483,-0.4413570463657379
1772458018790085600,3.268085693359375,-0.15194779634475708,-0.16859357059001923,-0.4560401141643524
1772458018800153600,3.278153564453125,-0.16827017068862915,-0.08050511032342911,-0.44142040610313416
1772458018810222300,3.288222412109375,-0.16605867445468903,0.010196560993790627,-0.38903361558914185
1772458018820290300,3.298290283203125,-0.15233521163463593,0.08617273718118668,-0.30620336532592773
1772458018830358500,3.308358642578125,-0.12126491963863373,0.13272984325885773,-0.2114286720752716
1772458018840427500,3.318427490234375,-0.07881779223680496,0.1377270668745041,-0.11672800779342651
1772458018850495200,3.3284951171875,-0.03337761014699936,0.11172689497470856,-0.02847883850336075
1772458018860563500,3.3385634765625,0.006679203361272812,0.051020607352256775,0.06365084648132324
1772458018870631400,3.34863134765625,0.04728122428059578,-0.03049049712717533,0.16207247972488403
1772458018880700400,3.358700439453125,0.08392861485481262,-0.12299363315105438,0.2723289430141449
1772458018890768600,3.3687685546875,0.12890541553497314,-0.20884622633457184,0.38238486647605896
1772458018900836400,3.37883642578125,0.1719510406255722,-0.2645740211009979,0.49452364444732666
1772458018910905300,3.3889052734375,0.212052121758461,-0.2839607894420624,0.5790933966636658
1772458018920973600,3.3989736328125,0.24594680964946747,-0.26819080114364624,0.6328590512275696
1772458018931041500,3.40904150390625,0.2641122341156006,-0.22968173027038574,0.6615442037582397
1772458018941110300,3.4191103515625,0.264133095741272,-0.179642453789711,0.6677555441856384
1772458018951178500,3.429178466796875,0.25916123390197754,-0.1392529457807541,0.6582307815551758
1772458018961246500,3.43924658203125,0.24285349249839783,-0.10797320306301117,0.6405565142631531
1772458018971315500,3.4493154296875,0.22359777987003326,-0.08652037382125854,0.6125608086585999
1772458018981383700,3.4593837890625,0.19788241386413574,-0.051498349756002426,0.5853619575500488
1772458018991451400,3.469451416015625,0.1674850881099701,-0.010214295238256454,0.5504848957061768
1772458019001520400,3.479520263671875,0.14499904215335846,0.022823650389909744,0.5138652920722961
1772458019011588400,3.48958837890625,0.12627862393856049,0.050632111728191376,0.460946649312973
1772458019021656600,3.499656494140625,0.12046176940202713,0.06925322115421295,0.39956140518188477
1772458019031725300,3.509725341796875,0.11750619113445282,0.08075115829706192,0.31916001439094543
1772458019041793300,3.519793212890625,0.11585349589586258,0.07064132392406464,0.22581782937049866
1772458019051861500,3.529861572265625,0.1083042323589325,0.05738863721489906,0.12000856548547745
1772458019061929500,3.539929443359375,0.10007287561893463,0.0452866367995739,0.013656850904226303
1772458019071998500,3.54999853515625,0.09660650044679642,0.053145892918109894,-0.08677148818969727
1772458019082066400,3.56006640625,0.09508372843265533,0.07389114052057266,-0.179594948887825
1772458019092134400,3.570134521484375,0.0896114632487297,0.11399941146373749,-0.24488845467567444
1772458019102203400,3.580203369140625,0.09213878214359283,0.16214853525161743,-0.28679460287094116
1772458019112271600,3.590271728515625,0.09751570224761963,0.2103557586669922,-0.30031201243400574
1772458019122339600,3.600339599609375,0.10877199470996857,0.25786805152893066,-0.28011566400527954
1772458019132408300,3.610408203125,0.11322133243083954,0.2928422689437866,-0.23050470650196075
1772458019142476500,3.6204765625,0.11191330850124359,0.28989240527153015,-0.1766686588525772
1772458019152544500,3.63054443359375,0.11295486986637115,0.23740682005882263,-0.12478949129581451
1772458019162613500,3.640613525390625,0.11469689011573792,0.14991377294063568,-0.08636004477739334
1772458019172681200,3.65068115234375,0.11237727105617523,0.034699033945798874,-0.06511947512626648
1772458019182749400,3.66074951171875,0.11743094772100449,-0.0799286812543869,-0.05867064744234085
1772458019192818400,3.670818359375,0.12110397964715958,-0.1544806808233261,-0.0692623034119606
1772458019202886400,3.680886474609375,0.12775248289108276,-0.19566601514816284,-0.09767363965511322
1772458019212954600,3.69095458984375,0.14255540072917938,-0.20345628261566162,-0.1461021602153778
1772458019223023400,3.7010234375,0.15812838077545166,-0.18640951812267303,-0.20447607338428497
1772458019233091300,3.71109130859375,0.16806302964687347,-0.1591683030128479,-0.26894691586494446
1772458019243159600,3.72115966796875,0.1737796813249588,-0.1165223941206932,-0.333774596452713
1772458019253228500,3.731228515625,0.1652735471725464,-0.06795939058065414,-0.39618632197380066
1772458019263296300,3.741296142578125,0.15031316876411438,-0.02632547914981842,-0.46153315901756287
1772458019273364500,3.751364501953125,0.1240067183971405,0.004114719107747078,-0.5183085799217224
1772458019283432400,3.761432373046875,0.09912041574716568,0.026220165193080902,-0.5637349486351013
1772458019293501400,3.77150146484375,0.07879729568958282,0.05715144798159599,-0.5945141911506653
1772458019303569700,3.781569580078125,0.07745346426963806,0.07156261056661606,-0.6052405834197998
1772458019313637400,3.791637451171875,0.09123559296131134,0.07812038064002991,-0.6049410104751587
1772458019323706400,3.801706298828125,0.12763890624046326,0.08488642424345016,-0.5902988910675049
1772458019333774300,3.8117744140625,0.17096135020256042,0.08400651812553406,-0.5711227655410767
1772458019343842600,3.821842529296875,0.22721238434314728,0.07502183318138123,-0.5387836694717407
1772458019353911300,3.831911376953125,0.29407450556755066,0.05603110045194626,-0.4864102005958557
1772458019363979300,3.841979248046875,0.3495056629180908,0.0266144759953022,-0.4145585298538208
1772458019374047700,3.8520478515625,0.3942142724990845,-0.0200201366096735,-0.33335450291633606
1772458019384117000,3.862116943359375,0.4280252158641815,-0.08363402634859085,-0.25527137517929077
1772458019394184700,3.872184814453125,0.4369316101074219,-0.14022086560726166,-0.1658855676651001
1772458019404252700,3.882252685546875,0.42894044518470764,-0.1590449959039688,-0.07250077277421951
1772458019414322000,3.892322021484375,0.4051128625869751,-0.14806345105171204,0.0026783975772559643
1772458019424390000,3.902389892578125,0.3755272626876831,-0.1173441931605339,0.060462962836027145
1772458019434457900,3.912457763671875,0.3549998700618744,-0.07623004168272018,0.087508425116539
1772458019444526000,3.922526123046875,0.3379842936992645,-0.030619250610470772,0.08832760155200958
1772458019454594800,3.9325947265625,0.3214556574821472,0.015048101544380188,0.08189234137535095
1772458019464662800,3.942662841796875,0.3042680025100708,0.061564330011606216,0.06625502556562424
1772458019474731000,3.95273095703125,0.28595104813575745,0.09359469264745712,0.05027392506599426
1772458019484799700,3.9627998046875,0.27091556787490845,0.12447796761989594,0.04473142325878143
1772458019494867700,3.97286767578125,0.2571137547492981,0.1603238433599472,0.05679101496934891
1772458019504936000,3.98293603515625,0.23758478462696075,0.18684442341327667,0.08381832391023636
1772458019515004000,3.99300390625,0.22434674203395844,0.21000327169895172,0.108547642827034
1772458019525072000,4.00307177734375,0.2074383944272995,0.22282007336616516,0.12923026084899902
1772458019535139800,4.013139892578125,0.1923270970582962,0.23316112160682678,0.14746785163879395
1772458019545208800,4.023208740234375,0.18294665217399597,0.245002880692482,0.1703580617904663
1772458019555276800,4.03327685546875,0.18103983998298645,0.25611889362335205,0.18413805961608887
1772458019565344800,4.0433447265625,0.1786573827266693,0.2624918818473816,0.18470872938632965
1772458019575414000,4.0534140625,0.18302389979362488,0.26492148637771606,0.18308447301387787
1772458019585482000,4.06348193359375,0.19198685884475708,0.270245224237442,0.17179660499095917
1772458019595549700,4.0735498046875,0.2158423811197281,0.27432146668434143,0.15260852873325348
1772458019605617700,4.08361767578125,0.2402249574661255,0.2822209298610687,0.13923528790473938
1772458019615687000,4.09368701171875,0.2592526972293854,0.2877137064933777,0.12534503638744354
1772458019625755000,4.1037548828125,0.2724873125553131,0.29254230856895447,0.11390673369169235
1772458019635822800,4.11382275390625,0.2752407491207123,0.2931356728076935,0.10928535461425781
1772458019645891800,4.123891845703125,0.2813090980052948,0.29293331503868103,0.10514704883098602
1772458019655959800,4.133959716796875,0.286865234375,0.28550204634666443,0.08961576223373413
1772458019666027800,4.14402783203125,0.2898310422897339,0.2662876844406128,0.06442918628454208
1772458019676097000,4.154096923828125,0.2947046458721161,0.2607126235961914,0.03323078900575638
1772458019686164700,4.164164794921875,0.299750417470932,0.2721521258354187,0.006974142510443926
1772458019696232700,4.174232666015625,0.30684694647789,0.31519147753715515,-0.008805086836218834
1772458019706302000,4.184302001953125,0.3230074346065521,0.38309136033058167,-0.008128168061375618
1772458019716370000,4.194369873046875,0.34988993406295776,0.4732460081577301,0.011578956618905067
1772458019726438000,4.20443798828125,0.36764970421791077,0.4870275557041168,0.010875321924686432
1772458019736507000,4.2145068359375,0.365057110786438,0.43771302700042725,-0.02963961288332939
1772458019746574800,4.224574951171875,0.34435975551605225,0.3857032358646393,-0.09117956459522247
1772458019756642800,4.234642822265625,0.3065050542354584,0.32242438197135925,-0.18577584624290466
1772458019766712000,4.244712158203125,0.25344645977020264,0.27367696166038513,-0.3095167875289917
1772458019776779800,4.25477978515625,0.20469093322753906,0.23204857110977173,-0.4381392002105713
1772458019786847700,4.26484765625,0.15679387748241425,0.20665575563907623,-0.553358793258667
1772458019796915700,4.274915771484375,0.13595597445964813,0.20916365087032318,-0.6136114597320557
1772458019806985000,4.28498486328125,0.150797039270401,0.25590458512306213,-0.5820768475532532
1772458019817053000,4.295052978515625,0.18821817636489868,0.3496462404727936,-0.44674938917160034
1772458019827121000,4.305120849609375,0.25277459621429443,0.45981118083000183,-0.24013474583625793
1772458019837190000,4.31518994140625,0.35083168745040894,0.5341221690177917,0.0015844088047742844
1772458019847257900,4.3252578125,0.46348097920417786,0.5343027710914612,0.23457713425159454
1772458019857327900,4.335327880859375,0.5632632374763489,0.4399853050708771,0.4256586730480194
1772458019867395800,4.345395751953125,0.6415871381759644,0.2723425328731537,0.5660112500190735
1772458019877464800,4.35546484375,0.691594660282135,0.0715833455324173,0.6533288359642029
1772458019887533000,4.365532958984375,0.7170421481132507,-0.12136487662792206,0.6891388893127441
1772458019897600800,4.375600830078125,0.734058678150177,-0.2877730131149292,0.6785941123962402
1772458019907668700,4.385668701171875,0.7573245763778687,-0.3810175061225891,0.6212589740753174
1772458019917738000,4.395738037109375,0.7846621870994568,-0.3990364670753479,0.5352345705032349
1772458019927806000,4.405805908203125,0.8111186027526855,-0.3450985848903656,0.4357564449310303
1772458019937874000,4.4158740234375,0.8199776411056519,-0.25316813588142395,0.3312912881374359
1772458019947943000,4.42594287109375,0.7999769449234009,-0.14488431811332703,0.21655753254890442
1772458019958011000,4.436010986328125,0.7648863196372986,-0.02722720429301262,0.11560934782028198
1772458019968078800,4.446078857421875,0.7137502431869507,0.07841169089078903,0.030460292473435402
1772458019978147800,4.45614794921875,0.6575018763542175,0.1732897311449051,-0.0303812175989151
1772458019988215800,4.4662158203125,0.6055572628974915,0.2779504656791687,-0.05274491384625435
1772458019998283800,4.47628369140625,0.5549660325050354,0.3946000933647156,-0.03000471368432045
1772458020008352800,4.486352783203125,0.5116859674453735,0.4829649031162262,0.0060633039101958275
1772458020018421000,4.4964208984375,0.48330649733543396,0.5216291546821594,0.04547915235161781
1772458020028489000,4.506489013671875,0.4772277772426605,0.5206344127655029,0.06860438734292984
1772458020038557700,4.5165576171875,0.4776616096496582,0.5022364854812622,0.0784655436873436
1772458020048626000,4.5266259765625,0.4814181327819824,0.44848310947418213,0.0642576590180397
1772458020058694000,4.53669384765625,0.49788790941238403,0.3681296706199646,0.02506258897483349
1772458020068763000,4.546762939453125,0.5254470705986023,0.27879470586776733,-0.04845605418086052
1772458020078830800,4.556830810546875,0.56134432554245,0.20952990651130676,-0.1332779973745346
1772458020088898800,4.56689892578125,0.606635332107544,0.167264923453331,-0.22385269403457642
1772458020098967800,4.5769677734375,0.6432857513427734,0.1613098382949829,-0.3000715672969818
1772458020109036000,4.5870361328125,0.6730409264564514,0.18365634977817535,-0.37943217158317566
1772458020119104000,4.59710400390625,0.6935920119285583,0.20325827598571777,-0.4632530212402344
1772458020129172000,4.607171875,0.7039166688919067,0.21760378777980804,-0.5552862882614136
1772458020139241000,4.617240966796875,0.7016146183013916,0.22828227281570435,-0.6444523930549622
1772458020149309000,4.627308837890625,0.6809568405151367,0.2746586501598358,-0.7042871713638306
1772458020159377000,4.637376953125,0.650078296661377,0.3732006549835205,-0.7195236682891846
1772458020169445600,4.647445556640625,0.6240823864936829,0.517791211605072,-0.680626630783081
1772458020179513900,4.657513916015625,0.6277045607566833,0.6784445643424988,-0.5929239392280579
1772458020189581800,4.667581787109375,0.6798628568649292,0.796210527420044,-0.48960229754447937
1772458020199650800,4.67765087890625,0.7745973467826843,0.8313599824905396,-0.393542617559433
1772458020209719000,4.687718994140625,0.8889336585998535,0.7945888042449951,-0.3057715594768524
1772458020219787000,4.697787109375,0.9944187998771667,0.7213393449783325,-0.2323109209537506
1772458020229855700,4.707855712890625,1.0869516134262085,0.6127950549125671,-0.1729372888803482
1772458020239924000,4.717924072265625,1.1634914875030518,0.4992500841617584,-0.12551277875900269
1772458020249992000,4.727991943359375,1.2186954021453857,0.3897111713886261,-0.09569583088159561
1772458020260060700,4.738060791015625,1.2600246667861938,0.29720839858055115,-0.06898432970046997
1772458020270129000,4.74812890625,1.2851297855377197,0.22353491187095642,-0.05781394615769386
1772458020280196900,4.75819677734375,1.29459547996521,0.17628271877765656,-0.05243942141532898
1772458020290264800,4.768264892578125,1.2881051301956177,0.14257968962192535,-0.05068141222000122
1772458020300334000,4.778333984375,1.2707152366638184,0.13439153134822845,-0.038919031620025635
1772458020310401800,4.78840185546875,1.2447760105133057,0.1394622027873993,-0.03305474668741226
1772458020320469800,4.7984697265625,1.217330813407898,0.1561383754014969,-0.025679389014840126
1772458020330538800,4.808538818359375,1.1847281455993652,0.16223254799842834,-0.026137471199035645
1772458020340607000,4.81860693359375,1.1564507484436035,0.15327313542366028,-0.0356670618057251
1772458020350675000,4.828675048828125,1.1180033683776855,0.13964267075061798,-0.04064495861530304
1772458020360743700,4.83874365234375,1.0828163623809814,0.11927162855863571,-0.041579458862543106
1772458020370811400,4.848811279296875,1.0387290716171265,0.09829534590244293,-0.03966076299548149
1772458020380879400,4.85887939453125,0.9985441565513611,0.08600591868162155,-0.024778757244348526
1772458020390948600,4.868948486328125,0.9548237323760986,0.08210983127355576,0.00001935381442308426
1772458020401016600,4.8790166015625,0.9135282039642334,0.09145859628915787,0.02849014289677143
1772458020411084300,4.889084228515625,0.8768751621246338,0.09199981391429901,0.0544908344745636
1772458020421153500,4.899153564453125,0.8416279554367065,0.08694992959499359,0.08051977306604385
1772458020431221500,4.909221435546875,0.8135607242584229,0.08456248790025711,0.10177119821310043
1772458020441289500,4.91928955078125,0.7870079278945923,0.0905279666185379,0.12173052877187729
1772458020451358500,4.9293583984375,0.7540386915206909,0.1045699343085289,0.14300552010536194
1772458020461426400,4.939426513671875,0.7192533016204834,0.1216874048113823,0.15969741344451904
1772458020471494400,4.949494384765625,0.6835804581642151,0.13719680905342102,0.1895681917667389
1772458020481563400,4.9595634765625,0.6566729545593262,0.14732560515403748,0.21543096005916595
1772458020491631600,4.969631591796875,0.6372661590576172,0.15864980220794678,0.24741977453231812
1772458020501699300,4.97969921875,0.6258166432380676,0.17186599969863892,0.2767297029495239
1772458020511767300,4.989767333984375,0.6170430183410645,0.18041564524173737,0.3016561269760132
1772458020521836500,4.99983642578125,0.6164909601211548,0.19145499169826508,0.3166593313217163
1772458020531904500,5.009904541015625,0.6169214844703674,0.20138022303581238,0.33050841093063354
1772458020541972500,5.019972412109375,0.6266377568244934,0.20670334994792938,0.3301134705543518
1772458020552041500,5.03004150390625,0.6341261863708496,0.17673099040985107,0.3013206124305725
1772458020562109400,5.040109375,0.6452438235282898,0.09782338887453079,0.2460496425628662
1772458020572177400,5.050177490234375,0.6605139374732971,0.013247599825263023,0.1686229556798935
1772458020582246700,5.06024658203125,0.6660764813423157,-0.024546384811401367,0.08953986316919327
1772458020592314400,5.070314453125,0.6484447717666626,-0.0045590526424348354,0.01740976795554161
1772458020602382300,5.08038232421875,0.6229705810546875,0.04101535677909851,-0.06960689276456833
1772458020612451600,5.09045166015625,0.5959868431091309,0.08539896458387375,-0.16128301620483398
1772458020622519600,5.10051953125,0.5841760039329529,0.14100469648838043,-0.2546619772911072
1772458020632587500,5.11058740234375,0.5827375650405884,0.17957919836044312,-0.3366783857345581
1772458020642656500,5.120656494140625,0.5883315205574036,0.20348107814788818,-0.39643681049346924
1772458020652724500,5.130724365234375,0.5890795588493347,0.1982569843530655,-0.4223925769329071
1772458020662792400,5.14079248046875,0.5892918109893799,0.18398962914943695,-0.4283894896507263
1772458020672860400,5.1508603515625,0.597108006477356,0.15409652888774872,-0.39844071865081787
1772458020682929400,5.160929443359375,0.6225441694259644,0.11126518249511719,-0.3570224344730377
1772458020692997400,5.170997314453125,0.6624168753623962,0.07399196922779083,-0.30874547362327576
1772458020703065300,5.1810654296875,0.7165279984474182,0.052058976143598557,-0.25472432374954224
1772458020713134600,5.191134521484375,0.7842299342155457,0.027654379606246948,-0.2130879908800125
1772458020723202600,5.20120263671875,0.8595113754272461,-0.012925270944833755,-0.18127919733524323
1772458020733270500,5.2112705078125,0.9289352297782898,-0.061937227845191956,-0.15034343302249908
1772458020743339500,5.221339599609375,0.9834714531898499,-0.11905670911073685,-0.12488547712564468
1772458020753407500,5.231407470703125,1.0305330753326416,-0.16003969311714172,-0.10006044805049896
1772458020763475500,5.241475341796875,1.0690345764160156,-0.20990578830242157,-0.08677180856466293
1772458020773544400,5.25154443359375,1.0982434749603271,-0.27561649680137634,-0.08444172143936157
1772458020783612400,5.2616123046875,1.1139761209487915,-0.34914690256118774,-0.07861419022083282
1772458020793680400,5.271680419921875,1.123870611190796,-0.43324440717697144,-0.08600932359695435
1772458020803749600,5.28174951171875,1.1336932182312012,-0.4945213198661804,-0.08895531296730042
1772458020813817600,5.291817626953125,1.1372261047363281,-0.522330105304718,-0.09452534466981888
1772458020823885600,5.301885498046875,1.1407963037490845,-0.5037644505500793,-0.09755788743495941
1772458020833954300,5.311954345703125,1.1340076923370361,-0.4284592866897583,-0.09021870046854019
1772458020844022500,5.3220224609375,1.1185909509658813,-0.29139837622642517,-0.06515009701251984
1772458020854090500,5.332090576171875,1.1000698804855347,-0.10451023280620575,-0.0169069841504097
1772458020864158500,5.342158447265625,1.082478404045105,0.10508347302675247,0.0666012242436409
1772458020874227500,5.3522275390625,1.0793907642364502,0.2819223403930664,0.15865685045719147
1772458020884295400,5.36229541015625,1.0964767932891846,0.41188883781433105,0.25180143117904663
1772458020894363400,5.37236328125,1.1239970922470093,0.49005356431007385,0.33585095405578613
1772458020904432600,5.3824326171875,1.1524258852005005,0.5474351048469543,0.4115909934043884
1772458020914500400,5.392500244140625,1.1775873899459839,0.588644802570343,0.46904507279396057
1772458020924568300,5.402568359375,1.2027326822280884,0.6105487942695618,0.4915549159049988
1772458020934637600,5.412637451171875,1.2437598705291748,0.6266946196556091,0.4877101182937622
1772458020944705500,5.42270556640625,1.2941032648086548,0.631341278553009,0.4597799777984619
1772458020954773500,5.4327734375,1.3578780889511108,0.6088798642158508,0.40140587091445923
1772458020964842500,5.442842529296875,1.425843596458435,0.5820522904396057,0.31926146149635315
1772458020974910500,5.452910400390625,1.4973446130752563,0.5630239844322205,0.22525450587272644
1772458020984978400,5.462978515625,1.5511806011199951,0.5515636205673218,0.11753656715154648
1772458020995047400,5.47304736328125,1.5818297863006592,0.5452057719230652,-0.004315720871090889
1772458021005115400,5.483115478515625,1.5792230367660522,0.5588400959968567,-0.1417417675256729
1772458021015183400,5.493183349609375,1.5503441095352173,0.5691248178482056,-0.290855348110199
1772458021025252400,5.50325244140625,1.5061370134353638,0.5851485729217529,-0.443607360124588
1772458021035320600,5.513320556640625,1.458029866218567,0.6160122156143188,-0.5713397264480591
1772458021045388500,5.523388427734375,1.4303090572357178,0.6637791991233826,-0.6649175882339478
1772458021055456500,5.53345654296875,1.4448179006576538,0.7169033288955688,-0.7080523371696472
1772458021065525500,5.543525390625,1.499553918838501,0.7450100779533386,-0.7074465155601501
1772458021075593500,5.553593505859375,1.5739368200302124,0.7441256642341614,-0.6616153717041016
1772458021085661400,5.563661376953125,1.6672998666763306,0.723013699054718,-0.5835202932357788
1772458021095730400,5.57373046875,1.7675524950027466,0.6972270011901855,-0.4948175251483917
1772458021105798400,5.58379833984375,1.8681690692901611,0.6605497002601624,-0.4168420135974884
1772458021115866400,5.593866455078125,1.9600396156311035,0.5940795540809631,-0.3572818338871002
1772458021125935600,5.603935546875,2.0297865867614746,0.5076786279678345,-0.3048495352268219
1772458021136003600,5.614003662109375,2.073554754257202,0.39863577485084534,-0.25299617648124695
1772458021146071600,5.624071533203125,2.096889019012451,0.29497650265693665,-0.1932939738035202
1772458021156140300,5.634140380859375,2.1089820861816406,0.21775475144386292,-0.13506804406642914
1772458021166208500,5.64420849609375,2.108362913131714,0.18316614627838135,-0.09193681180477142
1772458021176276500,5.6542763671875,2.0965137481689453,0.19306489825248718,-0.07290288060903549
1772458021186345200,5.66434521484375,2.0727784633636475,0.25796160101890564,-0.0623897910118103
1772458021196413400,5.674413330078125,2.0370419025421143,0.3543066084384918,-0.0624547153711319
1772458021206481400,5.6844814453125,1.994752287864685,0.45107921957969666,-0.06927879899740219
1772458021216550400,5.69455029296875,1.9572123289108276,0.5497890710830688,-0.06759858131408691
1772458021226618600,5.70461865234375,1.9203866720199585,0.6316322684288025,-0.06895013898611069
1772458021236686600,5.7146865234375,1.8935760259628296,0.6790300011634827,-0.05929652974009514
1772458021246755300,5.72475537109375,1.8725101947784424,0.7050908803939819,-0.05020502954721451
1772458021256823600,5.734823486328125,1.8546934127807617,0.7075247764587402,-0.047217924147844315
1772458021266891500,5.7448916015625,1.8409416675567627,0.6834295988082886,-0.05632247403264046
1772458021276959500,5.75495947265625,1.8296805620193481,0.6563147902488708,-0.057164836674928665
1772458021287028500,5.765028564453125,1.8255479335784912,0.6449316740036011,-0.051272593438625336
1772458021297096400,5.775096435546875,1.8284120559692383,0.6510024666786194,-0.03043244779109955
1772458021307164400,5.785164306640625,1.8357776403427124,0.6591602563858032,-0.011879803612828255
1772458021317233700,5.795233642578125,1.8467729091644287,0.6746132373809814,0.0012770798057317734
1772458021327301400,5.80530126953125,1.849750280380249,0.6981984376907349,0.020382598042488098
1772458021337369300,5.815369384765625,1.848113775253296,0.728390634059906,0.039237357676029205
1772458021347438300,5.825438232421875,1.849673867225647,0.7621925473213196,0.05791117623448372
1772458021357506600,5.835506591796875,1.8536406755447388,0.8011606931686401,0.08293944597244263
1772458021367575300,5.8455751953125,1.870971918106079,0.8477460145950317,0.11455915868282318
1772458021377644000,5.85564404296875,1.8959020376205444,0.8722849488258362,0.13812445104122162
1772458021387712000,5.8657119140625,1.9221501350402832,0.8509125113487244,0.1388363093137741
1772458021397780200,5.8757802734375,1.9424118995666504,0.7914597392082214,0.12313757091760635
1772458021407849000,5.885848876953125,1.9444310665130615,0.7384015917778015,0.11055227369070053
1772458021417917000,5.8959169921875,1.9251056909561157,0.679926872253418,0.094601571559906
1772458021427985000,5.90598486328125,1.8826173543930054,0.6286498308181763,0.07448005676269531
1772458021438054100,5.91605419921875,1.8231070041656494,0.5931165814399719,0.0720624253153801
1772458021448122000,5.9261220703125,1.7433645725250244,0.5687944293022156,0.07246962189674377
1772458021458190000,5.936190185546875,1.6578019857406616,0.5295037031173706,0.07141706347465515
1772458021468258000,5.946258056640625,1.580283761024475,0.4884849190711975,0.07093290239572525
1772458021478327000,5.9563271484375,1.5104954242706299,0.45818281173706055,0.06840208917856216
1772458021488395000,5.96639501953125,1.459159016609192,0.43321675062179565,0.06098838150501251
1772458021498463200,5.976463134765625,1.420689344406128,0.4297849237918854,0.053967561572790146
1772458021508532000,5.986531982421875,1.4036235809326172,0.4311569631099701,0.061785534024238586
1772458021518600000,5.996599853515625,1.3953574895858765,0.4423443377017975,0.08987413346767426
1772458021528668200,6.006668212890625,1.3927521705627441,0.437673956155777,0.12727051973342896
1772458021538737200,6.016737060546875,1.3953299522399902,0.4137549102306366,0.16322645545005798
1772458021548805000,6.02680517578125,1.3953834772109985,0.3683464229106903,0.18108907341957092
1772458021558873000,6.036873046875,1.384886384010315,0.32214856147766113,0.19851616024971008
1772458021568942000,6.046942138671875,1.3639204502105713,0.2824602723121643,0.2166096717119217
1772458021579010000,6.057010009765625,1.3360713720321655,0.24881558120250702,0.23319105803966522
1772458021589078300,6.067078369140625,1.3109380006790161,0.2300400286912918,0.25216156244277954
1772458021599147000,6.07714697265625,1.2926665544509888,0.23383082449436188,0.2825320065021515
1772458021609215000,6.087215087890625,1.2781111001968384,0.24185173213481903,0.30855855345726013
1772458021619283000,6.097282958984375,1.2646067142486572,0.2590232491493225,0.31238019466400146
1772458021629352200,6.107352294921875,1.252903938293457,0.2789889872074127,0.30208760499954224
1772458021639420200,6.117420166015625,1.2428901195526123,0.3007652163505554,0.26489919424057007
1772458021649488000,6.12748779296875,1.2396799325942993,0.3303617238998413,0.21525438129901886
1772458021659556000,6.13755615234375,1.229440689086914,0.36852461099624634,0.16268658638000488
1772458021669625000,6.147625,1.207336664199829,0.4046189486980438,0.11614039540290833
1772458021679693000,6.157693115234375,1.1835885047912598,0.4172957241535187,0.08747142553329468
1772458021689761300,6.16776123046875,1.155914545059204,0.4204598367214203,0.07965931296348572
1772458021699830000,6.177830078125,1.1351341009140015,0.39753520488739014,0.09317333996295929
1772458021709898000,6.18789794921875,1.113282322883606,0.3195016384124756,0.12787379324436188
1772458021719966200,6.19796630859375,1.0915123224258423,0.19077962636947632,0.18539270758628845
1772458021730035000,6.208034912109375,1.0607006549835205,0.023239105939865112,0.27610209584236145
1772458021740103000,6.21810302734375,1.0309593677520752,-0.15886923670768738,0.39962899684906006
1772458021750171100,6.228171142578125,1.0074855089187622,-0.31759577989578247,0.5339697599411011
1772458021760240000,6.238240234375,0.9986615180969238,-0.42656102776527405,0.6495875120162964
1772458021770308000,6.24830810546875,1.0107053518295288,-0.45705610513687134,0.7091944217681885
1772458021780376000,6.2583759765625,1.035463809967041,-0.4043746590614319,0.7071410417556763
1772458021790445000,6.268445068359375,1.0689506530761719,-0.2706168591976166,0.6373792886734009
1772458021800513000,6.278512939453125,1.1091097593307495,-0.08444808423519135,0.5088871121406555
1772458021810581000,6.2885810546875,1.154190182685852,0.1051625907421112,0.3215840756893158
1772458021820650000,6.29864990234375,1.1963847875595093,0.2758357524871826,0.10739775747060776
1772458021830718000,6.308718017578125,1.2333637475967407,0.41190648078918457,-0.11258813738822937
1772458021840786000,6.318785888671875,1.2585314512252808,0.532451331615448,-0.3319958746433258
1772458021850855200,6.328855224609375,1.294070839881897,0.6478778123855591,-0.5454351902008057
1772458021860923100,6.338923095703125,1.3331390619277954,0.766434371471405,-0.7115422487258911
1772458021870991000,6.3489912109375,1.378509759902954,0.8760623335838318,-0.8281753659248352
1772458021881059000,6.35905908203125,1.425218939781189,0.9757980704307556,-0.8794891238212585
1772458021891128000,6.369128173828125,1.4650741815567017,1.0551847219467163,-0.8758155703544617
1772458021901196000,6.379196044921875,1.5086830854415894,1.0909721851348877,-0.8328839540481567
1772458021911264300,6.38926416015625,1.5419851541519165,1.0963776111602783,-0.7527718544006348
1772458021921333000,6.3993330078125,1.5663115978240967,1.069104790687561,-0.6268858909606934
1772458021931401000,6.40940087890625,1.582484483718872,1.002695918083191,-0.48778873682022095
1772458021941469000,6.419468994140625,1.5860651731491089,0.8970628976821899,-0.35305678844451904
1772458021951538200,6.4295380859375,1.581114649772644,0.7734474539756775,-0.25434568524360657
1772458021961606100,6.439606201171875,1.5758731365203857,0.6762895584106445,-0.19239802658557892
1772458021971673900,6.449673828125,1.5752605199813843,0.621098518371582,-0.16559144854545593
1772458021981743000,6.4597431640625,1.5763057470321655,0.6150665879249573,-0.15231485664844513
1772458021991811000,6.46981103515625,1.57410728931427,0.6376906633377075,-0.13700434565544128
1772458022001879000,6.479879150390625,1.571001410484314,0.6667578220367432,-0.10708705335855484
1772458022011948000,6.489947998046875,1.568171501159668,0.6896697878837585,-0.06793086230754852
1772458022022016000,6.50001611328125,1.5678871870040894,0.6907588839530945,-0.02511199377477169
1772458022032084000,6.510083984375,1.5567528009414673,0.6699265837669373,0.022773239761590958
1772458022042153200,6.5201533203125,1.5307875871658325,0.6370118856430054,0.07990755140781403
1772458022052221200,6.53022119140625,1.4906079769134521,0.6083453297615051,0.13961507380008698
1772458022062289000,6.540288818359375,1.443602204322815,0.5739600658416748,0.19295965135097504
1772458022072358100,6.550358154296875,1.3948966264724731,0.5258181095123291,0.23141595721244812
1772458022082426000,6.560426025390625,1.3422143459320068,0.4540363550186157,0.27310416102409363
1772458022092494000,6.570494140625,1.2793320417404175,0.3673595190048218,0.3090246021747589
1772458022102562300,6.580562255859375,1.2086656093597412,0.2616538107395172,0.3233712911605835
1772458022112631000,6.590631103515625,1.1399627923965454,0.1696394830942154,0.32291027903556824
1772458022122699000,6.600698974609375,1.0668977499008179,0.15202148258686066,0.2946406304836273
1772458022132768300,6.610768310546875,0.9896245002746582,0.21574106812477112,0.27561527490615845
1772458022142836000,6.6208359375,0.9018077850341797,0.33608826994895935,0.25279271602630615
1772458022152904000,6.630904052734375,0.8280459642410278,0.47841373085975647,0.22063958644866943
1772458022162972000,6.640971923828125,0.7738364338874817,0.6103428602218628,0.19145084917545319
1772458022173041200,6.651041259765625,0.7469834685325623,0.6926954984664917,0.1601824015378952
1772458022183109000,6.661109130859375,0.7389461398124695,0.7250791192054749,0.14865224063396454
1772458022193177000,6.671177001953125,0.7442242503166199,0.7261451482772827,0.158540278673172
1772458022203246000,6.68124609375,0.7495706081390381,0.7061983942985535,0.1825183928012848
1772458022213314000,6.69131396484375,0.7511967420578003,0.6543935537338257,0.20094667375087738
1772458022223382000,6.701382080078125,0.7514739632606506,0.5905927419662476,0.19448228180408478
1772458022233451000,6.711450927734375,0.7485554218292236,0.518086850643158,0.18080109357833862
1772458022243519000,6.72151904296875,0.7332526445388794,0.41359028220176697,0.15289708971977234
1772458022253587000,6.7315869140625,0.7131209969520569,0.3025846779346466,0.13658124208450317
1772458022263656200,6.74165625,0.6821823120117188,0.20244422554969788,0.13763998448848724
1772458022273724200,6.75172412109375,0.6497407555580139,0.11695035547018051,0.1485791951417923
1772458022283792100,6.761792236328125,0.6249494552612305,0.05622773990035057,0.1566755622625351
1772458022293861000,6.771861083984375,0.6031895875930786,0.022402402013540268,0.1606585830450058
1772458022303929000,6.78192919921875,0.5792633891105652,0.004954619333148003,0.1566041260957718
1772458022313997000,6.7919970703125,0.5445219278335571,-0.009639769792556763,0.14635974168777466
1772458022324066000,6.802066162109375,0.5069351196289062,-0.026434749364852905,0.1324426382780075
1772458022334134000,6.812134033203125,0.4624243676662445,-0.052795782685279846,0.11842242628335953
1772458022344202000,6.822201904296875,0.4124894440174103,-0.08636267483234406,0.10796108841896057
1772458022354270000,6.83227001953125,0.3549547791481018,-0.11804869771003723,0.10217217355966568
1772458022364339200,6.842339111328125,0.2918423116207123,-0.13561470806598663,0.10795032978057861
1772458022374407200,6.8524072265625,0.22902020812034607,-0.13045376539230347,0.12348107993602753
1772458022384475100,6.86247509765625,0.17368392646312714,-0.10599586367607117,0.13396991789340973
1772458022394544000,6.872544189453125,0.1339932382106781,-0.07382674515247345,0.13351264595985413
1772458022404612400,6.8826123046875,0.11409619450569153,-0.03679714724421501,0.12245028465986252
1772458022414680300,6.892680419921875,0.10752750933170319,0.004718070384114981,0.10993609577417374
1772458022424749000,6.9027490234375,0.10302944481372833,0.04823280870914459,0.09999926388263702
1772458022434817300,6.9128173828125,0.0964658111333847,0.07697097957134247,0.09139645844697952
1772458022444885200,6.92288525390625,0.08039021492004395,0.08810943365097046,0.08886434137821198
1772458022454954200,6.932954345703125,0.06476625055074692,0.0801316648721695,0.06556648015975952
1772458022465022200,6.943022216796875,0.04991514980792999,0.05319753661751747,0.02254413068294525
1772458022475090200,6.953090087890625,0.04193685203790665,0.019451824948191643,-0.04509057104587555
1772458022485159200,6.9631591796875,0.03295975178480148,-0.0173377376049757,-0.12812736630439758
1772458022495227100,6.97322705078125,0.02715938538312912,-0.048531077802181244,-0.22589199244976044
1772458022505295400,6.98329541015625,0.023051921278238297,-0.08345423638820648,-0.34970325231552124
1772458022515364000,6.993364013671875,0.01410183496773243,-0.11294475197792053,-0.48192521929740906
1772458022525432000,7.00343212890625,-0.006464012898504734,-0.11097786575555801,-0.6006499528884888
1772458022535500300,7.013500244140625,-0.03366021439433098,-0.07081419974565506,-0.6975178718566895
1772458022545569300,7.0235693359375,-0.061491090804338455,-0.004453857894986868,-0.7556859254837036
1772458022555637200,7.03363720703125,-0.08045172691345215,0.0830400362610817,-0.7630136013031006
1772458022565705200,7.043705322265625,-0.09866803139448166,0.16733890771865845,-0.7200903296470642
1772458022575773200,7.053773193359375,-0.09732260555028915,0.22872477769851685,-0.6436248421669006
1772458022585842200,7.06384228515625,-0.07174178957939148,0.22427339851856232,-0.5567631125450134
1772458022595910400,7.073910400390625,-0.022618718445301056,0.1624169498682022,-0.45882564783096313
1772458022605978400,7.083978271484375,0.042949847877025604,0.07774995267391205,-0.360098659992218
1772458022616047000,7.094047119140625,0.1059301421046257,-0.0393737368285656,-0.25408488512039185
1772458022626115000,7.104114990234375,0.16266977787017822,-0.17288686335086823,-0.15154246985912323
1772458022636183300,7.114183349609375,0.2029077410697937,-0.29969727993011475,-0.067545585334301
1772458022646252000,7.124251953125,0.22967998683452606,-0.3862966001033783,-0.005655100103467703
1772458022656320000,7.134320068359375,0.24789440631866455,-0.4207341969013214,0.02238745428621769
1772458022666388200,7.14438818359375,0.2520983815193176,-0.4118838310241699,0.02496497333049774
1772458022676457200,7.154457275390625,0.2524842917919159,-0.36869028210639954,-0.00534313078969717
1772458022686525200,7.164525146484375,0.23925311863422394,-0.30185961723327637,-0.06194571778178215
1772458022696593400,7.174593505859375,0.2189558446407318,-0.20340389013290405,-0.12385568767786026
1772458022706662100,7.184662109375,0.18791791796684265,-0.09641416370868683,-0.19407500326633453
1772458022716730000,7.194730224609375,0.15761195123195648,-0.0018373220227658749,-0.26643067598342896
1772458022726798300,7.20479833984375,0.12969356775283813,0.06869684904813766,-0.3168596029281616
1772458022736867000,7.2148671875,0.11021894216537476,0.11705586314201355,-0.3360748291015625
1772458022746935000,7.22493505859375,0.10630200803279877,0.14770622551441193,-0.32567036151885986
1772458022757003300,7.235003173828125,0.11008209735155106,0.1547478884458542,-0.28475916385650635
1772458022767072300,7.245072265625,0.12741899490356445,0.1501978486776352,-0.22727395594120026
1772458022777140200,7.25514013671875,0.15523119270801544,0.1440318375825882,-0.14783266186714172
1772458022787208200,7.265208251953125,0.18697905540466309,0.14148566126823425,-0.06850297003984451
1772458022797277200,7.275277099609375,0.2258894294500351,0.13498008251190186,0.005025307182222605
1772458022807345200,7.28534521484375,0.26446211338043213,0.13233792781829834,0.06064508482813835
1772458022817413000,7.2954130859375,0.30325186252593994,0.13789302110671997,0.10620138049125671
1772458022827482000,7.305482177734375,0.33913496136665344,0.15157602727413177,0.129184290766716
1772458022837550000,7.315550048828125,0.37708741426467896,0.17000751197338104,0.13790161907672882
1772458022847618000,7.3256181640625,0.4072880744934082,0.19494549930095673,0.14838865399360657
1772458022857686300,7.335686279296875,0.4327084720134735,0.2209496647119522,0.1497631072998047
1772458022867755300,7.34575537109375,0.4518407881259918,0.24263142049312592,0.15815019607543945
1772458022877823200,7.3558232421875,0.4626162052154541,0.2567962408065796,0.16978847980499268
1772458022887891200,7.36589111328125,0.4614880383014679,0.2527681589126587,0.17870378494262695
1772458022897960200,7.375960205078125,0.4570666551589966,0.2432660162448883,0.1858176290988922
1772458022908028200,7.386028076171875,0.44506004452705383,0.23522697389125824,0.1943855881690979
1772458022918096400,7.396096435546875,0.4316512942314148,0.23186393082141876,0.20343075692653656
1772458022928165000,7.4061650390625,0.42266416549682617,0.25583794713020325,0.2242162823677063
1772458022938233000,7.416233154296875,0.41047486662864685,0.3135475814342499,0.25467780232429504
1772458022948301300,7.42630126953125,0.38654857873916626,0.2894289791584015,0.2585754990577698
1772458022958370300,7.436370361328125,0.36661988496780396,0.17567554116249084,0.21406318247318268
1772458022968438300,7.446438232421875,0.348257839679718,0.041451334953308105,0.13916076719760895
1772458022978506000,7.456506103515625,0.3179566562175751,-0.0826391875743866,0.03719473257660866
1772458022988575200,7.4665751953125,0.26643213629722595,-0.16469229757785797,-0.06633004546165466
1772458022998643200,7.476643310546875,0.20768655836582184,-0.20096588134765625,-0.16778501868247986
1772458023008711200,7.486711181640625,0.14897824823856354,-0.18723808228969574,-0.2378523200750351
1772458023018780200,7.4967802734375,0.09380900114774704,-0.09147585928440094,-0.24703995883464813
1772458023028848000,7.50684814453125,0.04326925054192543,0.047074951231479645,-0.1882251352071762
1772458023038916000,7.516916015625,0.013286314904689789,0.17400680482387543,-0.08863756060600281
1772458023048985300,7.5269853515625,0.007852091453969479,0.22853098809719086,0.01735888235270977
1772458023059053000,7.537052978515625,0.03279659152030945,0.1973312497138977,0.10023059695959091
1772458023069121000,7.54712109375,0.08567272126674652,0.1051790788769722,0.1733320653438568
1772458023079189200,7.557189208984375,0.1520669311285019,-0.0037559238262474537,0.24952135980129242
1772458023089258200,7.56725830078125,0.22411727905273438,-0.08778117597103119,0.3576280474662781
1772458023099326200,7.577326171875,0.3004908859729767,-0.13546428084373474,0.4909735918045044
1772458023109394400,7.58739453125,0.37815552949905396,-0.15391282737255096,0.6272890567779541
1772458023119463200,7.597463134765625,0.4512752890586853,-0.15893128514289856,0.7459160685539246
1772458023129531100,7.60753125,0.5152109861373901,-0.15423890948295593,0.8296478986740112
1772458023139599000,7.61759912109375,0.5600202679634094,-0.14498735964298248,0.8701886534690857
1772458023149668000,7.627668212890625,0.590745747089386,-0.10842745006084442,0.8728616833686829
1772458023159736000,7.637736083984375,0.6033185124397278,-0.06454388052225113,0.8324234485626221
1772458023169804000,7.647803955078125,0.590827465057373,-0.021712880581617355,0.7628054618835449
1772458023179873300,7.657873291015625,0.5552334785461426,0.018829219043254852,0.676888108253479
1772458023189941200,7.667941162109375,0.5022203922271729,0.04980448633432388,0.5964556932449341
1772458023200009200,7.67800927734375,0.43791595101356506,0.0838165134191513,0.5388141870498657
1772458023210078200,7.688078125,0.3704183101654053,0.13014744222164154,0.4918932616710663
1772458023220146200,7.698146240234375,0.2999870181083679,0.1630593240261078,0.45523855090141296
1772458023230214100,7.708214111328125,0.23455733060836792,0.17574651539325714,0.40223580598831177
1772458023240283100,7.718283203125,0.18407951295375824,0.1610322743654251,0.3257814943790436
1772458023250351000,7.72835107421875,0.14355109632015228,0.13277864456176758,0.23233944177627563
1772458023260419000,7.738419189453125,0.12144632637500763,0.12598705291748047,0.12291041016578674
1772458023270488300,7.74848828125,0.1057492271065712,0.153021439909935,0.009005430154502392
1772458023280556300,7.758556396484375,0.09711073338985443,0.18055905401706696,-0.12092646956443787
1772458023290624300,7.768624267578125,0.10414837300777435,0.18319636583328247,-0.26589837670326233
1772458023300692000,7.77869189453125,0.11378182470798492,0.16167402267456055,-0.4059249758720398
1772458023310761200,7.78876123046875,0.12481991201639175,0.1354515552520752,-0.5396198630332947
1772458023320829200,7.7988291015625,0.13130098581314087,0.11862411350011826,-0.6642779111862183
1772458023330897200,7.808897216796875,0.13064168393611908,0.12140721827745438,-0.7739647626876831
1772458023340966100,7.818966064453125,0.12853778898715973,0.14955469965934753,-0.8713139295578003
1772458023351034000,7.8290341796875,0.12839920818805695,0.2117234468460083,-0.9407212734222412
1772458023361102000,7.83910205078125,0.14429855346679688,0.31333157420158386,-0.9752182960510254
1772458023371170600,7.849170654296875,0.1668972373008728,0.44757717847824097,-0.9622840881347656
1772458023381238500,7.859238525390625,0.2015414983034134,0.6010346412658691,-0.9017091989517212
1772458023391306500,7.869306396484375,0.24473828077316284,0.7308557629585266,-0.8258543610572815
1772458023401375500,7.87937548828125,0.29163628816604614,0.8020718693733215,-0.7407370805740356
1772458023411443500,7.889443359375,0.3432341516017914,0.8002821803092957,-0.6518415808677673
1772458023421511400,7.899511474609375,0.395486980676651,0.744356095790863,-0.5691957473754883
1772458023431580400,7.909580322265625,0.4346999228000641,0.6488796472549438,-0.46933937072753906
1772458023441648400,7.9196484375,0.46286123991012573,0.5310238599777222,-0.3663959503173828
1772458023451716400,7.92971630859375,0.4765826463699341,0.40076252818107605,-0.2587707042694092
1772458023461785600,7.93978564453125,0.47883543372154236,0.2585800886154175,-0.156890407204628
1772458023471853600,7.949853515625,0.4760209918022156,0.1284915804862976,-0.07187271863222122
1772458023481921500,7.959921630859375,0.46214112639427185,0.017154928296804428,0.0013535600155591965
1772458023491990500,7.969990478515625,0.45016545057296753,-0.050317831337451935,0.05452524498105049
1772458023502058500,7.98005859375,0.4417054057121277,-0.08858692646026611,0.08403705805540085
1772458023512125400,7.99012548828125,0.4386988878250122,-0.09877091646194458,0.08442430943250656
1772458023522193400,8.000193359375,0.4411327540874481,-0.1013384684920311,0.07110077887773514
1772458023532261400,8.010261474609376,0.4454231858253479,-0.10107449442148209,0.04285420849919319
1772458023542330600,8.02033056640625,0.43765658140182495,-0.1006300076842308,0.013128536753356457
1772458023552398300,8.0303984375,0.41429218649864197,-0.10459247976541519,0.0009167827665805817
1772458023562466300,8.04046630859375,0.3764031231403351,-0.11248449236154556,-0.0054479059763252735
1772458023572534500,8.050534423828125,0.32156771421432495,-0.1225750744342804,-0.00024058925919234753
1772458023582603500,8.060603515625,0.25729018449783325,-0.12286216020584106,0.016745584085583687
1772458023592671500,8.07067138671875,0.19152911007404327,-0.1329117864370346,0.04012713208794594
1772458023602739500,8.080739501953126,0.13374437391757965,-0.16133996844291687,0.059125322848558426
1772458023612808400,8.090808349609375,0.0856119766831398,-0.19268938899040222,0.07929975539445877
1772458023622876400,8.10087646484375,0.039461784064769745,-0.2346711903810501,0.1005677580833435
1772458023632944600,8.110944580078124,-0.006843894720077515,-0.26920488476753235,0.1363871842622757
1772458023643013400,8.121013427734376,-0.04470951855182648,-0.29733186960220337,0.16425742208957672
1772458023653081300,8.131081298828125,-0.08131870627403259,-0.321780800819397,0.1964525282382965
1772458023663149600,8.141149658203124,-0.1173643246293068,-0.3315252959728241,0.22441625595092773
1772458023673218600,8.151218505859376,-0.1562427580356598,-0.33248698711395264,0.22962912917137146
1772458023683286500,8.16128662109375,-0.19200341403484344,-0.33682525157928467,0.21815170347690582
1772458023693354500,8.1713544921875,-0.22780853509902954,-0.32830339670181274,0.1922537386417389
1772458023703423500,8.181423583984374,-0.26528534293174744,-0.308519572019577,0.16090647876262665
1772458023713491500,8.191491455078125,-0.29344886541366577,-0.2679179012775421,0.14896008372306824
1772458023723559400,8.201559326171875,-0.30619075894355774,-0.20212875306606293,0.16343969106674194
1772458023733628400,8.21162841796875,-0.3107467591762543,-0.13338154554367065,0.2138201743364334
1772458023743696400,8.2216962890625,-0.2980397641658783,-0.16879333555698395,0.23085854947566986
1772458023753764400,8.231764404296875,-0.2796320915222168,-0.3223070800304413,0.1838999092578888
1772458023763833600,8.24183349609375,-0.247641921043396,-0.4591411054134369,0.11033700406551361
1772458023773901600,8.251901611328124,-0.23748019337654114,-0.4943055510520935,0.046328265219926834
1772458023783969300,8.26196923828125,-0.25546345114707947,-0.4223805069923401,-0.006702730897814035
1772458023794037500,8.27203759765625,-0.28604862093925476,-0.30265018343925476,-0.062252018600702286
1772458023804106500,8.2821064453125,-0.3163956105709076,-0.20774604380130768,-0.13096396625041962
1772458023814174500,8.292174560546876,-0.3349669575691223,-0.1456073671579361,-0.19873714447021484
1772458023824242700,8.30224267578125,-0.3409782648086548,-0.09751015156507492,-0.2381519228219986
1772458023834311400,8.3123115234375,-0.3480893075466156,-0.06029503792524338,-0.24611370265483856
1772458023844379400,8.32237939453125,-0.34720781445503235,-0.0217958502471447,-0.21414059400558472
1772458023854447600,8.332447509765625,-0.34348347783088684,0.010740438476204872,-0.13747648894786835
1772458023864516600,8.3425166015625,-0.326396107673645,0.04059767350554466,-0.044981978833675385
1772458023874585300,8.35258544921875,-0.29727014899253845,0.056143343448638916,0.0799558162689209
1772458023884653600,8.362653564453124,-0.2615984380245209,0.05693456530570984,0.21697385609149933
1772458023894721500,8.372721435546875,-0.21888259053230286,0.03512788563966751,0.34911131858825684
1772458023904790500,8.38279052734375,-0.17886300384998322,-0.005682127550244331,0.46654367446899414
1772458023914858500,8.3928583984375,-0.1522766500711441,-0.0643017441034317,0.5606504082679749
1772458023924926500,8.402926513671876,-0.13366489112377167,-0.13062670826911926,0.625425398349762
1772458023934994400,8.412994384765625,-0.12064551562070847,-0.18315252661705017,0.661903977394104
1772458023945063700,8.423063720703125,-0.10502980649471283,-0.21934594213962555,0.6789721846580505
1772458023955131600,8.433131591796876,-0.08963052183389664,-0.23595041036605835,0.6828303933143616
1772458023965199400,8.443199462890625,-0.06862776726484299,-0.23943781852722168,0.6689643859863281
1772458023975268600,8.4532685546875,-0.03984351456165314,-0.23699542880058289,0.647128164768219
1772458023985336600,8.463336669921874,-0.009400120005011559,-0.23131436109542847,0.622029185295105
1772458023995404500,8.473404541015626,0.01277282927185297,-0.21521367132663727,0.5923294425010681
1772458024005473300,8.483473388671875,0.03110576421022415,-0.20318683981895447,0.5570255517959595
1772458024015541500,8.49354150390625,0.040657009929418564,-0.21055813133716583,0.5260298252105713
1772458024025609500,8.503609375,0.0353567898273468,-0.23307941854000092,0.4903925061225891
1772458024035678500,8.513678466796875,0.025234142318367958,-0.2576009929180145,0.43992114067077637
1772458024045746700,8.52374658203125,-0.003304557641968131,-0.2848206162452698,0.3732060194015503
1772458024055814400,8.533814453125,-0.04026392474770546,-0.30235782265663147,0.2775495946407318
1772458024065883400,8.54388330078125,-0.08794435858726501,-0.2937190532684326,0.15886154770851135
1772458024075951600,8.55395166015625,-0.14268331229686737,-0.2501881718635559,0.026562262326478958
1772458024086019600,8.56401953125,-0.19537955522537231,-0.15323950350284576,-0.10853829979896545
1772458024096088300,8.57408837890625,-0.2420213520526886,-0.01612560823559761,-0.2331828624010086
1772458024106156500,8.584156494140625,-0.2704511284828186,0.14068184792995453,-0.32491597533226013
1772458024116224500,8.594224609375,-0.28983235359191895,0.2826155126094818,-0.3891136944293976
1772458024126293500,8.60429345703125,-0.2960948050022125,0.3842305541038513,-0.39633193612098694
1772458024136361500,8.614361572265626,-0.2905561625957489,0.44047683477401733,-0.356720894575119
1772458024146429400,8.624429443359375,-0.27358171343803406,0.43521520495414734,-0.28594738245010376
1772458024156497400,8.634497314453125,-0.244081050157547,0.38605886697769165,-0.2011992186307907
1772458024166566400,8.64456640625,-0.2069784253835678,0.3064705431461334,-0.11960048973560333
1772458024176634600,8.654634521484375,-0.17198729515075684,0.19912424683570862,-0.05294112488627434
1772458024186702600,8.66470263671875,-0.14277906715869904,0.08855753391981125,0.0025730025954544544
1772458024196771300,8.674771240234374,-0.12144642323255539,-0.003963159397244453,0.043470967561006546
1772458024206839600,8.684839599609376,-0.10667253285646439,-0.05690360814332962,0.057181719690561295
1772458024216907500,8.694907470703125,-0.09626525640487671,-0.08296830952167511,0.047412388026714325
1772458024226976500,8.7049765625,-0.08307088911533356,-0.08980810642242432,0.007868175394833088
1772458024237044500,8.71504443359375,-0.07235950976610184,-0.0904841348528862,-0.0618022121489048
1772458024247112400,8.725112548828125,-0.053436681628227234,-0.09076137095689774,-0.1481432169675827
1772458024257181400,8.735181396484375,-0.04185681417584419,-0.08383351564407349,-0.23656049370765686
1772458024267249700,8.745249755859374,-0.03253468871116638,-0.06506914645433426,-0.3035792112350464
1772458024277317600,8.755317626953126,-0.03244761750102043,-0.04443392530083656,-0.36276474595069885
1772458024287386400,8.765386474609375,-0.03322286158800125,-0.025863971561193466,-0.4041028618812561
1772458024297454600,8.77545458984375,-0.03490978479385376,0.011462812311947346,-0.43171975016593933
1772458024307522600,8.7855224609375,-0.036203816533088684,0.0577983520925045,-0.44677913188934326
1772458024317591600,8.795591552734376,-0.03141580522060394,0.10375404357910156,-0.4494721591472626
1772458024327659500,8.805659423828125,-0.01611647754907608,0.1467806100845337,-0.4313757121562958
1772458024337727500,8.8157275390625,0.004446560051292181,0.18782629072666168,-0.3944729268550873
1772458024347796500,8.82579638671875,0.037475619465112686,0.22351211309432983,-0.3338865339756012
1772458024357864400,8.835864501953125,0.07889601588249207,0.24513456225395203,-0.2741869390010834
1772458024367932700,8.8459326171875,0.12032414972782135,0.2534921169281006,-0.21371427178382874
1772458024378001000,8.8560009765625,0.16441109776496887,0.2709466218948364,-0.15062573552131653
1772458024388070100,8.866070068359376,0.211605504155159,0.28010764718055725,-0.10102463513612747
1772458024398138000,8.87613818359375,0.2609367072582245,0.2784353196620941,-0.061878643929958344
1772458024408206000,8.8862060546875,0.30478033423423767,0.24929393827915192,-0.02257677912712097
1772458024418274800,8.89627490234375,0.3360075354576111,0.21645481884479523,0.02876868098974228
1772458024428343000,8.906343017578125,0.356403112411499,0.1844894289970398,0.08684317022562027
1772458024438411000,8.916410888671875,0.3777119219303131,0.15595237910747528,0.1496324986219406
1772458024448480000,8.92647998046875,0.398534893989563,0.1454046666622162,0.21706560254096985
1772458024458548000,8.9365478515625,0.4197175204753876,0.16957777738571167,0.28424832224845886
1772458024468616000,8.946615966796875,0.4349159300327301,0.20067737996578217,0.34525707364082336
1772458024478685000,8.956684814453125,0.44301101565361023,0.14056439697742462,0.3467666804790497
1772458024488753200,8.966753173828126,0.46083876490592957,0.02148461528122425,0.289844274520874
1772458024498821000,8.976821044921875,0.45607489347457886,-0.09427500516176224,0.20883996784687042
1772458024508889900,8.986889892578125,0.41473838686943054,-0.16991756856441498,0.11707116663455963
1772458024518958000,8.9969580078125,0.3397565484046936,-0.20557545125484467,0.019241593778133392
1772458024529026000,9.007026123046876,0.25586217641830444,-0.21713489294052124,-0.09016479551792145
1772458024539095000,9.017094970703125,0.18959806859493256,-0.1762930452823639,-0.17295801639556885
1772458024549163000,9.0271630859375,0.1348610520362854,-0.10787378251552582,-0.2155188024044037
1772458024559231000,9.03723095703125,0.09118875116109848,-0.009087737649679184,-0.21248020231723785
1772458024569300000,9.047300048828125,0.059203650802373886,0.10696802288293839,-0.16997668147087097
1772458024579368000,9.057367919921875,0.04486297070980072,0.2102796584367752,-0.10918299853801727
1772458024589436200,9.067436279296874,0.0497935451567173,0.2737007141113281,-0.027708910405635834
1772458024599504000,9.07750390625,0.08133626729249954,0.2960776388645172,0.050672903656959534
1772458024609572900,9.08757275390625,0.13859476149082184,0.29586008191108704,0.1460721343755722
1772458024619641000,9.09764111328125,0.19322331249713898,0.2884473502635956,0.269523561000824
1772458024629709000,9.107708984375,0.22408215701580048,0.28307202458381653,0.4108215570449829
1772458024639777800,9.11777783203125,0.23398102819919586,0.2768220007419586,0.5440853238105774
1772458024649846000,9.127845947265625,0.23727375268936157,0.26338422298431396,0.6492500901222229
1772458024659914000,9.1379140625,0.23812219500541687,0.22950930893421173,0.7130367755889893
1772458024669983000,9.14798291015625,0.24162957072257996,0.1888071596622467,0.7410683631896973
1772458024680051200,9.15805126953125,0.23834756016731262,0.16072657704353333,0.7374410033226013
1772458024690119000,9.168118896484375,0.22287166118621826,0.13667264580726624,0.7100490927696228
1772458024700188000,9.17818798828125,0.2123330533504486,0.1343269795179367,0.6719908118247986
1772458024710256000,9.188256103515625,0.1908075213432312,0.15567967295646667,0.6385436058044434
1772458024720324000,9.198323974609375,0.1601831316947937,0.1916511058807373,0.6053007245063782
1772458024730392800,9.208392822265624,0.12782414257526398,0.2214372307062149,0.5586719512939453
1772458024740460800,9.218460693359376,0.08882947266101837,0.23376299440860748,0.48571714758872986
1772458024750529000,9.228529052734375,0.05728858336806297,0.23125135898590088,0.39614465832710266
1772458024760598000,9.238597900390625,0.03470505401492119,0.18993383646011353,0.276305228471756
1772458024770666000,9.248666015625,0.02015620470046997,0.12524165213108063,0.12772829830646515
1772458024780734000,9.25873388671875,0.015037105418741703,0.048079781234264374,-0.0317278653383255
1772458024790803000,9.268802978515625,0.020194582641124725,-0.014887997880578041,-0.21520288288593292
1772458024800871000,9.278870849609374,0.033467791974544525,-0.06286562234163284,-0.413197785615921
1772458024810939100,9.288939208984376,0.05352539196610451,-0.07447674125432968,-0.6164568662643433
1772458024821008000,9.2990078125,0.06039171665906906,-0.0502423420548439,-0.7938393950462341
1772458024831075800,9.309075927734375,0.054922912269830704,0.023157037794589996,-0.9270206093788147
1772458024841144000,9.31914404296875,0.04569307714700699,0.13237208127975464,-0.9910706877708435
1772458024851212000,9.3292119140625,0.04083147644996643,0.2780752182006836,-0.9864676594734192
1772458024861281000,9.339281005859375,0.04983723908662796,0.44009265303611755,-0.911139965057373
1772458024871349000,9.349348876953124,0.07769869267940521,0.5799304246902466,-0.7926836013793945
1772458024881417000,9.3594169921875,0.12918473780155182,0.6765842437744141,-0.670848548412323
1772458024891486000,9.36948583984375,0.2021593451499939,0.6947517991065979,-0.5662707090377808
1772458024901554000,9.379553955078125,0.28457170724868774,0.6452814936637878,-0.484334260225296
1772458024911622100,9.3896220703125,0.3565162122249603,0.5440438389778137,-0.41364356875419617
1772458024921691000,9.39969091796875,0.41665926575660706,0.405439168214798,-0.3483361601829529
1772458024931758800,9.4097587890625,0.45983976125717163,0.25273242592811584,-0.28947657346725464
1772458024941827000,9.4198271484375,0.4809252917766571,0.11375398933887482,-0.2321908175945282
1772458024951896000,9.42989599609375,0.4924144446849823,0.012036947533488274,-0.1795252114534378
1772458024961963800,9.4399638671875,0.4954013228416443,-0.034308817237615585,-0.13609611988067627
1772458024972032000,9.450031982421875,0.4991641044616699,-0.03559831902384758,-0.10736674815416336
1772458024982101000,9.46010107421875,0.501490592956543,-0.025968940928578377,-0.09421546012163162
1772458024992169000,9.4701689453125,0.5057441592216492,-0.024691954255104065,-0.09358961880207062
1772458025002237200,9.4802373046875,0.5045673847198486,-0.03738611564040184,-0.10909216105937958
1772458025012306000,9.490305908203124,0.5016645193099976,-0.061498112976551056,-0.12217520922422409
1772458025022374000,9.500373779296876,0.4912192225456238,-0.08510371297597885,-0.133947491645813
1772458025032442000,9.510442138671875,0.4765784740447998,-0.10725376009941101,-0.1360146403312683
1772458025042511000,9.520510986328125,0.4585875868797302,-0.1288905292749405,-0.12625740468502045
1772458025052578800,9.530578857421874,0.4304017424583435,-0.1305435597896576,-0.11764340847730637
1772458025062647000,9.54064697265625,0.4000073969364166,-0.12121820449829102,-0.10214574635028839
1772458025072715000,9.550715087890625,0.3664044439792633,-0.10746510326862335,-0.08423865586519241
1772458025082784000,9.560783935546874,0.3228927552700043,-0.08536072820425034,-0.05559096857905388
1772458025092852000,9.57085205078125,0.27002155780792236,-0.05290558561682701,-0.0007524867542088032
1772458025102920000,9.580919921875,0.2231004685163498,-0.015035088174045086,0.05631139129400253
1772458025112989000,9.590989013671875,0.17659369111061096,-0.020955827087163925,0.10019681602716446
1772458025123057000,9.601056884765624,0.14159047603607178,-0.05252543091773987,0.11942727118730545
1772458025133125000,9.611125,0.10984213650226593,-0.08102098852396011,0.11683042347431183
1772458025143193900,9.62119384765625,0.07838675379753113,-0.07574684172868729,0.10412656515836716
1772458025153261800,9.63126171875,0.055687036365270615,-0.03721383213996887,0.08913829177618027
1772458025163330000,9.641330078125,0.03912224620580673,0.024341203272342682,0.0764084905385971
1772458025173399000,9.65139892578125,0.023985370993614197,0.08258293569087982,0.07604257017374039
1772458025183467000,9.661467041015625,0.012928016483783722,0.13941515982151031,0.09802071750164032
1772458025193535000,9.671534912109376,0.0037174741737544537,0.17330148816108704,0.14008614420890808
1772458025203604000,9.68160400390625,-0.0024907079059630632,0.18886598944664001,0.19669876992702484
1772458025213672000,9.691671875,-0.0166667141020298,0.11318294703960419,0.2253863364458084
1772458025223740200,9.701740234375,-0.02867872826755047,-0.04893549159169197,0.1988469958305359
1772458025233809000,9.711808837890626,-0.03887144476175308,-0.19881074130535126,0.14018981158733368
1772458025243876900,9.721876953125,-0.04990212619304657,-0.28727468848228455,0.06645467877388
1772458025253944800,9.73194482421875,-0.07101646065711975,-0.30972832441329956,-0.03495769202709198
1772458025264013000,9.742012939453126,-0.10163529962301254,-0.28156453371047974,-0.15307173132896423
1772458025274082000,9.75208203125,-0.12584209442138672,-0.22337153553962708,-0.27579498291015625
1772458025284149800,9.762149658203125,-0.15213695168495178,-0.13427934050559998,-0.36847907304763794
1772458025294218000,9.772218017578124,-0.1614779829978943,-0.031306877732276917,-0.4303102195262909
1772458025304287000,9.782286865234376,-0.16013889014720917,0.0482625775039196,-0.44481754302978516
1772458025314355000,9.79235498046875,-0.1498633474111557,0.1055208072066307,-0.421514093875885
1772458025324423200,9.802423095703125,-0.13099519908428192,0.17227017879486084,-0.3688655197620392
1772458025334492000,9.812491943359374,-0.10989338904619217,0.22782769799232483,-0.3139530122280121
1772458025344559900,9.822559814453125,-0.07404012978076935,0.2413727343082428,-0.2511470913887024
1772458025354628000,9.832628173828125,-0.02915148437023163,0.22109462320804596,-0.1780949980020523
1772458025364697000,9.842697021484375,0.01718154549598694,0.16768960654735565,-0.09163773059844971
1772458025374764800,9.852764892578126,0.062361009418964386,0.09380847215652466,0.014684183523058891
1772458025384832500,9.86283251953125,0.10365120321512222,-0.0025348449125885963,0.12314633280038834
1772458025394901800,9.87290185546875,0.13792581856250763,-0.10900536179542542,0.23444810509681702
1772458025404969700,9.8829697265625,0.17909233272075653,-0.19360850751399994,0.33742785453796387
1772458025415037700,9.89303759765625,0.20117713510990143,-0.24088281393051147,0.42704564332962036
1772458025425106700,9.903106689453125,0.21357573568820953,-0.2676020562648773,0.4893876910209656
1772458025435174700,9.913174560546874,0.20791997015476227,-0.27859291434288025,0.5122138857841492
1772458025445242600,9.92324267578125,0.19030724465847015,-0.2630373239517212,0.5042021870613098
1772458025455312000,9.933311767578125,0.16359813511371613,-0.23603658378124237,0.4715012013912201
1772458025465379800,9.9433798828125,0.12731139361858368,-0.1998344510793686,0.4180988073348999
1772458025475447600,9.953447509765626,0.08420626074075699,-0.14555656909942627,0.35953110456466675
1772458025485515500,9.963515625,0.032608289271593094,-0.084081269800663,0.2999306917190552
1772458025495584800,9.973584716796875,-0.02457324042916298,-0.018368568271398544,0.24131585657596588
1772458025505652700,9.98365283203125,-0.08344493061304092,0.04869822785258293,0.20704928040504456
1772458025515720700,9.993720703125,-0.13463781774044037,0.1121232733130455,0.19599902629852295
1772458025525789700,10.003789794921875,-0.17237000167369843,0.17519094049930573,0.21551862359046936
1772458025535857700,10.013857666015625,-0.19618158042430878,0.21800045669078827,0.24635855853557587
1772458025545925600,10.023925537109376,-0.2055485099554062,0.23885348439216614,0.28193944692611694
1772458025555994600,10.03399462890625,-0.2013830691576004,0.24047322571277618,0.3226112425327301
1772458025566062600,10.0440625,-0.1899956613779068,0.21966195106506348,0.35106924176216125
1772458025576130600,10.054130615234374,-0.16431106626987457,0.1814381331205368,0.3682434558868408
1772458025586199800,10.06419970703125,-0.1196371465921402,0.1316838264465332,0.36927321553230286
1772458025596267800,10.074267822265625,-0.06796836107969284,0.06567764282226562,0.3506681025028229
1772458025606335700,10.084335693359375,-0.011112695559859276,-0.008060677908360958,0.31064149737358093
1772458025616404700,10.09440478515625,0.04219686612486839,-0.0939345732331276,0.2418762743473053
1772458025626472700,10.10447265625,0.10129030793905258,-0.17505760490894318,0.14595498144626617
1772458025636540700,10.114540771484375,0.14989033341407776,-0.23877480626106262,0.01871340349316597
1772458025646609700,10.124609619140625,0.18502818048000336,-0.2730730175971985,-0.13129761815071106
1772458025656677600,10.134677734375,0.20130515098571777,-0.2619234323501587,-0.288589745759964
1772458025666745600,10.14474560546875,0.18546995520591736,-0.19752158224582672,-0.43610313534736633
1772458025676814800,10.15481494140625,0.1608479619026184,-0.0838988795876503,-0.5399096608161926
1772458025686882800,10.1648828125,0.13135340809822083,0.07017826288938522,-0.5821071863174438
1772458025696950800,10.17495068359375,0.09797043353319168,0.22094352543354034,-0.5523051023483276
1772458025707018500,10.1850185546875,0.07679707556962967,0.31350764632225037,-0.4647691249847412
1772458025717087700,10.195087646484374,0.07658161967992783,0.322381854057312,-0.35712844133377075
1772458025727155700,10.20515576171875,0.10108619183301926,0.2742055654525757,-0.24494881927967072
1772458025737223700,10.2152236328125,0.13860906660556793,0.19434399902820587,-0.15045428276062012
1772458025747292700,10.225292724609375,0.18805019557476044,0.08790046721696854,-0.06883777678012848
1772458025757360600,10.235360595703124,0.23427920043468475,-0.02651345543563366,-0.008951009251177311
1772458025767428600,10.2454287109375,0.26789575815200806,-0.11618610471487045,0.019089726731181145
1772458025777497900,10.255497802734375,0.2970309853553772,-0.16181324422359467,0.01291758380830288
1772458025787565800,10.26556591796875,0.31451481580734253,-0.16066601872444153,-0.01387178897857666
1772458025797633500,10.275633544921876,0.32364919781684875,-0.11962617188692093,-0.03951829671859741
1772458025807702800,10.285702880859375,0.32140862941741943,-0.06552786380052567,-0.06134271249175072
1772458025817770800,10.295770751953125,0.3113219141960144,-0.012104585766792297,-0.0890241414308548
1772458025827838700,10.305838623046874,0.294089138507843,0.030874060466885567,-0.12251316756010056
1772458025837907700,10.31590771484375,0.2694447636604309,0.06297660619020462,-0.15773801505565643
1772458025847975700,10.3259755859375,0.2424086630344391,0.08634748309850693,-0.19119912385940552
1772458025858043600,10.336043701171874,0.2168114334344864,0.10525539517402649,-0.22339913249015808
1772458025868113000,10.34611279296875,0.19349823892116547,0.11825600266456604,-0.25580692291259766
1772458025878180900,10.356180908203125,0.17370536923408508,0.1219780370593071,-0.29641079902648926
1772458025888248600,10.36624853515625,0.16366727650165558,0.12956075370311737,-0.34812766313552856
1772458025898317800,10.37631787109375,0.16388246417045593,0.15263037383556366,-0.39658868312835693
1772458025908385800,10.3863857421875,0.17550791800022125,0.18543089926242828,-0.4256158471107483
1772458025918453800,10.396453857421875,0.19156891107559204,0.22836479544639587,-0.423432320356369
1772458025928522500,10.4065224609375,0.21067367494106293,0.2708052396774292,-0.3942914307117462
1772458025938590700,10.4165908203125,0.23501870036125183,0.3234250247478485,-0.3399083614349365
1772458025948658700,10.42665869140625,0.2749561071395874,0.36646902561187744,-0.2639353275299072
1772458025958726700,10.4367265625,0.32875943183898926,0.37468966841697693,-0.18339654803276062
1772458025968796000,10.4467958984375,0.3840702176094055,0.3377067446708679,-0.09905081987380981
1772458025978863600,10.456863525390625,0.4342731833457947,0.2758766710758209,-0.01351061649620533
1772458025988931600,10.466931640625,0.47810468077659607,0.20440393686294556,0.07307415455579758
1772458025999000800,10.477000732421875,0.5248662829399109,0.12917016446590424,0.14297868311405182
1772458026009068800,10.48706884765625,0.5604769587516785,0.05776991695165634,0.20431046187877655
1772458026019136800,10.49713671875,0.5843761563301086,0.0076569500379264355,0.2558538317680359
1772458026029205800,10.507205810546875,0.5992366671562195,-0.005579146556556225,0.3007015287876129
1772458026039273700,10.517273681640624,0.6068618297576904,0.01626729592680931,0.32522445917129517
1772458026049341700,10.527341796875,0.6054407954216003,0.06394802033901215,0.35022667050361633
1772458026059410700,10.53741064453125,0.6084679961204529,0.12195885926485062,0.3701050281524658
1772458026069478700,10.547478759765625,0.6099135875701904,0.17955772578716278,0.39542660117149353
1772458026079546600,10.557546630859376,0.6070924997329712,0.20777206122875214,0.41613295674324036
1772458026089615600,10.56761572265625,0.6006117463111877,0.1624423861503601,0.42088374495506287
1772458026099683800,10.577683837890625,0.583118736743927,0.056887201964855194,0.386985719203949
1772458026109751800,10.587751708984374,0.5567924976348877,-0.020345862954854965,0.36132028698921204
1772458026119820500,10.597820556640626,0.5002480149269104,-0.02694064751267433,0.34938961267471313
1772458026129888800,10.607888671875,0.4177485704421997,0.013904479332268238,0.3431771993637085
1772458026139956700,10.617956787109375,0.33084243535995483,0.06370745599269867,0.3429391384124756
1772458026150024700,10.628024658203126,0.24979044497013092,0.09519372135400772,0.32858940958976746
1772458026160093700,10.63809375,0.19277535378932953,0.11566118150949478,0.3123641014099121
1772458026170161700,10.64816162109375,0.16001945734024048,0.13052180409431458,0.2955644130706787
1772458026180229600,10.658229736328124,0.14375527203083038,0.1398434042930603,0.27512305974960327
1772458026190299000,10.668298828125,0.14376063644886017,0.13989748060703278,0.25662297010421753
1772458026200366800,10.678366943359375,0.1462232619524002,0.12471373379230499,0.24324935674667358
1772458026210434600,10.6884345703125,0.1537104845046997,0.0931883454322815,0.21863234043121338
1772458026220503800,10.69850390625,0.1634906828403473,0.05983757600188255,0.19902054965496063
1772458026230571800,10.70857177734375,0.1685018390417099,0.0433836430311203,0.1918279379606247
1772458026240639700,10.7186396484375,0.17160947620868683,0.028909098356962204,0.18059764802455902
1772458026250708500,10.72870849609375,0.17317722737789154,0.01674746535718441,0.15368877351284027
1772458026260776700,10.738776611328126,0.17562361061573029,0.005035948008298874,0.1183914989233017
1772458026270844700,10.7488447265625,0.18272118270397186,0.01314045861363411,0.07642053812742233
1772458026280913700,10.75891357421875,0.19731050729751587,0.027615271508693695,0.03138914704322815
1772458026290982000,10.76898193359375,0.21408192813396454,0.043144043534994125,-0.004859898705035448
1772458026301049600,10.779049560546875,0.23173601925373077,0.0738910362124443,-0.024439191445708275
1772458026311118600,10.78911865234375,0.23991720378398895,0.09275869280099869,-0.026479080319404602
1772458026321186800,10.799186767578124,0.2454022616147995,0.10601404309272766,-0.017955366522073746
1772458026331254800,10.8092548828125,0.24451255798339844,0.097650445997715,-0.017086129635572433
1772458026341323500,10.819323486328125,0.23893135786056519,0.08595570921897888,-0.016894115135073662
1772458026351391700,10.829391845703125,0.23282721638679504,0.07916286587715149,-0.01867849938571453
1772458026361459700,10.839459716796876,0.23461925983428955,0.0880943089723587,-0.015437697991728783
1772458026371527700,10.849527587890625,0.23645780980587006,0.10012982785701752,-0.0071783242747187614
1772458026381596200,10.85959619140625,0.23773053288459778,0.10592939704656601,-0.0013396102003753185
1772458026391664400,10.869664306640624,0.2300058901309967,0.1046014204621315,0.011885562911629677
1772458026401732000,10.879732177734375,0.21264421939849854,0.10547120869159698,0.025464488193392754
1772458026411801000,10.889801025390625,0.18830792605876923,0.11066964268684387,0.03941068425774574
1772458026421869300,10.899869384765625,0.16316048800945282,0.11870839446783066,0.04920632392168045
1772458026431937300,10.909937255859376,0.14086103439331055,0.120146743953228,0.05426664277911186
1772458026442006000,10.920006103515625,0.11488190293312073,0.12464828789234161,0.05815885215997696
1772458026452074200,10.93007421875,0.09893132746219635,0.1174565851688385,0.0462380014359951
1772458026462142200,10.94014208984375,0.0966857522726059,0.09070166945457458,0.016300074756145477
1772458026472211200,10.950211181640626,0.10088087618350983,0.06845800578594208,-0.015625670552253723
1772458026482279400,10.960279541015625,0.10205000638961792,0.05388491973280907,-0.05356506258249283
1772458026492347100,10.97034716796875,0.1010652408003807,0.05020982027053833,-0.1015750914812088
1772458026502416100,10.980416015625,0.10290202498435974,0.041756413877010345,-0.15894198417663574
1772458026512484400,10.990484375,0.10035787522792816,0.03202227130532265,-0.23446930944919586
1772458026522552300,11.00055224609375,0.0844380334019661,0.03185316175222397,-0.33635494112968445
1772458026532621000,11.01062109375,0.05768786743283272,0.03987269848585129,-0.46450573205947876
1772458026542689000,11.02068896484375,0.010088924318552017,0.06595702469348907,-0.6019525527954102
1772458026552757200,11.03075732421875,-0.05517056584358215,0.1324784755706787,-0.7494231462478638
1772458026562825200,11.0408251953125,-0.12657630443572998,0.2271147072315216,-0.8941385746002197
1772458026572894200,11.050894287109376,-0.2134949415922165,0.36634397506713867,-1.0203408002853394
1772458026582962200,11.060962158203125,-0.3087540864944458,0.5743674635887146,-1.1094603538513184
1772458026593030100,11.071030029296875,-0.3955998420715332,0.8286688923835754,-1.180124282836914
1772458026603099100,11.08109912109375,-0.47391995787620544,1.0808905363082886,-1.2316707372665405
1772458026613167400,11.09116748046875,-0.5414014458656311,1.254132628440857,-1.2886441946029663
1772458026623235300,11.1012353515625,-0.6132567524909973,1.37449312210083,-1.3406575918197632
1772458026633304000,11.111303955078125,-0.6905221939086914,1.4121439456939697,-1.40024995803833
1772458026643372300,11.121372314453126,-0.7398465871810913,1.4498106241226196,-1.4301146268844604
1772458026653440300,11.131440185546875,-0.7915067076683044,1.5572324991226196,-1.384264588356018
1772458026663509200,11.14150927734375,-0.8515157103538513,1.5202285051345825,-1.3857111930847168
1772458026673577200,11.1515771484375,-0.8717194199562073,1.3876322507858276,-1.397862434387207
1772458026683645200,11.161645263671875,-0.8505550026893616,1.1912025213241577,-1.3925845623016357
1772458026693714200,11.171714111328125,-0.7962929010391235,0.9561763405799866,-1.3720282316207886
1772458026703782100,11.1817822265625,-0.7344207167625427,0.6923841238021851,-1.324854850769043
1772458026713850400,11.191850341796876,-0.6594225168228149,0.47820380330085754,-1.225508451461792
1772458026723919000,11.201919189453125,-0.5925076603889465,0.309610515832901,-1.0904548168182373
1772458026733987000,11.211987060546875,-0.5685214400291443,0.10658564418554306,-0.9583204984664917
1772458026744055300,11.22205517578125,-0.5693515539169312,-0.045465145260095596,-0.8355469107627869
1772458026754124300,11.232124267578126,-0.5576423406600952,-0.044967543333768845,-0.6824105978012085
1772458026764192000,11.24219189453125,-0.5496802926063538,0.08310573548078537,-0.5279603004455566
1772458026774260200,11.25226025390625,-0.545159637928009,0.20610326528549194,-0.4059915244579315
1772458026784328200,11.262328125,-0.5361847877502441,0.26351436972618103,-0.3097158670425415
1772458026794397200,11.272397216796875,-0.5255640149116516,0.3055467903614044,-0.25000864267349243
1772458026804465400,11.28246533203125,-0.5309652090072632,0.3346061408519745,-0.23605260252952576
1772458026814533000,11.292533203125,-0.5527274012565613,0.33062106370925903,-0.27266865968704224
1772458026824602000,11.30260205078125,-0.5907965302467346,0.3043503165245056,-0.3445095717906952
1772458026834670300,11.31267041015625,-0.6116037368774414,0.2541116774082184,-0.4272896945476532
1772458026844738300,11.32273828125,-0.6115520596504211,0.22272072732448578,-0.4854573905467987
1772458026854807000,11.33280712890625,-0.5988624095916748,0.23402605950832367,-0.5085325241088867
1772458026864875000,11.342875,-0.5634722113609314,0.2824910581111908,-0.5002780556678772
1772458026874943200,11.352943115234375,-0.49519777297973633,0.37313660979270935,-0.4498591721057892
1772458026885012200,11.36301220703125,-0.3945643901824951,0.444373220205307,-0.387590229511261
1772458026895080200,11.373080078125,-0.27621597051620483,0.4798153042793274,-0.3031275272369385
1772458026905148200,11.383148193359375,-0.15462906658649445,0.4970454275608063,-0.2046440988779068
1772458026915217200,11.393217041015625,-0.055070552974939346,0.49314573407173157,-0.09869041293859482
1772458026925285000,11.40328515625,0.02048359625041485,0.4567469656467438,0.004387241788208485
1772458026935353300,11.413353271484375,0.08233880996704102,0.3964797556400299,0.10857544094324112
1772458026945422000,11.423422119140625,0.12457440793514252,0.32658934593200684,0.19167405366897583
1772458026955490000,11.433489990234374,0.14244920015335083,0.22877880930900574,0.24573111534118652
1772458026965558300,11.443558349609376,0.13690529763698578,0.11408711224794388,0.2714282274246216
1772458026975627300,11.453627197265625,0.10640637576580048,0.024124853312969208,0.27330824732780457
1772458026985695200,11.4636953125,0.0665750727057457,-0.045813750475645065,0.2626398801803589
1772458026995763200,11.47376318359375,0.03941861167550087,-0.07892770320177078,0.25018370151519775
1772458027005831200,11.4838310546875,0.04225674271583557,-0.06653095036745071,0.22874793410301208
1772458027015900200,11.493900146484375,0.07181595265865326,-0.020710203796625137,0.2014719843864441
1772458027025968400,11.503968505859374,0.12197153270244598,0.0387808196246624,0.1775493323802948
1772458027036036400,11.514036376953126,0.1776587963104248,0.07673274725675583,0.15160836279392242
1772458027046105000,11.52410498046875,0.183677539229393,0.053184282034635544,0.23801541328430176
1772458027056173000,11.534173095703125,0.13514240086078644,-0.12335673719644547,0.2857610583305359
1772458027066241300,11.5442412109375,0.11008551716804504,-0.20385798811912537,0.3233102560043335
1772458027076310300,11.554310302734375,0.16832661628723145,-0.24893929064273834,0.3117356300354004
1772458027086378000,11.5643779296875,0.21937035024166107,-0.22823719680309296,0.2765837609767914
1772458027096446200,11.5744462890625,0.233683243393898,-0.19437377154827118,0.18992584943771362
1772458027106515200,11.58451513671875,0.22458454966545105,-0.23100848495960236,0.07249057292938232
1772458027116583200,11.594583251953125,0.2612636089324951,-0.25630682706832886,-0.042786478996276855
1772458027126651400,11.6046513671875,0.3448210656642914,-0.21866489946842194,-0.09699086099863052
1772458027136720100,11.61472021484375,0.41073617339134216,-0.2617045044898987,-0.12317293137311935
