time,seconds_elapsed,z,y,x
1772457290315529500,0.056529541015625,-0.9214630126953125,-0.3390960693359375,0.014312744140625
1772457290325598500,0.066598388671875,-0.9188232421875,-0.3350067138671875,0.0222930908203125
1772457290335666400,0.07666650390625,-0.9283905029296875,-0.3334503173828125,0.021636962890625
1772457290345735400,0.0867353515625,-0.935943603515625,-0.3313446044921875,0.0179290771484375
1772457290355803400,0.096803466796875,-0.9359893798828125,-0.3318328857421875,0.0152740478515625
1772457290365872400,0.106872314453125,-0.93609619140625,-0.333831787109375,0.0154571533203125
1772457290375940600,0.116940673828125,-0.9332427978515625,-0.334075927734375,0.017333984375
1772457290386008600,0.127008544921875,-0.928436279296875,-0.3360443115234375,0.01959228515625
1772457290396077300,0.137077392578125,-0.93243408203125,-0.33624267578125,0.018341064453125
1772457290406145500,0.1471455078125,-0.9398956298828125,-0.3341064453125,0.0153045654296875
1772457290416214500,0.157214599609375,-0.945465087890625,-0.3353118896484375,0.0147705078125
1772457290426282500,0.167282470703125,-0.94384765625,-0.3354644775390625,0.014404296875
1772457290436351500,0.1773515625,-0.9413604736328125,-0.336395263671875,0.01617431640625
1772457290446419500,0.18741943359375,-0.9400787353515625,-0.3367919921875,0.01416015625
1772457290456488400,0.197488525390625,-0.9429168701171875,-0.3372039794921875,0.0135650634765625
1772457290466556700,0.207556640625,-0.933807373046875,-0.337554931640625,0.0108489990234375
1772457290476625400,0.21762548828125,-0.928131103515625,-0.337677001953125,0.0162811279296875
1772457290486693400,0.227693359375,-0.9270477294921875,-0.3357696533203125,0.019683837890625
1772457290496762600,0.2377626953125,-0.9318084716796875,-0.333038330078125,0.019989013671875
1772457290506830300,0.247830322265625,-0.93365478515625,-0.332183837890625,0.0181427001953125
1772457290516899300,0.2578994140625,-0.9397430419921875,-0.3324127197265625,0.0119781494140625
1772457290526967600,0.267967529296875,-0.9474029541015625,-0.3317108154296875,0.00616455078125
1772457290537036500,0.27803662109375,-0.9476318359375,-0.3349761962890625,0.0030975341796875
1772457290547104300,0.288104248046875,-0.9365234375,-0.3396759033203125,0.0008087158203125
1772457290557173500,0.298173583984375,-0.9263458251953125,-0.341644287109375,0.005889892578125
1772457290567241500,0.308241455078125,-0.92364501953125,-0.338165283203125,0.0102386474609375
1772457290577310500,0.318310546875,-0.922210693359375,-0.3358154296875,0.0147857666015625
1772457290587378400,0.32837841796875,-0.9224700927734375,-0.3340606689453125,0.0155029296875
1772457290597447400,0.338447509765625,-0.9202423095703125,-0.3343963623046875,0.0182037353515625
1772457290607515600,0.348515625,-0.920684814453125,-0.336669921875,0.01495361328125
1772457290617584400,0.35858447265625,-0.923187255859375,-0.3371124267578125,0.0109710693359375
1772457290627652400,0.36865234375,-0.9250030517578125,-0.336822509765625,0.0106048583984375
1772457290637721600,0.3787216796875,-0.9305877685546875,-0.3370819091796875,0.012054443359375
1772457290647789600,0.38878955078125,-0.9365997314453125,-0.3363037109375,0.01031494140625
1772457290657858300,0.3988583984375,-0.93389892578125,-0.337921142578125,0.0101318359375
1772457290667926500,0.408926513671875,-0.9320220947265625,-0.3404693603515625,0.0112762451171875
1772457290677995500,0.41899560546875,-0.931732177734375,-0.3419036865234375,0.01129150390625
1772457290688063500,0.4290634765625,-0.93505859375,-0.3425750732421875,0.009979248046875
1772457290698132500,0.439132568359375,-0.942535400390625,-0.3395843505859375,0.0069732666015625
1772457290708200400,0.449200439453125,-0.940460205078125,-0.3380279541015625,0.0080413818359375
1772457290718269400,0.45926953125,-0.9381103515625,-0.340240478515625,0.0077362060546875
1772457290728337400,0.46933740234375,-0.939178466796875,-0.33941650390625,0.0088958740234375
1772457290738406400,0.479406494140625,-0.9443206787109375,-0.334197998046875,0.009429931640625
1772457290748474400,0.489474365234375,-0.9429168701171875,-0.3318328857421875,0.01104736328125
1772457290758543600,0.499543701171875,-0.9403076171875,-0.3319854736328125,0.012298583984375
1772457290768611300,0.509611328125,-0.937652587890625,-0.3349609375,0.0124969482421875
1772457290778679300,0.51967919921875,-0.927764892578125,-0.33258056640625,0.0139312744140625
1772457290788748500,0.52974853515625,-0.92315673828125,-0.3331146240234375,0.0148468017578125
1772457290798816500,0.53981640625,-0.9247283935546875,-0.3328704833984375,0.0144805908203125
1772457290808885500,0.549885498046875,-0.9322052001953125,-0.330535888671875,0.011016845703125
1772457290818953500,0.559953369140625,-0.9329376220703125,-0.33013916015625,0.014007568359375
1772457290829022500,0.5700224609375,-0.924713134765625,-0.3321533203125,0.0159759521484375
1772457290839090400,0.58009033203125,-0.9243621826171875,-0.333404541015625,0.018096923828125
1772457290849159400,0.590159423828125,-0.9294586181640625,-0.3301849365234375,0.0195159912109375
1772457290859227400,0.600227294921875,-0.9353485107421875,-0.328948974609375,0.017333984375
1772457290869296600,0.610296630859375,-0.9446563720703125,-0.330108642578125,0.015045166015625
1772457290879364600,0.620364501953125,-0.944122314453125,-0.3275604248046875,0.015960693359375
1772457290889433300,0.630433349609375,-0.937103271484375,-0.3305511474609375,0.0187835693359375
1772457290899501600,0.64050146484375,-0.9320068359375,-0.3331146240234375,0.020782470703125
1772457290909570600,0.650570556640625,-0.935791015625,-0.333465576171875,0.0171661376953125
1772457290919638300,0.66063818359375,-0.945770263671875,-0.329986572265625,0.0169677734375
1772457290929707500,0.67070751953125,-0.946563720703125,-0.3297882080078125,0.0152435302734375
1772457290939775500,0.680775390625,-0.936767578125,-0.333984375,0.012542724609375
1772457290949844500,0.690844482421875,-0.9315032958984375,-0.33837890625,0.0140533447265625
1772457290959912400,0.700912353515625,-0.935211181640625,-0.3360137939453125,0.0138092041015625
1772457290969981400,0.7109814453125,-0.9367828369140625,-0.33526611328125,0.015106201171875
1772457290980049400,0.72104931640625,-0.939239501953125,-0.3359375,0.0136871337890625
1772457290990118400,0.731118408203125,-0.9416961669921875,-0.334014892578125,0.015869140625
1772457291000186400,0.741186279296875,-0.941009521484375,-0.334381103515625,0.01287841796875
1772457291010255400,0.75125537109375,-0.945068359375,-0.3333892822265625,0.011566162109375
1772457291020323600,0.761323486328125,-0.9405517578125,-0.3307037353515625,0.01165771484375
1772457291030392300,0.771392333984375,-0.9366455078125,-0.3345794677734375,0.0104522705078125
1772457291040460300,0.781460205078125,-0.936065673828125,-0.335479736328125,0.00830078125
1772457291050529500,0.791529541015625,-0.9384613037109375,-0.332122802734375,0.0081024169921875
1772457291060597500,0.801597412109375,-0.939208984375,-0.33270263671875,0.0102386474609375
1772457291070665500,0.81166552734375,-0.939727783203125,-0.3321380615234375,0.016204833984375
1772457291080734500,0.821734375,-0.9315338134765625,-0.3308258056640625,0.020782470703125
1772457291090802400,0.831802490234375,-0.92437744140625,-0.3323974609375,0.0222015380859375
1772457291100871700,0.84187158203125,-0.918853759765625,-0.3361663818359375,0.0212554931640625
1772457291110939400,0.851939453125,-0.9157562255859375,-0.3363189697265625,0.0201568603515625
1772457291121008400,0.86200830078125,-0.91455078125,-0.3364410400390625,0.0190887451171875
1772457291131076600,0.87207666015625,-0.9227752685546875,-0.33203125,0.01904296875
1772457291141145300,0.882145263671875,-0.93212890625,-0.3276214599609375,0.021728515625
1772457291151213300,0.89221337890625,-0.9319610595703125,-0.3252716064453125,0.0247650146484375
1772457291161282600,0.902282470703125,-0.929443359375,-0.32568359375,0.0222930908203125
1772457291171350500,0.9123505859375,-0.9315032958984375,-0.32598876953125,0.021514892578125
1772457291181419300,0.922419189453125,-0.9354248046875,-0.3261566162109375,0.017059326171875
1772457291191486700,0.93248681640625,-0.9330902099609375,-0.3292388916015625,0.01739501953125
1772457291201555700,0.9425556640625,-0.931640625,-0.32952880859375,0.014251708984375
1772457291211624000,0.9526240234375,-0.9277496337890625,-0.3292236328125,0.02032470703125
1772457291221693000,0.96269287109375,-0.9266815185546875,-0.33111572265625,0.0224609375
1772457291231760600,0.9727607421875,-0.9344024658203125,-0.3321533203125,0.02099609375
1772457291241830000,0.982829833984375,-0.937255859375,-0.3348236083984375,0.01593017578125
1772457291251897900,0.99289794921875,-0.942413330078125,-0.3369598388671875,0.011383056640625
1772457291261966800,1.002966796875,-0.9419097900390625,-0.3359527587890625,0.01171875
1772457291272034800,1.013034912109375,-0.93572998046875,-0.3357086181640625,0.017181396484375
1772457291282103800,1.023103759765625,-0.933685302734375,-0.3352203369140625,0.019195556640625
1772457291292171800,1.033171875,-0.93536376953125,-0.3347320556640625,0.0164337158203125
1772457291302240800,1.04324072265625,-0.940093994140625,-0.3314971923828125,0.0131072998046875
1772457291312308700,1.053308837890625,-0.93975830078125,-0.330657958984375,0.012664794921875
1772457291322378000,1.0633779296875,-0.9386749267578125,-0.3310089111328125,0.0165557861328125
1772457291332446000,1.073446044921875,-0.936065673828125,-0.3316497802734375,0.0204620361328125
1772457291342514700,1.0835146484375,-0.932403564453125,-0.3294830322265625,0.0225067138671875
1772457291352583000,1.0935830078125,-0.9304351806640625,-0.3303680419921875,0.0231170654296875
1772457291362652000,1.10365185546875,-0.9333648681640625,-0.326934814453125,0.0228729248046875
1772457291372719900,1.113719970703125,-0.936614990234375,-0.3249664306640625,0.0218505859375
1772457291382787800,1.123787841796875,-0.93756103515625,-0.32537841796875,0.0211181640625
1772457291392856800,1.13385693359375,-0.939727783203125,-0.3263702392578125,0.020721435546875
1772457291402924800,1.1439248046875,-0.940155029296875,-0.3265838623046875,0.0201263427734375
1772457291412993800,1.153993896484375,-0.9335479736328125,-0.3288726806640625,0.0208587646484375
1772457291423061800,1.164061767578125,-0.9267730712890625,-0.3310394287109375,0.0215606689453125
1772457291433130800,1.174130859375,-0.9306182861328125,-0.3313446044921875,0.0196533203125
1772457291443199000,1.184198974609375,-0.9341888427734375,-0.332366943359375,0.018524169921875
1772457291453267700,1.194267822265625,-0.938232421875,-0.3337860107421875,0.0154876708984375
1772457291463335700,1.204335693359375,-0.938568115234375,-0.3312835693359375,0.0177154541015625
1772457291473405000,1.214405029296875,-0.930816650390625,-0.332305908203125,0.02264404296875
1772457291483473000,1.224472900390625,-0.9300994873046875,-0.3329010009765625,0.0259552001953125
1772457291493541600,1.234541748046875,-0.9353790283203125,-0.3290252685546875,0.02545166015625
1772457291503609900,1.24460986328125,-0.940338134765625,-0.329833984375,0.0210418701171875
1772457291513678800,1.254678955078125,-0.9421539306640625,-0.327880859375,0.0203399658203125
1772457291523746800,1.264746826171875,-0.94354248046875,-0.3289031982421875,0.0158538818359375
1772457291533815800,1.27481591796875,-0.942962646484375,-0.328857421875,0.01837158203125
1772457291543883800,1.2848837890625,-0.941314697265625,-0.3311767578125,0.0188140869140625
1772457291553953000,1.294953125,-0.9400787353515625,-0.32855224609375,0.019012451171875
1772457291564021000,1.30502099609375,-0.930694580078125,-0.32879638671875,0.0213775634765625
1772457291574089700,1.31508984375,-0.9374542236328125,-0.3302459716796875,0.023712158203125
1772457291584158000,1.325157958984375,-0.9441680908203125,-0.32720947265625,0.02142333984375
1772457291594227000,1.33522705078125,-0.9417266845703125,-0.3273468017578125,0.02203369140625
1772457291604294700,1.345294677734375,-0.94219970703125,-0.3299407958984375,0.0215301513671875
1772457291614364000,1.355364013671875,-0.939666748046875,-0.329986572265625,0.0167388916015625
1772457291624431900,1.365431884765625,-0.93780517578125,-0.33270263671875,0.0157012939453125
1772457291634500900,1.3755009765625,-0.9349822998046875,-0.3296661376953125,0.0169219970703125
1772457291644568800,1.38556884765625,-0.9340057373046875,-0.3276214599609375,0.019989013671875
1772457291654636800,1.39563671875,-0.92919921875,-0.3275604248046875,0.0218658447265625
1772457291664705800,1.405705810546875,-0.92352294921875,-0.3296051025390625,0.0217132568359375
1772457291674774000,1.41577392578125,-0.9286041259765625,-0.3300933837890625,0.0189361572265625
1772457291684842800,1.4258427734375,-0.934326171875,-0.33087158203125,0.0142059326171875
1772457291694910700,1.43591064453125,-0.94329833984375,-0.3314971923828125,0.0076751708984375
1772457291704980000,1.44597998046875,-0.9421539306640625,-0.328857421875,0.011932373046875
1772457291715048000,1.4560478515625,-0.933990478515625,-0.3315277099609375,0.0179443359375
1772457291725116700,1.46611669921875,-0.9262237548828125,-0.333343505859375,0.020172119140625
1772457291735185000,1.476184814453125,-0.9251556396484375,-0.3336944580078125,0.021484375
1772457291745254000,1.48625390625,-0.927734375,-0.33111572265625,0.021240234375
1772457291755321900,1.49632177734375,-0.931976318359375,-0.32891845703125,0.0182647705078125
1772457291765390800,1.506390869140625,-0.9362030029296875,-0.330718994140625,0.0182037353515625
1772457291775458800,1.516458740234375,-0.9325408935546875,-0.3309783935546875,0.018402099609375
1772457291785528000,1.526528076171875,-0.9349517822265625,-0.3312225341796875,0.0168609619140625
1772457291795595800,1.536595703125,-0.942596435546875,-0.328338623046875,0.0133209228515625
1772457291805664800,1.546664794921875,-0.9482269287109375,-0.3277130126953125,0.0129241943359375
1772457291815732700,1.556732666015625,-0.936920166015625,-0.328369140625,0.0136260986328125
1772457291825801700,1.5668017578125,-0.9292755126953125,-0.3319244384765625,0.01629638671875
1772457291835869700,1.57686962890625,-0.93310546875,-0.330902099609375,0.0189056396484375
1772457291845939000,1.58693896484375,-0.9343109130859375,-0.3293609619140625,0.01824951171875
1772457291856007000,1.5970068359375,-0.930084228515625,-0.329559326171875,0.02069091796875
1772457291866075600,1.60707568359375,-0.9233245849609375,-0.3296356201171875,0.0235443115234375
1772457291876143900,1.617143798828125,-0.91864013671875,-0.32952880859375,0.0283050537109375
1772457291886212900,1.627212890625,-0.919281005859375,-0.32916259765625,0.02777099609375
1772457291896280800,1.63728076171875,-0.9311981201171875,-0.326568603515625,0.0242462158203125
1772457291906349800,1.647349853515625,-0.9405059814453125,-0.3257598876953125,0.0182952880859375
1772457291916417800,1.657417724609375,-0.944366455078125,-0.327850341796875,0.013885498046875
1772457291926485800,1.66748583984375,-0.9384918212890625,-0.3332672119140625,0.0171661376953125
1772457291936555000,1.677554931640625,-0.9265289306640625,-0.33734130859375,0.0195159912109375
1772457291946623000,1.687623046875,-0.9239654541015625,-0.3368682861328125,0.0209197998046875
1772457291956691700,1.697691650390625,-0.93267822265625,-0.33392333984375,0.0201263427734375
1772457291966760000,1.707760009765625,-0.9413604736328125,-0.3310699462890625,0.0167694091796875
1772457291976829000,1.717828857421875,-0.93902587890625,-0.331451416015625,0.017730712890625
1772457291986896600,1.727896728515625,-0.9359588623046875,-0.333984375,0.0206146240234375
1772457291996966000,1.7379658203125,-0.9326019287109375,-0.3305206298828125,0.019012451171875
1772457292007033900,1.748033935546875,-0.928070068359375,-0.329620361328125,0.0210723876953125
1772457292017102600,1.7581025390625,-0.9239654541015625,-0.3317108154296875,0.024810791015625
1772457292027170800,1.7681708984375,-0.926177978515625,-0.329254150390625,0.024322509765625
1772457292037239800,1.77823974609375,-0.9329681396484375,-0.326080322265625,0.0219268798828125
1772457292047307800,1.788307861328125,-0.9329986572265625,-0.3291473388671875,0.02044677734375
1772457292057376800,1.798376708984375,-0.931549072265625,-0.332427978515625,0.0172119140625
1772457292067444700,1.80844482421875,-0.930877685546875,-0.33404541015625,0.017669677734375
1772457292077514000,1.818513916015625,-0.9301605224609375,-0.3349151611328125,0.0204925537109375
1772457292087582000,1.82858203125,-0.9315643310546875,-0.333770751953125,0.02197265625
1772457292097650700,1.838650634765625,-0.9369049072265625,-0.3321075439453125,0.0213623046875
1772457292107719000,1.848718994140625,-0.9388580322265625,-0.32916259765625,0.0260162353515625
1772457292117788000,1.858787841796875,-0.9343719482421875,-0.32940673828125,0.0273590087890625
1772457292127855900,1.86885595703125,-0.9320068359375,-0.3309478759765625,0.0262451171875
1772457292137924900,1.8789248046875,-0.93194580078125,-0.3278656005859375,0.026519775390625
1772457292147992800,1.888992919921875,-0.9329071044921875,-0.32672119140625,0.0270538330078125
1772457292158061800,1.899061767578125,-0.9343414306640625,-0.3259429931640625,0.0282135009765625
1772457292168130000,1.909130126953125,-0.9359588623046875,-0.32635498046875,0.0293121337890625
1772457292178198800,1.91919873046875,-0.9438323974609375,-0.327880859375,0.0235595703125
1772457292188266800,1.929266845703125,-0.952178955078125,-0.3272247314453125,0.0163421630859375
1772457292198335000,1.9393349609375,-0.9500885009765625,-0.327850341796875,0.0173492431640625
1772457292208404000,1.949404052734375,-0.94140625,-0.3310546875,0.0194091796875
1772457292218472000,1.959471923828125,-0.93316650390625,-0.3329925537109375,0.02294921875
1772457292228541000,1.969541015625,-0.92559814453125,-0.3355255126953125,0.0267791748046875
1772457292238609200,1.979609130859375,-0.9247894287109375,-0.3356170654296875,0.02655029296875
1772457292248678000,1.989677978515625,-0.92633056640625,-0.3339080810546875,0.0228118896484375
1772457292258745900,1.999745849609375,-0.932403564453125,-0.335235595703125,0.01318359375
1772457292268815000,2.009815185546875,-0.93731689453125,-0.3355865478515625,0.00921630859375
1772457292278883000,2.019883056640625,-0.9336395263671875,-0.334197998046875,0.0085296630859375
1772457292288952000,2.0299521484375,-0.9290313720703125,-0.334564208984375,0.0159912109375
1772457292299020000,2.04002001953125,-0.9246978759765625,-0.33184814453125,0.02484130859375
1772457292309089000,2.050089111328125,-0.9237518310546875,-0.32891845703125,0.02728271484375
1772457292319157000,2.060156982421875,-0.933074951171875,-0.328277587890625,0.0243072509765625
1772457292329226000,2.07022607421875,-0.938262939453125,-0.32867431640625,0.0179901123046875
1772457292339294000,2.0802939453125,-0.9392852783203125,-0.3309478759765625,0.016143798828125
1772457292349363200,2.09036328125,-0.93963623046875,-0.331512451171875,0.0172119140625
1772457292359431000,2.100430908203125,-0.9319000244140625,-0.331085205078125,0.022247314453125
1772457292369500000,2.1105,-0.9249114990234375,-0.3343963623046875,0.0290374755859375
1772457292379568000,2.120568115234375,-0.92926025390625,-0.3344879150390625,0.027191162109375
1772457292389637000,2.13063720703125,-0.94012451171875,-0.33123779296875,0.021209716796875
1772457292399704800,2.140704833984375,-0.9473419189453125,-0.3283538818359375,0.02252197265625
1772457292409774000,2.150774169921875,-0.9413909912109375,-0.3305816650390625,0.027069091796875
1772457292419842000,2.160842041015625,-0.9336090087890625,-0.3316650390625,0.0312652587890625
1772457292429910800,2.170910888671875,-0.93585205078125,-0.3295745849609375,0.032257080078125
1772457292439979000,2.18097900390625,-0.9388427734375,-0.3266754150390625,0.0279083251953125
1772457292450047000,2.191046875,-0.945465087890625,-0.3268280029296875,0.0200958251953125
1772457292460116000,2.201115966796875,-0.9405517578125,-0.329345703125,0.01861572265625
1772457292470184200,2.21118408203125,-0.9349822998046875,-0.3295745849609375,0.0219268798828125
1772457292480253000,2.2212529296875,-0.924530029296875,-0.3284912109375,0.0283966064453125
1772457292490321000,2.23132080078125,-0.9178924560546875,-0.32806396484375,0.0327606201171875
1772457292500390100,2.24139013671875,-0.9160308837890625,-0.3275909423828125,0.034423828125
1772457292510458000,2.2514580078125,-0.9233245849609375,-0.3261871337890625,0.03399658203125
1772457292520526800,2.26152685546875,-0.936370849609375,-0.3264312744140625,0.0236358642578125
1772457292530595000,2.271594970703125,-0.9478302001953125,-0.3285980224609375,0.016387939453125
1772457292540664000,2.2816640625,-0.94586181640625,-0.3279266357421875,0.016387939453125
1772457292550731800,2.291731689453125,-0.944427490234375,-0.3308868408203125,0.0189208984375
1772457292560801000,2.301801025390625,-0.9438323974609375,-0.330963134765625,0.02020263671875
1772457292570869000,2.311868896484375,-0.94207763671875,-0.3326568603515625,0.0211029052734375
1772457292580938000,2.32193798828125,-0.944671630859375,-0.331298828125,0.0184326171875
1772457292591006000,2.332005859375,-0.94451904296875,-0.332244873046875,0.0181427001953125
1772457292601075000,2.342074951171875,-0.9343719482421875,-0.33563232421875,0.02093505859375
1772457292611143200,2.35214306640625,-0.9332275390625,-0.335601806640625,0.0225677490234375
1772457292621212000,2.3622119140625,-0.9336395263671875,-0.3306427001953125,0.02569580078125
1772457292631279900,2.37227978515625,-0.9319915771484375,-0.33050537109375,0.0245819091796875
1772457292641349000,2.38234912109375,-0.936279296875,-0.3317718505859375,0.025787353515625
1772457292651417000,2.3924169921875,-0.9376373291015625,-0.329833984375,0.0214385986328125
1772457292661485800,2.40248583984375,-0.9346160888671875,-0.3308258056640625,0.020599365234375
1772457292671554000,2.412553955078125,-0.9288330078125,-0.3315582275390625,0.02264404296875
1772457292681623000,2.422623046875,-0.9290924072265625,-0.331146240234375,0.0262603759765625
1772457292691691000,2.43269091796875,-0.93890380859375,-0.3260955810546875,0.021636962890625
1772457292701759000,2.442759033203125,-0.9403076171875,-0.3267669677734375,0.0207061767578125
1772457292711828000,2.452827880859375,-0.9335174560546875,-0.330047607421875,0.0217742919921875
1772457292721896000,2.46289599609375,-0.929046630859375,-0.331817626953125,0.02154541015625
1772457292731965200,2.472965087890625,-0.9212646484375,-0.334228515625,0.0221405029296875
1772457292742033000,2.483032958984375,-0.916961669921875,-0.33538818359375,0.0273284912109375
1772457292752102000,2.493101806640625,-0.92193603515625,-0.333953857421875,0.0268707275390625
1772457292762170000,2.503170166015625,-0.9356689453125,-0.329254150390625,0.022918701171875
1772457292772238800,2.51323876953125,-0.94256591796875,-0.325927734375,0.0217132568359375
1772457292782306800,2.523306884765625,-0.9349517822265625,-0.329437255859375,0.02191162109375
1772457292792376000,2.5333759765625,-0.9277191162109375,-0.3314056396484375,0.024688720703125
1772457292802444000,2.543444091796875,-0.9294586181640625,-0.33148193359375,0.02447509765625
1772457292812513000,2.553512939453125,-0.9382476806640625,-0.32818603515625,0.0252227783203125
1772457292822581000,2.5635810546875,-0.94757080078125,-0.326171875,0.02801513671875
1772457292832650000,2.57364990234375,-0.9495391845703125,-0.3254852294921875,0.028778076171875
1772457292842718000,2.583718017578125,-0.94854736328125,-0.327392578125,0.025482177734375
1772457292852787000,2.593786865234375,-0.9418487548828125,-0.3314056396484375,0.0275115966796875
1772457292862855000,2.60385498046875,-0.9330291748046875,-0.3336029052734375,0.029083251953125
1772457292872924200,2.613924072265625,-0.932342529296875,-0.3345489501953125,0.027069091796875
1772457292882992000,2.6239921875,-0.9356689453125,-0.3337860107421875,0.0235595703125
1772457292893060900,2.634060791015625,-0.9337310791015625,-0.336212158203125,0.02105712890625
1772457292903129000,2.644129150390625,-0.92694091796875,-0.336700439453125,0.019287109375
1772457292913198000,2.654197998046875,-0.921051025390625,-0.33978271484375,0.0193023681640625
1772457292923266000,2.66426611328125,-0.91729736328125,-0.3379974365234375,0.018341064453125
1772457292933335000,2.6743349609375,-0.921661376953125,-0.33673095703125,0.01641845703125
1772457292943403000,2.684403076171875,-0.931671142578125,-0.3339385986328125,0.0135498046875
1772457292953472000,2.694471923828125,-0.9303436279296875,-0.336029052734375,0.0105743408203125
1772457292963540000,2.7045400390625,-0.928802490234375,-0.3350067138671875,0.0141754150390625
1772457292973608000,2.71460791015625,-0.924163818359375,-0.3354644775390625,0.018096923828125
1772457292983677000,2.724677001953125,-0.9192657470703125,-0.334136962890625,0.02313232421875
1772457292993745200,2.7347451171875,-0.9202117919921875,-0.3325042724609375,0.026397705078125
1772457293003814000,2.74481396484375,-0.930694580078125,-0.3314361572265625,0.0257568359375
1772457293013881900,2.7548818359375,-0.9354095458984375,-0.33001708984375,0.0200347900390625
1772457293023951000,2.764951171875,-0.9342498779296875,-0.33502197265625,0.0194091796875
1772457293034019000,2.77501904296875,-0.9347686767578125,-0.337982177734375,0.0193939208984375
1772457293044087800,2.785087890625,-0.9305419921875,-0.3338623046875,0.024017333984375
1772457293054156000,2.795156005859375,-0.926422119140625,-0.3343658447265625,0.032806396484375
1772457293064225000,2.80522509765625,-0.930419921875,-0.33154296875,0.0388336181640625
1772457293074293000,2.81529296875,-0.935821533203125,-0.3270721435546875,0.0367889404296875
1772457293084362000,2.825362060546875,-0.945953369140625,-0.324554443359375,0.0319061279296875
1772457293094430000,2.835429931640625,-0.9581451416015625,-0.32354736328125,0.0253143310546875
1772457293104499200,2.845499267578125,-0.9594573974609375,-0.3248443603515625,0.0195770263671875
1772457293114567200,2.855567138671875,-0.948150634765625,-0.3258819580078125,0.0201263427734375
1772457293124636000,2.865635986328125,-0.9358062744140625,-0.3296356201171875,0.025115966796875
1772457293134704000,2.8757041015625,-0.9254302978515625,-0.3319854736328125,0.0266265869140625
1772457293144773000,2.885773193359375,-0.926177978515625,-0.3297119140625,0.027618408203125
1772457293154840800,2.8958408203125,-0.9350128173828125,-0.328338623046875,0.0262298583984375
1772457293164910000,2.90591015625,-0.9384613037109375,-0.3279266357421875,0.022064208984375
1772457293174978000,2.91597802734375,-0.940887451171875,-0.3298187255859375,0.019195556640625
1772457293185046800,2.926046875,-0.93780517578125,-0.331024169921875,0.022216796875
1772457293195114800,2.93611474609375,-0.9249267578125,-0.3341217041015625,0.02789306640625
1772457293205183700,2.946183837890625,-0.917572021484375,-0.3356781005859375,0.0279388427734375
1772457293215251700,2.956251708984375,-0.92584228515625,-0.334320068359375,0.026580810546875
1772457293225320000,2.96631982421875,-0.9356231689453125,-0.3319549560546875,0.0242919921875
1772457293235388700,2.976388671875,-0.9402618408203125,-0.3299407958984375,0.0224151611328125
1772457293245456600,2.98645654296875,-0.9361114501953125,-0.3323822021484375,0.0209197998046875
1772457293255526000,2.99652587890625,-0.932769775390625,-0.3346405029296875,0.0215911865234375
1772457293265593900,3.00659375,-0.9298095703125,-0.3364105224609375,0.0220184326171875
1772457293275662600,3.01666259765625,-0.9278411865234375,-0.3390350341796875,0.0208587646484375
1772457293285730800,3.026730712890625,-0.9306182861328125,-0.3361053466796875,0.0217132568359375
1772457293295799800,3.0367998046875,-0.934906005859375,-0.334014892578125,0.0201416015625
1772457293305867800,3.04686767578125,-0.9392852783203125,-0.3329620361328125,0.0200958251953125
1772457293315936800,3.056936767578125,-0.9450836181640625,-0.33038330078125,0.0198822021484375
1772457293326004700,3.067004638671875,-0.9447174072265625,-0.3289337158203125,0.0231475830078125
1772457293336073700,3.07707373046875,-0.942108154296875,-0.329315185546875,0.0255279541015625
1772457293346141700,3.0871416015625,-0.938812255859375,-0.3292388916015625,0.024993896484375
1772457293356210700,3.097210693359375,-0.9335784912109375,-0.327117919921875,0.026275634765625
1772457293366278700,3.107278564453125,-0.9324798583984375,-0.3260650634765625,0.0271453857421875
1772457293376348000,3.117347900390625,-0.93505859375,-0.322296142578125,0.029876708984375
1772457293386415600,3.12741552734375,-0.9419097900390625,-0.321533203125,0.0278778076171875
1772457293396484900,3.13748486328125,-0.9452972412109375,-0.32501220703125,0.0243072509765625
1772457293406552800,3.147552734375,-0.9434814453125,-0.3265533447265625,0.01953125
1772457293416621600,3.15762158203125,-0.93560791015625,-0.3300323486328125,0.021240234375
1772457293426689800,3.167689697265625,-0.9321746826171875,-0.3321533203125,0.0223541259765625
1772457293436758800,3.1777587890625,-0.93304443359375,-0.330535888671875,0.02203369140625
1772457293446826800,3.18782666015625,-0.936187744140625,-0.32861328125,0.0233917236328125
1772457293456895700,3.197895751953125,-0.94189453125,-0.3277587890625,0.02288818359375
1772457293466963700,3.207963623046875,-0.94085693359375,-0.329742431640625,0.019561767578125
1772457293477032700,3.21803271484375,-0.94024658203125,-0.332305908203125,0.0184783935546875
1772457293487101000,3.228100830078125,-0.939971923828125,-0.332061767578125,0.0194549560546875
1772457293497169000,3.2381689453125,-0.9323883056640625,-0.33306884765625,0.0232086181640625
1772457293507237600,3.248237548828125,-0.927276611328125,-0.3326416015625,0.02294921875
1772457293517305900,3.258305908203125,-0.92724609375,-0.333404541015625,0.0205078125
1772457293527374800,3.268374755859375,-0.93206787109375,-0.331024169921875,0.0204925537109375
1772457293537442600,3.278442626953125,-0.9322052001953125,-0.3292388916015625,0.0221099853515625
1772457293547511800,3.28851171875,-0.924041748046875,-0.3291778564453125,0.0246429443359375
1772457293557579800,3.298579833984375,-0.9245758056640625,-0.3289031982421875,0.0265045166015625
1772457293567648800,3.308648681640625,-0.9324798583984375,-0.3284149169921875,0.021881103515625
1772457293577716700,3.318716796875,-0.9349822998046875,-0.330841064453125,0.0194854736328125
1772457293587785700,3.32878564453125,-0.935272216796875,-0.329833984375,0.0175323486328125
1772457293597853700,3.338853759765625,-0.9375762939453125,-0.330657958984375,0.0196990966796875
1772457293607922700,3.348922607421875,-0.933929443359375,-0.3323974609375,0.0207672119140625
1772457293617990700,3.35899072265625,-0.929168701171875,-0.331878662109375,0.0202178955078125
1772457293628060000,3.369059814453125,-0.9305267333984375,-0.333892822265625,0.0142974853515625
1772457293638127900,3.3791279296875,-0.9383697509765625,-0.333892822265625,0.011566162109375
1772457293648196600,3.389196533203125,-0.9397125244140625,-0.3329925537109375,0.0111236572265625
1772457293658264600,3.3992646484375,-0.9401702880859375,-0.3315887451171875,0.0157012939453125
1772457293668333800,3.409333740234375,-0.93359375,-0.333282470703125,0.0220794677734375
1772457293678401800,3.41940185546875,-0.924346923828125,-0.333770751953125,0.02703857421875
1772457293688470800,3.429470703125,-0.924224853515625,-0.333221435546875,0.0286712646484375
1772457293698538800,3.439538818359375,-0.9261474609375,-0.3336029052734375,0.0247344970703125
1772457293708607700,3.449607666015625,-0.9279937744140625,-0.3333740234375,0.0238800048828125
1772457293718676000,3.459676025390625,-0.925048828125,-0.334259033203125,0.026214599609375
1772457293728744700,3.46974462890625,-0.924285888671875,-0.3343505859375,0.0263214111328125
1772457293738812700,3.479812744140625,-0.9278411865234375,-0.33123779296875,0.0220794677734375
1772457293748882000,3.4898818359375,-0.933807373046875,-0.3302001953125,0.020538330078125
1772457293758949600,3.49994970703125,-0.937255859375,-0.3268585205078125,0.0187225341796875
1772457293769017600,3.510017578125,-0.9413604736328125,-0.3260650634765625,0.0161590576171875
1772457293779086800,3.5200869140625,-0.947265625,-0.325408935546875,0.0196075439453125
1772457293789154800,3.53015478515625,-0.9457855224609375,-0.325225830078125,0.01849365234375
1772457293799223600,3.5402236328125,-0.9386444091796875,-0.3254547119140625,0.020904541015625
1772457293809291800,3.550291748046875,-0.9309844970703125,-0.3282928466796875,0.0211334228515625
1772457293819360800,3.56036083984375,-0.933074951171875,-0.329193115234375,0.0182647705078125
1772457293829428700,3.5704287109375,-0.9388427734375,-0.327362060546875,0.016326904296875
1772457293839497700,3.580497802734375,-0.939422607421875,-0.3277435302734375,0.015777587890625
1772457293849565700,3.590565673828125,-0.933563232421875,-0.3335113525390625,0.0194854736328125
1772457293859634700,3.600634765625,-0.928619384765625,-0.3360595703125,0.023468017578125
1772457293869703000,3.610702880859375,-0.925994873046875,-0.3350067138671875,0.028045654296875
1772457293879771600,3.620771728515625,-0.9300994873046875,-0.3339385986328125,0.024444580078125
1772457293889839600,3.630839599609375,-0.939788818359375,-0.332244873046875,0.0212249755859375
1772457293899908900,3.640908935546875,-0.9399261474609375,-0.3333282470703125,0.018310546875
1772457293909976800,3.650976806640625,-0.939300537109375,-0.3347930908203125,0.0160675048828125
1772457293920045800,3.6610458984375,-0.9391326904296875,-0.3359375,0.0162353515625
1772457293930113800,3.67111376953125,-0.935791015625,-0.3366851806640625,0.017913818359375
1772457293940182800,3.681182861328125,-0.939697265625,-0.3351287841796875,0.020294189453125
1772457293950250800,3.691250732421875,-0.93682861328125,-0.33197021484375,0.02392578125
1772457293960319700,3.70131982421875,-0.9280853271484375,-0.3316650390625,0.0298004150390625
1772457293970387700,3.7113876953125,-0.9293060302734375,-0.3278656005859375,0.035369873046875
1772457293980456700,3.721456787109375,-0.928680419921875,-0.32342529296875,0.03607177734375
1772457293990524700,3.731524658203125,-0.931121826171875,-0.3254547119140625,0.030487060546875
1772457294000592600,3.741592529296875,-0.935882568359375,-0.324127197265625,0.023590087890625
1772457294010662000,3.751661865234375,-0.9348907470703125,-0.324310302734375,0.0221099853515625
1772457294020729900,3.761729736328125,-0.9292449951171875,-0.32757568359375,0.0232696533203125
1772457294030798600,3.771798583984375,-0.9302520751953125,-0.3279571533203125,0.0225830078125
1772457294040866800,3.78186669921875,-0.936279296875,-0.3265228271484375,0.0224151611328125
1772457294050935800,3.791935791015625,-0.9401397705078125,-0.3279876708984375,0.021331787109375
1772457294061003800,3.802003662109375,-0.9415740966796875,-0.328582763671875,0.020751953125
1772457294071072800,3.81207275390625,-0.9408416748046875,-0.3322296142578125,0.0199127197265625
1772457294081140700,3.822140625,-0.938018798828125,-0.3321685791015625,0.021087646484375
1772457294091209700,3.832209716796875,-0.9319000244140625,-0.331634521484375,0.0263214111328125
1772457294101278000,3.84227783203125,-0.9272613525390625,-0.3302154541015625,0.0310516357421875
1772457294111346700,3.8523466796875,-0.931488037109375,-0.3287506103515625,0.028472900390625
1772457294121414700,3.86241455078125,-0.9357147216796875,-0.3283843994140625,0.024871826171875
1772457294131484000,3.87248388671875,-0.936309814453125,-0.3290252685546875,0.0222320556640625
1772457294141551600,3.882551513671875,-0.939300537109375,-0.3291473388671875,0.018890380859375
1772457294151620900,3.892620849609375,-0.93353271484375,-0.329071044921875,0.0197296142578125
1772457294161688800,3.902688720703125,-0.928955078125,-0.3327178955078125,0.0236968994140625
1772457294171757800,3.9127578125,-0.9266204833984375,-0.3335113525390625,0.023406982421875
1772457294181825500,3.922825439453125,-0.9351959228515625,-0.3309478759765625,0.0196380615234375
1772457294191894800,3.932894775390625,-0.945556640625,-0.3280181884765625,0.0157318115234375
1772457294201963300,3.94296337890625,-0.9438018798828125,-0.3272552490234375,0.0176849365234375
1772457294212032000,3.953031982421875,-0.9351806640625,-0.3275146484375,0.0213165283203125
1772457294222100000,3.963099853515625,-0.9298248291015625,-0.328765869140625,0.0257110595703125
1772457294232169200,3.973169189453125,-0.9268035888671875,-0.3297119140625,0.0282135009765625
1772457294242235100,3.983235107421875,-0.9299163818359375,-0.330841064453125,0.025115966796875
1772457294252304100,3.99330419921875,-0.9399566650390625,-0.3294525146484375,0.0184478759765625
1772457294262372000,4.0033720703125,-0.9456939697265625,-0.330047607421875,0.01324462890625
1772457294272441000,4.013441162109375,-0.9488677978515625,-0.3301239013671875,0.0110321044921875
1772457294282509000,4.023509033203125,-0.943389892578125,-0.32940673828125,0.01605224609375
1772457294292578000,4.033578125,-0.939422607421875,-0.329132080078125,0.02081298828125
1772457294302646300,4.043646240234375,-0.9378662109375,-0.32867431640625,0.0246124267578125
1772457294312715000,4.053715087890625,-0.9366912841796875,-0.3289031982421875,0.0242767333984375
1772457294322783000,4.063782958984375,-0.94085693359375,-0.3275299072265625,0.0196380615234375
1772457294332852200,4.073852294921875,-0.9416046142578125,-0.324249267578125,0.0187835693359375
1772457294342920200,4.083920166015625,-0.947052001953125,-0.32501220703125,0.0182342529296875
1772457294352989200,4.0939892578125,-0.9481048583984375,-0.3257293701171875,0.0187225341796875
1772457294363057200,4.10405712890625,-0.9393463134765625,-0.3280181884765625,0.020050048828125
1772457294373126100,4.114126220703125,-0.9283599853515625,-0.3332366943359375,0.0263519287109375
1772457294383193900,4.12419384765625,-0.924530029296875,-0.3338775634765625,0.02691650390625
1772457294393263000,4.13426318359375,-0.9251556396484375,-0.33160400390625,0.0236663818359375
1772457294403331000,4.1443310546875,-0.9311981201171875,-0.3313751220703125,0.021209716796875
1772457294413400000,4.154400146484375,-0.9335174560546875,-0.32794189453125,0.0251922607421875
1772457294423468000,4.164468017578125,-0.9376220703125,-0.324737548828125,0.02862548828125
1772457294433536000,4.174535888671875,-0.935211181640625,-0.3239898681640625,0.02960205078125
1772457294443605200,4.184605224609375,-0.93402099609375,-0.3231048583984375,0.027069091796875
1772457294453673200,4.194673095703125,-0.9406280517578125,-0.3210906982421875,0.0259552001953125
1772457294463742000,4.204741943359375,-0.943878173828125,-0.320892333984375,0.0247955322265625
1772457294473810200,4.21481005859375,-0.9424591064453125,-0.3202667236328125,0.02398681640625
1772457294483879200,4.224879150390625,-0.9387664794921875,-0.3211212158203125,0.0242767333984375
1772457294493947100,4.234947021484375,-0.93450927734375,-0.3221435546875,0.0287628173828125
1772457294504016100,4.24501611328125,-0.92681884765625,-0.3239593505859375,0.03045654296875
1772457294514084000,4.255083984375,-0.925201416015625,-0.32708740234375,0.028961181640625
1772457294524153000,4.265153076171875,-0.9271240234375,-0.3277130126953125,0.025177001953125
1772457294534221000,4.275220947265625,-0.927581787109375,-0.32757568359375,0.0244598388671875
1772457294544290000,4.2852900390625,-0.9288177490234375,-0.329864501953125,0.024017333984375
1772457294554358000,4.29535791015625,-0.9345550537109375,-0.3314971923828125,0.024505615234375
1772457294564427300,4.30542724609375,-0.9423370361328125,-0.3298797607421875,0.02398681640625
1772457294574495000,4.315494873046875,-0.9449462890625,-0.328399658203125,0.0214385986328125
1772457294584564000,4.32556396484375,-0.941070556640625,-0.32830810546875,0.023193359375
1772457294594633200,4.33563330078125,-0.93646240234375,-0.33050537109375,0.0280609130859375
1772457294604701000,4.345700927734375,-0.9368896484375,-0.3296966552734375,0.0245361328125
1772457294614770200,4.355770263671875,-0.941162109375,-0.330810546875,0.0216217041015625
1772457294624838100,4.365838134765625,-0.94146728515625,-0.3302154541015625,0.0205841064453125
1772457294634907000,4.375906982421875,-0.9380340576171875,-0.3296661376953125,0.0225067138671875
1772457294644975000,4.38597509765625,-0.934356689453125,-0.3294219970703125,0.028778076171875
1772457294655044000,4.396044189453125,-0.931488037109375,-0.32830810546875,0.030670166015625
1772457294665112000,4.406112060546875,-0.933502197265625,-0.325836181640625,0.0302276611328125
1772457294675181000,4.41618115234375,-0.935821533203125,-0.3248138427734375,0.0275726318359375
1772457294685249000,4.4262490234375,-0.9319305419921875,-0.327484130859375,0.0238494873046875
1772457294695318000,4.436318115234375,-0.93023681640625,-0.326263427734375,0.027496337890625
1772457294705386200,4.44638623046875,-0.9303741455078125,-0.3281402587890625,0.0234527587890625
1772457294715454200,4.4564541015625,-0.9322662353515625,-0.327606201171875,0.02130126953125
1772457294725523000,4.46652294921875,-0.9365081787109375,-0.3256988525390625,0.02496337890625
1772457294735591200,4.476591064453125,-0.9362640380859375,-0.3270263671875,0.02166748046875
1772457294745660200,4.48666015625,-0.9313507080078125,-0.3315277099609375,0.0215606689453125
1772457294755728100,4.49672802734375,-0.925537109375,-0.3311614990234375,0.0245361328125
1772457294765797000,4.506797119140625,-0.9213409423828125,-0.331878662109375,0.0279541015625
1772457294775865000,4.516864990234375,-0.92535400390625,-0.330810546875,0.024017333984375
1772457294785934000,4.52693408203125,-0.933380126953125,-0.3264312744140625,0.0216064453125
1772457294796002000,4.537001953125,-0.93621826171875,-0.3258209228515625,0.0210113525390625
1772457294806071000,4.547071044921875,-0.931060791015625,-0.327484130859375,0.0235137939453125
1772457294816139000,4.557138916015625,-0.9303436279296875,-0.3280792236328125,0.025054931640625
1772457294826208000,4.5672080078125,-0.9327850341796875,-0.3263397216796875,0.0278167724609375
1772457294836276000,4.57727587890625,-0.9330291748046875,-0.3250885009765625,0.030517578125
1772457294846345200,4.58734521484375,-0.9367828369140625,-0.3235015869140625,0.0304718017578125
1772457294856413200,4.5974130859375,-0.9420166015625,-0.322357177734375,0.027374267578125
1772457294866482000,4.60748193359375,-0.9424285888671875,-0.323516845703125,0.02606201171875
1772457294876550100,4.617550048828125,-0.9391326904296875,-0.3246917724609375,0.0260162353515625
1772457294886619100,4.627619140625,-0.9427642822265625,-0.3251800537109375,0.024871826171875
1772457294896687000,4.63768701171875,-0.94976806640625,-0.3219757080078125,0.0249176025390625
1772457294906756000,4.647756103515625,-0.9499053955078125,-0.3218231201171875,0.027435302734375
1772457294916824000,4.657823974609375,-0.9421539306640625,-0.3246612548828125,0.0275115966796875
1772457294926893000,4.66789306640625,-0.9323883056640625,-0.3295440673828125,0.03009033203125
1772457294936961300,4.677961181640625,-0.9297027587890625,-0.3288421630859375,0.03070068359375
1772457294947030000,4.688030029296875,-0.9274139404296875,-0.3293914794921875,0.027252197265625
1772457294957098000,4.698097900390625,-0.9255828857421875,-0.3311614990234375,0.02728271484375
1772457294967166200,4.708166259765625,-0.9308013916015625,-0.330352783203125,0.0243377685546875
1772457294977235200,4.718235107421875,-0.9402618408203125,-0.3260955810546875,0.0233612060546875
1772457294987303000,4.728302978515625,-0.93817138671875,-0.324554443359375,0.024139404296875
1772457294997372200,4.7383720703125,-0.938018798828125,-0.3275909423828125,0.0239715576171875
1772457295007440100,4.748440185546875,-0.9443359375,-0.3258819580078125,0.0226593017578125
1772457295017508900,4.7585087890625,-0.9419097900390625,-0.324310302734375,0.0262603759765625
1772457295027577000,4.7685771484375,-0.9310302734375,-0.3243865966796875,0.0320892333984375
1772457295037646000,4.77864599609375,-0.9283447265625,-0.3247222900390625,0.0307159423828125
1772457295047714000,4.788714111328125,-0.938232421875,-0.32049560546875,0.0248565673828125
1772457295057783000,4.798782958984375,-0.94537353515625,-0.31744384765625,0.0234375
1772457295067851000,4.80885107421875,-0.9383697509765625,-0.3200836181640625,0.0276031494140625
1772457295077920300,4.818920166015625,-0.9320831298828125,-0.320831298828125,0.0310516357421875
1772457295087988200,4.82898828125,-0.9300079345703125,-0.322784423828125,0.032958984375
1772457295098057000,4.839056884765625,-0.9296417236328125,-0.32342529296875,0.03375244140625
1772457295108125000,4.849125,-0.9333953857421875,-0.3237762451171875,0.0250244140625
1772457295118194200,4.859194091796875,-0.932952880859375,-0.32537841796875,0.021148681640625
1772457295128262100,4.86926220703125,-0.9305877685546875,-0.3262481689453125,0.0229949951171875
1772457295138331100,4.8793310546875,-0.929168701171875,-0.326324462890625,0.0290985107421875
1772457295148399000,4.889399169921875,-0.930328369140625,-0.32568359375,0.03350830078125
1772457295158468000,4.899468017578125,-0.93743896484375,-0.3205718994140625,0.03277587890625
1772457295168536000,4.9095361328125,-0.9434356689453125,-0.3196258544921875,0.0316314697265625
1772457295178605000,4.91960498046875,-0.949859619140625,-0.32147216796875,0.021942138671875
1772457295188673000,4.929673095703125,-0.9570159912109375,-0.3239288330078125,0.0160980224609375
1772457295198742300,4.9397421875,-0.9574127197265625,-0.32293701171875,0.015350341796875
1772457295208810000,4.94981005859375,-0.9486083984375,-0.3225860595703125,0.0210418701171875
1772457295218878000,4.9598779296875,-0.941650390625,-0.3225250244140625,0.02935791015625
1772457295228947200,4.969947265625,-0.936187744140625,-0.32098388671875,0.0333404541015625
1772457295239015200,4.98001513671875,-0.933563232421875,-0.319427490234375,0.039520263671875
1772457295249084000,4.990083984375,-0.92852783203125,-0.3170928955078125,0.0403900146484375
1772457295259152100,5.000152099609375,-0.9297637939453125,-0.320068359375,0.0383453369140625
1772457295269221000,5.01022119140625,-0.9331207275390625,-0.320220947265625,0.0353851318359375
1772457295279289000,5.0202890625,-0.9333038330078125,-0.3217315673828125,0.031707763671875
1772457295289358000,5.030358154296875,-0.9371795654296875,-0.3212432861328125,0.0294342041015625
1772457295299426000,5.040426025390625,-0.9426116943359375,-0.316864013671875,0.0282135009765625
1772457295309495000,5.0504951171875,-0.939605712890625,-0.31787109375,0.033782958984375
1772457295319563300,5.060563232421875,-0.937744140625,-0.3203887939453125,0.0334625244140625
1772457295329632000,5.070632080078125,-0.93634033203125,-0.321258544921875,0.033966064453125
1772457295339700000,5.080699951171875,-0.9319305419921875,-0.3243560791015625,0.03143310546875
1772457295349769200,5.090769287109375,-0.9339141845703125,-0.32452392578125,0.028564453125
1772457295359837000,5.1008369140625,-0.935943603515625,-0.3227996826171875,0.0284271240234375
1772457295369906200,5.11090625,-0.9354705810546875,-0.3213958740234375,0.0321502685546875
1772457295379974100,5.12097412109375,-0.935791015625,-0.3206024169921875,0.033447265625
1772457295390043100,5.131043212890625,-0.9397430419921875,-0.319427490234375,0.0293731689453125
1772457295400111000,5.141111083984375,-0.9442138671875,-0.3207244873046875,0.0291595458984375
1772457295410180000,5.15118017578125,-0.94390869140625,-0.32183837890625,0.027923583984375
1772457295420248000,5.161248046875,-0.9407196044921875,-0.32147216796875,0.0290374755859375
1772457295430317000,5.171317138671875,-0.931671142578125,-0.3213653564453125,0.032562255859375
1772457295440385000,5.181385009765625,-0.933807373046875,-0.321502685546875,0.0329132080078125
1772457295450454000,5.1914541015625,-0.9410858154296875,-0.3207244873046875,0.0269622802734375
1772457295460522200,5.201522216796875,-0.9436798095703125,-0.31866455078125,0.030609130859375
1772457295470591000,5.211591064453125,-0.938232421875,-0.319976806640625,0.0334014892578125
1772457295480659000,5.221658935546875,-0.9365386962890625,-0.320770263671875,0.03375244140625
1772457295490727200,5.23172705078125,-0.9335174560546875,-0.3219451904296875,0.03240966796875
1772457295500796200,5.241796142578125,-0.9335174560546875,-0.326690673828125,0.0299224853515625
1772457295510864100,5.251864013671875,-0.93585205078125,-0.3267364501953125,0.0278778076171875
1772457295520933000,5.26193310546875,-0.9394989013671875,-0.3253936767578125,0.02569580078125
1772457295531001000,5.2720009765625,-0.9415283203125,-0.322174072265625,0.0278167724609375
1772457295541070000,5.282070068359375,-0.931915283203125,-0.32086181640625,0.0323028564453125
1772457295551138000,5.292137939453125,-0.921722412109375,-0.3229217529296875,0.0401458740234375
1772457295561207000,5.30220703125,-0.9138031005859375,-0.322998046875,0.039794921875
1772457295571275000,5.31227490234375,-0.92041015625,-0.32135009765625,0.0333709716796875
1772457295581344000,5.322343994140625,-0.9427337646484375,-0.3170318603515625,0.021636962890625
1772457295591412000,5.332411865234375,-0.9518585205078125,-0.3148193359375,0.0179290771484375
1772457295601481200,5.342481201171875,-0.94732666015625,-0.3181304931640625,0.0216827392578125
1772457295611549200,5.352549072265625,-0.9431304931640625,-0.3203277587890625,0.0274658203125
1772457295621618000,5.362617919921875,-0.9320526123046875,-0.3207244873046875,0.033660888671875
1772457295631686000,5.372685791015625,-0.9244537353515625,-0.32366943359375,0.036651611328125
1772457295641755100,5.382755126953125,-0.919647216796875,-0.3241424560546875,0.037567138671875
1772457295651823000,5.392822998046875,-0.9308319091796875,-0.3214569091796875,0.0287628173828125
1772457295661892000,5.40289208984375,-0.94989013671875,-0.319854736328125,0.017425537109375
1772457295671960000,5.4129599609375,-0.9466400146484375,-0.3240203857421875,0.0167236328125
1772457295682029000,5.423029052734375,-0.93865966796875,-0.325408935546875,0.0233001708984375
1772457295692097300,5.43309716796875,-0.933624267578125,-0.32611083984375,0.029754638671875
1772457295702166000,5.443166015625,-0.930267333984375,-0.3265228271484375,0.03302001953125
1772457295712234000,5.45323388671875,-0.9374847412109375,-0.3239593505859375,0.031829833984375
1772457295722303200,5.46330322265625,-0.943328857421875,-0.319122314453125,0.0312957763671875
1772457295732371200,5.47337109375,-0.9470977783203125,-0.317779541015625,0.0275726318359375
1772457295742440000,5.48343994140625,-0.9533843994140625,-0.3179168701171875,0.025634765625
1772457295752508200,5.493508056640625,-0.94287109375,-0.318328857421875,0.0283355712890625
1772457295762576100,5.503576171875,-0.9334564208984375,-0.3199462890625,0.03204345703125
1772457295772645000,5.51364501953125,-0.9306640625,-0.3236083984375,0.0330963134765625
1772457295782714000,5.523714111328125,-0.93707275390625,-0.3206939697265625,0.027984619140625
1772457295792782000,5.533781982421875,-0.946563720703125,-0.31744384765625,0.0236663818359375
1772457295802850000,5.54385009765625,-0.9498291015625,-0.31719970703125,0.0235443115234375
1772457295812919000,5.5539189453125,-0.9427947998046875,-0.31951904296875,0.0297698974609375
1772457295822987000,5.563987060546875,-0.9324493408203125,-0.3208465576171875,0.034271240234375
1772457295833056000,5.574055908203125,-0.92449951171875,-0.3235931396484375,0.033355712890625
1772457295843124200,5.584124267578125,-0.9281463623046875,-0.3234405517578125,0.0281524658203125
1772457295853193000,5.59419287109375,-0.9341278076171875,-0.32354736328125,0.0242919921875
1772457295863261000,5.604260986328125,-0.9348602294921875,-0.320526123046875,0.0284271240234375
1772457295873330200,5.614330078125,-0.93463134765625,-0.3200531005859375,0.0330047607421875
1772457295883398100,5.624398193359375,-0.93035888671875,-0.3166656494140625,0.0345001220703125
1772457295893467100,5.634467041015625,-0.936431884765625,-0.3163909912109375,0.029571533203125
1772457295903535000,5.64453515625,-0.941864013671875,-0.315704345703125,0.0277862548828125
1772457295913604000,5.65460400390625,-0.9518890380859375,-0.3167724609375,0.0243988037109375
1772457295923672300,5.66467236328125,-0.955657958984375,-0.3144378662109375,0.022064208984375
1772457295933741000,5.674740966796875,-0.9518585205078125,-0.3156890869140625,0.0205535888671875
1772457295943809000,5.68480908203125,-0.9486083984375,-0.3172149658203125,0.0216522216796875
1772457295953878300,5.694878173828125,-0.9403839111328125,-0.3201141357421875,0.0252227783203125
1772457295963946000,5.704946044921875,-0.93267822265625,-0.321868896484375,0.028472900390625
1772457295974015000,5.715014892578125,-0.9300689697265625,-0.32177734375,0.0300140380859375
1772457295984083200,5.725083251953125,-0.9329681396484375,-0.322174072265625,0.0313262939453125
1772457295994152200,5.735152099609375,-0.935760498046875,-0.322235107421875,0.02984619140625
1772457296004220000,5.745219970703125,-0.939453125,-0.322601318359375,0.027252197265625
1772457296014289200,5.7552890625,-0.9413909912109375,-0.3215179443359375,0.0223846435546875
1772457296024357000,5.765357177734375,-0.9446868896484375,-0.3232269287109375,0.0204925537109375
1772457296034425900,5.77542578125,-0.9399261474609375,-0.3259429931640625,0.022308349609375
1772457296044494000,5.785494140625,-0.93743896484375,-0.3259429931640625,0.0246429443359375
1772457296054563000,5.79556298828125,-0.936859130859375,-0.3232879638671875,0.02825927734375
1772457296064631000,5.805631103515625,-0.9334716796875,-0.3246917724609375,0.028533935546875
1772457296074699300,5.81569921875,-0.938201904296875,-0.323486328125,0.0286102294921875
1772457296084768000,5.82576806640625,-0.9347686767578125,-0.3210906982421875,0.0278472900390625
1772457296094836000,5.8358359375,-0.93310546875,-0.32275390625,0.0275726318359375
1772457296104905200,5.8459052734375,-0.935791015625,-0.3225860595703125,0.02593994140625
1772457296114973200,5.85597314453125,-0.944580078125,-0.3204193115234375,0.0218658447265625
1772457296125042000,5.8660419921875,-0.9510955810546875,-0.318084716796875,0.020538330078125
1772457296135110100,5.876110107421875,-0.9506378173828125,-0.3153228759765625,0.0225067138671875
1772457296145179100,5.88617919921875,-0.944976806640625,-0.31585693359375,0.025054931640625
1772457296155246800,5.896246826171875,-0.937835693359375,-0.314697265625,0.031524658203125
1772457296165316000,5.906316162109375,-0.933685302734375,-0.31610107421875,0.03387451171875
1772457296175384000,5.916384033203125,-0.9329071044921875,-0.3149566650390625,0.0327606201171875
1772457296185453000,5.926453125,-0.9380340576171875,-0.3153228759765625,0.030731201171875
1772457296195521000,5.93652099609375,-0.9423828125,-0.3148651123046875,0.0276947021484375
1772457296205589800,5.94658984375,-0.93890380859375,-0.3166046142578125,0.0306396484375
1772457296215657700,5.95665771484375,-0.9387359619140625,-0.318359375,0.03179931640625
1772457296225726700,5.966726806640625,-0.935791015625,-0.3189849853515625,0.03131103515625
1772457296235794700,5.976794677734375,-0.9356536865234375,-0.320037841796875,0.0265655517578125
1772457296245863700,5.98686376953125,-0.941558837890625,-0.32159423828125,0.0244598388671875
1772457296255931600,5.996931640625,-0.9414215087890625,-0.3206329345703125,0.02569580078125
1772457296266000600,6.007000732421875,-0.93878173828125,-0.3226776123046875,0.0250701904296875
1772457296276068600,6.017068603515625,-0.93670654296875,-0.3242645263671875,0.0245819091796875
1772457296286137900,6.027137939453125,-0.9338531494140625,-0.3238983154296875,0.028076171875
1772457296296205800,6.037205810546875,-0.9330596923828125,-0.3222503662109375,0.0304107666015625
1772457296306274600,6.047274658203125,-0.930145263671875,-0.322296142578125,0.0318603515625
1772457296316342500,6.057342529296875,-0.93048095703125,-0.32147216796875,0.0291290283203125
1772457296326411800,6.067411865234375,-0.939056396484375,-0.31890869140625,0.0225372314453125
1772457296336479700,6.077479736328125,-0.9474639892578125,-0.3190765380859375,0.0185394287109375
1772457296346547700,6.087547607421875,-0.9471435546875,-0.3209381103515625,0.0214691162109375
1772457296356616700,6.09761669921875,-0.9412078857421875,-0.3226776123046875,0.0245208740234375
1772457296366684700,6.1076845703125,-0.9320526123046875,-0.3267822265625,0.0262451171875
1772457296376754000,6.11775390625,-0.9214630126953125,-0.328369140625,0.029327392578125
1772457296386821600,6.127821533203125,-0.911468505859375,-0.3309783935546875,0.028106689453125
1772457296396890600,6.137890625,-0.9192657470703125,-0.328826904296875,0.0211181640625
1772457296406958800,6.147958740234375,-0.9344329833984375,-0.3272247314453125,0.0153045654296875
1772457296417027600,6.158027587890625,-0.938751220703125,-0.3263702392578125,0.015777587890625
1772457296427095600,6.168095458984375,-0.9372406005859375,-0.3282623291015625,0.0194091796875
1772457296437164800,6.178164794921875,-0.935028076171875,-0.3275146484375,0.0212860107421875
1772457296447232800,6.188232666015625,-0.9327239990234375,-0.326416015625,0.027435302734375
1772457296457301500,6.198301513671875,-0.933013916015625,-0.3243408203125,0.0309600830078125
1772457296467369700,6.20836962890625,-0.9334259033203125,-0.3220367431640625,0.0311279296875
1772457296477438700,6.218438720703125,-0.9373779296875,-0.3192596435546875,0.029388427734375
1772457296487506700,6.228506591796875,-0.9427490234375,-0.3198089599609375,0.0288543701171875
1772457296497575700,6.23857568359375,-0.946685791015625,-0.318115234375,0.0241241455078125
1772457296507643600,6.2486435546875,-0.9438629150390625,-0.3183746337890625,0.023834228515625
1772457296517712600,6.258712646484375,-0.941131591796875,-0.3199920654296875,0.0264892578125
1772457296527780900,6.26878076171875,-0.9422607421875,-0.318603515625,0.0291595458984375
1772457296537849600,6.278849609375,-0.9453125,-0.3199615478515625,0.0273590087890625
1772457296547917600,6.28891748046875,-0.95050048828125,-0.3210296630859375,0.0267181396484375
1772457296557986800,6.29898681640625,-0.9469451904296875,-0.3249969482421875,0.0286407470703125
1772457296568054800,6.3090546875,-0.9361572265625,-0.327880859375,0.0277252197265625
1772457296578123800,6.319123779296875,-0.92724609375,-0.331512451171875,0.0277099609375
1772457296588191700,6.329191650390625,-0.919158935546875,-0.330078125,0.032379150390625
1772457296598260700,6.3392607421875,-0.918487548828125,-0.326385498046875,0.0385284423828125
1772457296608328700,6.34932861328125,-0.923431396484375,-0.3212890625,0.03912353515625
1772457296618397700,6.359397705078125,-0.9310760498046875,-0.3157958984375,0.036712646484375
1772457296628465700,6.369465576171875,-0.9374542236328125,-0.3159027099609375,0.0330963134765625
1772457296638533600,6.37953369140625,-0.9381866455078125,-0.3190155029296875,0.026947021484375
1772457296648602600,6.3896025390625,-0.938262939453125,-0.318634033203125,0.02606201171875
1772457296658670600,6.399670654296875,-0.938140869140625,-0.3221588134765625,0.024505615234375
1772457296668739800,6.40973974609375,-0.939483642578125,-0.323211669921875,0.0236968994140625
1772457296678807800,6.419807861328125,-0.9387054443359375,-0.3220977783203125,0.0235748291015625
1772457296688876500,6.42987646484375,-0.93743896484375,-0.318267822265625,0.024169921875
1772457296698944800,6.43994482421875,-0.9366912841796875,-0.3178558349609375,0.028564453125
1772457296709013800,6.450013671875,-0.93243408203125,-0.32080078125,0.031158447265625
1772457296719081700,6.460081787109375,-0.9295196533203125,-0.3188934326171875,0.0342864990234375
1772457296729150700,6.470150634765625,-0.9362640380859375,-0.31597900390625,0.0333251953125
1772457296739218700,6.48021875,-0.945404052734375,-0.3185577392578125,0.0303955078125
1772457296749287700,6.49028759765625,-0.942291259765625,-0.3233795166015625,0.023895263671875
1772457296759356000,6.50035595703125,-0.9361572265625,-0.3279266357421875,0.0211944580078125
1772457296769424600,6.510424560546875,-0.936553955078125,-0.3314056396484375,0.0208892822265625
1772457296779492600,6.52049267578125,-0.9432525634765625,-0.3300933837890625,0.0186920166015625
1772457296789561900,6.530561767578125,-0.9490509033203125,-0.3285980224609375,0.0189666748046875
1772457296799629600,6.540629638671875,-0.9500579833984375,-0.32916259765625,0.018310546875
1772457296809698800,6.55069873046875,-0.94781494140625,-0.33148193359375,0.018524169921875
1772457296819766800,6.560766845703125,-0.946929931640625,-0.33233642578125,0.0175933837890625
1772457296829835800,6.570835693359375,-0.943603515625,-0.334014892578125,0.0204010009765625
1772457296839903500,6.580903564453125,-0.938018798828125,-0.334808349609375,0.024200439453125
1772457296849972700,6.59097265625,-0.9376220703125,-0.330413818359375,0.025970458984375
1772457296860040700,6.601040771484375,-0.936737060546875,-0.326629638671875,0.0306854248046875
1772457296870109700,6.611109619140625,-0.934295654296875,-0.3233795166015625,0.031768798828125
1772457296880177700,6.621177734375,-0.940673828125,-0.3215484619140625,0.0280303955078125
1772457296890246700,6.63124658203125,-0.9431610107421875,-0.3190155029296875,0.0246124267578125
1772457296900315000,6.64131494140625,-0.9411163330078125,-0.31842041015625,0.025390625
1772457296910383600,6.651383544921875,-0.9365997314453125,-0.3199005126953125,0.0286712646484375
1772457296920451600,6.66145166015625,-0.9278411865234375,-0.3202362060546875,0.032806396484375
1772457296930519800,6.671519775390625,-0.927581787109375,-0.321136474609375,0.031280517578125
1772457296940588800,6.6815888671875,-0.933380126953125,-0.319976806640625,0.027252197265625
1772457296950656800,6.69165673828125,-0.934356689453125,-0.319793701171875,0.024139404296875
1772457296960725800,6.701725830078125,-0.9322052001953125,-0.319915771484375,0.025726318359375
1772457296970793700,6.711793701171875,-0.9269561767578125,-0.3239288330078125,0.02630615234375
1772457296980862700,6.72186279296875,-0.9252777099609375,-0.32763671875,0.0244293212890625
1772457296990930700,6.7319306640625,-0.9291229248046875,-0.328277587890625,0.022613525390625
1772457297000999700,6.741999755859375,-0.9334259033203125,-0.3304901123046875,0.021636962890625
1772457297011067600,6.752067626953125,-0.9397430419921875,-0.3285980224609375,0.018218994140625
1772457297021136600,6.76213671875,-0.9475860595703125,-0.3257904052734375,0.0201263427734375
1772457297031204600,6.77220458984375,-0.9439697265625,-0.3264312744140625,0.020538330078125
1772457297041273600,6.782273681640625,-0.9394989013671875,-0.3282623291015625,0.0238494873046875
1772457297051341800,6.792341796875,-0.9338531494140625,-0.328857421875,0.0266876220703125
1772457297061410600,6.80241064453125,-0.932525634765625,-0.329376220703125,0.0243377685546875
1772457297071478500,6.812478515625,-0.9428253173828125,-0.3268890380859375,0.022369384765625
1772457297081547800,6.8225478515625,-0.9498138427734375,-0.3226776123046875,0.0200958251953125
1772457297091615700,6.83261572265625,-0.9470367431640625,-0.3213348388671875,0.0227813720703125
1772457297101684700,6.842684814453125,-0.9406585693359375,-0.32379150390625,0.0269317626953125
1772457297111752700,6.852752685546875,-0.9321136474609375,-0.322296142578125,0.0338897705078125
1772457297121821700,6.86282177734375,-0.926116943359375,-0.32257080078125,0.0360260009765625
1772457297131890000,6.872889892578125,-0.9282684326171875,-0.32159423828125,0.0337066650390625
1772457297141958700,6.882958740234375,-0.9363555908203125,-0.3211669921875,0.0269775390625
1772457297152026600,6.893026611328125,-0.9468994140625,-0.321624755859375,0.0187835693359375
1772457297162095900,6.903095947265625,-0.9454498291015625,-0.3245849609375,0.0192108154296875
1772457297172163800,6.913163818359375,-0.932464599609375,-0.328125,0.0221710205078125
1772457297182232600,6.923232666015625,-0.925567626953125,-0.330535888671875,0.0266876220703125
1772457297192300800,6.93330078125,-0.92333984375,-0.3291778564453125,0.027862548828125
1772457297202370000,6.9433701171875,-0.9227447509765625,-0.32843017578125,0.02691650390625
1772457297212437800,6.953437744140625,-0.93011474609375,-0.327239990234375,0.0244140625
1772457297222506800,6.9635068359375,-0.9385986328125,-0.3259735107421875,0.0170745849609375
1772457297232575000,6.973574951171875,-0.935516357421875,-0.3288421630859375,0.0126800537109375
1772457297242643700,6.983643798828125,-0.9312896728515625,-0.333099365234375,0.0123748779296875
1772457297252711700,6.993711669921875,-0.9308013916015625,-0.333648681640625,0.0131683349609375
1772457297262779600,7.003779541015625,-0.9315185546875,-0.33258056640625,0.0147857666015625
1772457297272849000,7.013848876953125,-0.9308013916015625,-0.3294219970703125,0.0182342529296875
1772457297282916900,7.023916748046875,-0.9364013671875,-0.3283843994140625,0.0174713134765625
1772457297292985900,7.03398583984375,-0.945159912109375,-0.3261260986328125,0.016845703125
1772457297303053800,7.0440537109375,-0.9478302001953125,-0.326690673828125,0.01605224609375
1772457297313122800,7.054122802734375,-0.944061279296875,-0.3290252685546875,0.016204833984375
1772457297323191000,7.06419091796875,-0.9373626708984375,-0.3318023681640625,0.017974853515625
1772457297333259800,7.074259765625,-0.93017578125,-0.3314056396484375,0.024993896484375
1772457297343327700,7.08432763671875,-0.9241943359375,-0.329681396484375,0.0309906005859375
1772457297353397000,7.09439697265625,-0.924713134765625,-0.32769775390625,0.035308837890625
1772457297363465000,7.10446484375,-0.9272918701171875,-0.323150634765625,0.0370941162109375
1772457297373533700,7.11453369140625,-0.9338531494140625,-0.3212738037109375,0.036773681640625
1772457297383602000,7.124601806640625,-0.9385223388671875,-0.3197174072265625,0.0298004150390625
1772457297393671000,7.1346708984375,-0.9473876953125,-0.319549560546875,0.02386474609375
1772457297403738600,7.144738525390625,-0.9501800537109375,-0.322265625,0.0198974609375
1772457297413807900,7.154807861328125,-0.9500885009765625,-0.325408935546875,0.016357421875
1772457297423875800,7.164875732421875,-0.9452362060546875,-0.3248291015625,0.016387939453125
1772457297433944800,7.17494482421875,-0.9353790283203125,-0.3234405517578125,0.023406982421875
1772457297444012800,7.1850126953125,-0.93157958984375,-0.3223419189453125,0.03179931640625
1772457297454081800,7.195081787109375,-0.936981201171875,-0.319305419921875,0.031494140625
1772457297464149800,7.205149658203125,-0.943145751953125,-0.319366455078125,0.0321044921875
1772457297474218800,7.21521875,-0.942047119140625,-0.3204803466796875,0.0289764404296875
1772457297484286700,7.22528662109375,-0.94097900390625,-0.323577880859375,0.02630615234375
1772457297494356000,7.23535595703125,-0.939727783203125,-0.3258209228515625,0.024749755859375
1772457297504424000,7.245423828125,-0.9387969970703125,-0.327545166015625,0.027984619140625
1772457297514492700,7.25549267578125,-0.9356842041015625,-0.327117919921875,0.0327606201171875
1772457297524561000,7.265560791015625,-0.9343414306640625,-0.329345703125,0.034423828125
1772457297534630000,7.2756298828125,-0.9374542236328125,-0.3300323486328125,0.0361785888671875
1772457297544697900,7.28569775390625,-0.937164306640625,-0.3277130126953125,0.034393310546875
1772457297554766800,7.295766845703125,-0.937225341796875,-0.32879638671875,0.0312042236328125
1772457297564834800,7.305834716796875,-0.939788818359375,-0.328277587890625,0.02606201171875
1772457297574902800,7.31590283203125,-0.937835693359375,-0.3300933837890625,0.0258941650390625
1772457297584972000,7.325971923828125,-0.93408203125,-0.332916259765625,0.0269927978515625
1772457297595039700,7.336039794921875,-0.9319915771484375,-0.3327789306640625,0.028076171875
1772457297605108700,7.346108642578125,-0.9304351806640625,-0.3319549560546875,0.029022216796875
1772457297615177000,7.356177001953125,-0.9290924072265625,-0.3295745849609375,0.0339508056640625
1772457297625245700,7.36624560546875,-0.9335784912109375,-0.3277587890625,0.03204345703125
1772457297635313700,7.376313720703125,-0.93658447265625,-0.325653076171875,0.0289459228515625
1772457297645383000,7.3863828125,-0.937774658203125,-0.325103759765625,0.025604248046875
1772457297655451000,7.396450927734375,-0.93701171875,-0.324859619140625,0.02813720703125
1772457297665519600,7.40651953125,-0.9369659423828125,-0.3238983154296875,0.030731201171875
1772457297675587800,7.416587890625,-0.935882568359375,-0.32330322265625,0.032196044921875
1772457297685656800,7.42665673828125,-0.9363555908203125,-0.322174072265625,0.0306854248046875
1772457297695724800,7.436724853515625,-0.93829345703125,-0.321197509765625,0.029937744140625
1772457297705793800,7.446793701171875,-0.942535400390625,-0.3218536376953125,0.028900146484375
1772457297715861800,7.45686181640625,-0.9405059814453125,-0.3239593505859375,0.0295257568359375
1772457297725931000,7.466930908203125,-0.936859130859375,-0.3228759765625,0.0321807861328125
1772457297735999000,7.4769990234375,-0.9303741455078125,-0.3226776123046875,0.0356292724609375
1772457297746067700,7.487067626953125,-0.9223175048828125,-0.3267669677734375,0.041107177734375
1772457297756136000,7.497135986328125,-0.9234161376953125,-0.3254547119140625,0.040374755859375
1772457297766205000,7.507204833984375,-0.928497314453125,-0.3259124755859375,0.036712646484375
1772457297776273000,7.51727294921875,-0.9343414306640625,-0.32568359375,0.0308074951171875
1772457297786342000,7.527341796875,-0.942169189453125,-0.3267822265625,0.0283966064453125
1772457297796409900,7.537409912109375,-0.94390869140625,-0.324310302734375,0.0291595458984375
1772457297806478800,7.547478759765625,-0.9354400634765625,-0.326385498046875,0.031036376953125
1772457297816546800,7.557546875,-0.9293212890625,-0.33099365234375,0.03131103515625
1772457297826615800,7.56761572265625,-0.9328155517578125,-0.3296966552734375,0.029022216796875
1772457297836683800,7.577683837890625,-0.9389495849609375,-0.3278045654296875,0.0298004150390625
1772457297846752800,7.587752685546875,-0.9434967041015625,-0.326507568359375,0.0305633544921875
1772457297856820700,7.59782080078125,-0.9435577392578125,-0.3266754150390625,0.0298309326171875
1772457297866889700,7.6078896484375,-0.9439544677734375,-0.32855224609375,0.025299072265625
1772457297876958000,7.6179580078125,-0.9360198974609375,-0.329803466796875,0.02752685546875
1772457297887026000,7.62802587890625,-0.9273529052734375,-0.3336334228515625,0.02630615234375
1772457297897094700,7.6380947265625,-0.922088623046875,-0.3330230712890625,0.0289154052734375
1772457297907163000,7.648162841796875,-0.927764892578125,-0.330963134765625,0.0284881591796875
1772457297917231900,7.65823193359375,-0.9374542236328125,-0.3294219970703125,0.0257568359375
1772457297927299800,7.6682998046875,-0.937347412109375,-0.3285369873046875,0.025604248046875
1772457297937368800,7.678368896484375,-0.930908203125,-0.3291473388671875,0.0282745361328125
1772457297947436800,7.688436767578125,-0.92431640625,-0.3329010009765625,0.029815673828125
1772457297957506000,7.698506103515625,-0.92266845703125,-0.3337554931640625,0.02935791015625
1772457297967573800,7.70857373046875,-0.924896240234375,-0.333526611328125,0.027008056640625
1772457297977642800,7.718642822265625,-0.93170166015625,-0.3337554931640625,0.0220489501953125
1772457297987710700,7.728710693359375,-0.93115234375,-0.3317108154296875,0.019989013671875
1772457297997780000,7.738780029296875,-0.9351959228515625,-0.3310699462890625,0.0214691162109375
1772457298007847700,7.74884765625,-0.946136474609375,-0.32733154296875,0.02178955078125
1772457298017917000,7.7589169921875,-0.94598388671875,-0.3245086669921875,0.02471923828125
1772457298027985000,7.76898486328125,-0.94317626953125,-0.3266754150390625,0.028045654296875
1772457298038053600,7.7790537109375,-0.933624267578125,-0.3272857666015625,0.0301513671875
1772457298048121900,7.789121826171875,-0.9296722412109375,-0.3278961181640625,0.032318115234375
1772457298058190800,7.79919091796875,-0.9362945556640625,-0.3279876708984375,0.0323944091796875
1772457298068258800,7.8092587890625,-0.933258056640625,-0.3303680419921875,0.029998779296875
1772457298078327800,7.819327880859375,-0.9285888671875,-0.3306121826171875,0.02789306640625
1772457298088395800,7.829395751953125,-0.92633056640625,-0.3311614990234375,0.0260162353515625
1772457298098464800,7.83946484375,-0.9250335693359375,-0.332611083984375,0.0267791748046875
1772457298108533000,7.849532958984375,-0.9250640869140625,-0.3302154541015625,0.030517578125
1772457298118601700,7.859601806640625,-0.92864990234375,-0.328125,0.036590576171875
1772457298128669700,7.869669677734375,-0.9339141845703125,-0.3263702392578125,0.0406341552734375
1772457298138739000,7.879739013671875,-0.9370880126953125,-0.3260650634765625,0.0378265380859375
1772457298148807000,7.889806884765625,-0.9448089599609375,-0.324462890625,0.03253173828125
1772457298158876000,7.8998759765625,-0.948883056640625,-0.325042724609375,0.0268096923828125
1772457298168943900,7.90994384765625,-0.9436798095703125,-0.3253021240234375,0.025909423828125
1772457298179012900,7.920012939453125,-0.938629150390625,-0.3272247314453125,0.028106689453125
1772457298189080800,7.930080810546875,-0.9332275390625,-0.3260040283203125,0.0334320068359375
1772457298199149800,7.94014990234375,-0.9280853271484375,-0.32501220703125,0.0393829345703125
1772457298209217800,7.9502177734375,-0.92523193359375,-0.3241729736328125,0.0445709228515625
1772457298219286800,7.960286865234375,-0.92449951171875,-0.3223114013671875,0.0430755615234375
1772457298229354800,7.970354736328125,-0.9301605224609375,-0.322113037109375,0.04071044921875
1772457298239423700,7.980423828125,-0.9364776611328125,-0.322662353515625,0.0371551513671875
1772457298249490700,7.99049072265625,-0.9398193359375,-0.3238067626953125,0.0322418212890625
1772457298259559700,8.0005595703125,-0.9447784423828125,-0.3245391845703125,0.0295257568359375
1772457298269628000,8.0106279296875,-0.94354248046875,-0.3249664306640625,0.0291900634765625
1772457298279696600,8.020696533203125,-0.9383697509765625,-0.3265533447265625,0.03118896484375
1772457298289764600,8.0307646484375,-0.9372406005859375,-0.3282012939453125,0.03125
1772457298299833900,8.040833740234374,-0.94366455078125,-0.3278961181640625,0.0315399169921875
1772457298309901800,8.05090185546875,-0.9473419189453125,-0.326812744140625,0.0301666259765625
1772457298319970800,8.060970703125,-0.9377593994140625,-0.327178955078125,0.032958984375
1772457298330038800,8.071038818359375,-0.927978515625,-0.33013916015625,0.033935546875
1772457298340107800,8.081107666015624,-0.9269866943359375,-0.3301849365234375,0.0341644287109375
1772457298350175700,8.09117578125,-0.9304656982421875,-0.3277130126953125,0.0358428955078125
1772457298360244700,8.10124462890625,-0.927703857421875,-0.325927734375,0.0387725830078125
1772457298370312700,8.111312744140625,-0.928680419921875,-0.326202392578125,0.035369873046875
1772457298380381700,8.121381591796874,-0.936431884765625,-0.3255767822265625,0.03277587890625
1772457298390449700,8.13144970703125,-0.942413330078125,-0.324462890625,0.0284881591796875
1772457298400518700,8.1415185546875,-0.9404144287109375,-0.32537841796875,0.027496337890625
1772457298410587000,8.1515869140625,-0.9377899169921875,-0.326507568359375,0.02874755859375
1772457298420655600,8.161655517578126,-0.940521240234375,-0.3289031982421875,0.0257720947265625
1772457298430723600,8.1717236328125,-0.9378814697265625,-0.327606201171875,0.02764892578125
1772457298440792800,8.181792724609375,-0.9300689697265625,-0.3285675048828125,0.0325927734375
1772457298450860800,8.19186083984375,-0.928619384765625,-0.327178955078125,0.0357513427734375
1772457298460929500,8.201929443359376,-0.9297637939453125,-0.326324462890625,0.0342559814453125
1772457298470997800,8.211997802734375,-0.9320831298828125,-0.325225830078125,0.033660888671875
1772457298481066800,8.222066650390625,-0.936492919921875,-0.324432373046875,0.0309295654296875
1772457298491134700,8.232134765625,-0.938323974609375,-0.3250579833984375,0.0313262939453125
1772457298501203700,8.24220361328125,-0.93798828125,-0.3226470947265625,0.032196044921875
1772457298511271700,8.252271728515625,-0.93896484375,-0.3232269287109375,0.032806396484375
1772457298521341000,8.2623408203125,-0.9459075927734375,-0.3200225830078125,0.0330047607421875
1772457298531409000,8.272408935546874,-0.94647216796875,-0.3181304931640625,0.034027099609375
1772457298541477600,8.2824775390625,-0.9470062255859375,-0.3168487548828125,0.0364532470703125
1772457298551545900,8.2925458984375,-0.944366455078125,-0.3179168701171875,0.0369873046875
1772457298561614800,8.30261474609375,-0.9412841796875,-0.3185882568359375,0.0371551513671875
1772457298571682800,8.312682861328126,-0.943115234375,-0.3189697265625,0.03759765625
1772457298581751800,8.322751708984375,-0.936920166015625,-0.32086181640625,0.0369110107421875
1772457298591821600,8.332821533203125,-0.929779052734375,-0.3201446533203125,0.0367584228515625
1772457298601889800,8.342889892578125,-0.924530029296875,-0.323699951171875,0.038177490234375
1772457298611958800,8.352958740234374,-0.923553466796875,-0.3233184814453125,0.036895751953125
1772457298622026800,8.36302685546875,-0.924591064453125,-0.32373046875,0.032470703125
1772457298632095700,8.373095703125,-0.9278106689453125,-0.32525634765625,0.028106689453125
1772457298642163700,8.383163818359375,-0.933929443359375,-0.325775146484375,0.024017333984375
1772457298652232700,8.393232666015624,-0.9398040771484375,-0.3258819580078125,0.02191162109375
1772457298662301000,8.403301025390626,-0.94091796875,-0.32489013671875,0.022918701171875
1772457298672369700,8.41336962890625,-0.9411773681640625,-0.32403564453125,0.0272064208984375
1772457298682437600,8.423437744140625,-0.9371795654296875,-0.3260955810546875,0.0302734375
1772457298692507000,8.4335068359375,-0.930908203125,-0.3275604248046875,0.033294677734375
1772457298702574800,8.443574951171875,-0.93536376953125,-0.3249053955078125,0.03326416015625
1772457298712643800,8.453643798828125,-0.9416351318359375,-0.3222808837890625,0.0311431884765625
1772457298722711800,8.4637119140625,-0.9453582763671875,-0.3193359375,0.0324554443359375
1772457298732780800,8.47378076171875,-0.9428253173828125,-0.317352294921875,0.035430908203125
1772457298742848500,8.4838486328125,-0.9378814697265625,-0.32061767578125,0.037994384765625
1772457298752917800,8.493917724609375,-0.9330902099609375,-0.3209075927734375,0.03857421875
1772457298762985700,8.50398583984375,-0.928924560546875,-0.3226776123046875,0.036834716796875
1772457298773054700,8.5140546875,-0.9349822998046875,-0.32269287109375,0.0329437255859375
1772457298783122700,8.524122802734375,-0.9469757080078125,-0.3188018798828125,0.029052734375
1772457298793191700,8.534191650390625,-0.950927734375,-0.3170623779296875,0.02655029296875
1772457298803260000,8.544260009765624,-0.9447479248046875,-0.3199920654296875,0.0293121337890625
1772457298813328600,8.55432861328125,-0.9383697509765625,-0.325286865234375,0.0319671630859375
1772457298823396600,8.564396728515625,-0.93572998046875,-0.327423095703125,0.0283203125
1772457298833465900,8.5744658203125,-0.93890380859375,-0.3256683349609375,0.0277099609375
1772457298843533800,8.584533935546874,-0.9377288818359375,-0.3243408203125,0.0327606201171875
1772457298853602600,8.5946025390625,-0.9327545166015625,-0.321990966796875,0.0346527099609375
1772457298863670800,8.6046708984375,-0.9319305419921875,-0.3227996826171875,0.037200927734375
1772457298873739800,8.61473974609375,-0.931488037109375,-0.32025146484375,0.0362701416015625
1772457298883807700,8.624807861328126,-0.9430389404296875,-0.3173370361328125,0.0325469970703125
1772457298893876700,8.634876708984375,-0.9533843994140625,-0.3141021728515625,0.028717041015625
1772457298903944700,8.64494482421875,-0.9453125,-0.3162994384765625,0.02899169921875
1772457298914014000,8.655013916015625,-0.9353790283203125,-0.318603515625,0.034698486328125
1772457298924082000,8.66508203125,-0.9269561767578125,-0.3187408447265625,0.0395355224609375
1772457298934150700,8.675150634765625,-0.9215545654296875,-0.3181610107421875,0.0455780029296875
1772457298944218600,8.685218505859375,-0.9192047119140625,-0.3188018798828125,0.0471954345703125
1772457298954287900,8.695287841796874,-0.9224853515625,-0.3168487548828125,0.043701171875
1772457298964355600,8.70535546875,-0.9323272705078125,-0.3155059814453125,0.0388336181640625
1772457298974424800,8.7154248046875,-0.9403076171875,-0.3172149658203125,0.0355987548828125
1772457298984492800,8.725492919921875,-0.94293212890625,-0.3195343017578125,0.034912109375
1772457298994561800,8.735561767578124,-0.948577880859375,-0.320343017578125,0.0308074951171875
1772457299004629800,8.745629638671875,-0.9498443603515625,-0.3194732666015625,0.0283966064453125
1772457299014698800,8.75569873046875,-0.94830322265625,-0.3218231201171875,0.0278167724609375
1772457299024766700,8.7657666015625,-0.953826904296875,-0.3218536376953125,0.025848388671875
1772457299034835700,8.775835693359374,-0.95281982421875,-0.3219451904296875,0.02484130859375
1772457299044903700,8.785903564453125,-0.9496612548828125,-0.324798583984375,0.0277557373046875
1772457299054972700,8.79597265625,-0.9463348388671875,-0.32647705078125,0.0314788818359375
1772457299065041000,8.806041015625,-0.94110107421875,-0.3249969482421875,0.03045654296875
1772457299075109600,8.816109619140626,-0.93829345703125,-0.3251800537109375,0.0323944091796875
1772457299085177600,8.826177490234375,-0.9312896728515625,-0.3276214599609375,0.0367584228515625
1772457299095246800,8.836246826171875,-0.9273834228515625,-0.32550048828125,0.037261962890625
1772457299105314800,8.846314697265624,-0.928955078125,-0.322906494140625,0.0361480712890625
1772457299115383800,8.8563837890625,-0.9345855712890625,-0.3208770751953125,0.032073974609375
1772457299125451800,8.86645166015625,-0.940948486328125,-0.318145751953125,0.0303497314453125
1772457299135520800,8.876520751953125,-0.9417572021484375,-0.31671142578125,0.03118896484375
1772457299145588700,8.886588623046874,-0.93634033203125,-0.3169097900390625,0.0369415283203125
1772457299155657700,8.89665771484375,-0.929412841796875,-0.3177947998046875,0.040740966796875
1772457299165725700,8.9067255859375,-0.9265594482421875,-0.318206787109375,0.040557861328125
1772457299175795000,8.916794921875,-0.930389404296875,-0.318084716796875,0.03778076171875
1772457299185862700,8.926862548828124,-0.9359588623046875,-0.31884765625,0.03424072265625
1772457299195931600,8.936931640625,-0.9406890869140625,-0.319488525390625,0.0308990478515625
1772457299206000400,8.94700048828125,-0.9406280517578125,-0.3219757080078125,0.031402587890625
1772457299216069000,8.957069091796875,-0.94036865234375,-0.323486328125,0.032073974609375
1772457299226137300,8.967137451171874,-0.9323577880859375,-0.3266754150390625,0.0341339111328125
1772457299236206300,8.977206298828126,-0.932281494140625,-0.324676513671875,0.0355072021484375
1772457299246274300,8.9872744140625,-0.9365081787109375,-0.3240814208984375,0.0355987548828125
1772457299256343300,8.99734326171875,-0.939178466796875,-0.3216400146484375,0.0342254638671875
1772457299266411300,9.007411376953126,-0.9442901611328125,-0.320526123046875,0.0348663330078125
1772457299276480500,9.01748046875,-0.9458770751953125,-0.32049560546875,0.0330657958984375
1772457299286548500,9.027548583984375,-0.9451446533203125,-0.321014404296875,0.0321197509765625
1772457299296617200,9.0376171875,-0.9412384033203125,-0.323822021484375,0.0333251953125
1772457299306685400,9.047685546875,-0.93804931640625,-0.324981689453125,0.0333251953125
1772457299316754400,9.05775439453125,-0.9426116943359375,-0.3223876953125,0.0303192138671875
1772457299326822400,9.067822509765625,-0.945068359375,-0.3210906982421875,0.029388427734375
1772457299336891400,9.077891357421874,-0.942108154296875,-0.320770263671875,0.031982421875
1772457299346960400,9.08796044921875,-0.9359893798828125,-0.3214874267578125,0.0316619873046875
1772457299357028400,9.0980283203125,-0.93267822265625,-0.3214111328125,0.035003662109375
1772457299367097300,9.108097412109375,-0.93023681640625,-0.3224639892578125,0.0366363525390625
1772457299377165300,9.118165283203124,-0.928466796875,-0.3238983154296875,0.034423828125
1772457299387234600,9.128234619140626,-0.929656982421875,-0.325927734375,0.0306396484375
1772457299397302300,9.13830224609375,-0.9321441650390625,-0.326904296875,0.02386474609375
1772457299407371300,9.148371337890625,-0.933746337890625,-0.327117919921875,0.021697998046875
1772457299417439200,9.158439208984374,-0.9299468994140625,-0.3282623291015625,0.025726318359375
1772457299427508500,9.168508544921876,-0.92474365234375,-0.33087158203125,0.029083251953125
1772457299437576200,9.178576171875,-0.9283599853515625,-0.3300018310546875,0.028289794921875
1772457299447645400,9.1886455078125,-0.9324493408203125,-0.3252716064453125,0.0282440185546875
1772457299457713400,9.19871337890625,-0.9293060302734375,-0.32550048828125,0.02935791015625
1772457299467782100,9.2087822265625,-0.930328369140625,-0.3275604248046875,0.0302734375
1772457299477850400,9.218850341796875,-0.9286041259765625,-0.32598876953125,0.02862548828125
1772457299487919400,9.22891943359375,-0.931915283203125,-0.32470703125,0.0302734375
1772457299497987300,9.2389873046875,-0.9349822998046875,-0.3228912353515625,0.0299530029296875
1772457299508056300,9.249056396484375,-0.942840576171875,-0.3211669921875,0.029083251953125
1772457299518124300,9.259124267578125,-0.9490509033203125,-0.32147216796875,0.0301055908203125
1772457299528193300,9.269193359375,-0.947967529296875,-0.323486328125,0.0318756103515625
1772457299538261500,9.279261474609376,-0.93890380859375,-0.3257904052734375,0.0353240966796875
1772457299548330200,9.289330322265625,-0.93585205078125,-0.3294525146484375,0.0385589599609375
1772457299558398200,9.299398193359375,-0.932586669921875,-0.3302764892578125,0.033599853515625
1772457299568467500,9.309467529296874,-0.9284820556640625,-0.3302459716796875,0.032989501953125
1772457299578535400,9.319535400390626,-0.9288330078125,-0.3278656005859375,0.0356597900390625
1772457299588604200,9.329604248046875,-0.9349365234375,-0.3259429931640625,0.0385589599609375
1772457299598672400,9.33967236328125,-0.93756103515625,-0.3227386474609375,0.04119873046875
1772457299608741400,9.349741455078124,-0.9365692138671875,-0.322601318359375,0.0406036376953125
1772457299618809300,9.359809326171876,-0.9421234130859375,-0.3219451904296875,0.0389862060546875
1772457299628878300,9.36987841796875,-0.946014404296875,-0.3186187744140625,0.0355987548828125
1772457299638946300,9.3799462890625,-0.9416656494140625,-0.3202667236328125,0.031463623046875
1772457299649015600,9.390015625,-0.944854736328125,-0.3205718994140625,0.030487060546875
1772457299659083300,9.400083251953125,-0.942352294921875,-0.317840576171875,0.0304718017578125
1772457299669152300,9.41015234375,-0.9344329833984375,-0.3198699951171875,0.03277587890625
1772457299679220500,9.420220458984375,-0.9323577880859375,-0.322723388671875,0.031890869140625
1772457299689289200,9.430289306640624,-0.92608642578125,-0.322906494140625,0.033416748046875
1772457299699357200,9.440357177734375,-0.9225311279296875,-0.32513427734375,0.0337982177734375
1772457299709426400,9.450426513671875,-0.92852783203125,-0.3279876708984375,0.032684326171875
1772457299719494400,9.460494384765624,-0.9318695068359375,-0.3263702392578125,0.0300140380859375
1772457299729563100,9.470563232421876,-0.930633544921875,-0.326416015625,0.0283966064453125
1772457299739631400,9.48063134765625,-0.9328765869140625,-0.3262481689453125,0.0283660888671875
1772457299749700400,9.490700439453125,-0.9372406005859375,-0.324981689453125,0.0298309326171875
1772457299759768300,9.500768310546874,-0.94207763671875,-0.325103759765625,0.026031494140625
1772457299769837300,9.51083740234375,-0.940185546875,-0.3289947509765625,0.023193359375
1772457299779905300,9.5209052734375,-0.9410552978515625,-0.33087158203125,0.02313232421875
1772457299789974300,9.530974365234375,-0.93988037109375,-0.330535888671875,0.02447509765625
1772457299800042500,9.54104248046875,-0.9381866455078125,-0.3307342529296875,0.0285186767578125
1772457299810111200,9.551111328125,-0.9394989013671875,-0.331451416015625,0.028472900390625
1772457299820179200,9.56117919921875,-0.942962646484375,-0.3278350830078125,0.02825927734375
1772457299830248400,9.57124853515625,-0.940643310546875,-0.3282623291015625,0.030670166015625
1772457299840316400,9.58131640625,-0.934417724609375,-0.3291015625,0.0312347412109375
1772457299850385400,9.591385498046876,-0.9345703125,-0.327392578125,0.0284423828125
1772457299860453400,9.601453369140625,-0.9378204345703125,-0.3244476318359375,0.0271148681640625
1772457299870522400,9.6115224609375,-0.9346160888671875,-0.3230743408203125,0.0318756103515625
1772457299880591400,9.62159130859375,-0.93096923828125,-0.322845458984375,0.0364227294921875
1772457299890659300,9.631659423828125,-0.9356231689453125,-0.3211517333984375,0.0351409912109375
1772457299900727300,9.641727294921875,-0.944000244140625,-0.3201141357421875,0.0290985107421875
1772457299910796300,9.65179638671875,-0.941864013671875,-0.322662353515625,0.0257415771484375
1772457299920864300,9.6618642578125,-0.9401092529296875,-0.3241119384765625,0.024322509765625
1772457299930933200,9.671933349609375,-0.939605712890625,-0.3244476318359375,0.0253753662109375
1772457299941002500,9.68200244140625,-0.93658447265625,-0.3258514404296875,0.028533935546875
1772457299951070200,9.6920703125,-0.93231201171875,-0.3282318115234375,0.0307159423828125
1772457299961139500,9.702139404296876,-0.9326171875,-0.3271026611328125,0.032745361328125
1772457299971207400,9.71220751953125,-0.9381256103515625,-0.325103759765625,0.030181884765625
1772457299981276200,9.722276123046875,-0.940704345703125,-0.324310302734375,0.0279541015625
1772457299991344000,9.73234423828125,-0.9382476806640625,-0.325408935546875,0.0269317626953125
1772457300001413400,9.742413330078126,-0.9379730224609375,-0.3262939453125,0.0253143310546875
1772457300011481300,9.7524814453125,-0.9403533935546875,-0.324951171875,0.022918701171875
1772457300021550300,9.76255029296875,-0.9367218017578125,-0.3238372802734375,0.0273590087890625
1772457300031618300,9.772618408203124,-0.93212890625,-0.3247222900390625,0.03216552734375
1772457300041687300,9.782687255859376,-0.9372406005859375,-0.322296142578125,0.0341033935546875
1772457300051755500,9.792755615234375,-0.9396820068359375,-0.3197174072265625,0.0311737060546875
1772457300061824300,9.80282421875,-0.9394378662109375,-0.3216705322265625,0.0312957763671875
1772457300071892200,9.812892333984376,-0.93707275390625,-0.3233795166015625,0.0269012451171875
1772457300081961500,9.82296142578125,-0.9361419677734375,-0.3243255615234375,0.025177001953125
1772457300092029400,9.833029541015625,-0.935272216796875,-0.32342529296875,0.0274658203125
1772457300102098200,9.84309814453125,-0.93646240234375,-0.322052001953125,0.0259857177734375
1772457300112166400,9.85316650390625,-0.94268798828125,-0.3224334716796875,0.0246124267578125
1772457300122235400,9.8632353515625,-0.9443511962890625,-0.3231201171875,0.026153564453125
1772457300132303400,9.873303466796875,-0.934326171875,-0.3244476318359375,0.0284423828125
1772457300142372400,9.883372314453124,-0.9266204833984375,-0.32659912109375,0.0317535400390625
1772457300152440300,9.8934404296875,-0.9246368408203125,-0.325347900390625,0.0342254638671875
1772457300162509600,9.903509521484375,-0.929351806640625,-0.3248138427734375,0.02923583984375
1772457300172577300,9.913577392578125,-0.9378204345703125,-0.323272705078125,0.022735595703125
1772457300182646300,9.923646240234374,-0.9455718994140625,-0.32403564453125,0.0167388916015625
1772457300192714200,9.93371435546875,-0.945831298828125,-0.326416015625,0.0185546875
1772457300202783200,9.943783203125,-0.9405059814453125,-0.3251953125,0.02313232421875
1772457300212851000,9.953850830078125,-0.9322509765625,-0.3271331787109375,0.0240325927734375
1772457300222920000,9.963919921875,-0.9314117431640625,-0.3267669677734375,0.0230255126953125
1772457300232988000,9.97398779296875,-0.9346771240234375,-0.3229522705078125,0.022430419921875
1772457300243057000,9.984056884765625,-0.945343017578125,-0.3213958740234375,0.0197296142578125
1772457300253124900,9.994124755859374,-0.945831298828125,-0.321746826171875,0.019378662109375
1772457300263194000,10.004194091796874,-0.9404449462890625,-0.3250274658203125,0.0224456787109375
1772457300273263000,10.01426318359375,-0.9353179931640625,-0.32855224609375,0.02557373046875
1772457300283330800,10.024330810546875,-0.931640625,-0.3286895751953125,0.026153564453125
1772457300293400000,10.034400146484375,-0.9279937744140625,-0.3270721435546875,0.03033447265625
1772457300303468000,10.044468017578126,-0.9227447509765625,-0.3235015869140625,0.0385284423828125
1772457300313536800,10.054536865234375,-0.9208221435546875,-0.3218536376953125,0.0410003662109375
1772457300323605000,10.06460498046875,-0.925079345703125,-0.3216705322265625,0.037261962890625
1772457300333674000,10.074674072265625,-0.93865966796875,-0.320556640625,0.0278167724609375
1772457300343742000,10.084741943359376,-0.9510040283203125,-0.318817138671875,0.020599365234375
1772457300353811000,10.09481103515625,-0.9511566162109375,-0.3185272216796875,0.0190582275390625
1772457300363879000,10.10487890625,-0.9459381103515625,-0.3195953369140625,0.0220794677734375
1772457300373948200,10.1149482421875,-0.9406585693359375,-0.319183349609375,0.027557373046875
1772457300384016100,10.12501611328125,-0.936859130859375,-0.3193817138671875,0.0312347412109375
1772457300394084900,10.1350849609375,-0.9342498779296875,-0.3197784423828125,0.033111572265625
1772457300404153000,10.145153076171875,-0.9362335205078125,-0.318450927734375,0.03131103515625
1772457300414222000,10.15522216796875,-0.93634033203125,-0.320709228515625,0.029083251953125
1772457300424290000,10.1652900390625,-0.9373321533203125,-0.3203125,0.02801513671875
1772457300434359000,10.175359130859375,-0.9403076171875,-0.319580078125,0.0280609130859375
1772457300444427000,10.185427001953125,-0.9373779296875,-0.3218841552734375,0.028656005859375
1772457300454496000,10.19549609375,-0.9342803955078125,-0.3252716064453125,0.031585693359375
1772457300464564000,10.20556396484375,-0.9330596923828125,-0.32550048828125,0.031768798828125
1772457300474633000,10.215633056640625,-0.9351959228515625,-0.3267974853515625,0.0289459228515625
1772457300484701000,10.225700927734374,-0.9453582763671875,-0.32550048828125,0.0248870849609375
1772457300494770200,10.235770263671874,-0.9522552490234375,-0.3249053955078125,0.0186767578125
1772457300504838000,10.245837890625,-0.9532470703125,-0.3247222900390625,0.02130126953125
1772457300514907000,10.255906982421875,-0.94598388671875,-0.3280181884765625,0.0222930908203125
1772457300524975000,10.26597509765625,-0.9394073486328125,-0.330352783203125,0.02764892578125
1772457300535043800,10.2760439453125,-0.9338531494140625,-0.3275146484375,0.0301361083984375
1772457300545113000,10.286113037109375,-0.930694580078125,-0.3256988525390625,0.0329437255859375
1772457300555181000,10.29618115234375,-0.9299774169921875,-0.3250732421875,0.0350799560546875
1772457300565249800,10.306249755859374,-0.933807373046875,-0.32012939453125,0.0338287353515625
1772457300575318000,10.316318115234376,-0.935211181640625,-0.317108154296875,0.0330963134765625
1772457300585387000,10.326386962890625,-0.9358673095703125,-0.3167877197265625,0.0344390869140625
1772457300595455000,10.336455078125,-0.9360198974609375,-0.31787109375,0.033172607421875
1772457300605524000,10.34652392578125,-0.9367828369140625,-0.3172760009765625,0.03363037109375
1772457300615592000,10.356592041015626,-0.9360809326171875,-0.3159332275390625,0.0350494384765625
1772457300625661000,10.366660888671875,-0.9332122802734375,-0.3191375732421875,0.0321807861328125
1772457300635729200,10.376729248046875,-0.9361419677734375,-0.31756591796875,0.0321197509765625
1772457300645798000,10.3867978515625,-0.9379425048828125,-0.31524658203125,0.0317535400390625
1772457300655865900,10.396865966796875,-0.9366302490234375,-0.3173675537109375,0.0308685302734375
1772457300665935000,10.40693505859375,-0.9398956298828125,-0.3197174072265625,0.0313568115234375
1772457300676003000,10.417003173828125,-0.94287109375,-0.3193206787109375,0.031097412109375
1772457300686072000,10.427072021484374,-0.944549560546875,-0.31964111328125,0.030487060546875
1772457300696140000,10.43714013671875,-0.9449005126953125,-0.3194122314453125,0.0306549072265625
1772457300706209000,10.447208984375,-0.945465087890625,-0.322845458984375,0.0290069580078125
1772457300716277000,10.457277099609374,-0.9444427490234375,-0.324066162109375,0.0270843505859375
1772457300726346000,10.467345947265626,-0.9417724609375,-0.32501220703125,0.025665283203125
1772457300736414000,10.4774140625,-0.943206787109375,-0.3221588134765625,0.0267791748046875
1772457300746483200,10.487483154296875,-0.9460601806640625,-0.32196044921875,0.02423095703125
1772457300756551000,10.497551025390624,-0.9449615478515625,-0.3237152099609375,0.02215576171875
1772457300766620000,10.507619873046876,-0.942901611328125,-0.3238983154296875,0.0255279541015625
1772457300776688000,10.517688232421875,-0.9369354248046875,-0.3264617919921875,0.02630615234375
1772457300786757000,10.527757080078125,-0.9311981201171875,-0.327178955078125,0.02655029296875
1772457300796825900,10.537825927734374,-0.93072509765625,-0.3259429931640625,0.02886962890625
1772457300806894000,10.54789404296875,-0.929046630859375,-0.324981689453125,0.02557373046875
1772457300816963000,10.557963134765625,-0.928924560546875,-0.3215484619140625,0.0277557373046875
1772457300827030800,10.56803076171875,-0.9250640869140625,-0.318939208984375,0.0314483642578125
1772457300837100000,10.57810009765625,-0.9228668212890625,-0.3216552734375,0.031951904296875
1772457300847168000,10.58816796875,-0.925323486328125,-0.3211212158203125,0.032073974609375
1772457300857237000,10.598237060546875,-0.93524169921875,-0.3205718994140625,0.0255279541015625
1772457300867305000,10.608304931640625,-0.9479217529296875,-0.315093994140625,0.0220947265625
1772457300877374000,10.6183740234375,-0.947509765625,-0.316497802734375,0.02679443359375
1772457300887442200,10.628442138671875,-0.939727783203125,-0.32025146484375,0.0364227294921875
1772457300897511000,10.638510986328125,-0.9382171630859375,-0.3176116943359375,0.040985107421875
1772457300907579000,10.648578857421874,-0.936492919921875,-0.316802978515625,0.0445404052734375
1772457300917648100,10.658648193359374,-0.9152374267578125,-0.3132476806640625,0.0560302734375
1772457300927716000,10.668716064453125,-0.909149169921875,-0.31585693359375,0.0531463623046875
1772457300937784800,10.678784912109375,-0.93450927734375,-0.3155517578125,0.0364227294921875
1772457300947853000,10.68885302734375,-0.92999267578125,-0.314239501953125,0.0203704833984375
1772457300957922000,10.698922119140626,-0.9374542236328125,-0.3218231201171875,0.0147247314453125
1772457300967990000,10.708989990234375,-0.9508514404296875,-0.3237457275390625,0.0065155029296875
1772457300978059000,10.71905908203125,-0.9557647705078125,-0.326263427734375,0.0012054443359375
1772457300988127000,10.729126953125,-0.9616851806640625,-0.3292236328125,0.0024261474609375
1772457300998196000,10.739196044921876,-0.9498443603515625,-0.3294830322265625,0.0094757080078125
1772457301008264200,10.74926416015625,-0.94073486328125,-0.3296051025390625,0.0176239013671875
