time,seconds_elapsed,z,y,x
1772562835907234800,0.05923486328125,-0.9998626708984375,-0.0148162841796875,0.045257568359375
1772562835917302000,0.069302001953125,-0.974456787109375,-0.014892578125,0.05316162109375
1772562835927369000,0.079368896484375,-0.9718170166015625,-0.0138397216796875,0.0585174560546875
1772562835937436000,0.089435791015625,-0.9789581298828125,-0.016357421875,0.0512542724609375
1772562835947502800,0.0995029296875,-1.001983642578125,-0.0146484375,0.042877197265625
1772562835957571000,0.109571044921875,-1.0146026611328125,-0.0135345458984375,0.04046630859375
1772562835967638000,0.119637939453125,-0.998870849609375,-0.015289306640625,0.04449462890625
1772562835977705200,0.129705322265625,-0.98419189453125,-0.015350341796875,0.0514373779296875
1772562835987772200,0.139772216796875,-0.9779052734375,-0.0134124755859375,0.0538330078125
1772562835997839000,0.149839111328125,-0.98150634765625,-0.0150909423828125,0.05096435546875
1772562836007906300,0.15990625,-0.9963836669921875,-0.016448974609375,0.0457916259765625
1772562836017974000,0.16997412109375,-1.0048065185546875,-0.01446533203125,0.041717529296875
1772562836028041200,0.180041259765625,-1.002166748046875,-0.016937255859375,0.0418701171875
1772562836038108200,0.190108154296875,-0.99053955078125,-0.012359619140625,0.045257568359375
1772562836048175000,0.200175048828125,-0.9806976318359375,-0.0142059326171875,0.052001953125
1772562836058242000,0.210241943359375,-0.98272705078125,-0.016387939453125,0.04949951171875
1772562836068310000,0.22031005859375,-0.9916229248046875,-0.0141143798828125,0.045654296875
1772562836078377200,0.230377197265625,-1.000579833984375,-0.015533447265625,0.04510498046875
1772562836088444200,0.240444091796875,-0.9993743896484375,-0.0148162841796875,0.0449676513671875
1772562836098511000,0.250510986328125,-0.992706298828125,-0.0147552490234375,0.0469207763671875
1772562836108578300,0.260578369140625,-0.9848785400390625,-0.0155181884765625,0.0486602783203125
1772562836118646300,0.270646240234375,-0.98583984375,-0.013031005859375,0.0475006103515625
1772562836128713200,0.280713134765625,-0.99114990234375,-0.01348876953125,0.0479278564453125
1772562836138780200,0.2907802734375,-0.9958648681640625,-0.014892578125,0.0464324951171875
1772562836148847000,0.30084716796875,-0.9972076416015625,-0.0157318115234375,0.0454254150390625
1772562836158914000,0.3109140625,-0.9951171875,-0.016143798828125,0.0456085205078125
1772562836168982000,0.32098193359375,-0.9875640869140625,-0.014434814453125,0.0474090576171875
1772562836179049000,0.331049072265625,-0.9867706298828125,-0.0135498046875,0.048797607421875
1772562836189116200,0.3411162109375,-0.9903106689453125,-0.0129547119140625,0.04833984375
1772562836199183000,0.35118310546875,-0.9939117431640625,-0.0143280029296875,0.0465240478515625
1772562836209250300,0.361250244140625,-0.9961700439453125,-0.014190673828125,0.04571533203125
1772562836219317200,0.371317138671875,-0.9948577880859375,-0.014801025390625,0.0464324951171875
1772562836229385200,0.38138525390625,-0.9908447265625,-0.0152587890625,0.047943115234375
1772562836239452200,0.3914521484375,-0.988311767578125,-0.0147705078125,0.048736572265625
1772562836249519000,0.40151904296875,-0.9889373779296875,-0.0149688720703125,0.0474853515625
1772562836259586000,0.4115859375,-0.9913177490234375,-0.01507568359375,0.04632568359375
1772562836269653000,0.421653076171875,-0.9951171875,-0.0140533447265625,0.04595947265625
1772562836279721000,0.431720947265625,-0.9945526123046875,-0.01458740234375,0.0479278564453125
1772562836289788200,0.4417880859375,-0.991943359375,-0.014984130859375,0.04791259765625
1772562836299855400,0.45185546875,-0.9893646240234375,-0.0147705078125,0.0467987060546875
1772562836309922300,0.46192236328125,-0.988800048828125,-0.0156402587890625,0.049346923828125
1772562836319989200,0.4719892578125,-0.9923858642578125,-0.0153656005859375,0.047607421875
1772562836330057200,0.48205712890625,-0.9943389892578125,-0.014801025390625,0.0452728271484375
1772562836340124200,0.492124267578125,-0.9931182861328125,-0.0147705078125,0.0456085205078125
1772562836350191000,0.502191162109375,-0.9929656982421875,-0.016265869140625,0.047149658203125
1772562836360258000,0.512258056640625,-0.9895172119140625,-0.0152587890625,0.0480499267578125
1772562836370325000,0.522324951171875,-0.9883880615234375,-0.0147857666015625,0.046722412109375
1772562836380393000,0.53239306640625,-0.99102783203125,-0.01495361328125,0.0462799072265625
1772562836390460000,0.5424599609375,-0.99176025390625,-0.0157623291015625,0.0474853515625
1772562836400527400,0.55252734375,-0.99359130859375,-0.0140838623046875,0.0470123291015625
1772562836410594300,0.56259423828125,-0.9921875,-0.0142669677734375,0.0469970703125
1772562836420661200,0.5726611328125,-0.9912567138671875,-0.014373779296875,0.0453643798828125
1772562836430729200,0.582729248046875,-0.990753173828125,-0.0150604248046875,0.0478668212890625
1772562836440796200,0.592796142578125,-0.98956298828125,-0.0166168212890625,0.0483551025390625
1772562836450863000,0.602863037109375,-0.9923248291015625,-0.0147705078125,0.0484771728515625
1772562836460930000,0.612929931640625,-0.99151611328125,-0.0146026611328125,0.0481719970703125
1772562836470997000,0.6229970703125,-0.991455078125,-0.0129852294921875,0.0458831787109375
1772562836481064200,0.633064208984375,-0.9928131103515625,-0.0145416259765625,0.0465240478515625
1772562836491132000,0.6431318359375,-0.991302490234375,-0.0145416259765625,0.0479888916015625
1772562836501199400,0.653199462890625,-0.99224853515625,-0.0139312744140625,0.04705810546875
1772562836511266300,0.663266357421875,-0.9924163818359375,-0.0146026611328125,0.0449981689453125
1772562836521333200,0.673333251953125,-0.991546630859375,-0.0161590576171875,0.0466766357421875
1772562836531400200,0.683400146484375,-0.992340087890625,-0.01470947265625,0.0474700927734375
1772562836541468200,0.69346826171875,-0.9921417236328125,-0.0142974853515625,0.046905517578125
1772562836551535000,0.70353515625,-0.991790771484375,-0.01422119140625,0.0478363037109375
1772562836561602000,0.71360205078125,-0.98809814453125,-0.0146331787109375,0.043609619140625
1772562836571669000,0.7236689453125,-0.9581298828125,-0.0146484375,0.0439605712890625
1772562836581736200,0.733736083984375,-0.9882659912109375,-0.0203857421875,0.0535736083984375
1772562836591804000,0.743803955078125,-1.044708251953125,-0.0133056640625,0.0534820556640625
1772562836601871000,0.75387109375,-1.019866943359375,-0.0152130126953125,0.045257568359375
1772562836611938300,0.763938232421875,-0.975341796875,-0.0172119140625,0.040130615234375
1772562836622005200,0.774005126953125,-0.9870758056640625,-0.0128173828125,0.0453338623046875
1772562836632072200,0.784072265625,-0.989715576171875,-0.015106201171875,0.0525054931640625
1772562836642140200,0.79414013671875,-0.971282958984375,-0.016876220703125,0.053619384765625
1772562836652207000,0.80420703125,-0.9777374267578125,-0.0172119140625,0.0459136962890625
1772562836662274000,0.814274169921875,-1.0067901611328125,-0.0157623291015625,0.0438690185546875
1772562836672341000,0.824341064453125,-1.0143890380859375,-0.0140380859375,0.0451202392578125
1772562836682408200,0.834408203125,-0.987701416015625,-0.0126190185546875,0.0447998046875
1772562836692475100,0.84447509765625,-0.976318359375,-0.01507568359375,0.0468292236328125
1772562836702543000,0.854543212890625,-0.9876556396484375,-0.0142822265625,0.0503387451171875
1772562836712610300,0.8646103515625,-0.9945831298828125,-0.015106201171875,0.0484771728515625
1772562836722677200,0.87467724609375,-0.9922943115234375,-0.015411376953125,0.0436859130859375
1772562836732744200,0.884744140625,-0.9931793212890625,-0.0155487060546875,0.0449371337890625
1772562836742811100,0.89481103515625,-0.9976043701171875,-0.0133819580078125,0.047119140625
1772562836752879000,0.904879150390625,-0.99273681640625,-0.0125885009765625,0.0463409423828125
1772562836762946000,0.914946044921875,-0.985107421875,-0.01458740234375,0.047088623046875
1772562836773013000,0.925012939453125,-0.986480712890625,-0.0145721435546875,0.047576904296875
1772562836783080200,0.935080078125,-0.9966278076171875,-0.0157318115234375,0.04638671875
1772562836793147100,0.945147216796875,-0.997222900390625,-0.016876220703125,0.0481109619140625
1772562836803215000,0.955215087890625,-0.9910430908203125,-0.016357421875,0.04840087890625
1772562836813282000,0.965281982421875,-0.9871978759765625,-0.012969970703125,0.0475616455078125
1772562836823349200,0.975349365234375,-0.9902801513671875,-0.0128021240234375,0.04730224609375
1772562836833416200,0.985416259765625,-0.9935302734375,-0.014373779296875,0.0466766357421875
1772562836843483100,0.995483154296875,-0.99432373046875,-0.0137176513671875,0.047149658203125
1772562836853551000,1.005551025390625,-0.9929962158203125,-0.01666259765625,0.0469207763671875
1772562836863618000,1.0156181640625,-0.9928741455078125,-0.0179290771484375,0.0482025146484375
1772562836873685200,1.025685302734375,-0.9915924072265625,-0.0156402587890625,0.04876708984375
1772562836883752200,1.035752197265625,-0.9873809814453125,-0.014892578125,0.0478973388671875
1772562836893819100,1.045819091796875,-0.990997314453125,-0.01348876953125,0.047821044921875
1772562836903886000,1.055885986328125,-0.9957733154296875,-0.0137939453125,0.0457305908203125
1772562836913954000,1.0659541015625,-0.99603271484375,-0.0131072998046875,0.0449371337890625
1772562836924021200,1.076021240234375,-0.9930877685546875,-0.01593017578125,0.04583740234375
1772562836934088200,1.086088134765625,-0.9918975830078125,-0.015960693359375,0.047210693359375
1772562836944155100,1.096155029296875,-0.9899444580078125,-0.0156707763671875,0.0486907958984375
1772562836954221800,1.106221923828125,-0.988861083984375,-0.01336669921875,0.04754638671875
1772562836964289800,1.116289794921875,-0.9918060302734375,-0.01422119140625,0.04681396484375
1772562836974357000,1.12635693359375,-0.9931488037109375,-0.0136871337890625,0.0450897216796875
1772562836984424000,1.136423828125,-0.9948883056640625,-0.014007568359375,0.044586181640625
1772562836994491000,1.146490966796875,-0.9939727783203125,-0.0153961181640625,0.045318603515625
1772562837004557800,1.156557861328125,-0.99090576171875,-0.0152587890625,0.0491485595703125
1772562837014625800,1.166625732421875,-0.98919677734375,-0.0162200927734375,0.0485076904296875
1772562837024692700,1.176692626953125,-0.988616943359375,-0.0152130126953125,0.0472564697265625
1772562837034759700,1.186759765625,-0.9940948486328125,-0.0139007568359375,0.0466156005859375
1772562837044826600,1.19682666015625,-0.9940032958984375,-0.01312255859375,0.04486083984375
1772562837054893800,1.206893798828125,-0.9920501708984375,-0.0152130126953125,0.0469207763671875
1772562837064961800,1.2169619140625,-0.9925689697265625,-0.01446533203125,0.04754638671875
1772562837075029000,1.227029052734375,-0.9885101318359375,-0.0155181884765625,0.0492095947265625
1772562837085096000,1.237095947265625,-0.9890289306640625,-0.0154266357421875,0.0498046875
1772562837095163000,1.247162841796875,-0.9908905029296875,-0.0139312744140625,0.0478515625
1772562837105229800,1.257229736328125,-0.9943695068359375,-0.0127410888671875,0.047821044921875
1772562837115297800,1.2672978515625,-0.994873046875,-0.0137176513671875,0.0459747314453125
1772562837125364700,1.27736474609375,-0.992462158203125,-0.01483154296875,0.046234130859375
1772562837135431700,1.287431640625,-0.9911651611328125,-0.0155487060546875,0.0474700927734375
1772562837145499000,1.297498779296875,-0.9915313720703125,-0.0148468017578125,0.0478973388671875
1772562837155565800,1.30756591796875,-0.991668701171875,-0.0156097412109375,0.045684814453125
1772562837165633800,1.3176337890625,-0.9911956787109375,-0.0142974853515625,0.04827880859375
1772562837175701000,1.327700927734375,-0.9908905029296875,-0.014495849609375,0.0459442138671875
1772562837185768000,1.337767822265625,-0.993255615234375,-0.0144500732421875,0.046600341796875
1772562837195835000,1.3478349609375,-0.9913177490234375,-0.013458251953125,0.0452880859375
1772562837205901800,1.35790185546875,-0.963043212890625,-0.0139617919921875,0.0471649169921875
1772562837215968800,1.36796875,-0.970733642578125,-0.0213165283203125,0.0540008544921875
1772562837226036700,1.37803662109375,-1.058624267578125,-0.0144195556640625,0.053436279296875
1772562837236103700,1.388103759765625,-1.0323333740234375,-0.011566162109375,0.0423736572265625
1772562837246171000,1.3981708984375,-0.9497833251953125,-0.0140838623046875,0.0369110107421875
1772562837256237800,1.40823779296875,-0.9532470703125,-0.01318359375,0.0425567626953125
1772562837266304800,1.4183046875,-1.0126953125,-0.0135040283203125,0.05523681640625
1772562837276373000,1.428373046875,-1.016204833984375,-0.0172271728515625,0.055328369140625
1772562837286440000,1.43843994140625,-0.9608001708984375,-0.0189361572265625,0.0490875244140625
1772562837296507000,1.4485068359375,-0.964691162109375,-0.0168914794921875,0.043182373046875
1772562837306573800,1.45857373046875,-1.026458740234375,-0.0133514404296875,0.045562744140625
1772562837316640800,1.468640869140625,-1.0258941650390625,-0.011077880859375,0.0447235107421875
1772562837326708700,1.478708740234375,-0.9716949462890625,-0.0153350830078125,0.0453948974609375
1772562837336775700,1.488775634765625,-0.9618072509765625,-0.014739990234375,0.0483856201171875
1772562837346843000,1.4988427734375,-0.9973602294921875,-0.0150604248046875,0.049957275390625
1772562837356909800,1.508909912109375,-1.0119171142578125,-0.0175323486328125,0.04833984375
1772562837366976800,1.518976806640625,-0.9893798828125,-0.0153656005859375,0.0460205078125
1772562837377045000,1.529044921875,-0.9822998046875,-0.0138397216796875,0.0444183349609375
1772562837387112000,1.53911181640625,-0.998046875,-0.0136566162109375,0.044097900390625
1772562837397179000,1.549178955078125,-1.00146484375,-0.012542724609375,0.0464019775390625
1772562837407245800,1.559245849609375,-0.9833526611328125,-0.0143585205078125,0.0486297607421875
1772562837417312800,1.569312744140625,-0.9821929931640625,-0.013763427734375,0.0463714599609375
1772562837427380700,1.579380615234375,-1.000396728515625,-0.016448974609375,0.04693603515625
1772562837437447700,1.58944775390625,-1.0000457763671875,-0.0170440673828125,0.047149658203125
1772562837447515000,1.599514892578125,-0.9882965087890625,-0.014404296875,0.0462646484375
1772562837457581800,1.609581787109375,-0.9832763671875,-0.0133514404296875,0.0471954345703125
1772562837467648800,1.619648681640625,-0.992523193359375,-0.0123748779296875,0.0476837158203125
1772562837477715700,1.6297158203125,-0.999725341796875,-0.015960693359375,0.0453033447265625
1772562837487784000,1.639783935546875,-0.9913482666015625,-0.015899658203125,0.0450897216796875
1772562837497851000,1.649850830078125,-0.988800048828125,-0.0153045654296875,0.047607421875
1772562837507917800,1.659917724609375,-0.9931488037109375,-0.0157318115234375,0.048614501953125
1772562837517984800,1.66998486328125,-0.992767333984375,-0.0128326416015625,0.04949951171875
1772562837528052000,1.680052001953125,-0.9873046875,-0.014617919921875,0.0477752685546875
1772562837538119700,1.69011962890625,-0.989410400390625,-0.0140228271484375,0.04595947265625
1772562837548187000,1.700186767578125,-0.9958953857421875,-0.0144500732421875,0.046630859375
1772562837558253800,1.71025390625,-0.9965667724609375,-0.01483154296875,0.0461273193359375
1772562837568320800,1.72032080078125,-0.9915924072265625,-0.014984130859375,0.0492095947265625
1772562837578387700,1.7303876953125,-0.986785888671875,-0.015228271484375,0.0503082275390625
1772562837588456000,1.7404560546875,-0.9871978759765625,-0.0138397216796875,0.04962158203125
1772562837598523000,1.75052294921875,-0.9927978515625,-0.0134429931640625,0.0443878173828125
1772562837608589800,1.76058984375,-0.9936370849609375,-0.015411376953125,0.0443878173828125
1772562837618656800,1.77065673828125,-0.9935760498046875,-0.014007568359375,0.0460968017578125
1772562837628724000,1.780723876953125,-0.9961090087890625,-0.0145263671875,0.046630859375
1772562837638791700,1.790791748046875,-0.9920806884765625,-0.0161590576171875,0.04656982421875
1772562837648859000,1.80085888671875,-0.98828125,-0.01666259765625,0.0478668212890625
1772562837658925800,1.81092578125,-0.987762451171875,-0.0153656005859375,0.0475616455078125
1772562837668992800,1.82099267578125,-0.994110107421875,-0.0146942138671875,0.0458221435546875
1772562837679059700,1.831059814453125,-0.9959564208984375,-0.0150909423828125,0.0467681884765625
1772562837689128000,1.8411279296875,-0.9933929443359375,-0.01416015625,0.04583740234375
1772562837699195000,1.85119482421875,-0.9903411865234375,-0.0157318115234375,0.04608154296875
1772562837709261800,1.86126171875,-0.989654541015625,-0.0152587890625,0.04730224609375
1772562837719328800,1.871328857421875,-0.9900054931640625,-0.0144195556640625,0.0478515625
1772562837729396000,1.88139599609375,-0.990447998046875,-0.015716552734375,0.0474853515625
1772562837739463700,1.891463623046875,-0.9946441650390625,-0.013458251953125,0.0471954345703125
1772562837749531000,1.90153076171875,-0.993743896484375,-0.0122222900390625,0.0459442138671875
1772562837759597800,1.911597900390625,-0.9937896728515625,-0.0143585205078125,0.0449371337890625
1772562837769664800,1.921664794921875,-0.99139404296875,-0.014129638671875,0.0458526611328125
1772562837779731700,1.931731689453125,-0.9901275634765625,-0.015655517578125,0.0469970703125
1772562837789800000,1.941800048828125,-0.989898681640625,-0.0152130126953125,0.0499114990234375
1772562837799867000,1.951866943359375,-0.98883056640625,-0.0161895751953125,0.0480499267578125
1772562837809933800,1.961933837890625,-0.990875244140625,-0.0136566162109375,0.04791259765625
1772562837820000800,1.972000732421875,-0.993499755859375,-0.0130615234375,0.046722412109375
1772562837830068000,1.98206787109375,-0.9940948486328125,-0.0146331787109375,0.046722412109375
1772562837840136000,1.992135986328125,-0.99102783203125,-0.015167236328125,0.0474395751953125
1772562837850203000,2.002202880859375,-0.9907073974609375,-0.01531982421875,0.04736328125
1772562837860269800,2.012269775390625,-0.9904022216796875,-0.01580810546875,0.047332763671875
1772562837870336800,2.022336669921875,-0.9912261962890625,-0.0148468017578125,0.0489349365234375
1772562837880403700,2.03240380859375,-0.99298095703125,-0.0145111083984375,0.04888916015625
1772562837890472000,2.042471923828125,-0.9934234619140625,-0.01434326171875,0.0467681884765625
1772562837900539000,2.052538818359375,-0.9936370849609375,-0.013580322265625,0.046356201171875
1772562837910605800,2.062605712890625,-0.991973876953125,-0.0134124755859375,0.0467071533203125
1772562837920672800,2.0726728515625,-0.991455078125,-0.01507568359375,0.0462799072265625
1772562837930740000,2.082739990234375,-0.9913177490234375,-0.0154266357421875,0.0478515625
1772562837940808000,2.092807861328125,-0.9908294677734375,-0.015716552734375,0.048065185546875
1772562837950875000,2.102875,-0.992431640625,-0.015228271484375,0.0466156005859375
1772562837960942300,2.1129423828125,-0.9929656982421875,-0.0139007568359375,0.0455780029296875
1772562837971009300,2.12300927734375,-0.992279052734375,-0.01513671875,0.04534912109375
1772562837981076200,2.133076171875,-0.9914093017578125,-0.01422119140625,0.04730224609375
1772562837991144400,2.14314453125,-0.991851806640625,-0.0164642333984375,0.046875
1772562838001211400,2.15321142578125,-0.9915313720703125,-0.01531982421875,0.047454833984375
1772562838011278300,2.1632783203125,-0.9911651611328125,-0.0151519775390625,0.0469970703125
1772562838021345300,2.17334521484375,-0.9921112060546875,-0.017547607421875,0.047119140625
1772562838031412500,2.18341259765625,-0.9940032958984375,-0.015869140625,0.0460662841796875
1772562838041480200,2.193480224609375,-0.9943084716796875,-0.0150299072265625,0.04461669921875
1772562838051547400,2.20354736328125,-0.992919921875,-0.0132293701171875,0.0472412109375
1772562838061614300,2.2136142578125,-0.991973876953125,-0.0152435302734375,0.0477752685546875
1772562838071681300,2.223681396484375,-0.9921875,-0.01580810546875,0.04736328125
1772562838081748200,2.233748291015625,-0.9917449951171875,-0.0148773193359375,0.04730224609375
1772562838091815200,2.243815185546875,-0.9901123046875,-0.014251708984375,0.047088623046875
1772562838101883400,2.25388330078125,-0.9907684326171875,-0.0159149169921875,0.0462188720703125
1772562838111950300,2.263950439453125,-0.9920501708984375,-0.0153961181640625,0.046051025390625
1772562838122017300,2.274017333984375,-0.9944305419921875,-0.014495849609375,0.04730224609375
1772562838132084500,2.28408447265625,-0.99273681640625,-0.0151519775390625,0.0476837158203125
1772562838142151400,2.2941513671875,-0.9906768798828125,-0.0160369873046875,0.04742431640625
1772562838152219400,2.304219482421875,-0.9904022216796875,-0.0144500732421875,0.0482330322265625
1772562838162286300,2.314286376953125,-0.9915618896484375,-0.01617431640625,0.04766845703125
1772562838172353300,2.324353271484375,-0.992767333984375,-0.0149993896484375,0.0465850830078125
1772562838182420200,2.334420166015625,-0.992401123046875,-0.013916015625,0.04736328125
1772562838192487200,2.344487060546875,-0.9922332763671875,-0.01336669921875,0.04522705078125
1772562838202555400,2.354555419921875,-0.9935150146484375,-0.0151214599609375,0.04681396484375
1772562838212622300,2.364622314453125,-0.990753173828125,-0.0153350830078125,0.0485382080078125
1772562838222689300,2.374689208984375,-0.99127197265625,-0.0151214599609375,0.0470123291015625
1772562838232756500,2.384756591796875,-0.9908599853515625,-0.0156097412109375,0.047515869140625
1772562838242823400,2.394823486328125,-0.9923248291015625,-0.0142364501953125,0.04766845703125
1772562838252891400,2.404891357421875,-0.9935760498046875,-0.0152740478515625,0.0470123291015625
1772562838262958300,2.414958251953125,-0.9911651611328125,-0.0141754150390625,0.045257568359375
1772562838273025300,2.425025390625,-0.9919281005859375,-0.0151214599609375,0.04608154296875
1772562838283092200,2.43509228515625,-0.9910888671875,-0.0132904052734375,0.046905517578125
1772562838293159200,2.4451591796875,-0.990875244140625,-0.01519775390625,0.048095703125
1772562838303227400,2.455227294921875,-0.991180419921875,-0.014801025390625,0.0483245849609375
1772562838313294300,2.46529443359375,-0.992156982421875,-0.016571044921875,0.0476226806640625
1772562838323361300,2.475361328125,-0.991607666015625,-0.0167236328125,0.04888916015625
1772562838333428500,2.485428466796875,-0.9930419921875,-0.0149688720703125,0.0485076904296875
1772562838343495400,2.495495361328125,-0.9914093017578125,-0.0135345458984375,0.0470123291015625
1772562838353563400,2.5055634765625,-0.99078369140625,-0.0151824951171875,0.0466461181640625
1772562838363630300,2.51563037109375,-0.9915771484375,-0.01715087890625,0.048553466796875
1772562838373697300,2.525697265625,-0.991180419921875,-0.0145416259765625,0.04815673828125
1772562838383764200,2.53576416015625,-0.9912567138671875,-0.0146942138671875,0.0455780029296875
1772562838393831200,2.5458310546875,-0.9901123046875,-0.01470947265625,0.0473480224609375
1772562838403899400,2.5558994140625,-0.99298095703125,-0.0153350830078125,0.046478271484375
1772562838413966300,2.56596630859375,-0.992950439453125,-0.0149078369140625,0.0467376708984375
1772562838424033300,2.576033203125,-0.9944000244140625,-0.0142974853515625,0.04766845703125
1772562838434100500,2.5861005859375,-0.9928131103515625,-0.01568603515625,0.046356201171875
1772562838444167400,2.59616748046875,-0.99127197265625,-0.0150146484375,0.0480804443359375
1772562838454235400,2.6062353515625,-0.990264892578125,-0.0145263671875,0.045196533203125
1772562838464302300,2.61630224609375,-0.9924468994140625,-0.0143890380859375,0.0486297607421875
1772562838474369300,2.626369384765625,-0.9935150146484375,-0.0149993896484375,0.0475616455078125
1772562838484436200,2.636436279296875,-0.9921112060546875,-0.015594482421875,0.0468292236328125
1772562838494503200,2.646503173828125,-0.9919891357421875,-0.0155029296875,0.0482025146484375
1772562838504571400,2.6565712890625,-0.9915313720703125,-0.015106201171875,0.0470123291015625
1772562838514638300,2.666638427734375,-0.9926300048828125,-0.01507568359375,0.0452728271484375
1772562838524705500,2.67670556640625,-0.9934539794921875,-0.01519775390625,0.0458526611328125
1772562838534772500,2.6867724609375,-0.993438720703125,-0.014617919921875,0.047149658203125
1772562838544839400,2.69683935546875,-0.9920196533203125,-0.0138702392578125,0.048309326171875
1772562838554907400,2.706907470703125,-0.993011474609375,-0.014862060546875,0.04693603515625
1772562838564974300,2.716974365234375,-0.993408203125,-0.01605224609375,0.0457916259765625
1772562838575041300,2.727041259765625,-0.992095947265625,-0.0152587890625,0.046875
1772562838585108200,2.737108154296875,-0.9913177490234375,-0.01385498046875,0.046630859375
1772562838595175200,2.747175048828125,-0.9903411865234375,-0.0153656005859375,0.04705810546875
1772562838605243400,2.757243408203125,-0.9908599853515625,-0.015350341796875,0.04718017578125
1772562838615310300,2.767310302734375,-0.992828369140625,-0.0147705078125,0.04766845703125
1772562838625377500,2.77737744140625,-0.9914093017578125,-0.0157318115234375,0.0475311279296875
1772562838635444500,2.787444580078125,-0.992950439453125,-0.0166168212890625,0.0468902587890625
1772562838645511400,2.797511474609375,-0.9931488037109375,-0.0148773193359375,0.0461273193359375
1772562838655579400,2.807579345703125,-0.992095947265625,-0.014007568359375,0.0486602783203125
1772562838665646300,2.817646240234375,-0.9907379150390625,-0.0156707763671875,0.046966552734375
1772562838675713300,2.82771337890625,-0.9925689697265625,-0.014617919921875,0.0468292236328125
1772562838685780200,2.8377802734375,-0.9931793212890625,-0.0145263671875,0.047119140625
1772562838695847200,2.84784716796875,-0.9927520751953125,-0.013580322265625,0.0452880859375
1772562838705915400,2.857915283203125,-0.9938812255859375,-0.0150909423828125,0.0470733642578125
1772562838715982300,2.867982421875,-0.9935150146484375,-0.013702392578125,0.0481109619140625
1772562838726049500,2.878049560546875,-0.9924163818359375,-0.0152130126953125,0.0458831787109375
1772562838736116500,2.888116455078125,-0.99212646484375,-0.0137481689453125,0.0467681884765625
1772562838746183400,2.898183349609375,-0.9909210205078125,-0.0143585205078125,0.0486907958984375
1772562838756251400,2.90825146484375,-0.9912567138671875,-0.0147857666015625,0.0470123291015625
1772562838766318300,2.918318359375,-0.9920501708984375,-0.013824462890625,0.0467071533203125
1772562838776385300,2.92838525390625,-0.9925994873046875,-0.0138397216796875,0.04742431640625
1772562838786452200,2.9384521484375,-0.99237060546875,-0.0146942138671875,0.0471343994140625
1772562838796519200,2.948519287109375,-0.9915924072265625,-0.017059326171875,0.047821044921875
1772562838806587400,2.95858740234375,-0.990753173828125,-0.0152587890625,0.045867919921875
1772562838816654300,2.968654296875,-0.99261474609375,-0.0141448974609375,0.046722412109375
1772562838826721500,2.978721435546875,-0.9924468994140625,-0.014678955078125,0.048248291015625
1772562838836788500,2.98878857421875,-0.9940643310546875,-0.0157623291015625,0.04571533203125
1772562838846855400,2.99885546875,-0.99188232421875,-0.014434814453125,0.047576904296875
1772562838856923400,3.00892333984375,-0.99261474609375,-0.0143280029296875,0.046112060546875
1772562838866990300,3.018990234375,-0.9919281005859375,-0.015869140625,0.04681396484375
1772562838877057300,3.029057373046875,-0.9914398193359375,-0.0146942138671875,0.0470123291015625
1772562838887124200,3.039124267578125,-0.992431640625,-0.0141448974609375,0.0463714599609375
1772562838897191200,3.049191162109375,-0.990875244140625,-0.015533447265625,0.0464019775390625
1772562838907259100,3.059259033203125,-0.9913330078125,-0.0153350830078125,0.045867919921875
1772562838917326300,3.069326416015625,-0.990509033203125,-0.0148162841796875,0.0458984375
1772562838927393500,3.0793935546875,-0.9915618896484375,-0.0149993896484375,0.046356201171875
1772562838937460500,3.08946044921875,-0.9915924072265625,-0.0153961181640625,0.0479278564453125
1772562838947527400,3.09952734375,-0.9918365478515625,-0.0139312744140625,0.0482635498046875
1772562838957596000,3.109595947265625,-0.99169921875,-0.01483154296875,0.04669189453125
1772562838967662800,3.119662841796875,-0.9933624267578125,-0.0139007568359375,0.0455474853515625
1772562838977729800,3.129729736328125,-0.9923095703125,-0.014129638671875,0.0464019775390625
1772562838987796700,3.139796630859375,-0.9912261962890625,-0.015472412109375,0.0469207763671875
1772562838997863700,3.14986376953125,-0.9924468994140625,-0.0129241943359375,0.0472259521484375
1772562839007932000,3.159931884765625,-0.992340087890625,-0.0146484375,0.047515869140625
1772562839017998800,3.169998779296875,-0.9927825927734375,-0.0146331787109375,0.0468902587890625
1772562839028065800,3.180065673828125,-0.9925994873046875,-0.015472412109375,0.0478363037109375
1772562839038133000,3.190133056640625,-0.99151611328125,-0.013885498046875,0.047607421875
1772562839048200000,3.200199951171875,-0.9917144775390625,-0.014251708984375,0.0448150634765625
1772562839058268000,3.210267822265625,-0.9926300048828125,-0.01507568359375,0.04766845703125
1772562839068334800,3.2203349609375,-0.9916534423828125,-0.014129638671875,0.047119140625
1772562839078401800,3.23040185546875,-0.9920196533203125,-0.015411376953125,0.0476837158203125
1772562839088468700,3.24046875,-0.9915008544921875,-0.01593017578125,0.046722412109375
1772562839098535700,3.25053564453125,-0.9919891357421875,-0.0139923095703125,0.0470733642578125
1772562839108604000,3.26060400390625,-0.99029541015625,-0.01397705078125,0.046539306640625
1772562839118670800,3.2706708984375,-0.9908599853515625,-0.0137481689453125,0.0475006103515625
1772562839128738000,3.280738037109375,-0.9906005859375,-0.01385498046875,0.04736328125
1772562839138805000,3.290804931640625,-0.991851806640625,-0.0150299072265625,0.0480194091796875
1772562839148872000,3.300871826171875,-0.9933929443359375,-0.015228271484375,0.0447845458984375
1772562839158940000,3.31093994140625,-0.990753173828125,-0.014617919921875,0.04840087890625
1772562839169006800,3.3210068359375,-0.9924468994140625,-0.0156097412109375,0.0455474853515625
1772562839179073800,3.33107373046875,-0.9918212890625,-0.0157623291015625,0.0471954345703125
1772562839189140700,3.341140625,-0.990753173828125,-0.015625,0.0457611083984375
1772562839199207700,3.351207763671875,-0.9916534423828125,-0.013641357421875,0.0463409423828125
1772562839209275600,3.361275634765625,-0.991790771484375,-0.01568603515625,0.04705810546875
1772562839219342800,3.3713427734375,-0.99176025390625,-0.0152587890625,0.045806884765625
1772562839229410000,3.38141015625,-0.9902191162109375,-0.0149383544921875,0.04620361328125
1772562839239477000,3.39147705078125,-0.992279052734375,-0.01568603515625,0.04766845703125
1772562839249544000,3.4015439453125,-0.9915618896484375,-0.0158538818359375,0.048675537109375
1772562839259612000,3.41161181640625,-0.99114990234375,-0.01385498046875,0.0462493896484375
1772562839269678800,3.421678955078125,-0.99066162109375,-0.0147247314453125,0.0476226806640625
1772562839279745800,3.431745849609375,-0.9932861328125,-0.0152587890625,0.0473480224609375
1772562839289812700,3.441812744140625,-0.993499755859375,-0.015777587890625,0.04608154296875
1772562839299879700,3.451879638671875,-0.992279052734375,-0.014678955078125,0.0471038818359375
1772562839309947600,3.46194775390625,-0.991363525390625,-0.0138397216796875,0.04730224609375
1772562839320014800,3.472014892578125,-0.99139404296875,-0.0142669677734375,0.04632568359375
1772562839330082000,3.48208203125,-0.9906005859375,-0.0158843994140625,0.047332763671875
1772562839340149000,3.49214892578125,-0.992218017578125,-0.0146331787109375,0.0488739013671875
1772562839350216000,3.5022158203125,-0.992919921875,-0.0151824951171875,0.047088623046875
1772562839360284000,3.512283935546875,-0.9919281005859375,-0.0153350830078125,0.0464630126953125
1772562839370350800,3.522350830078125,-0.9928741455078125,-0.013824462890625,0.0450897216796875
1772562839380417800,3.532417724609375,-0.9917755126953125,-0.0161895751953125,0.0457916259765625
1772562839390484700,3.542484619140625,-0.9913177490234375,-0.0141754150390625,0.046417236328125
1772562839400551700,3.5525517578125,-0.992156982421875,-0.0133056640625,0.047332763671875
1772562839410619600,3.56261962890625,-0.992462158203125,-0.0144195556640625,0.047576904296875
1772562839420686800,3.572686767578125,-0.992645263671875,-0.01593017578125,0.0464324951171875
1772562839430754000,3.582754150390625,-0.9920196533203125,-0.0154571533203125,0.0470733642578125
1772562839440821000,3.592821044921875,-0.992645263671875,-0.0155487060546875,0.04638671875
1772562839450888000,3.602887939453125,-0.99322509765625,-0.015045166015625,0.046295166015625
1772562839460956000,3.612955810546875,-0.9920501708984375,-0.015167236328125,0.0479583740234375
1772562839471022800,3.62302294921875,-0.9920196533203125,-0.0141448974609375,0.0464630126953125
1772562839481089800,3.63308984375,-0.9934844970703125,-0.0135955810546875,0.0471343994140625
1772562839491156700,3.64315673828125,-0.9919586181640625,-0.014556884765625,0.048095703125
1772562839501223700,3.6532236328125,-0.9914703369140625,-0.01507568359375,0.0478515625
1772562839511291600,3.663291748046875,-0.9933013916015625,-0.014892578125,0.04901123046875
1772562839521358800,3.67335888671875,-0.99188232421875,-0.0153045654296875,0.046112060546875
1772562839531426000,3.683426025390625,-0.991790771484375,-0.01495361328125,0.0466766357421875
1772562839541493000,3.693492919921875,-0.9924774169921875,-0.0145416259765625,0.04681396484375
1772562839551560000,3.703559814453125,-0.9925689697265625,-0.0143890380859375,0.0464630126953125
1772562839561628000,3.7136279296875,-0.9926910400390625,-0.0142974853515625,0.0475616455078125
1772562839571694800,3.72369482421875,-0.9916229248046875,-0.0150299072265625,0.0474395751953125
1772562839581761800,3.73376171875,-0.9909515380859375,-0.0151214599609375,0.0475616455078125
1772562839591828700,3.743828857421875,-0.9915618896484375,-0.0150604248046875,0.0475311279296875
1772562839601896000,3.75389599609375,-0.9922943115234375,-0.015472412109375,0.046875
1772562839611963600,3.763963623046875,-0.9916534423828125,-0.0154266357421875,0.0469818115234375
1772562839622030800,3.77403076171875,-0.9940032958984375,-0.0145721435546875,0.0493621826171875
1772562839632097800,3.784097900390625,-0.9937591552734375,-0.014251708984375,0.04803466796875
1772562839642165000,3.7941650390625,-0.991546630859375,-0.01397705078125,0.0476531982421875
1772562839652232000,3.80423193359375,-0.992523193359375,-0.0155029296875,0.0462799072265625
1772562839662300000,3.8142998046875,-0.9912261962890625,-0.015167236328125,0.0468597412109375
1772562839672366800,3.824366943359375,-0.991241455078125,-0.0150146484375,0.047332763671875
1772562839682433800,3.834433837890625,-0.9907684326171875,-0.0146942138671875,0.04608154296875
1772562839692500700,3.844500732421875,-0.9913482666015625,-0.0158843994140625,0.047393798828125
1772562839702568000,3.85456787109375,-0.9921417236328125,-0.0137176513671875,0.0472259521484375
1772562839712635600,3.8646357421875,-0.99169921875,-0.0149993896484375,0.046295166015625
1772562839722702800,3.874702880859375,-0.9925689697265625,-0.0172271728515625,0.0459747314453125
1772562839732769800,3.884769775390625,-0.9912109375,-0.0145111083984375,0.0458526611328125
1772562839742837000,3.8948369140625,-0.9915313720703125,-0.0147705078125,0.0478363037109375
1772562839752904000,3.904904052734375,-0.9925079345703125,-0.0154266357421875,0.0467987060546875
1772562839762972000,3.914971923828125,-0.9920501708984375,-0.0136260986328125,0.04827880859375
1772562839773038800,3.925038818359375,-0.99163818359375,-0.0141448974609375,0.044677734375
1772562839783105800,3.935105712890625,-0.9925537109375,-0.0149078369140625,0.047149658203125
1772562839793172700,3.9451728515625,-0.9938812255859375,-0.014984130859375,0.047119140625
1772562839803240000,3.955239990234375,-0.992584228515625,-0.0147247314453125,0.0449981689453125
1772562839813307600,3.9653076171875,-0.990753173828125,-0.0152130126953125,0.0467681884765625
1772562839823374800,3.975374755859375,-0.991668701171875,-0.0145416259765625,0.047607421875
1772562839833441800,3.98544189453125,-0.99176025390625,-0.0155487060546875,0.046783447265625
1772562839843509000,3.995509033203125,-0.991790771484375,-0.0164337158203125,0.046875
1772562839853576000,4.005575927734375,-0.9929962158203125,-0.015655517578125,0.0474090576171875
1772562839863644000,4.015643798828125,-0.9911956787109375,-0.0136871337890625,0.0466766357421875
1772562839873710800,4.0257109375,-0.992462158203125,-0.0151214599609375,0.0478973388671875
1772562839883777800,4.03577783203125,-0.9916534423828125,-0.0143890380859375,0.0472869873046875
1772562839893844700,4.0458447265625,-0.991790771484375,-0.0138702392578125,0.0472412109375
1772562839903912000,4.055911865234375,-0.9929351806640625,-0.0146942138671875,0.0466461181640625
1772562839913979600,4.065979736328125,-0.9915313720703125,-0.0147857666015625,0.0467376708984375
1772562839924046800,4.076046875,-0.991424560546875,-0.0146942138671875,0.047119140625
1772562839934113800,4.08611376953125,-0.991668701171875,-0.0147552490234375,0.0469970703125
1772562839944180700,4.0961806640625,-0.992950439453125,-0.015289306640625,0.0467529296875
1772562839954247200,4.1062470703125,-0.9915008544921875,-0.015716552734375,0.0471954345703125
1772562839964315100,4.116315185546875,-0.990997314453125,-0.0150604248046875,0.0467987060546875
1772562839974382000,4.126382080078125,-0.99261474609375,-0.0160064697265625,0.046875
1772562839984449000,4.136448974609375,-0.9921722412109375,-0.0159149169921875,0.0477447509765625
1772562839994516200,4.14651611328125,-0.9915008544921875,-0.0157470703125,0.0458221435546875
1772562840004583200,4.156583251953125,-0.990509033203125,-0.01544189453125,0.0465240478515625
1772562840014651400,4.1666513671875,-0.992034912109375,-0.01470947265625,0.0487060546875
1772562840024718300,4.17671826171875,-0.9912567138671875,-0.0149688720703125,0.0476226806640625
1772562840034785300,4.186785400390625,-0.991241455078125,-0.0147247314453125,0.0478057861328125
1772562840044852200,4.196852294921875,-0.99200439453125,-0.0147552490234375,0.0473175048828125
1772562840054919200,4.206919189453125,-0.9908294677734375,-0.0159149169921875,0.046844482421875
1772562840064987100,4.216987060546875,-0.990875244140625,-0.0150146484375,0.0460052490234375
1772562840075054000,4.22705419921875,-0.9915618896484375,-0.0143280029296875,0.045745849609375
1772562840085121300,4.237121337890625,-0.99237060546875,-0.014495849609375,0.04559326171875
1772562840095188200,4.247188232421875,-0.991912841796875,-0.01324462890625,0.047027587890625
1772562840105255200,4.257255126953125,-0.991180419921875,-0.015625,0.047271728515625
1772562840115323400,4.267323486328125,-0.9919586181640625,-0.01446533203125,0.0483551025390625
1772562840125390300,4.277390380859375,-0.9904327392578125,-0.014312744140625,0.0469207763671875
1772562840135457300,4.287457275390625,-0.9922332763671875,-0.0139312744140625,0.0472259521484375
1772562840145524200,4.297524169921875,-0.991729736328125,-0.014312744140625,0.047027587890625
1772562840155591200,4.307591064453125,-0.9912567138671875,-0.01422119140625,0.0470123291015625
1772562840165659100,4.3176591796875,-0.991180419921875,-0.01470947265625,0.0472412109375
1772562840175726000,4.32772607421875,-0.9920806884765625,-0.0157928466796875,0.0460662841796875
1772562840185793300,4.337793212890625,-0.9915008544921875,-0.0160369873046875,0.047119140625
1772562840195860200,4.347860107421875,-0.9921112060546875,-0.01458740234375,0.0472259521484375
1772562840205927200,4.35792724609375,-0.9921722412109375,-0.0136566162109375,0.0463409423828125
1772562840215995400,4.367995361328125,-0.9922637939453125,-0.0140533447265625,0.04638671875
1772562840226062300,4.378062255859375,-0.992919921875,-0.0157318115234375,0.046905517578125
1772562840236129300,4.38812939453125,-0.99249267578125,-0.0155487060546875,0.0479736328125
1772562840246196200,4.3981962890625,-0.99298095703125,-0.015472412109375,0.0471649169921875
1772562840256263200,4.40826318359375,-0.9927825927734375,-0.0151519775390625,0.046600341796875
1772562840266331100,4.4183310546875,-0.992156982421875,-0.0136871337890625,0.0473480224609375
1772562840276398000,4.428398193359375,-0.9921722412109375,-0.0137939453125,0.047332763671875
1772562840286465300,4.43846533203125,-0.99114990234375,-0.015625,0.0465850830078125
1772562840296532200,4.4485322265625,-0.9903106689453125,-0.0159149169921875,0.046722412109375
1772562840306599200,4.45859912109375,-0.989959716796875,-0.0154266357421875,0.0469818115234375
1772562840316667400,4.46866748046875,-0.9925384521484375,-0.01434326171875,0.046661376953125
1772562840326734300,4.478734375,-0.992095947265625,-0.0147705078125,0.0471649169921875
1772562840336801300,4.48880126953125,-0.990814208984375,-0.0146484375,0.0463409423828125
1772562840346868200,4.4988681640625,-0.99212646484375,-0.013214111328125,0.04718017578125
1772562840356935200,4.50893505859375,-0.9913787841796875,-0.014495849609375,0.0460357666015625
1772562840367003100,4.519003173828125,-0.990631103515625,-0.014251708984375,0.045013427734375
1772562840377070000,4.529070068359375,-0.9926910400390625,-0.0144500732421875,0.0472564697265625
1772562840387137300,4.53913720703125,-0.9908599853515625,-0.0157928466796875,0.046844482421875
1772562840397204200,4.549204345703125,-0.991241455078125,-0.015228271484375,0.0445709228515625
1772562840407271200,4.559271240234375,-0.991607666015625,-0.0158538818359375,0.0456085205078125
1772562840417339400,4.56933935546875,-0.991668701171875,-0.0155487060546875,0.047393798828125
1772562840427406300,4.57940625,-0.991302490234375,-0.014862060546875,0.045806884765625
1772562840437473300,4.589473388671875,-0.991119384765625,-0.0135040283203125,0.0463104248046875
1772562840447540200,4.599540283203125,-0.9913787841796875,-0.0147705078125,0.0484771728515625
1772562840457607200,4.609607177734375,-0.9913482666015625,-0.0132598876953125,0.0475616455078125
1772562840467675100,4.619675048828125,-0.9898834228515625,-0.0138397216796875,0.0461883544921875
1772562840477742000,4.6297421875,-0.9930419921875,-0.0159759521484375,0.0473785400390625
1772562840487809300,4.639809326171875,-0.9922943115234375,-0.0146942138671875,0.046356201171875
1772562840497876200,4.649876220703125,-0.993194580078125,-0.0121307373046875,0.0467071533203125
1772562840507943200,4.659943115234375,-0.991058349609375,-0.015777587890625,0.0480194091796875
1772562840518011400,4.670011474609375,-0.991180419921875,-0.0154266357421875,0.0478668212890625
1772562840528078300,4.680078369140625,-0.9911041259765625,-0.01416015625,0.0477142333984375
1772562840538145300,4.690145263671875,-0.9920806884765625,-0.0140838623046875,0.048095703125
1772562840548212200,4.700212158203125,-0.9920501708984375,-0.0161895751953125,0.0462188720703125
1772562840558279200,4.710279052734375,-0.9919281005859375,-0.014892578125,0.0457763671875
1772562840568347100,4.72034716796875,-0.9915618896484375,-0.0156097412109375,0.0482025146484375
1772562840578414000,4.7304140625,-0.99139404296875,-0.0155029296875,0.04766845703125
1772562840588481300,4.740481201171875,-0.99114990234375,-0.015625,0.047515869140625
1772562840598548200,4.75054833984375,-0.9932861328125,-0.0144805908203125,0.0468902587890625
1772562840608615200,4.760615234375,-0.9915313720703125,-0.014373779296875,0.0472564697265625
1772562840618683100,4.77068310546875,-0.9918212890625,-0.0147552490234375,0.0469512939453125
1772562840628750300,4.780750244140625,-0.9923095703125,-0.012939453125,0.0465087890625
1772562840638817300,4.7908173828125,-0.9908447265625,-0.01556396484375,0.0453948974609375
1772562840648884200,4.80088427734375,-0.99273681640625,-0.015045166015625,0.045654296875
1772562840658951200,4.810951171875,-0.991607666015625,-0.01397705078125,0.0468597412109375
1772562840669019100,4.82101904296875,-0.992919921875,-0.01458740234375,0.0450286865234375
1772562840679086300,4.83108642578125,-0.99139404296875,-0.01458740234375,0.04583740234375
1772562840689153300,4.8411533203125,-0.9924774169921875,-0.0164642333984375,0.047088623046875
1772562840699220200,4.85122021484375,-0.9903564453125,-0.014801025390625,0.04669189453125
1772562840709287200,4.861287109375,-0.991607666015625,-0.014923095703125,0.0485382080078125
1772562840719355100,4.871355224609375,-0.99249267578125,-0.013214111328125,0.0475921630859375
1772562840729422300,4.88142236328125,-0.991241455078125,-0.0138092041015625,0.046539306640625
1772562840739489300,4.8914892578125,-0.9935302734375,-0.014984130859375,0.0461273193359375
1772562840749556200,4.90155615234375,-0.9913177490234375,-0.016143798828125,0.045654296875
1772562840759623200,4.911623046875,-0.9908294677734375,-0.0140380859375,0.0473785400390625
1772562840769691100,4.921691162109375,-0.9922027587890625,-0.01513671875,0.0464019775390625
1772562840779758300,4.93175830078125,-0.992218017578125,-0.0157928466796875,0.0484161376953125
1772562840789825300,4.9418251953125,-0.9908294677734375,-0.014984130859375,0.04937744140625
1772562840799892200,4.951892333984375,-0.9916839599609375,-0.0159149169921875,0.048004150390625
1772562840809959200,4.961959228515625,-0.993408203125,-0.0157470703125,0.048828125
1772562840820027100,4.972027099609375,-0.9930877685546875,-0.014404296875,0.0479888916015625
1772562840830094000,4.982093994140625,-0.9925384521484375,-0.015655517578125,0.0468902587890625
1772562840840161300,4.992161376953125,-0.992584228515625,-0.0151824951171875,0.045928955078125
1772562840850228200,5.002228271484375,-0.9915618896484375,-0.015838623046875,0.045928955078125
1772562840860295200,5.012295166015625,-0.99090576171875,-0.0154266357421875,0.0468292236328125
1772562840870363100,5.022363037109375,-0.9904937744140625,-0.0143890380859375,0.0460662841796875
1772562840880430300,5.032430419921875,-0.99078369140625,-0.0158233642578125,0.0475006103515625
1772562840890497300,5.042497314453125,-0.9904327392578125,-0.01495361328125,0.0460968017578125
1772562840900564200,5.052564208984375,-0.9932708740234375,-0.0162353515625,0.04559326171875
1772562840910631200,5.062631103515625,-0.9918212890625,-0.01513671875,0.0477142333984375
1772562840920699100,5.07269921875,-0.99072265625,-0.0138702392578125,0.04705810546875
1772562840930766000,5.08276611328125,-0.991546630859375,-0.014923095703125,0.0483245849609375
1772562840940833300,5.092833251953125,-0.99139404296875,-0.0155792236328125,0.047210693359375
1772562840950900200,5.102900146484375,-0.99169921875,-0.01409912109375,0.046173095703125
1772562840960967400,5.112967529296875,-0.9914398193359375,-0.0151824951171875,0.047027587890625
1772562840971035100,5.12303515625,-0.9910430908203125,-0.0151824951171875,0.04718017578125
1772562840981102300,5.133102294921875,-0.992401123046875,-0.016326904296875,0.047454833984375
1772562840991169300,5.143169189453125,-0.9921112060546875,-0.0149993896484375,0.047332763671875
1772562841001236200,5.153236328125,-0.9929351806640625,-0.015960693359375,0.0467376708984375
1772562841011303200,5.16330322265625,-0.9916839599609375,-0.01385498046875,0.047027587890625
1772562841021371400,5.173371337890625,-0.992156982421875,-0.015228271484375,0.047454833984375
1772562841031438300,5.183438232421875,-0.99127197265625,-0.0145263671875,0.0477447509765625
1772562841041505300,5.19350537109375,-0.9912109375,-0.015106201171875,0.0465850830078125
1772562841051572200,5.203572265625,-0.9932098388671875,-0.0143280029296875,0.045166015625
1772562841061639400,5.213639404296875,-0.9918212890625,-0.01519775390625,0.04742431640625
1772562841071707100,5.22370703125,-0.99169921875,-0.0157928466796875,0.047882080078125
1772562841081774300,5.2337744140625,-0.99237060546875,-0.0137176513671875,0.047210693359375
1772562841091841300,5.24384130859375,-0.9916839599609375,-0.016082763671875,0.0468597412109375
1772562841101908200,5.253908203125,-0.9907989501953125,-0.0138092041015625,0.046600341796875
1772562841111975200,5.26397509765625,-0.9925994873046875,-0.0146942138671875,0.046630859375
1772562841122043400,5.27404345703125,-0.9919586181640625,-0.0153961181640625,0.046112060546875
1772562841132110300,5.2841103515625,-0.9920806884765625,-0.0149383544921875,0.0469818115234375
1772562841142177300,5.29417724609375,-0.9916229248046875,-0.01641845703125,0.0462188720703125
1772562841152244200,5.304244140625,-0.9915313720703125,-0.015625,0.047119140625
1772562841162311400,5.3143115234375,-0.9928131103515625,-0.0152130126953125,0.0463409423828125
1772562841172379100,5.324379150390625,-0.9918975830078125,-0.0142364501953125,0.046844482421875
1772562841182446300,5.3344462890625,-0.99169921875,-0.01531982421875,0.0478363037109375
1772562841192513300,5.34451318359375,-0.991455078125,-0.0164642333984375,0.04754638671875
1772562841202580200,5.354580322265625,-0.9920806884765625,-0.0149383544921875,0.04608154296875
1772562841212647200,5.364647216796875,-0.99273681640625,-0.0150299072265625,0.049346923828125
1772562841222715100,5.374715087890625,-0.9909820556640625,-0.015228271484375,0.046417236328125
1772562841232782300,5.3847822265625,-0.992034912109375,-0.013397216796875,0.0466766357421875
1772562841242849300,5.394849365234375,-0.99371337890625,-0.0146331787109375,0.0481719970703125
1772562841252916200,5.404916259765625,-0.99200439453125,-0.01336669921875,0.047088623046875
1772562841262983400,5.4149833984375,-0.990936279296875,-0.0143585205078125,0.047821044921875
1772562841273051100,5.425051025390625,-0.9927520751953125,-0.015869140625,0.046661376953125
1772562841283118300,5.435118408203125,-0.9912109375,-0.0149688720703125,0.0462493896484375
1772562841293185300,5.445185302734375,-0.9919891357421875,-0.015350341796875,0.04681396484375
1772562841303252200,5.455252197265625,-0.992279052734375,-0.014862060546875,0.046295166015625
1772562841313319200,5.465319091796875,-0.9913330078125,-0.015167236328125,0.0460968017578125
1772562841323387100,5.47538720703125,-0.991912841796875,-0.0156402587890625,0.0477447509765625
1772562841333454300,5.485454345703125,-0.992095947265625,-0.0156097412109375,0.0465087890625
1772562841343521300,5.495521240234375,-0.99053955078125,-0.0139007568359375,0.045440673828125
1772562841353588200,5.505588134765625,-0.9921722412109375,-0.015106201171875,0.04736328125
1772562841363655400,5.515655517578125,-0.993560791015625,-0.0148468017578125,0.0472564697265625
1772562841373723400,5.525723388671875,-0.991912841796875,-0.0148468017578125,0.0474395751953125
1772562841383790300,5.535790283203125,-0.9914398193359375,-0.0160980224609375,0.04669189453125
1772562841393857300,5.545857177734375,-0.991943359375,-0.016754150390625,0.046600341796875
1772562841403924200,5.55592431640625,-0.992523193359375,-0.0151214599609375,0.04705810546875
1772562841413991200,5.5659912109375,-0.9927215576171875,-0.0142669677734375,0.0464324951171875
1772562841424059100,5.57605908203125,-0.9912872314453125,-0.0147247314453125,0.047454833984375
1772562841434126000,5.5861259765625,-0.9910430908203125,-0.0155181884765625,0.0471038818359375
1772562841444193300,5.596193359375,-0.9904022216796875,-0.01409912109375,0.0457611083984375
1772562841454260200,5.60626025390625,-0.9924468994140625,-0.014862060546875,0.04705810546875
1772562841464327400,5.616327392578125,-0.993194580078125,-0.0149383544921875,0.04669189453125
1772562841474395400,5.6263955078125,-0.99139404296875,-0.015838623046875,0.0467071533203125
1772562841484462300,5.63646240234375,-0.9915008544921875,-0.015289306640625,0.0474395751953125
1772562841494529300,5.646529296875,-0.9913330078125,-0.0152740478515625,0.047882080078125
1772562841504596200,5.65659619140625,-0.9909210205078125,-0.015106201171875,0.0485382080078125
1772562841514663200,5.6666630859375,-0.9924163818359375,-0.015655517578125,0.046234130859375
1772562841524731100,5.676731201171875,-0.991455078125,-0.0164794921875,0.0453033447265625
1772562841534798000,5.686798095703125,-0.991729736328125,-0.01580810546875,0.047119140625
1772562841544865300,5.696865234375,-0.9921112060546875,-0.0148773193359375,0.046875
1772562841554932500,5.706932373046875,-0.99163818359375,-0.0146484375,0.045867919921875
1772562841564999400,5.71699951171875,-0.9914093017578125,-0.014739990234375,0.045623779296875
1772562841575067400,5.7270673828125,-0.992218017578125,-0.015655517578125,0.046966552734375
1772562841585134300,5.73713427734375,-0.9908447265625,-0.0157928466796875,0.0466766357421875
1772562841595201300,5.747201171875,-0.99267578125,-0.0152740478515625,0.046722412109375
1772562841605268200,5.757268310546875,-0.9911346435546875,-0.013824462890625,0.04754638671875
1772562841615335200,5.767335205078125,-0.9918975830078125,-0.0149383544921875,0.0479278564453125
1772562841625403100,5.777403076171875,-0.990478515625,-0.0165557861328125,0.0457305908203125
1772562841635470000,5.787469970703125,-0.9918670654296875,-0.01495361328125,0.0480804443359375
1772562841645537000,5.797537109375,-0.9921722412109375,-0.0142059326171875,0.0467529296875
1772562841655605200,5.807605224609375,-0.9922943115234375,-0.0160369873046875,0.04742431640625
1772562841665672200,5.817672119140625,-0.992645263671875,-0.015472412109375,0.046783447265625
1772562841675739400,5.827739501953125,-0.99139404296875,-0.015594482421875,0.0471954345703125
1772562841685807000,5.83780712890625,-0.9923095703125,-0.0137939453125,0.0465240478515625
1772562841695874300,5.847874267578125,-0.992462158203125,-0.014556884765625,0.0474700927734375
1772562841705941200,5.857941162109375,-0.9915618896484375,-0.0136871337890625,0.046356201171875
1772562841716008200,5.86800830078125,-0.99163818359375,-0.0146942138671875,0.04736328125
1772562841726075100,5.8780751953125,-0.9911956787109375,-0.0135040283203125,0.0468902587890625
1772562841736143400,5.888143310546875,-0.99249267578125,-0.0134429931640625,0.046417236328125
1772562841746210300,5.898210205078125,-0.99163818359375,-0.0154266357421875,0.0466766357421875
1772562841756277200,5.90827734375,-0.9911041259765625,-0.0157928466796875,0.047698974609375
1772562841766344200,5.91834423828125,-0.992523193359375,-0.0146026611328125,0.0477294921875
1772562841776411400,5.928411376953125,-0.992340087890625,-0.014434814453125,0.047760009765625
1772562841786479400,5.938479248046875,-0.9924468994140625,-0.015472412109375,0.0460968017578125
1772562841796546300,5.94854638671875,-0.9912567138671875,-0.01483154296875,0.046875
1772562841806613200,5.95861328125,-0.9914093017578125,-0.015411376953125,0.0477294921875
1772562841816680200,5.96868017578125,-0.9935302734375,-0.01556396484375,0.0477142333984375
1772562841826747100,5.9787470703125,-0.992645263671875,-0.0139923095703125,0.0467529296875
1772562841836815400,5.9888154296875,-0.99151611328125,-0.0159454345703125,0.04791259765625
1772562841846882300,5.99888232421875,-0.991912841796875,-0.014678955078125,0.0472564697265625
1772562841856949200,6.00894921875,-0.993133544921875,-0.01385498046875,0.047393798828125
1772562841867016200,6.01901611328125,-0.9922332763671875,-0.01409912109375,0.0471954345703125
1772562841877083400,6.02908349609375,-0.991455078125,-0.0136871337890625,0.046600341796875
1772562841887151400,6.0391513671875,-0.99151611328125,-0.0146331787109375,0.04547119140625
1772562841897218300,6.04921826171875,-0.992034912109375,-0.0143280029296875,0.0482940673828125
1772562841907285200,6.05928515625,-0.992889404296875,-0.013671875,0.0484619140625
1772562841917352200,6.069352294921875,-0.9918365478515625,-0.014373779296875,0.0465545654296875
1772562841927419100,6.079419189453125,-0.9912567138671875,-0.0149688720703125,0.0460357666015625
1772562841937487400,6.0894873046875,-0.99200439453125,-0.0134124755859375,0.047271728515625
1772562841947554300,6.09955419921875,-0.9915924072265625,-0.0150146484375,0.0479278564453125
1772562841957620700,6.109620849609375,-0.991851806640625,-0.016082763671875,0.0484161376953125
1772562841967688000,6.11968798828125,-0.99114990234375,-0.0136566162109375,0.0472869873046875
1772562841977755000,6.1297548828125,-0.990936279296875,-0.0133819580078125,0.048583984375
1772562841987822800,6.13982275390625,-0.9907379150390625,-0.015228271484375,0.047607421875
1772562841997890000,6.14989013671875,-0.9911651611328125,-0.0158233642578125,0.046173095703125
1772562842007957000,6.15995703125,-0.9921112060546875,-0.015167236328125,0.0471954345703125
1772562842018024000,6.17002392578125,-0.991943359375,-0.0138092041015625,0.04736328125
1772562842028091000,6.1800908203125,-0.99151611328125,-0.0142974853515625,0.0465850830078125
1772562842038158800,6.190158935546875,-0.9917755126953125,-0.0155029296875,0.047607421875
1772562842048225800,6.200225830078125,-0.992645263671875,-0.01495361328125,0.0453033447265625
1772562842058293000,6.21029296875,-0.993377685546875,-0.0142669677734375,0.04571533203125
1772562842068360000,6.22035986328125,-0.9919586181640625,-0.0157012939453125,0.04840087890625
1772562842078427000,6.230427001953125,-0.9918212890625,-0.013092041015625,0.0482635498046875
1772562842088494800,6.240494873046875,-0.9918975830078125,-0.0147857666015625,0.0468597412109375
1772562842098561800,6.250561767578125,-0.99267578125,-0.0155792236328125,0.0460968017578125
1772562842108629000,6.26062890625,-0.9911041259765625,-0.01544189453125,0.046112060546875
1772562842118696000,6.270696044921875,-0.9923553466796875,-0.0150604248046875,0.046295166015625
1772562842128763000,6.280762939453125,-0.991973876953125,-0.0155181884765625,0.047943115234375
1772562842138830800,6.290830810546875,-0.992156982421875,-0.0153656005859375,0.0465545654296875
1772562842148897800,6.300897705078125,-0.9912567138671875,-0.016143798828125,0.0467987060546875
1772562842158965000,6.310965087890625,-0.9920654296875,-0.0134735107421875,0.048187255859375
1772562842169032000,6.321031982421875,-0.990875244140625,-0.0142059326171875,0.04815673828125
1772562842179099000,6.331098876953125,-0.9909515380859375,-0.0150909423828125,0.047943115234375
1772562842189166800,6.341166748046875,-0.993438720703125,-0.01513671875,0.04583740234375
1772562842199233800,6.35123388671875,-0.9905548095703125,-0.0156097412109375,0.04754638671875
1772562842209301000,6.361301025390625,-0.99249267578125,-0.01593017578125,0.0454559326171875
1772562842219368000,6.371367919921875,-0.9934844970703125,-0.014373779296875,0.0469207763671875
1772562842229435000,6.381434814453125,-0.9929656982421875,-0.0136871337890625,0.0463409423828125
1772562842239502800,6.3915029296875,-0.9930877685546875,-0.0150909423828125,0.0467376708984375
1772562842249569800,6.40156982421875,-0.991180419921875,-0.013946533203125,0.0466461181640625
1772562842259637000,6.411636962890625,-0.990386962890625,-0.014923095703125,0.0472564697265625
1772562842269704000,6.421703857421875,-0.9917449951171875,-0.0145416259765625,0.04693603515625
1772562842279771000,6.43177099609375,-0.99029541015625,-0.0151519775390625,0.048248291015625
1772562842289838800,6.4418388671875,-0.9916839599609375,-0.0158233642578125,0.0490264892578125
1772562842299905800,6.45190576171875,-0.991912841796875,-0.0139007568359375,0.0476837158203125
1772562842309972700,6.46197265625,-0.9919586181640625,-0.014801025390625,0.047088623046875
1772562842320040000,6.4720400390625,-0.9899139404296875,-0.0150909423828125,0.047332763671875
1772562842330107000,6.48210693359375,-0.9909820556640625,-0.01513671875,0.047576904296875
1772562842340174800,6.4921748046875,-0.9930877685546875,-0.0149688720703125,0.047454833984375
1772562842350241800,6.50224169921875,-0.99298095703125,-0.0157012939453125,0.0486602783203125
1772562842360309000,6.51230908203125,-0.9926300048828125,-0.013336181640625,0.04638671875
1772562842370376000,6.5223759765625,-0.9930419921875,-0.01531982421875,0.045989990234375
1772562842380443000,6.53244287109375,-0.9908905029296875,-0.01483154296875,0.0474090576171875
1772562842390510800,6.5425107421875,-0.9917144775390625,-0.014251708984375,0.0480804443359375
1772562842400577800,6.552577880859375,-0.9917755126953125,-0.013763427734375,0.04656982421875
1772562842410644700,6.562644775390625,-0.9923095703125,-0.0142822265625,0.0468597412109375
1772562842420712000,6.5727119140625,-0.99041748046875,-0.015167236328125,0.0471343994140625
1772562842430779000,6.58277880859375,-0.99041748046875,-0.0137939453125,0.047454833984375
1772562842440846800,6.592846923828125,-0.9923248291015625,-0.0139007568359375,0.047576904296875
1772562842450913800,6.602913818359375,-0.991302490234375,-0.0155181884765625,0.0472564697265625
1772562842460981000,6.61298095703125,-0.99176025390625,-0.015472412109375,0.0468597412109375
1772562842471048000,6.6230478515625,-0.9935302734375,-0.0138092041015625,0.0482025146484375
1772562842481115000,6.633114990234375,-0.991973876953125,-0.0142364501953125,0.0468292236328125
1772562842491182800,6.643182861328125,-0.9903106689453125,-0.0142364501953125,0.0478057861328125
1772562842501249800,6.653249755859375,-0.9917755126953125,-0.01507568359375,0.0457916259765625
1772562842511316700,6.663316650390625,-0.9915771484375,-0.015106201171875,0.04736328125
1772562842521383700,6.6733837890625,-0.991943359375,-0.014862060546875,0.0477142333984375
1772562842531451000,6.683450927734375,-0.9915924072265625,-0.01513671875,0.0464935302734375
1772562842541518800,6.693518798828125,-0.9915008544921875,-0.01495361328125,0.0466461181640625
1772562842551585800,6.703585693359375,-0.9915008544921875,-0.013763427734375,0.0470123291015625
1772562842561653000,6.713653076171875,-0.9929351806640625,-0.0144195556640625,0.0474090576171875
1772562842571720000,6.723719970703125,-0.99169921875,-0.0172119140625,0.0482330322265625
1772562842581787000,6.733786865234375,-0.99151611328125,-0.0150299072265625,0.0483856201171875
1772562842591854800,6.743854736328125,-0.99102783203125,-0.0157318115234375,0.04815673828125
1772562842601921800,6.753921875,-0.9898529052734375,-0.01531982421875,0.0479278564453125
1772562842611988700,6.76398876953125,-0.991729736328125,-0.0158843994140625,0.0479888916015625
1772562842622055700,6.7740556640625,-0.9914703369140625,-0.013824462890625,0.0469970703125
1772562842632123000,6.784122802734375,-0.99237060546875,-0.0145111083984375,0.04620361328125
1772562842642190800,6.79419091796875,-0.9901580810546875,-0.0141143798828125,0.0485992431640625
1772562842652257800,6.8042578125,-0.991973876953125,-0.014129638671875,0.0457000732421875
1772562842662325000,6.814324951171875,-0.9933929443359375,-0.0150146484375,0.0456390380859375
1772562842672392000,6.824391845703125,-0.9911346435546875,-0.01409912109375,0.047943115234375
1772562842682459000,6.834458984375,-0.9921875,-0.0145721435546875,0.0474853515625
1772562842692526800,6.84452685546875,-0.9918212890625,-0.0153961181640625,0.046844482421875
1772562842702593800,6.85459375,-0.992156982421875,-0.0159454345703125,0.0455169677734375
1772562842712660700,6.86466064453125,-0.992095947265625,-0.0148162841796875,0.0476531982421875
1772562842722727700,6.874727783203125,-0.99072265625,-0.0139312744140625,0.0478973388671875
1772562842732795000,6.884794921875,-0.9918060302734375,-0.0140533447265625,0.0461578369140625
1772562842742862800,6.89486279296875,-0.9910736083984375,-0.0157928466796875,0.0478668212890625
1772562842752930000,6.904929931640625,-0.991851806640625,-0.01446533203125,0.047576904296875
1772562842762997000,6.9149970703125,-0.990478515625,-0.015777587890625,0.0487060546875
1772562842773064000,6.92506396484375,-0.9904937744140625,-0.01434326171875,0.0467681884765625
1772562842783131000,6.935130859375,-0.9922943115234375,-0.015533447265625,0.0460968017578125
1772562842793198800,6.94519873046875,-0.991485595703125,-0.015472412109375,0.04638671875
1772562842803265800,6.955265869140625,-0.9925994873046875,-0.015838623046875,0.0458831787109375
1772562842813332700,6.965332763671875,-0.9922637939453125,-0.014251708984375,0.046844482421875
1772562842823399700,6.975399658203125,-0.9903564453125,-0.0150299072265625,0.0465545654296875
1772562842833467000,6.985466796875,-0.99139404296875,-0.01513671875,0.046295166015625
1772562842843534800,6.995534912109375,-0.992401123046875,-0.0155487060546875,0.0460662841796875
1772562842853602000,7.00560205078125,-0.9925384521484375,-0.0152130126953125,0.0465087890625
1772562842863669000,7.0156689453125,-0.992218017578125,-0.015228271484375,0.0475006103515625
1772562842873736000,7.02573583984375,-0.991607666015625,-0.0143280029296875,0.0468902587890625
1772562842883803000,7.035802978515625,-0.9915924072265625,-0.0143890380859375,0.045074462890625
1772562842893870800,7.045870849609375,-0.99188232421875,-0.0151824951171875,0.046875
1772562842903937800,7.055937744140625,-0.9923858642578125,-0.0146636962890625,0.046905517578125
1772562842914004700,7.066004638671875,-0.9915924072265625,-0.0150909423828125,0.047882080078125
1772562842924071700,7.07607177734375,-0.991790771484375,-0.015167236328125,0.0473480224609375
1772562842934139000,7.086138916015625,-0.992340087890625,-0.015625,0.0465545654296875
1772562842944206800,7.096206787109375,-0.991607666015625,-0.013885498046875,0.046295166015625
1772562842954274300,7.1062744140625,-0.9923095703125,-0.0155792236328125,0.04669189453125
1772562842964341200,7.11634130859375,-0.99200439453125,-0.0158233642578125,0.047698974609375
1772562842974408200,7.126408203125,-0.9917144775390625,-0.0139617919921875,0.0474700927734375
1772562842984475100,7.13647509765625,-0.9933319091796875,-0.015167236328125,0.048187255859375
1772562842994543400,7.14654345703125,-0.9926910400390625,-0.0156402587890625,0.04791259765625
1772562843004610300,7.1566103515625,-0.992584228515625,-0.015655517578125,0.0469512939453125
1772562843014677200,7.16667724609375,-0.9926910400390625,-0.0140380859375,0.0478668212890625
1772562843024744200,7.176744140625,-0.9925994873046875,-0.01446533203125,0.046844482421875
1772562843034811100,7.18681103515625,-0.99224853515625,-0.0150299072265625,0.0468597412109375
1772562843044879000,7.196879150390625,-0.993011474609375,-0.015045166015625,0.04815673828125
1772562843054946300,7.2069462890625,-0.991363525390625,-0.014801025390625,0.046173095703125
1772562843065013200,7.21701318359375,-0.99163818359375,-0.0145263671875,0.045867919921875
1772562843075080200,7.227080078125,-0.99127197265625,-0.0154571533203125,0.0473785400390625
1772562843085147100,7.237147216796875,-0.9931182861328125,-0.016326904296875,0.04937744140625
1772562843095215400,7.24721533203125,-0.992919921875,-0.0151214599609375,0.0471038818359375
1772562843105282300,7.2572822265625,-0.9920654296875,-0.0146942138671875,0.047943115234375
1772562843115349200,7.267349365234375,-0.9903106689453125,-0.015167236328125,0.0478515625
1772562843125416200,7.277416259765625,-0.9928131103515625,-0.01568603515625,0.0480804443359375
1772562843135483400,7.2874833984375,-0.9922943115234375,-0.0150909423828125,0.0478363037109375
1772562843145551000,7.297551025390625,-0.9925994873046875,-0.015106201171875,0.0463409423828125
1772562843155618300,7.307618408203125,-0.9897613525390625,-0.0133209228515625,0.0487213134765625
1772562843165685200,7.317685302734375,-0.98944091796875,-0.0145263671875,0.0473785400390625
1772562843175752200,7.327752197265625,-0.9920654296875,-0.0150909423828125,0.048095703125
1772562843185820200,7.337820068359375,-0.9925079345703125,-0.013702392578125,0.0457611083984375
1772562843195887400,7.347887451171875,-0.992095947265625,-0.01507568359375,0.0474395751953125
1772562843205954300,7.357954345703125,-0.99029541015625,-0.0134735107421875,0.0471649169921875
1772562843216021200,7.368021240234375,-0.99176025390625,-0.0136871337890625,0.0475616455078125
1772562843226088200,7.378088134765625,-0.9925537109375,-0.0151214599609375,0.0457763671875
1772562843236156200,7.38815625,-0.9904937744140625,-0.013641357421875,0.046875
1772562843246223000,7.39822314453125,-0.9910888671875,-0.01446533203125,0.0483856201171875
1772562843256290300,7.408290283203125,-0.9934539794921875,-0.0142974853515625,0.04608154296875
1772562843266357200,7.418357177734375,-0.991851806640625,-0.01666259765625,0.046539306640625
1772562843276424200,7.428424072265625,-0.9915618896484375,-0.0141448974609375,0.047515869140625
1772562843286492200,7.4384921875,-0.9921112060546875,-0.0163421630859375,0.0481414794921875
1772562843296559400,7.448559326171875,-0.9928741455078125,-0.0151519775390625,0.0475311279296875
1772562843306626300,7.458626220703125,-0.9923858642578125,-0.0143280029296875,0.0464630126953125
1772562843316693200,7.468693359375,-0.991912841796875,-0.014312744140625,0.046173095703125
1772562843326760200,7.47876025390625,-0.99237060546875,-0.01373291015625,0.0476531982421875
1772562843336828200,7.488828125,-0.99285888671875,-0.014617919921875,0.0489044189453125
1772562843346895000,7.49889501953125,-0.9914093017578125,-0.0162811279296875,0.046478271484375
1772562843356962300,7.50896240234375,-0.9915618896484375,-0.015899658203125,0.047210693359375
1772562843367029200,7.519029296875,-0.9911956787109375,-0.015533447265625,0.0466461181640625
1772562843377096200,7.52909619140625,-0.990692138671875,-0.0144195556640625,0.0457916259765625
1772562843387164200,7.5391640625,-0.991302490234375,-0.0147857666015625,0.046356201171875
1772562843397231000,7.549231201171875,-0.9924774169921875,-0.01519775390625,0.04693603515625
1772562843407298300,7.55929833984375,-0.9918975830078125,-0.0156097412109375,0.04669189453125
1772562843417365200,7.569365234375,-0.99139404296875,-0.0155792236328125,0.0465850830078125
1772562843427432200,7.57943212890625,-0.9926300048828125,-0.0145263671875,0.047332763671875
1772562843437500200,7.589500244140625,-0.9924163818359375,-0.016082763671875,0.0475616455078125
1772562843447567000,7.599567138671875,-0.990478515625,-0.014556884765625,0.0466766357421875
1772562843457634300,7.60963427734375,-0.9913177490234375,-0.014068603515625,0.048583984375
1772562843467701200,7.619701171875,-0.991180419921875,-0.0141754150390625,0.0484466552734375
1772562843477768200,7.629768310546875,-0.99066162109375,-0.0161590576171875,0.0475006103515625
1772562843487836200,7.639836181640625,-0.9913177490234375,-0.0149078369140625,0.047637939453125
1772562843497903000,7.649903076171875,-0.9913482666015625,-0.0146942138671875,0.0460357666015625
1772562843507970300,7.65997021484375,-0.9923858642578125,-0.0151214599609375,0.0479278564453125
1772562843518037200,7.670037353515625,-0.99334716796875,-0.01446533203125,0.046142578125
1772562843528104200,7.680104248046875,-0.99139404296875,-0.014923095703125,0.0469207763671875
1772562843538172200,7.690172119140625,-0.99249267578125,-0.01593017578125,0.0488128662109375
1772562843548239000,7.700239013671875,-0.990936279296875,-0.0153961181640625,0.048065185546875
1772562843558306300,7.710306396484375,-0.9920806884765625,-0.014190673828125,0.0472564697265625
1772562843568373200,7.720373291015625,-0.991729736328125,-0.0152435302734375,0.0465850830078125
1772562843578440200,7.730440185546875,-0.9927520751953125,-0.015106201171875,0.046356201171875
1772562843588508200,7.740508056640625,-0.991546630859375,-0.0138702392578125,0.0461883544921875
1772562843598575000,7.7505751953125,-0.9915924072265625,-0.015350341796875,0.0481109619140625
1772562843608642000,7.76064208984375,-0.9914093017578125,-0.0156707763671875,0.0467681884765625
1772562843618709200,7.770709228515625,-0.9919281005859375,-0.0157623291015625,0.0471343994140625
1772562843628776200,7.780776123046875,-0.992889404296875,-0.014923095703125,0.0463409423828125
1772562843638844200,7.79084423828125,-0.9941558837890625,-0.0147552490234375,0.0472259521484375
1772562843648911400,7.800911376953125,-0.9925689697265625,-0.015045166015625,0.046295166015625
1772562843658978300,7.810978271484375,-0.9890899658203125,-0.014495849609375,0.0460052490234375
1772562843669045200,7.821045166015625,-0.99188232421875,-0.015411376953125,0.0478057861328125
1772562843679112200,7.8311123046875,-0.99237060546875,-0.0147705078125,0.046112060546875
1772562843689180200,7.84118017578125,-0.991790771484375,-0.014373779296875,0.0471954345703125
1772562843699247000,7.8512470703125,-0.99237060546875,-0.014892578125,0.0478668212890625
1772562843709314000,7.86131396484375,-0.9920501708984375,-0.0150146484375,0.047576904296875
1772562843719381200,7.87138134765625,-0.99273681640625,-0.014495849609375,0.0484771728515625
1772562843729448200,7.8814482421875,-0.9916534423828125,-0.0145263671875,0.04791259765625
1772562843739516200,7.89151611328125,-0.9916229248046875,-0.0144195556640625,0.0451812744140625
1772562843749583400,7.901583251953125,-0.990875244140625,-0.0157928466796875,0.0458526611328125
1772562843759650300,7.911650390625,-0.99169921875,-0.01666259765625,0.0487518310546875
1772562843769717200,7.92171728515625,-0.99237060546875,-0.0130462646484375,0.0469970703125
1772562843779784200,7.9317841796875,-0.99078369140625,-0.0149078369140625,0.04632568359375
1772562843789852200,7.94185205078125,-0.9922943115234375,-0.0138397216796875,0.04736328125
1772562843799919000,7.951919189453125,-0.991912841796875,-0.015869140625,0.046142578125
1772562843809986000,7.961986083984375,-0.992340087890625,-0.0162353515625,0.0478363037109375
1772562843820053000,7.972052978515625,-0.99261474609375,-0.0148773193359375,0.04583740234375
1772562843830120400,7.982120361328125,-0.99212646484375,-0.0163726806640625,0.0455474853515625
1772562843840188200,7.992188232421875,-0.991058349609375,-0.0159149169921875,0.04766845703125
1772562843850255400,8.00225537109375,-0.991668701171875,-0.0148162841796875,0.04815673828125
1772562843860322300,8.012322265625,-0.992156982421875,-0.0155029296875,0.0488128662109375
1772562843870389200,8.02238916015625,-0.99163818359375,-0.0167083740234375,0.0475311279296875
1772562843880456200,8.032456298828125,-0.9915771484375,-0.0149078369140625,0.046600341796875
1772562843890524200,8.042524169921874,-0.9938201904296875,-0.0128936767578125,0.0444183349609375
1772562843900591000,8.052591064453125,-0.9910736083984375,-0.0139617919921875,0.0450286865234375
1772562843910658000,8.062657958984374,-0.99078369140625,-0.0155029296875,0.0454864501953125
1772562843920725000,8.07272509765625,-0.9917449951171875,-0.01568603515625,0.0480804443359375
1772562843930792400,8.08279248046875,-0.991485595703125,-0.014404296875,0.048370361328125
1772562843940860200,8.092860107421876,-0.9929656982421875,-0.015289306640625,0.0483551025390625
1772562843950927400,8.10292724609375,-0.991943359375,-0.0142974853515625,0.0461273193359375
1772562843960994600,8.11299462890625,-0.9901275634765625,-0.014617919921875,0.046539306640625
1772562843971061500,8.1230615234375,-0.993499755859375,-0.0157928466796875,0.047332763671875
1772562843981128400,8.13312841796875,-0.989990234375,-0.0156402587890625,0.0452880859375
1772562843991196400,8.143196533203126,-0.9914703369140625,-0.015594482421875,0.044189453125
1772562844001263400,8.153263427734375,-0.991973876953125,-0.0149383544921875,0.0469818115234375
1772562844011330300,8.163330322265624,-0.992523193359375,-0.013885498046875,0.045623779296875
1772562844021397200,8.173397216796875,-0.9912567138671875,-0.0146026611328125,0.044647216796875
1772562844031464400,8.18346435546875,-0.990264892578125,-0.015167236328125,0.0464630126953125
1772562844041532200,8.1935322265625,-0.99212646484375,-0.014129638671875,0.0455780029296875
1772562844051599400,8.203599365234375,-0.99151611328125,-0.01470947265625,0.04656982421875
1772562844061666600,8.21366650390625,-0.9915008544921875,-0.01580810546875,0.0483245849609375
1772562844071733500,8.2237333984375,-0.9924163818359375,-0.01495361328125,0.045928955078125
1772562844081800400,8.233800537109374,-0.992645263671875,-0.014892578125,0.046661376953125
1772562844091868400,8.243868408203125,-0.991455078125,-0.014984130859375,0.0474090576171875
1772562844101935400,8.253935302734375,-0.992828369140625,-0.0150299072265625,0.0471649169921875
1772562844112002300,8.264002197265626,-0.9918670654296875,-0.0153045654296875,0.0472412109375
1772562844122069200,8.2740693359375,-0.9913787841796875,-0.014617919921875,0.04669189453125
1772562844132136400,8.284136474609374,-0.992156982421875,-0.014068603515625,0.048248291015625
1772562844142204200,8.2942041015625,-0.9930572509765625,-0.0147857666015625,0.0486297607421875
1772562844152271400,8.304271240234375,-0.991485595703125,-0.015411376953125,0.04766845703125
1772562844162338600,8.314338623046876,-0.992340087890625,-0.015716552734375,0.0456695556640625
1772562844172405500,8.324405517578125,-0.9903564453125,-0.0136566162109375,0.045318603515625
1772562844182472400,8.334472412109376,-0.99176025390625,-0.015411376953125,0.04638671875
1772562844192540400,8.34454052734375,-0.992706298828125,-0.0149688720703125,0.0477142333984375
1772562844202607400,8.354607421875,-0.990814208984375,-0.015655517578125,0.045745849609375
1772562844212674300,8.36467431640625,-0.9902496337890625,-0.0154876708984375,0.046905517578125
1772562844222741200,8.3747412109375,-0.99249267578125,-0.0136260986328125,0.04632568359375
1772562844232808400,8.384808349609376,-0.9922943115234375,-0.0153656005859375,0.0464324951171875
1772562844242876400,8.39487646484375,-0.9922027587890625,-0.014129638671875,0.0471954345703125
1772562844252943400,8.404943359375,-0.991973876953125,-0.014312744140625,0.0469970703125
1772562844263010300,8.41501025390625,-0.9911041259765625,-0.0164337158203125,0.0469970703125
1772562844273077500,8.425077392578125,-0.9918212890625,-0.0169525146484375,0.0486907958984375
1772562844283144400,8.43514453125,-0.9925079345703125,-0.0132904052734375,0.0489959716796875
1772562844293212400,8.44521240234375,-0.9927825927734375,-0.01556396484375,0.0484619140625
1772562844303279400,8.455279296875,-0.9920196533203125,-0.015167236328125,0.046295166015625
1772562844313346300,8.46534619140625,-0.9931640625,-0.0145111083984375,0.0467681884765625
1772562844323413200,8.475413330078124,-0.9942169189453125,-0.01531982421875,0.047210693359375
1772562844333480400,8.48548046875,-0.991790771484375,-0.0155792236328125,0.048858642578125
1772562844343548400,8.49554833984375,-0.9927215576171875,-0.0139617919921875,0.048553466796875
1772562844353615400,8.505615478515624,-0.991241455078125,-0.01513671875,0.0482330322265625
1772562844363682300,8.515682373046875,-0.991363525390625,-0.0140533447265625,0.0495452880859375
1772562844373749500,8.52574951171875,-0.99127197265625,-0.0159149169921875,0.0469512939453125
1772562844383816400,8.53581640625,-0.9919586181640625,-0.01312255859375,0.045867919921875
1772562844393884400,8.545884521484375,-0.9910430908203125,-0.015411376953125,0.0477447509765625
1772562844403951400,8.555951416015626,-0.9919281005859375,-0.01507568359375,0.0462799072265625
1772562844414018300,8.566018310546875,-0.992095947265625,-0.0128631591796875,0.0463714599609375
1772562844424085500,8.57608544921875,-0.9910125732421875,-0.0144195556640625,0.04742431640625
1772562844434153200,8.5861533203125,-0.9915924072265625,-0.0138092041015625,0.0470733642578125
1772562844444220400,8.596220458984375,-0.9921112060546875,-0.0143585205078125,0.049896240234375
1772562844454287400,8.606287353515626,-0.9926605224609375,-0.0150299072265625,0.0473480224609375
1772562844464354300,8.616354248046875,-0.9923248291015625,-0.0148162841796875,0.0478668212890625
1772562844474421200,8.626421142578126,-0.99285888671875,-0.014312744140625,0.0468902587890625
1772562844484488400,8.636488525390625,-0.9921722412109375,-0.0147552490234375,0.0474395751953125
1772562844494556400,8.646556396484375,-0.99346923828125,-0.013275146484375,0.048431396484375
1772562844504623400,8.656623291015626,-0.9926605224609375,-0.0149078369140625,0.047210693359375
1772562844514690300,8.666690185546875,-0.991058349609375,-0.0143280029296875,0.046783447265625
1772562844524757500,8.676757568359376,-0.9921417236328125,-0.015106201171875,0.0474395751953125
1772562844534824400,8.686824462890625,-0.9915771484375,-0.015411376953125,0.04669189453125
1772562844544892400,8.696892333984374,-0.992767333984375,-0.013885498046875,0.0455474853515625
1772562844554959400,8.70695947265625,-0.9911651611328125,-0.0145721435546875,0.0462188720703125
1772562844565026300,8.7170263671875,-0.9923553466796875,-0.015838623046875,0.0481719970703125
1772562844575093200,8.72709326171875,-0.99188232421875,-0.015045166015625,0.0474395751953125
1772562844585160400,8.737160400390625,-0.9909820556640625,-0.0146331787109375,0.046295166015625
1772562844595228400,8.747228515625,-0.9919281005859375,-0.0146026611328125,0.0477142333984375
1772562844605295400,8.75729541015625,-0.9923858642578125,-0.0146942138671875,0.04754638671875
1772562844615362300,8.7673623046875,-0.9917755126953125,-0.0156097412109375,0.0459136962890625
1772562844625429500,8.777429443359376,-0.99127197265625,-0.0146942138671875,0.04742431640625
1772562844635496400,8.787496337890625,-0.9919891357421875,-0.015167236328125,0.04730224609375
1772562844645564400,8.797564453125,-0.99212646484375,-0.0138702392578125,0.0467529296875
1772562844655631400,8.80763134765625,-0.9912261962890625,-0.014404296875,0.0475006103515625
1772562844665698300,8.8176982421875,-0.992401123046875,-0.0135040283203125,0.04632568359375
1772562844675765200,8.82776513671875,-0.9916229248046875,-0.01470947265625,0.0487060546875
1772562844685832400,8.83783251953125,-0.9913330078125,-0.014617919921875,0.0460052490234375
1772562844695900400,8.847900390625,-0.9926300048828125,-0.0131988525390625,0.0479888916015625
1772562844705967400,8.85796728515625,-0.9918212890625,-0.015472412109375,0.0472564697265625
1772562844716034300,8.868034423828124,-0.99102783203125,-0.0141143798828125,0.0447998046875
1772562844726101500,8.8781015625,-0.9916839599609375,-0.014434814453125,0.0464630126953125
1772562844736169200,8.888169189453125,-0.990936279296875,-0.01422119140625,0.04620361328125
1772562844746236400,8.898236328125,-0.9908599853515625,-0.01544189453125,0.0467681884765625
1772562844756303400,8.908303466796875,-0.99114990234375,-0.0159149169921875,0.046661376953125
1772562844766370300,8.918370361328124,-0.9937744140625,-0.016387939453125,0.04791259765625
1772562844776437200,8.928437255859375,-0.99139404296875,-0.0152740478515625,0.0462799072265625
1772562844786504200,8.938504150390624,-0.992523193359375,-0.01446533203125,0.0445404052734375
1772562844796572400,8.948572509765626,-0.991607666015625,-0.0145721435546875,0.0475616455078125
1772562844806639400,8.958639404296875,-0.9916229248046875,-0.014862060546875,0.0478973388671875
1772562844816706300,8.968706298828126,-0.991180419921875,-0.013824462890625,0.04669189453125
1772562844826773500,8.9787734375,-0.9919891357421875,-0.0166015625,0.0469818115234375
1772562844836840400,8.98884033203125,-0.9931182861328125,-0.0137176513671875,0.046295166015625
1772562844846908400,8.998908447265626,-0.992431640625,-0.013153076171875,0.04815673828125
1772562844856975400,9.008975341796875,-0.9921112060546875,-0.0148468017578125,0.047393798828125
1772562844867042300,9.019042236328126,-0.9906768798828125,-0.0155792236328125,0.0466461181640625
1772562844877109200,9.029109130859375,-0.991058349609375,-0.0148468017578125,0.045989990234375
1772562844887176200,9.03917626953125,-0.9925689697265625,-0.01513671875,0.0485382080078125
1772562844897244400,9.049244384765625,-0.9916839599609375,-0.014495849609375,0.0481109619140625
1772562844907311400,9.059311279296875,-0.9920654296875,-0.0132293701171875,0.0478057861328125
1772562844917378300,9.06937841796875,-0.991119384765625,-0.0143585205078125,0.0468597412109375
1772562844927445500,9.079445556640625,-0.9908599853515625,-0.016082763671875,0.0456695556640625
1772562844937512400,9.089512451171874,-0.991943359375,-0.0164031982421875,0.0469512939453125
1772562844947580400,9.099580322265625,-0.99169921875,-0.0158538818359375,0.0476226806640625
1772562844957646600,9.109646484375,-0.9929962158203125,-0.0155181884765625,0.0477752685546875
1772562844967713500,9.119713623046875,-0.9904022216796875,-0.017181396484375,0.0484161376953125
1772562844977780500,9.129780517578125,-0.9920196533203125,-0.0134429931640625,0.04766845703125
1772562844987848400,9.139848388671876,-0.9925689697265625,-0.014068603515625,0.04638671875
1772562844997915400,9.149915283203125,-0.992919921875,-0.0157623291015625,0.0459747314453125
1772562845007982600,9.159982666015624,-0.99237060546875,-0.0157470703125,0.0454254150390625
1772562845018049500,9.170049560546875,-0.9925079345703125,-0.014190673828125,0.047332763671875
1772562845028116700,9.18011669921875,-0.9913177490234375,-0.0144500732421875,0.0462188720703125
1772562845038184700,9.190184814453126,-0.992523193359375,-0.01531982421875,0.0456085205078125
1772562845048251600,9.200251708984375,-0.992401123046875,-0.014923095703125,0.0469207763671875
1772562845058318600,9.210318603515624,-0.9905548095703125,-0.0144500732421875,0.047760009765625
1772562845068385500,9.220385498046875,-0.9915008544921875,-0.013916015625,0.0465545654296875
1772562845078452500,9.230452392578124,-0.9905242919921875,-0.0136871337890625,0.04791259765625
1772562845088520400,9.2405205078125,-0.99041748046875,-0.0150299072265625,0.048126220703125
1772562845098587400,9.25058740234375,-0.9901275634765625,-0.015411376953125,0.047454833984375
1772562845108654600,9.260654541015626,-0.992279052734375,-0.01416015625,0.047454833984375
1772562845118721500,9.270721435546875,-0.9918212890625,-0.01580810546875,0.046844482421875
1772562845128788500,9.28078857421875,-0.99072265625,-0.01641845703125,0.0464935302734375
1772562845138855700,9.290855712890625,-0.992462158203125,-0.0158233642578125,0.047088623046875
1772562845148923600,9.300923583984375,-0.9927215576171875,-0.0147857666015625,0.0457000732421875
1772562845158990600,9.310990478515626,-0.9924163818359375,-0.0146026611328125,0.045806884765625
1772562845169057500,9.3210576171875,-0.992279052734375,-0.016082763671875,0.046783447265625
1772562845179124500,9.33112451171875,-0.992767333984375,-0.01544189453125,0.0483856201171875
1772562845189192400,9.3411923828125,-0.99176025390625,-0.0156097412109375,0.046478271484375
1772562845199259400,9.35125927734375,-0.9919891357421875,-0.0150909423828125,0.0475006103515625
1772562845209326600,9.36132666015625,-0.9911041259765625,-0.0158843994140625,0.04693603515625
1772562845219393500,9.3713935546875,-0.9905548095703125,-0.0155792236328125,0.0466766357421875
1772562845229460500,9.38146044921875,-0.99176025390625,-0.0138092041015625,0.0474853515625
1772562845239528700,9.39152880859375,-0.9924163818359375,-0.0148468017578125,0.04705810546875
1772562845249595600,9.401595703125,-0.990753173828125,-0.0149688720703125,0.0462493896484375
1772562845259662600,9.41166259765625,-0.991424560546875,-0.014984130859375,0.046539306640625
1772562845269728800,9.421728759765625,-0.990966796875,-0.01593017578125,0.04803466796875
1772562845279796500,9.43179638671875,-0.992279052734375,-0.0144195556640625,0.0468902587890625
1772562845289863700,9.44186376953125,-0.990936279296875,-0.0139923095703125,0.046234130859375
1772562845299930600,9.4519306640625,-0.9920806884765625,-0.0147857666015625,0.0467529296875
1772562845309997600,9.46199755859375,-0.99261474609375,-0.0147552490234375,0.0475616455078125
1772562845320064500,9.472064453125,-0.99176025390625,-0.013641357421875,0.0464630126953125
1772562845330132500,9.482132568359376,-0.9931640625,-0.0139923095703125,0.0465240478515625
1772562845340199400,9.492199462890625,-0.9914093017578125,-0.015411376953125,0.048675537109375
1772562845350266600,9.5022666015625,-0.9918060302734375,-0.0153350830078125,0.0474700927734375
1772562845360333600,9.51233349609375,-0.9926910400390625,-0.01605224609375,0.0472869873046875
1772562845370400800,9.52240087890625,-0.992279052734375,-0.0162200927734375,0.0458221435546875
1772562845380468500,9.532468505859375,-0.9904022216796875,-0.0146484375,0.046600341796875
1772562845390535700,9.54253564453125,-0.9917144775390625,-0.01470947265625,0.0481414794921875
1772562845400602600,9.5526025390625,-0.990814208984375,-0.0158843994140625,0.0464630126953125
1772562845410669600,9.562669677734375,-0.9914093017578125,-0.015899658203125,0.04815673828125
1772562845420736500,9.572736572265624,-0.9921417236328125,-0.015838623046875,0.0474090576171875
1772562845430803500,9.582803466796875,-0.992034912109375,-0.016815185546875,0.0473175048828125
1772562845440871400,9.592871337890625,-0.991729736328125,-0.0139923095703125,0.046112060546875
1772562845450938600,9.602938720703126,-0.9922943115234375,-0.0159759521484375,0.0475006103515625
1772562845461005600,9.613005615234375,-0.99072265625,-0.01531982421875,0.047515869140625
1772562845471072800,9.62307275390625,-0.9907073974609375,-0.015838623046875,0.0480194091796875
1772562845481139700,9.6331396484375,-0.9908447265625,-0.0157928466796875,0.04766845703125
1772562845491207700,9.643207763671874,-0.9922027587890625,-0.0146026611328125,0.0473175048828125
1772562845501274600,9.653274658203125,-0.9921722412109375,-0.014434814453125,0.0472869873046875
1772562845511341600,9.663341552734375,-0.9920501708984375,-0.01318359375,0.04864501953125
1772562845521408500,9.673408447265626,-0.991455078125,-0.015625,0.047088623046875
1772562845531476500,9.6834765625,-0.9925537109375,-0.01605224609375,0.0467681884765625
1772562845541543400,9.69354345703125,-0.9921417236328125,-0.0150299072265625,0.0466156005859375
1772562845551610600,9.703610595703125,-0.9920501708984375,-0.01483154296875,0.0466156005859375
1772562845561677600,9.713677490234375,-0.9935302734375,-0.0154571533203125,0.047882080078125
1772562845571744800,9.723744873046876,-0.9912109375,-0.013824462890625,0.0474700927734375
1772562845581811700,9.733811767578125,-0.9901580810546875,-0.01446533203125,0.0476837158203125
1772562845591879700,9.743879638671874,-0.9906005859375,-0.0156097412109375,0.0467987060546875
1772562845601946600,9.753946533203125,-0.9915313720703125,-0.0157012939453125,0.048858642578125
1772562845612013600,9.764013671875,-0.9914703369140625,-0.016448974609375,0.046661376953125
1772562845622080500,9.77408056640625,-0.9910430908203125,-0.013427734375,0.0462799072265625
1772562845632147500,9.7841474609375,-0.990966796875,-0.0147552490234375,0.0471954345703125
1772562845642215400,9.79421533203125,-0.9911956787109375,-0.0138397216796875,0.0464019775390625
1772562845652283600,9.80428369140625,-0.9897308349609375,-0.01483154296875,0.0466156005859375
1772562845662350600,9.8143505859375,-0.9920654296875,-0.01470947265625,0.048248291015625
1772562845672418600,9.82441845703125,-0.990264892578125,-0.0142059326171875,0.0473480224609375
1772562845682485500,9.834485595703125,-0.990966796875,-0.0153045654296875,0.0474090576171875
1772562845692552400,9.844552490234374,-0.9919891357421875,-0.014801025390625,0.046600341796875
1772562845702619600,9.85461962890625,-0.99188232421875,-0.0145416259765625,0.0474090576171875
1772562845712686600,9.8646865234375,-0.989959716796875,-0.01531982421875,0.047210693359375
1772562845722754600,9.874754638671876,-0.992218017578125,-0.0151824951171875,0.0460357666015625
1772562845732821800,9.88482177734375,-0.991943359375,-0.015838623046875,0.0472412109375
1772562845742888700,9.894888671875,-0.9920196533203125,-0.015289306640625,0.0455169677734375
1772562845752955600,9.90495556640625,-0.99114990234375,-0.01495361328125,0.0465087890625
1772562845763022600,9.915022705078124,-0.99114990234375,-0.015869140625,0.0458526611328125
1772562845773089500,9.925089599609375,-0.9905242919921875,-0.014862060546875,0.047271728515625
1772562845783157500,9.935157470703125,-0.9930572509765625,-0.0157928466796875,0.0482177734375
1772562845793224400,9.945224365234376,-0.9925537109375,-0.015380859375,0.044586181640625
1772562845803291600,9.955291748046875,-0.993255615234375,-0.01617431640625,0.0461578369140625
1772562845813358600,9.965358642578124,-0.9930877685546875,-0.0156097412109375,0.046051025390625
1772562845823425500,9.975425537109375,-0.9922943115234375,-0.0148468017578125,0.046478271484375
1772562845833493500,9.985493408203125,-0.9902496337890625,-0.0158233642578125,0.0457305908203125
1772562845843560700,9.995560791015626,-0.9917755126953125,-0.01507568359375,0.0482025146484375
1772562845853627600,10.005627685546875,-0.990875244140625,-0.014434814453125,0.0454254150390625
1772562845863694600,10.015694580078126,-0.991424560546875,-0.0145111083984375,0.047027587890625
1772562845873761500,10.025761474609375,-0.9926605224609375,-0.01434326171875,0.0467071533203125
1772562845883829500,10.03582958984375,-0.991363525390625,-0.014801025390625,0.0478515625
1772562845893896700,10.045896728515626,-0.992431640625,-0.0147857666015625,0.0457000732421875
1772562845903963600,10.055963623046875,-0.9919281005859375,-0.0145111083984375,0.0468597412109375
1772562845914030600,10.066030517578126,-0.992279052734375,-0.013946533203125,0.0488128662109375
1772562845924097500,10.07609765625,-0.99224853515625,-0.0164642333984375,0.046112060546875
1772562845934165500,10.08616552734375,-0.9908905029296875,-0.0149383544921875,0.0475311279296875
1772562845944232700,10.096232666015625,-0.9912109375,-0.01531982421875,0.0458221435546875
1772562845954299600,10.106299560546875,-0.99114990234375,-0.0147857666015625,0.047454833984375
1772562845964367000,10.1163671875,-0.990692138671875,-0.014190673828125,0.047332763671875
1772562845974434000,10.12643408203125,-0.990447998046875,-0.0141143798828125,0.0465240478515625
1772562845984502300,10.136502197265624,-0.9911346435546875,-0.0152740478515625,0.0494384765625
1772562845994569200,10.1465693359375,-0.9923858642578125,-0.0155792236328125,0.0474700927734375
1772562846004636200,10.15663623046875,-0.98992919921875,-0.014892578125,0.046600341796875
1772562846014703400,10.166703369140626,-0.992584228515625,-0.01470947265625,0.0476226806640625
1772562846024770300,10.176770263671875,-0.9904327392578125,-0.0153045654296875,0.047821044921875
1772562846034838300,10.18683837890625,-0.9916839599609375,-0.0159912109375,0.0455780029296875
1772562846044905200,10.1969052734375,-0.9926300048828125,-0.0136260986328125,0.0467987060546875
1772562846054972200,10.20697216796875,-0.99200439453125,-0.013336181640625,0.0476226806640625
1772562846065039000,10.2170390625,-0.992431640625,-0.01519775390625,0.0485687255859375
1772562846075106000,10.22710595703125,-0.9922027587890625,-0.01416015625,0.0464019775390625
1772562846085174300,10.23717431640625,-0.991424560546875,-0.0159454345703125,0.04620361328125
1772562846095241200,10.2472412109375,-0.99078369140625,-0.0152435302734375,0.047821044921875
1772562846105308400,10.257308349609374,-0.992584228515625,-0.0149078369140625,0.0462799072265625
1772562846115375400,10.267375244140625,-0.9911956787109375,-0.0135498046875,0.04736328125
1772562846125442300,10.2774423828125,-0.9923095703125,-0.0150604248046875,0.0468292236328125
1772562846135510300,10.28751025390625,-0.9923553466796875,-0.0151214599609375,0.0461273193359375
1772562846145577200,10.2975771484375,-0.9922332763671875,-0.014373779296875,0.04693603515625
1772562846155644200,10.30764404296875,-0.9924163818359375,-0.0152740478515625,0.0480804443359375
1772562846165711000,10.317711181640625,-0.992706298828125,-0.0137786865234375,0.0478973388671875
1772562846175778000,10.327778076171874,-0.99237060546875,-0.0149993896484375,0.0469818115234375
1772562846185846300,10.33784619140625,-0.9915771484375,-0.014556884765625,0.046600341796875
1772562846195913200,10.347913330078125,-0.9900665283203125,-0.0143585205078125,0.046630859375
1772562846205980400,10.35798046875,-0.9922027587890625,-0.015655517578125,0.04656982421875
1772562846216047400,10.36804736328125,-0.990936279296875,-0.01580810546875,0.0484466552734375
1772562846226114300,10.3781142578125,-0.99005126953125,-0.0155792236328125,0.0472869873046875
1772562846236182300,10.388182373046876,-0.992340087890625,-0.0135040283203125,0.047088623046875
1772562846246249200,10.398249267578125,-0.9915924072265625,-0.01531982421875,0.046783447265625
1772562846256316200,10.408316162109376,-0.9925689697265625,-0.0135650634765625,0.047882080078125
1772562846266383000,10.418383056640625,-0.991790771484375,-0.0138397216796875,0.045257568359375
1772562846276450000,10.428449951171874,-0.990692138671875,-0.01458740234375,0.045257568359375
1772562846286518000,10.43851806640625,-0.9920654296875,-0.0157470703125,0.046844482421875
1772562846296585200,10.448585205078125,-0.992401123046875,-0.01519775390625,0.04730224609375
1772562846306652400,10.45865234375,-0.99224853515625,-0.01483154296875,0.046295166015625
1772562846316719400,10.46871923828125,-0.9935150146484375,-0.0153656005859375,0.0462646484375
1772562846326786300,10.478786376953124,-0.9910888671875,-0.0153961181640625,0.0472259521484375
1772562846336854300,10.488854248046875,-0.9915008544921875,-0.0139312744140625,0.04693603515625
1772562846346921200,10.498921142578125,-0.9931182861328125,-0.0128936767578125,0.0466766357421875
1772562846356988200,10.50898828125,-0.99224853515625,-0.01348876953125,0.0456085205078125
1772562846367055000,10.51905517578125,-0.990814208984375,-0.014556884765625,0.0496673583984375
1772562846377122000,10.5291220703125,-0.9927215576171875,-0.0143890380859375,0.04705810546875
1772562846387190000,10.53918994140625,-0.992156982421875,-0.0157012939453125,0.0457916259765625
1772562846397257200,10.54925732421875,-0.992034912109375,-0.014984130859375,0.0461578369140625
1772562846407324400,10.559324462890626,-0.991302490234375,-0.0164947509765625,0.046844482421875
1772562846417391400,10.569391357421875,-0.99127197265625,-0.014495849609375,0.0466766357421875
1772562846427459300,10.579459228515624,-0.9913330078125,-0.015045166015625,0.0472412109375
1772562846437526300,10.5895263671875,-0.99188232421875,-0.0142059326171875,0.0473480224609375
1772562846447593200,10.59959326171875,-0.9921112060546875,-0.0146484375,0.046295166015625
1772562846457660200,10.60966015625,-0.9926605224609375,-0.013946533203125,0.047698974609375
1772562846467727000,10.61972705078125,-0.992706298828125,-0.0139312744140625,0.0468902587890625
1772562846477794000,10.6297939453125,-0.9933929443359375,-0.0142822265625,0.0451812744140625
1772562846487862000,10.639862060546875,-0.9936981201171875,-0.013916015625,0.0478363037109375
1772562846497929200,10.64992919921875,-0.9928741455078125,-0.01446533203125,0.047119140625
1772562846507996400,10.659996337890625,-0.9898834228515625,-0.0146942138671875,0.046478271484375
1772562846518063400,10.6700634765625,-0.9916229248046875,-0.0146026611328125,0.04681396484375
1772562846528130300,10.68013037109375,-0.991668701171875,-0.014739990234375,0.0479888916015625
1772562846538198300,10.6901982421875,-0.991119384765625,-0.0138702392578125,0.0464019775390625
1772562846548265200,10.70026513671875,-0.991485595703125,-0.0147247314453125,0.0464935302734375
1772562846558332200,10.710332275390625,-0.99200439453125,-0.014404296875,0.0465850830078125
1772562846568399000,10.720399169921874,-0.992401123046875,-0.014739990234375,0.0462493896484375
1772562846578467000,10.730467041015626,-0.99224853515625,-0.0146026611328125,0.04583740234375
1772562846588534000,10.740533935546875,-0.9911956787109375,-0.0146026611328125,0.046905517578125
1772562846598601200,10.750601318359376,-0.9925994873046875,-0.014312744140625,0.04742431640625
1772562846608668400,10.76066845703125,-0.9914093017578125,-0.0159149169921875,0.04693603515625
1772562846618735400,10.7707353515625,-0.9923858642578125,-0.01568603515625,0.04656982421875
1772562846628803300,10.78080322265625,-0.99041748046875,-0.014923095703125,0.0485382080078125
1772562846638870300,10.790870361328125,-0.9910430908203125,-0.0155029296875,0.0475311279296875
1772562846648937200,10.800937255859376,-0.993072509765625,-0.01409912109375,0.04754638671875
1772562846659004200,10.811004150390625,-0.9909820556640625,-0.0140228271484375,0.0475311279296875
1772562846669071000,10.821071044921876,-0.991851806640625,-0.014862060546875,0.0439910888671875
1772562846679139000,10.83113916015625,-0.990875244140625,-0.013885498046875,0.047607421875
1772562846689206000,10.8412060546875,-0.9924163818359375,-0.01361083984375,0.0484771728515625
1772562846699273200,10.851273193359376,-0.9931182861328125,-0.01385498046875,0.0475616455078125
1772562846709340200,10.861340087890625,-0.992095947265625,-0.013427734375,0.046875
1772562846719407400,10.871407470703126,-0.9921112060546875,-0.014129638671875,0.0465850830078125
1772562846729475300,10.881475341796875,-0.991119384765625,-0.0149078369140625,0.047393798828125
1772562846739542300,10.891542236328124,-0.9911041259765625,-0.01416015625,0.047119140625
1772562846749609200,10.901609130859375,-0.991424560546875,-0.015289306640625,0.0449981689453125
1772562846759676200,10.91167626953125,-0.99169921875,-0.0149993896484375,0.0471038818359375
1772562846769743000,10.9217431640625,-0.99249267578125,-0.0145111083984375,0.0476226806640625
1772562846779811000,10.93181103515625,-0.9915313720703125,-0.0147552490234375,0.0466766357421875
1772562846789878000,10.9418779296875,-0.992218017578125,-0.0163421630859375,0.0472564697265625
1772562846799945200,10.9519453125,-0.9915771484375,-0.0152435302734375,0.0473175048828125
1772562846810012200,10.96201220703125,-0.99237060546875,-0.015594482421875,0.0466461181640625
1772562846820079400,10.972079345703126,-0.9923553466796875,-0.0140838623046875,0.04681396484375
1772562846830147300,10.982147216796875,-0.991790771484375,-0.0148162841796875,0.04803466796875
1772562846840214300,10.99221435546875,-0.992156982421875,-0.0137786865234375,0.045928955078125
1772562846850281200,11.00228125,-0.9924468994140625,-0.0157012939453125,0.047760009765625
1772562846860348200,11.01234814453125,-0.9918670654296875,-0.01531982421875,0.0449371337890625
1772562846870415000,11.0224150390625,-0.9930572509765625,-0.0158843994140625,0.0475311279296875
1772562846880483000,11.032483154296875,-0.99127197265625,-0.0149688720703125,0.0471649169921875
1772562846890550000,11.042550048828126,-0.9927215576171875,-0.01507568359375,0.0462493896484375
1772562846900617200,11.0526171875,-0.9914398193359375,-0.0147705078125,0.045654296875
1772562846910684200,11.06268408203125,-0.9906463623046875,-0.0134735107421875,0.047088623046875
1772562846920751400,11.07275146484375,-0.9922637939453125,-0.012786865234375,0.04644775390625
1772562846930819300,11.0828193359375,-0.9920654296875,-0.014312744140625,0.0478668212890625
1772562846940886300,11.09288623046875,-0.99261474609375,-0.014892578125,0.047393798828125
1772562846950953200,11.102953125,-0.9927520751953125,-0.0145263671875,0.0473785400390625
1772562846961019600,11.11301953125,-0.9927215576171875,-0.0159454345703125,0.04669189453125
1772562846971086800,11.1230869140625,-0.9911956787109375,-0.014984130859375,0.0475311279296875
1772562846981154600,11.133154541015625,-0.9909820556640625,-0.014068603515625,0.0482940673828125
1772562846991221800,11.1432216796875,-0.9916534423828125,-0.0148773193359375,0.0479736328125
1772562847001288700,11.153288818359375,-0.99267578125,-0.01544189453125,0.0486907958984375
1772562847011355600,11.163355712890626,-0.99188232421875,-0.0153656005859375,0.046630859375
1772562847021422600,11.173422607421875,-0.99261474609375,-0.0147552490234375,0.04833984375
1772562847031490800,11.18349072265625,-0.99310302734375,-0.0142059326171875,0.0466461181640625
1772562847041557800,11.193557861328125,-0.9918975830078125,-0.013946533203125,0.047943115234375
1772562847051624700,11.203624755859375,-0.993072509765625,-0.015106201171875,0.047515869140625
1772562847061691600,11.213691650390626,-0.9916534423828125,-0.0151824951171875,0.0478363037109375
1772562847071758800,11.2237587890625,-0.9913482666015625,-0.014495849609375,0.047454833984375
1772562847081826600,11.23382666015625,-0.990631103515625,-0.0141448974609375,0.047088623046875
1772562847091893800,11.243893798828125,-0.9920501708984375,-0.0144500732421875,0.0478668212890625
1772562847101960700,11.253960693359375,-0.9922332763671875,-0.014068603515625,0.047149658203125
1772562847112027600,11.264027587890626,-0.9917449951171875,-0.0153350830078125,0.0473785400390625
1772562847122094600,11.274094482421875,-0.9918060302734375,-0.0156707763671875,0.0469207763671875
1772562847132162800,11.284162841796874,-0.991546630859375,-0.0140380859375,0.0469512939453125
1772562847142229800,11.294229736328125,-0.990814208984375,-0.01458740234375,0.047515869140625
1772562847152296700,11.304296630859374,-0.992034912109375,-0.01531982421875,0.048004150390625
1772562847162363600,11.31436376953125,-0.9908447265625,-0.0149688720703125,0.0460205078125
1772562847172430800,11.324430908203125,-0.991729736328125,-0.0149993896484375,0.0487823486328125
1772562847182498800,11.334498779296876,-0.9926300048828125,-0.0153656005859375,0.04791259765625
1772562847192565800,11.344565673828125,-0.991973876953125,-0.015380859375,0.046234130859375
1772562847202632700,11.3546328125,-0.9923095703125,-0.01513671875,0.0475311279296875
1772562847212699600,11.36469970703125,-0.990447998046875,-0.015472412109375,0.046844482421875
1772562847222766600,11.3747666015625,-0.9928741455078125,-0.015777587890625,0.046905517578125
1772562847232834800,11.384834716796876,-0.9916229248046875,-0.0164642333984375,0.0466461181640625
1772562847242901800,11.39490185546875,-0.9916839599609375,-0.013702392578125,0.0467987060546875
1772562847252968700,11.40496875,-0.99285888671875,-0.01519775390625,0.0457000732421875
1772562847263035600,11.41503564453125,-0.990814208984375,-0.016143798828125,0.0467071533203125
1772562847273102800,11.425102783203124,-0.9908447265625,-0.0143890380859375,0.0465545654296875
1772562847283170800,11.4351708984375,-0.9920501708984375,-0.0126800537109375,0.046173095703125
1772562847293237800,11.44523779296875,-0.99285888671875,-0.0138702392578125,0.046539306640625
1772562847303304700,11.4553046875,-0.991912841796875,-0.0151519775390625,0.046966552734375
1772562847313371600,11.46537158203125,-0.9902801513671875,-0.016357421875,0.0460968017578125
1772562847323438600,11.4754384765625,-0.9914703369140625,-0.013885498046875,0.046356201171875
1772562847333506800,11.4855068359375,-0.9915618896484375,-0.014617919921875,0.0453643798828125
1772562847343573800,11.49557373046875,-0.991607666015625,-0.014739990234375,0.0466156005859375
1772562847353640700,11.505640625,-0.992584228515625,-0.0144195556640625,0.048309326171875
1772562847363708000,11.5157080078125,-0.9914398193359375,-0.0147705078125,0.0458831787109375
1772562847373774800,11.52577490234375,-0.9911346435546875,-0.016326904296875,0.0460662841796875
1772562847383842800,11.5358427734375,-0.991790771484375,-0.0145111083984375,0.047393798828125
1772562847393909800,11.54590966796875,-0.99249267578125,-0.0131072998046875,0.045745849609375
1772562847403976700,11.555976806640626,-0.991943359375,-0.014862060546875,0.0471343994140625
1772562847414043600,11.566043701171875,-0.9920806884765625,-0.014373779296875,0.0461273193359375
1772562847424110600,11.576110595703126,-0.9917755126953125,-0.01385498046875,0.0475616455078125
1772562847434178800,11.5861787109375,-0.9921417236328125,-0.0149078369140625,0.0478057861328125
1772562847444245800,11.596245849609375,-0.990753173828125,-0.0152740478515625,0.0449676513671875
1772562847454312700,11.606312744140626,-0.9916839599609375,-0.0158843994140625,0.04766845703125
1772562847464380000,11.6163798828125,-0.99114990234375,-0.0137481689453125,0.0456390380859375
1772562847474446800,11.62644677734375,-0.992034912109375,-0.0149688720703125,0.0467376708984375
1772562847484514800,11.636514892578125,-0.9915008544921875,-0.015777587890625,0.0468597412109375
1772562847494581800,11.646581787109374,-0.9905242919921875,-0.014190673828125,0.0467987060546875
1772562847504648700,11.656648681640625,-0.99139404296875,-0.0145416259765625,0.0468597412109375
1772562847514715600,11.666715576171875,-0.9917449951171875,-0.01495361328125,0.0459747314453125
1772562847524782600,11.676782470703126,-0.9918670654296875,-0.0145263671875,0.0460205078125
1772562847534850600,11.6868505859375,-0.9916229248046875,-0.015472412109375,0.04583740234375
1772562847544917800,11.696917724609374,-0.9917449951171875,-0.0117950439453125,0.046630859375
1772562847554984700,11.706984619140625,-0.9915924072265625,-0.0128936767578125,0.046875
1772562847565052000,11.717052001953125,-0.9919586181640625,-0.0148773193359375,0.0474090576171875
1772562847575118800,11.727118896484376,-0.9920196533203125,-0.0164031982421875,0.0467071533203125
1772562847585186800,11.737186767578125,-0.9927978515625,-0.0162506103515625,0.047332763671875
1772562847595253800,11.747253662109374,-0.99139404296875,-0.0144500732421875,0.0477447509765625
1772562847605320700,11.75732080078125,-0.9908447265625,-0.0139312744140625,0.0456695556640625
1772562847615387600,11.7673876953125,-0.992523193359375,-0.01483154296875,0.0466156005859375
1772562847625454600,11.77745458984375,-0.99169921875,-0.0142059326171875,0.0465545654296875
1772562847635522600,11.7875224609375,-0.992645263671875,-0.013824462890625,0.0471954345703125
1772562847645589800,11.79758984375,-0.99114990234375,-0.0150146484375,0.047149658203125
1772562847655656700,11.80765673828125,-0.991241455078125,-0.01434326171875,0.0462188720703125
1772562847665724000,11.817723876953124,-0.991455078125,-0.0144195556640625,0.0470123291015625
1772562847675790800,11.827790771484375,-0.993499755859375,-0.0147552490234375,0.0481414794921875
1772562847685858800,11.83785888671875,-0.9915771484375,-0.01434326171875,0.0475311279296875
1772562847695925800,11.84792578125,-0.990753173828125,-0.01385498046875,0.04620361328125
1772562847705992700,11.85799267578125,-0.9926300048828125,-0.0135650634765625,0.0457305908203125
1772562847716059600,11.8680595703125,-0.992279052734375,-0.0149993896484375,0.04742431640625
1772562847726126600,11.878126708984375,-0.9911346435546875,-0.0146942138671875,0.0463104248046875
1772562847736194600,11.888194580078125,-0.993194580078125,-0.0152130126953125,0.04791259765625
1772562847746261500,11.898261474609376,-0.991790771484375,-0.0157623291015625,0.0447540283203125
1772562847756328700,11.90832861328125,-0.9929962158203125,-0.0148162841796875,0.04638671875
1772562847766396000,11.91839599609375,-0.991912841796875,-0.014984130859375,0.0476531982421875
1772562847776462800,11.928462890625,-0.99224853515625,-0.01458740234375,0.047271728515625
1772562847786530800,11.93853076171875,-0.991607666015625,-0.0149078369140625,0.048095703125
1772562847796597800,11.94859765625,-0.9915924072265625,-0.0146026611328125,0.048004150390625
1772562847806664700,11.958664794921875,-0.995147705078125,-0.014434814453125,0.0454864501953125
1772562847816731600,11.968731689453126,-1.0119171142578125,-0.0098724365234375,0.0374603271484375
1772562847826798600,11.978798583984375,-0.9914093017578125,-0.0191192626953125,0.0442962646484375
1772562847836866600,11.988866455078124,-1.000335693359375,-0.0153656005859375,0.0557403564453125
1772562847846933500,11.99893359375,-0.964599609375,-0.0157012939453125,0.064910888671875
1772562847857000700,12.009000732421875,-0.9468536376953125,-0.0196685791015625,0.06024169921875
1772562847867068000,12.01906787109375,-0.986572265625,-0.0131683349609375,0.0501251220703125
1772562847877134800,12.029134765625,-1.014984130859375,-0.012725830078125,0.04107666015625
1772562847887202800,12.039202880859374,-1.020477294921875,-0.013916015625,0.0382232666015625
1772562847897269800,12.049269775390625,-1.00543212890625,-0.01385498046875,0.0365447998046875
