time,seconds_elapsed,z,y,x
1772457493307814400,0.059814453125,-0.9347381591796875,-0.267364501953125,0.01507568359375
1772457493317883400,0.06988330078125,-0.9517059326171875,-0.262359619140625,0.0047607421875
1772457493327951400,0.079951416015625,-0.9647674560546875,-0.2597808837890625,0.0019073486328125
1772457493338020400,0.090020263671875,-0.9754791259765625,-0.2561492919921875,0.0032958984375
1772457493348089300,0.10008935546875,-0.978973388671875,-0.2550811767578125,0.001983642578125
1772457493358158300,0.110158447265625,-0.9804840087890625,-0.2566070556640625,0.0060272216796875
1772457493368226300,0.120226318359375,-0.9710693359375,-0.258453369140625,0.01220703125
1772457493378295300,0.13029541015625,-0.963653564453125,-0.259429931640625,0.0167999267578125
1772457493388364300,0.1403642578125,-0.960601806640625,-0.262054443359375,0.016937255859375
1772457493398433500,0.15043359375,-0.96142578125,-0.2621002197265625,0.0150299072265625
1772457493408501500,0.16050146484375,-0.9634552001953125,-0.2639007568359375,0.013916015625
1772457493418570200,0.1705703125,-0.9631195068359375,-0.26409912109375,0.010467529296875
1772457493428639500,0.180639404296875,-0.9640350341796875,-0.262481689453125,0.0091705322265625
1772457493438707500,0.19070751953125,-0.9644622802734375,-0.2616424560546875,0.0121002197265625
1772457493448776400,0.2007763671875,-0.965789794921875,-0.260772705078125,0.009429931640625
1772457493458845400,0.210845458984375,-0.9639129638671875,-0.261474609375,0.0068206787109375
1772457493468914200,0.2209140625,-0.9611663818359375,-0.260467529296875,0.0080108642578125
1772457493478982400,0.230982421875,-0.9571380615234375,-0.2616729736328125,0.008270263671875
1772457493489051400,0.241051513671875,-0.955322265625,-0.2632598876953125,0.0083465576171875
1772457493499120400,0.251120361328125,-0.9550018310546875,-0.26287841796875,0.007232666015625
1772457493509189400,0.261189453125,-0.954071044921875,-0.2649688720703125,0.0055999755859375
1772457493519257300,0.27125732421875,-0.951507568359375,-0.26336669921875,0.0093841552734375
1772457493529326300,0.281326416015625,-0.948028564453125,-0.2683868408203125,0.0068359375
1772457493539395300,0.291395263671875,-0.94268798828125,-0.2704010009765625,0.0072021484375
1772457493549463300,0.30146337890625,-0.9362030029296875,-0.2703704833984375,0.0094146728515625
1772457493559532300,0.3115322265625,-0.9339141845703125,-0.2696075439453125,0.0095672607421875
1772457493569601300,0.321601318359375,-0.93353271484375,-0.2690582275390625,0.0074005126953125
1772457493579670500,0.33167041015625,-0.939178466796875,-0.2685546875,0.0045928955078125
1772457493589738500,0.341738525390625,-0.9509735107421875,-0.267364501953125,0.0003204345703125
1772457493599807500,0.351807373046875,-0.95660400390625,-0.2642822265625,-0.002044677734375
1772457493609876500,0.36187646484375,-0.9577178955078125,-0.2630767822265625,0.0000762939453125
1772457493619945200,0.3719453125,-0.960968017578125,-0.2640228271484375,0.0043182373046875
1772457493630013400,0.382013427734375,-0.961334228515625,-0.2668609619140625,0.0055694580078125
1772457493640082400,0.39208251953125,-0.9596710205078125,-0.2677764892578125,0.0049285888671875
1772457493650151400,0.4021513671875,-0.9598388671875,-0.268768310546875,0.00457763671875
1772457493660219400,0.412219482421875,-0.9605712890625,-0.26629638671875,0.0092926025390625
1772457493670288400,0.422288330078125,-0.9556732177734375,-0.2649993896484375,0.015228271484375
1772457493680357400,0.432357421875,-0.948638916015625,-0.2631072998046875,0.0196685791015625
1772457493690426400,0.44242626953125,-0.9469451904296875,-0.262603759765625,0.0231170654296875
1772457493700494300,0.452494384765625,-0.950958251953125,-0.258392333984375,0.0229949951171875
1772457493710563300,0.462563232421875,-0.96063232421875,-0.2578277587890625,0.0187835693359375
1772457493720632300,0.47263232421875,-0.97540283203125,-0.2549896240234375,0.0099945068359375
1772457493730701600,0.48270166015625,-0.9810333251953125,-0.2571258544921875,0.00445556640625
1772457493740769300,0.492769287109375,-0.97625732421875,-0.25689697265625,0.0056304931640625
1772457493750838300,0.50283837890625,-0.9680633544921875,-0.258758544921875,0.0081329345703125
1772457493760907500,0.512907470703125,-0.962371826171875,-0.2614593505859375,0.0124053955078125
1772457493770975200,0.522975341796875,-0.9625701904296875,-0.2603912353515625,0.0106964111328125
1772457493781044500,0.53304443359375,-0.9686126708984375,-0.258636474609375,0.0092010498046875
1772457493791113500,0.543113525390625,-0.96734619140625,-0.25970458984375,0.013916015625
1772457493801182200,0.55318212890625,-0.9625701904296875,-0.261077880859375,0.0127105712890625
1772457493811250400,0.56325048828125,-0.956207275390625,-0.26165771484375,0.0125732421875
1772457493821319400,0.5733193359375,-0.95184326171875,-0.2599639892578125,0.0183868408203125
1772457493831388400,0.583388427734375,-0.94927978515625,-0.2576141357421875,0.018768310546875
1772457493841457400,0.59345751953125,-0.9499664306640625,-0.2569427490234375,0.01763916015625
1772457493851525400,0.603525390625,-0.9584808349609375,-0.2575836181640625,0.0135345458984375
1772457493861594400,0.613594482421875,-0.973114013671875,-0.2572784423828125,0.0041656494140625
1772457493871663400,0.623663330078125,-0.9793548583984375,-0.25750732421875,0.00006103515625
1772457493881732400,0.633732421875,-0.968231201171875,-0.261199951171875,0.0041351318359375
1772457493891800000,0.643800048828125,-0.95330810546875,-0.2672119140625,0.008819580078125
1772457493901869000,0.653869140625,-0.949066162109375,-0.265411376953125,0.0116729736328125
1772457493911938300,0.663938232421875,-0.9551849365234375,-0.2637176513671875,0.00946044921875
1772457493922006000,0.674006103515625,-0.9563140869140625,-0.26165771484375,0.0056610107421875
1772457493932075000,0.684074951171875,-0.960968017578125,-0.26239013671875,0.0047607421875
1772457493942144300,0.694144287109375,-0.957122802734375,-0.260498046875,0.0059967041015625
1772457493952213000,0.704212890625,-0.9500579833984375,-0.2625274658203125,0.00836181640625
1772457493962281200,0.71428125,-0.95452880859375,-0.2615966796875,0.0085601806640625
1772457493972350200,0.72435009765625,-0.9552764892578125,-0.259490966796875,0.0067596435546875
1772457493982419200,0.734419189453125,-0.95904541015625,-0.25775146484375,0.0036773681640625
1772457493992488200,0.74448828125,-0.9628448486328125,-0.2567596435546875,0.001495361328125
1772457494002556200,0.75455615234375,-0.9595489501953125,-0.2580718994140625,0.0025482177734375
1772457494012625200,0.764625244140625,-0.951568603515625,-0.259033203125,0.00958251953125
1772457494022694100,0.774694091796875,-0.9483642578125,-0.2608642578125,0.0090179443359375
1772457494032762000,0.78476220703125,-0.9541168212890625,-0.2591705322265625,0.0058441162109375
1772457494042831000,0.7948310546875,-0.964019775390625,-0.2580108642578125,0.002960205078125
1772457494052900000,0.804900146484375,-0.9716644287109375,-0.2579345703125,0.000213623046875
1772457494062969000,0.814968994140625,-0.9652862548828125,-0.2574920654296875,0.001312255859375
1772457494073037000,0.825037109375,-0.9551544189453125,-0.25726318359375,0.006561279296875
1772457494083106000,0.83510595703125,-0.9473724365234375,-0.259246826171875,0.007293701171875
1772457494093175300,0.84517529296875,-0.9526519775390625,-0.2586669921875,0.0038909912109375
1772457494103244000,0.855244140625,-0.9686431884765625,-0.2568817138671875,-0.001434326171875
1772457494113312300,0.865312255859375,-0.96746826171875,-0.2576751708984375,-0.0046844482421875
1772457494123381200,0.87538134765625,-0.9595947265625,-0.259033203125,-0.00274658203125
1772457494133450000,0.885449951171875,-0.951263427734375,-0.260040283203125,0.0017547607421875
1772457494143518200,0.895518310546875,-0.94915771484375,-0.260101318359375,0.00091552734375
1772457494153587200,0.905587158203125,-0.95556640625,-0.25970458984375,0.0012359619140625
1772457494163656200,0.91565625,-0.96173095703125,-0.2588653564453125,-0.00299072265625
1772457494173725200,0.92572509765625,-0.9573516845703125,-0.25830078125,-0.0037078857421875
1772457494183793200,0.935793212890625,-0.9525299072265625,-0.25994873046875,-0.0025177001953125
1772457494193862100,0.945862060546875,-0.9529876708984375,-0.2608795166015625,-0.00128173828125
1772457494203931100,0.95593115234375,-0.9500579833984375,-0.2605438232421875,-0.0016632080078125
1772457494213999000,0.9659990234375,-0.9464874267578125,-0.2607421875,0.0000457763671875
1772457494224068000,0.976068115234375,-0.951568603515625,-0.26025390625,0.0009918212890625
1772457494234137000,0.98613720703125,-0.952667236328125,-0.2581329345703125,0.0050201416015625
1772457494244206000,0.9962060546875,-0.9477386474609375,-0.259246826171875,0.0064544677734375
1772457494254274000,1.006274169921875,-0.951751708984375,-0.258514404296875,0.00518798828125
1772457494264343000,1.016343017578125,-0.9549560546875,-0.2563934326171875,0.006011962890625
1772457494274412000,1.026412109375,-0.9528045654296875,-0.2587127685546875,0.007659912109375
1772457494284481000,1.03648095703125,-0.953125,-0.2601318359375,0.006103515625
1772457494294549200,1.04654931640625,-0.95697021484375,-0.257781982421875,0.0063629150390625
1772457494304618200,1.0566181640625,-0.9651947021484375,-0.2558441162109375,0.0062103271484375
1772457494314687200,1.066687255859375,-0.9712677001953125,-0.253753662109375,0.002197265625
1772457494324755200,1.076755126953125,-0.977508544921875,-0.2535247802734375,0.0009765625
1772457494334824200,1.08682421875,-0.9718780517578125,-0.2551422119140625,0.00421142578125
1772457494344893200,1.09689306640625,-0.9604949951171875,-0.2551422119140625,0.004852294921875
1772457494354962200,1.106962158203125,-0.957122802734375,-0.2548065185546875,0.008270263671875
1772457494365030100,1.117030029296875,-0.95916748046875,-0.25244140625,0.009552001953125
1772457494375099100,1.12709912109375,-0.961151123046875,-0.2502593994140625,0.0095062255859375
1772457494385168100,1.137168212890625,-0.9556732177734375,-0.2510833740234375,0.0109710693359375
1772457494395237000,1.147237060546875,-0.9567413330078125,-0.2496795654296875,0.01416015625
1772457494405305000,1.15730517578125,-0.958465576171875,-0.2503662109375,0.0173187255859375
1772457494415374000,1.1673740234375,-0.9590911865234375,-0.2462615966796875,0.013519287109375
1772457494425443000,1.177443115234375,-0.959564208984375,-0.2501983642578125,0.0113983154296875
1772457494435511000,1.187510986328125,-0.9698333740234375,-0.2501678466796875,0.005859375
1772457494445580300,1.197580322265625,-0.9678192138671875,-0.251617431640625,0.0049591064453125
1772457494455649000,1.20764892578125,-0.9591522216796875,-0.2566680908203125,0.01019287109375
1772457494465718000,1.217718017578125,-0.952972412109375,-0.2588958740234375,0.010711669921875
1772457494475786200,1.2277861328125,-0.9532623291015625,-0.258026123046875,0.01263427734375
1772457494485855000,1.23785498046875,-0.965789794921875,-0.2584075927734375,0.007293701171875
1772457494495924200,1.24792431640625,-0.9650726318359375,-0.258636474609375,0.0058135986328125
1772457494505992200,1.2579921875,-0.955963134765625,-0.2604827880859375,0.00604248046875
1772457494516061200,1.268061279296875,-0.947418212890625,-0.263580322265625,0.0085601806640625
1772457494526130200,1.278130126953125,-0.9367523193359375,-0.263397216796875,0.0122528076171875
1772457494536199200,1.28819921875,-0.9419403076171875,-0.2628631591796875,0.0120697021484375
1772457494546267100,1.29826708984375,-0.9542999267578125,-0.2579345703125,0.0065765380859375
1772457494556336000,1.308336181640625,-0.9609832763671875,-0.2560272216796875,0.0012664794921875
1772457494566405000,1.318405029296875,-0.9642791748046875,-0.2546539306640625,-0.002197265625
1772457494576474000,1.32847412109375,-0.95928955078125,-0.256591796875,-0.000640869140625
1772457494586542000,1.3385419921875,-0.952301025390625,-0.25579833984375,0.001861572265625
1772457494596611000,1.348611083984375,-0.94842529296875,-0.2563934326171875,0.0068511962890625
1772457494606680000,1.35868017578125,-0.9505462646484375,-0.256103515625,0.007293701171875
1772457494616748000,1.368748046875,-0.95538330078125,-0.255126953125,0.0073089599609375
1772457494626817300,1.3788173828125,-0.9552459716796875,-0.2541961669921875,0.0083160400390625
1772457494636886000,1.388885986328125,-0.9548187255859375,-0.2551116943359375,0.008331298828125
1772457494646955300,1.398955322265625,-0.9572906494140625,-0.2541046142578125,0.006805419921875
1772457494657023200,1.409023193359375,-0.962432861328125,-0.25189208984375,0.0068206787109375
1772457494667092000,1.419092041015625,-0.9632720947265625,-0.2523345947265625,0.006622314453125
1772457494677161200,1.4291611328125,-0.96600341796875,-0.2528076171875,0.00567626953125
1772457494687229200,1.439229248046875,-0.966552734375,-0.251800537109375,0.00408935546875
1772457494697298200,1.449298095703125,-0.963165283203125,-0.252532958984375,0.0054931640625
1772457494707367200,1.4593671875,-0.9636383056640625,-0.2533416748046875,0.004364013671875
1772457494717436200,1.469436279296875,-0.96661376953125,-0.2519683837890625,0.005523681640625
1772457494727504100,1.479504150390625,-0.9664306640625,-0.25128173828125,0.005828857421875
1772457494737573000,1.489572998046875,-0.965362548828125,-0.2509918212890625,0.0064849853515625
1772457494747642000,1.49964208984375,-0.9691314697265625,-0.251617431640625,0.002044677734375
1772457494757711000,1.509711181640625,-0.970123291015625,-0.252655029296875,-0.0034027099609375
1772457494767779000,1.519779052734375,-0.9643402099609375,-0.255462646484375,-0.0040283203125
1772457494777848300,1.529848388671875,-0.9591064453125,-0.2584991455078125,-0.0016326904296875
1772457494787917000,1.5399169921875,-0.95263671875,-0.261199951171875,-0.0000457763671875
1772457494797985000,1.549985107421875,-0.947601318359375,-0.2599945068359375,-0.0003509521484375
1772457494808054300,1.56005419921875,-0.951751708984375,-0.259490966796875,0.0002288818359375
1772457494818123000,1.570123046875,-0.9588775634765625,-0.2577056884765625,-0.0017852783203125
1772457494828192300,1.580192138671875,-0.9626007080078125,-0.25640869140625,-0.003265380859375
1772457494838260200,1.59026025390625,-0.962432861328125,-0.2573394775390625,-0.001800537109375
1772457494848329000,1.600328857421875,-0.9548492431640625,-0.25799560546875,0.0011749267578125
1772457494858398200,1.610398193359375,-0.9460296630859375,-0.25860595703125,0.0021820068359375
1772457494868466200,1.620466064453125,-0.9424591064453125,-0.2605743408203125,0.004302978515625
1772457494878535000,1.630534912109375,-0.9471282958984375,-0.2579803466796875,0.0081024169921875
1772457494888604200,1.640604248046875,-0.9554901123046875,-0.2523651123046875,0.009521484375
1772457494898673400,1.65067333984375,-0.9616851806640625,-0.2469482421875,0.0108184814453125
1772457494908741000,1.6607412109375,-0.96295166015625,-0.248870849609375,0.0109100341796875
1772457494918810400,1.670810302734375,-0.9613800048828125,-0.25018310546875,0.008941650390625
1772457494928879400,1.68087939453125,-0.9613800048828125,-0.2485198974609375,0.0087890625
1772457494938948400,1.6909482421875,-0.9618072509765625,-0.2491455078125,0.0037841796875
1772457494949016300,1.701016357421875,-0.963836669921875,-0.2494354248046875,0.004241943359375
1772457494959085600,1.71108544921875,-0.96258544921875,-0.2484283447265625,0.0052032470703125
1772457494969154300,1.721154296875,-0.95562744140625,-0.2470703125,0.0114288330078125
1772457494979222300,1.73122216796875,-0.960113525390625,-0.248687744140625,0.0151824951171875
1772457494989291500,1.74129150390625,-0.9563140869140625,-0.2476806640625,0.012176513671875
1772457494999360300,1.7513603515625,-0.951446533203125,-0.2486114501953125,0.0148773193359375
1772457495009429500,1.761429443359375,-0.9536895751953125,-0.24932861328125,0.0105438232421875
1772457495019497500,1.77149755859375,-0.96002197265625,-0.2489776611328125,0.0055999755859375
1772457495029566200,1.781566162109375,-0.96636962890625,-0.2465972900390625,0.0067901611328125
1772457495039635500,1.791635498046875,-0.970489501953125,-0.2457275390625,0.008514404296875
1772457495049703400,1.801703369140625,-0.9731597900390625,-0.2475128173828125,0.005859375
1772457495059772200,1.811772216796875,-0.9728546142578125,-0.248138427734375,0.0068359375
1772457495069841400,1.82184130859375,-0.9675140380859375,-0.2529754638671875,0.0038909912109375
1772457495079910400,1.831910400390625,-0.9653778076171875,-0.2554931640625,0.004486083984375
1772457495089978400,1.841978271484375,-0.96905517578125,-0.255615234375,0.004730224609375
1772457495100047400,1.85204736328125,-0.9671630859375,-0.2564849853515625,0.003631591796875
1772457495110116400,1.862116455078125,-0.9662322998046875,-0.25665283203125,0.0038299560546875
1772457495120185300,1.872185302734375,-0.96282958984375,-0.2575531005859375,0.0061187744140625
1772457495130253300,1.88225341796875,-0.9535064697265625,-0.2581787109375,0.0084686279296875
1772457495140322600,1.892322509765625,-0.95294189453125,-0.2599334716796875,0.0058746337890625
1772457495150391300,1.902391357421875,-0.960357666015625,-0.258209228515625,0.0012054443359375
1772457495160459300,1.912459228515625,-0.9644927978515625,-0.254364013671875,-0.0010528564453125
1772457495170528500,1.922528564453125,-0.964996337890625,-0.2527923583984375,-0.0006103515625
1772457495180597200,1.93259716796875,-0.9578857421875,-0.2519378662109375,0.004150390625
1772457495190666500,1.94266650390625,-0.952545166015625,-0.2497406005859375,0.0099639892578125
1772457495200734500,1.952734375,-0.9476165771484375,-0.2501678466796875,0.01409912109375
1772457495210803200,1.96280322265625,-0.9499664306640625,-0.247222900390625,0.0166168212890625
1772457495220872400,1.97287255859375,-0.9546051025390625,-0.243438720703125,0.0138397216796875
1772457495230940400,1.9829404296875,-0.9609527587890625,-0.2435455322265625,0.0115966796875
1772457495241009200,1.993009033203125,-0.9619903564453125,-0.2434539794921875,0.0127716064453125
1772457495251078400,2.003078369140625,-0.95660400390625,-0.24560546875,0.0131072998046875
1772457495261147100,2.013147216796875,-0.9535675048828125,-0.24737548828125,0.012115478515625
1772457495271215400,2.02321533203125,-0.95330810546875,-0.249481201171875,0.011138916015625
1772457495281284400,2.033284423828125,-0.9615325927734375,-0.2485504150390625,0.00628662109375
1772457495291353300,2.043353271484375,-0.9723052978515625,-0.24468994140625,0.0037841796875
1772457495301422300,2.05342236328125,-0.973358154296875,-0.2468414306640625,0.004730224609375
1772457495311490300,2.063490234375,-0.9725341796875,-0.2474822998046875,0.0037078857421875
1772457495321559600,2.0735595703125,-0.964691162109375,-0.2498016357421875,0.0053558349609375
1772457495331628300,2.083628173828125,-0.9592132568359375,-0.252655029296875,0.0058135986328125
1772457495341696300,2.0936962890625,-0.9639434814453125,-0.252044677734375,0.0047149658203125
1772457495351765500,2.103765625,-0.966094970703125,-0.2521514892578125,0.0063629150390625
1772457495361834200,2.113834228515625,-0.96429443359375,-0.2525177001953125,0.0057525634765625
1772457495371903500,2.123903564453125,-0.964447021484375,-0.252288818359375,0.003997802734375
1772457495381971500,2.133971435546875,-0.9585418701171875,-0.254913330078125,0.004730224609375
1772457495392040200,2.144040283203125,-0.9537200927734375,-0.2553863525390625,0.00494384765625
1772457495402109400,2.154109375,-0.9542999267578125,-0.2535552978515625,0.0059967041015625
1772457495412177400,2.164177490234375,-0.9534759521484375,-0.2524566650390625,0.0042724609375
1772457495422246400,2.174246337890625,-0.9574432373046875,-0.2539520263671875,0.004425048828125
1772457495432315400,2.1843154296875,-0.9603729248046875,-0.2543182373046875,0.0026702880859375
1772457495442384100,2.194384033203125,-0.9622955322265625,-0.254608154296875,0.0003662109375
1772457495452452400,2.204452392578125,-0.96435546875,-0.25439453125,0.00054931640625
1772457495462521300,2.214521240234375,-0.963409423828125,-0.2545928955078125,0.0010223388671875
1772457495472590300,2.22459033203125,-0.951873779296875,-0.2559051513671875,0.00457763671875
1772457495482659300,2.234659423828125,-0.9457244873046875,-0.257781982421875,0.008514404296875
1772457495492727300,2.244727294921875,-0.9465789794921875,-0.256805419921875,0.009368896484375
1772457495502796300,2.25479638671875,-0.951202392578125,-0.2554473876953125,0.0105133056640625
1772457495512865300,2.264865234375,-0.9617919921875,-0.251861572265625,0.005462646484375
1772457495522933200,2.274933349609375,-0.96722412109375,-0.2480621337890625,0.00262451171875
1772457495533002500,2.28500244140625,-0.965179443359375,-0.24871826171875,0.0003509521484375
1772457495543071200,2.2950712890625,-0.9599609375,-0.250457763671875,-0.00018310546875
1772457495553140500,2.305140380859375,-0.9597320556640625,-0.2492523193359375,-0.0021820068359375
1772457495563208400,2.31520849609375,-0.9600372314453125,-0.250518798828125,-0.0009307861328125
1772457495573277200,2.325277099609375,-0.9576416015625,-0.2499237060546875,0.0005645751953125
1772457495583346400,2.335346435546875,-0.9570770263671875,-0.2494659423828125,0.0034637451171875
1772457495593414400,2.345414306640625,-0.9571685791015625,-0.2489776611328125,0.0063629150390625
1772457495603483400,2.3554833984375,-0.959320068359375,-0.2482452392578125,0.0079803466796875
1772457495613552400,2.365552490234375,-0.96533203125,-0.2472381591796875,0.0075836181640625
1772457495623621400,2.375621337890625,-0.9685211181640625,-0.2490692138671875,0.006591796875
1772457495633689300,2.385689453125,-0.9634246826171875,-0.2508544921875,0.005096435546875
1772457495643758300,2.39575830078125,-0.9586944580078125,-0.254180908203125,0.005340576171875
1772457495653827300,2.405827392578125,-0.9568634033203125,-0.25640869140625,0.0057830810546875
1772457495663895300,2.415895263671875,-0.9582366943359375,-0.255950927734375,0.008941650390625
1772457495673964300,2.42596435546875,-0.962890625,-0.255584716796875,0.0070037841796875
1772457495684033300,2.436033203125,-0.964111328125,-0.2536773681640625,0.0074310302734375
1772457495694102300,2.446102294921875,-0.96319580078125,-0.2566375732421875,0.005889892578125
1772457495704170200,2.456170166015625,-0.9669342041015625,-0.2576141357421875,0.0023193359375
1772457495714239200,2.4662392578125,-0.9633636474609375,-0.256378173828125,0.0019378662109375
1772457495724308200,2.47630810546875,-0.9635009765625,-0.255615234375,0.0010528564453125
1772457495734377500,2.48637744140625,-0.963470458984375,-0.255706787109375,0.0031280517578125
1772457495744445400,2.496445556640625,-0.9623260498046875,-0.2535400390625,0.00299072265625
1772457495754514400,2.506514404296875,-0.9569854736328125,-0.251983642578125,0.005615234375
1772457495764583400,2.51658349609375,-0.95538330078125,-0.2507781982421875,0.009490966796875
1772457495774651400,2.5266513671875,-0.954559326171875,-0.2481231689453125,0.010284423828125
1772457495784720400,2.536720458984375,-0.9582672119140625,-0.247344970703125,0.0086669921875
1772457495794789400,2.546789306640625,-0.965606689453125,-0.2453765869140625,0.004547119140625
1772457495804858400,2.5568583984375,-0.9603729248046875,-0.247283935546875,0.0032958984375
1772457495814926300,2.56692626953125,-0.952789306640625,-0.252227783203125,0.0057830810546875
1772457495824995300,2.576995361328125,-0.94720458984375,-0.2523651123046875,0.00341796875
1772457495835064300,2.587064208984375,-0.951629638671875,-0.2535400390625,0.0052337646484375
1772457495845132300,2.59713232421875,-0.9582672119140625,-0.2512054443359375,0.0041351318359375
1772457495855201300,2.607201171875,-0.96044921875,-0.2481536865234375,0.0059661865234375
1772457495865270300,2.617270263671875,-0.9623565673828125,-0.248992919921875,0.0053863525390625
1772457495875339300,2.62733935546875,-0.956695556640625,-0.253875732421875,0.0055694580078125
1772457495885407500,2.637407470703125,-0.9558868408203125,-0.2545928955078125,0.0044708251953125
1772457495895475700,2.647475830078125,-0.9593658447265625,-0.2556915283203125,0.0009918212890625
1772457495905544400,2.65754443359375,-0.96112060546875,-0.2548980712890625,0.0013275146484375
1772457495915612700,2.66761279296875,-0.9636077880859375,-0.254486083984375,0.0028839111328125
1772457495925681700,2.677681640625,-0.9612884521484375,-0.25518798828125,0.00238037109375
1772457495935750400,2.68775048828125,-0.9668121337890625,-0.2559661865234375,0.001068115234375
1772457495945819600,2.697819580078125,-0.9658660888671875,-0.2542877197265625,0.0016937255859375
1772457495955887600,2.7078876953125,-0.9614715576171875,-0.257598876953125,0.0005340576171875
1772457495965956600,2.71795654296875,-0.9665069580078125,-0.2577056884765625,-0.0016326904296875
1772457495976025600,2.728025634765625,-0.9676971435546875,-0.2528076171875,-0.001251220703125
1772457495986093600,2.738093505859375,-0.9620513916015625,-0.2550506591796875,-0.000457763671875
1772457495996162600,2.74816259765625,-0.9636383056640625,-0.2522430419921875,0.002227783203125
1772457496006231600,2.7582314453125,-0.961395263671875,-0.2494049072265625,0.0054931640625
1772457496016300800,2.76830078125,-0.9508819580078125,-0.2509613037109375,0.009552001953125
1772457496026368500,2.778368408203125,-0.951019287109375,-0.2506866455078125,0.007659912109375
1772457496036437500,2.7884375,-0.9540252685546875,-0.24932861328125,0.0036468505859375
1772457496046506800,2.7985068359375,-0.9545135498046875,-0.25238037109375,-0.0000152587890625
1772457496056575500,2.808575439453125,-0.9607696533203125,-0.2509918212890625,-0.0005340576171875
1772457496066643700,2.818643798828125,-0.965972900390625,-0.2493743896484375,-0.00006103515625
1772457496076712700,2.828712646484375,-0.9653472900390625,-0.2523040771484375,0.0004119873046875
1772457496086781400,2.838781494140625,-0.9572906494140625,-0.2565460205078125,0.0033416748046875
1772457496096849700,2.848849609375,-0.950653076171875,-0.2591094970703125,0.0037078857421875
1772457496106918700,2.858918701171875,-0.948822021484375,-0.2593231201171875,0.001434326171875
1772457496116987600,2.868987548828125,-0.945587158203125,-0.257904052734375,0.0020599365234375
1772457496127056600,2.879056640625,-0.9444122314453125,-0.2584075927734375,0.0050811767578125
1772457496137124600,2.88912451171875,-0.9524688720703125,-0.254852294921875,0.004669189453125
1772457496147193600,2.899193603515625,-0.9652862548828125,-0.2522430419921875,0.000030517578125
1772457496157262600,2.9092626953125,-0.9704742431640625,-0.252105712890625,-0.0040740966796875
1772457496167330600,2.91933056640625,-0.969482421875,-0.2526702880859375,-0.0071563720703125
1772457496177399600,2.929399658203125,-0.964111328125,-0.2542877197265625,-0.006134033203125
1772457496187468500,2.939468505859375,-0.9569091796875,-0.25469970703125,-0.006134033203125
1772457496197537500,2.94953759765625,-0.9568328857421875,-0.25396728515625,-0.0033416748046875
1772457496207605500,2.95960546875,-0.9566650390625,-0.2509002685546875,-0.00177001953125
1772457496217674500,2.969674560546875,-0.9617462158203125,-0.2493743896484375,-0.000732421875
1772457496227743700,2.97974365234375,-0.9635467529296875,-0.2491607666015625,0.000396728515625
1772457496237812500,2.9898125,-0.954345703125,-0.251708984375,0.001678466796875
1772457496247880700,2.999880615234375,-0.950897216796875,-0.2535858154296875,0.0054779052734375
1772457496257949700,3.00994970703125,-0.9459381103515625,-0.2549285888671875,0.0079498291015625
1772457496268018400,3.020018310546875,-0.9438018798828125,-0.255096435546875,0.00762939453125
1772457496278086700,3.030086669921875,-0.9493408203125,-0.253387451171875,0.0039825439453125
1772457496288155600,3.04015576171875,-0.9626312255859375,-0.2516632080078125,0.0022430419921875
1772457496298224600,3.050224609375,-0.9697418212890625,-0.251251220703125,0.0005035400390625
1772457496308293600,3.060293701171875,-0.9648895263671875,-0.2553863525390625,0.0002593994140625
1772457496318361600,3.070361572265625,-0.9654388427734375,-0.2572174072265625,0.0001678466796875
1772457496328430600,3.0804306640625,-0.960693359375,-0.2583770751953125,0.0035858154296875
1772457496338499600,3.09049951171875,-0.9617462158203125,-0.2615814208984375,0.00274658203125
1772457496348567600,3.100567626953125,-0.9677276611328125,-0.26055908203125,-0.0005950927734375
1772457496358636500,3.110636474609375,-0.9715423583984375,-0.2603302001953125,-0.0031280517578125
1772457496368705500,3.12070556640625,-0.972930908203125,-0.259857177734375,-0.0021209716796875
1772457496378774500,3.1307744140625,-0.9720306396484375,-0.25836181640625,-0.000396728515625
1772457496388842500,3.140842529296875,-0.9662322998046875,-0.2574310302734375,0.00152587890625
1772457496398911700,3.150911865234375,-0.9626617431640625,-0.25714111328125,0.00360107421875
1772457496408980500,3.16098046875,-0.9659881591796875,-0.254913330078125,0.0015716552734375
1772457496419048400,3.17104833984375,-0.9657440185546875,-0.252685546875,0.00048828125
1772457496429117700,3.18111767578125,-0.960113525390625,-0.2517852783203125,0.0043182373046875
1772457496439186700,3.191186767578125,-0.9587860107421875,-0.2479400634765625,0.005828857421875
1772457496449255700,3.201255615234375,-0.9533538818359375,-0.2481689453125,0.0080413818359375
1772457496459323600,3.21132373046875,-0.9512786865234375,-0.247039794921875,0.0057525634765625
1772457496469392600,3.221392578125,-0.9510498046875,-0.2509307861328125,0.0077362060546875
1772457496479461600,3.231461669921875,-0.9520721435546875,-0.2513580322265625,0.0051422119140625
1772457496489529600,3.241529541015625,-0.9547882080078125,-0.2505340576171875,0.003570556640625
1772457496499598600,3.2515986328125,-0.9517669677734375,-0.2530517578125,0.0011138916015625
1772457496509667600,3.26166748046875,-0.9484405517578125,-0.2554473876953125,0.0027923583984375
1772457496519736600,3.271736572265625,-0.9512481689453125,-0.2560272216796875,-0.0003814697265625
1772457496529804800,3.2818046875,-0.9560546875,-0.258056640625,-0.00457763671875
1772457496539873500,3.29187353515625,-0.9618072509765625,-0.2587432861328125,-0.005950927734375
1772457496549942500,3.301942626953125,-0.9605865478515625,-0.258544921875,-0.003570556640625
1772457496560010800,3.3120107421875,-0.957275390625,-0.2607269287109375,-0.0025482177734375
1772457496570079500,3.32207958984375,-0.9562530517578125,-0.26190185546875,-0.00238037109375
1772457496580148700,3.332148681640625,-0.9582061767578125,-0.26239013671875,-0.0041046142578125
1772457496590217500,3.342217529296875,-0.959808349609375,-0.2608184814453125,-0.0042266845703125
1772457496600285400,3.352285400390625,-0.9590911865234375,-0.2605438232421875,-0.00537109375
1772457496610354700,3.362354736328125,-0.954315185546875,-0.258697509765625,-0.0010528564453125
1772457496620423700,3.372423583984375,-0.9547576904296875,-0.25811767578125,0.00250244140625
1772457496630491400,3.382491455078125,-0.9530792236328125,-0.255126953125,0.007293701171875
1772457496640560600,3.392560546875,-0.9524688720703125,-0.25408935546875,0.0097198486328125
1772457496650629600,3.402629638671875,-0.953887939453125,-0.2524566650390625,0.01019287109375
1772457496660698600,3.41269873046875,-0.9534759521484375,-0.2530670166015625,0.00836181640625
1772457496670766600,3.4227666015625,-0.9541473388671875,-0.2552947998046875,0.0054931640625
1772457496680835600,3.432835693359375,-0.958099365234375,-0.2542266845703125,0.003143310546875
1772457496690904600,3.442904541015625,-0.9580841064453125,-0.2555694580078125,0.0047760009765625
1772457496700973600,3.4529736328125,-0.9606475830078125,-0.2531890869140625,0.006256103515625
1772457496711041800,3.463041748046875,-0.9620819091796875,-0.25189208984375,0.007293701171875
1772457496721110500,3.473110595703125,-0.9596099853515625,-0.253570556640625,0.00482177734375
1772457496731179800,3.4831796875,-0.9600830078125,-0.253814697265625,-0.0012664794921875
1772457496741247700,3.493247802734375,-0.9686279296875,-0.25286865234375,-0.0054779052734375
1772457496751316500,3.50331640625,-0.9634857177734375,-0.2573089599609375,-0.0088348388671875
1772457496761385700,3.5133857421875,-0.959503173828125,-0.261505126953125,-0.0070648193359375
1772457496771454500,3.523454345703125,-0.960296630859375,-0.2630615234375,-0.00946044921875
1772457496781522400,3.5335224609375,-0.9538726806640625,-0.261260986328125,-0.0078277587890625
1772457496791591700,3.543591796875,-0.9541168212890625,-0.2608642578125,-0.003753662109375
1772457496801660400,3.553660400390625,-0.951904296875,-0.2596435546875,-0.002105712890625
1772457496811728400,3.563728271484375,-0.95245361328125,-0.25970458984375,-0.000396728515625
1772457496821797600,3.573797607421875,-0.956756591796875,-0.2585296630859375,-0.0029449462890625
1772457496831866600,3.58386669921875,-0.9596710205078125,-0.256317138671875,-0.0045013427734375
1772457496841935600,3.593935546875,-0.9578094482421875,-0.2570343017578125,-0.003814697265625
1772457496852003600,3.604003662109375,-0.9508819580078125,-0.258819580078125,-0.0032958984375
1772457496862072800,3.61407275390625,-0.9422607421875,-0.25982666015625,-0.0030059814453125
1772457496872141600,3.6241416015625,-0.94061279296875,-0.25726318359375,0.0005340576171875
1772457496882209500,3.63420947265625,-0.943084716796875,-0.2528533935546875,0.0009307861328125
1772457496892279300,3.644279296875,-0.9587249755859375,-0.25140380859375,-0.000823974609375
1772457496902348500,3.6543486328125,-0.9658660888671875,-0.248291015625,-0.0010986328125
1772457496912417500,3.66441748046875,-0.961944580078125,-0.249603271484375,0.0010833740234375
1772457496922485500,3.674485595703125,-0.9613494873046875,-0.247650146484375,0.004852294921875
1772457496932554500,3.684554443359375,-0.95758056640625,-0.251922607421875,0.007781982421875
1772457496942623500,3.69462353515625,-0.9600067138671875,-0.2533111572265625,0.0064544677734375
1772457496952691500,3.70469140625,-0.9685821533203125,-0.2517242431640625,0.001861572265625
1772457496962760400,3.714760498046875,-0.97686767578125,-0.251678466796875,-0.0010986328125
1772457496972829700,3.72482958984375,-0.9748992919921875,-0.250946044921875,-0.0008087158203125
1772457496982898400,3.7348984375,-0.971527099609375,-0.251556396484375,-0.0008392333984375
1772457496992966400,3.74496630859375,-0.97271728515625,-0.2531890869140625,0.005401611328125
1772457497003035600,3.75503564453125,-0.96282958984375,-0.2530975341796875,0.007110595703125
1772457497013104400,3.7651044921875,-0.9576263427734375,-0.254547119140625,0.007232666015625
1772457497023172400,3.77517236328125,-0.9562835693359375,-0.2557525634765625,0.0063018798828125
1772457497033241600,3.78524169921875,-0.9566802978515625,-0.25653076171875,0.0061187744140625
1772457497043310300,3.795310302734375,-0.95733642578125,-0.25384521484375,0.0056610107421875
1772457497053379600,3.805379638671875,-0.95623779296875,-0.253204345703125,0.0066070556640625
1772457497063447600,3.815447509765625,-0.9566192626953125,-0.253265380859375,0.00567626953125
1772457497073516300,3.825516357421875,-0.961578369140625,-0.25274658203125,0.0051116943359375
1772457497083585500,3.83558544921875,-0.961883544921875,-0.2533721923828125,-0.0001678466796875
1772457497093654300,3.845654296875,-0.958160400390625,-0.2539215087890625,-0.0029144287109375
1772457497103722500,3.855722412109375,-0.9560699462890625,-0.2564239501953125,-0.0034637451171875
1772457497113791500,3.86579150390625,-0.953033447265625,-0.257781982421875,-0.0018463134765625
1772457497123860500,3.875860595703125,-0.9483489990234375,-0.2601776123046875,-0.0027618408203125
1772457497133928400,3.885928466796875,-0.9445648193359375,-0.260894775390625,-0.001617431640625
1772457497143997400,3.89599755859375,-0.9495086669921875,-0.25927734375,-0.00555419921875
1772457497154066700,3.906066650390625,-0.95068359375,-0.258148193359375,-0.0069732666015625
1772457497164134400,3.916134521484375,-0.951019287109375,-0.255340576171875,-0.0054931640625
1772457497174203400,3.926203369140625,-0.945465087890625,-0.25457763671875,-0.0029296875
1772457497184272600,3.936272705078125,-0.943084716796875,-0.25421142578125,-0.0021820068359375
1772457497194341400,3.94634130859375,-0.9449005126953125,-0.2520751953125,0.005157470703125
1772457497204409300,3.956409423828125,-0.94873046875,-0.2483367919921875,0.006866455078125
1772457497214478600,3.966478515625,-0.96026611328125,-0.2449951171875,0.006744384765625
1772457497224545500,3.976545654296875,-0.9646759033203125,-0.2447967529296875,0.00531005859375
1772457497234614300,3.9866142578125,-0.9644927978515625,-0.2448577880859375,0.003021240234375
1772457497244682500,3.9966826171875,-0.9667816162109375,-0.2447662353515625,0.0037841796875
1772457497254751500,4.00675146484375,-0.969696044921875,-0.2435302734375,0.005035400390625
1772457497264820500,4.016820556640625,-0.971954345703125,-0.2421417236328125,0.0093231201171875
1772457497274889500,4.026889404296875,-0.96929931640625,-0.2431640625,0.0103912353515625
1772457497284957400,4.03695751953125,-0.9689178466796875,-0.244659423828125,0.01214599609375
1772457497295026400,4.0470263671875,-0.9673919677734375,-0.24560546875,0.012969970703125
1772457497305095400,4.057095458984375,-0.9640350341796875,-0.245849609375,0.010284423828125
1772457497315163400,4.067163330078125,-0.9646148681640625,-0.2469482421875,0.0079345703125
1772457497325232400,4.077232421875,-0.967803955078125,-0.250396728515625,0.0051727294921875
1772457497335301400,4.08730126953125,-0.9718017578125,-0.2491455078125,0.0020294189453125
1772457497345370600,4.09737060546875,-0.973175048828125,-0.2507171630859375,-0.00091552734375
1772457497355438600,4.1074384765625,-0.973114013671875,-0.2510223388671875,-0.0015106201171875
1772457497365507300,4.11750732421875,-0.9684600830078125,-0.2496185302734375,0.00177001953125
1772457497375576600,4.12757666015625,-0.9608306884765625,-0.25146484375,0.00518798828125
1772457497385644500,4.13764453125,-0.9578094482421875,-0.2511138916015625,0.0055084228515625
1772457497395713500,4.147713623046875,-0.9555206298828125,-0.2512359619140625,0.004913330078125
1772457497405782500,4.157782470703125,-0.9540252685546875,-0.2496795654296875,0.0029144287109375
1772457497415851300,4.167851318359375,-0.94384765625,-0.2488861083984375,0.00189208984375
1772457497425919500,4.17791943359375,-0.9355926513671875,-0.2486572265625,0.0047607421875
1772457497435988500,4.187988525390625,-0.9382781982421875,-0.2498321533203125,0.0037384033203125
1772457497446057500,4.198057373046875,-0.9512481689453125,-0.2481231689453125,0.002227783203125
1772457497456125400,4.20812548828125,-0.950897216796875,-0.246856689453125,0.0037841796875
1772457497466194400,4.2181943359375,-0.944854736328125,-0.2488861083984375,0.003509521484375
1772457497476263400,4.228263427734375,-0.941802978515625,-0.24993896484375,0.0051116943359375
1772457497486332400,4.23833251953125,-0.93841552734375,-0.249053955078125,0.0067901611328125
1772457497496400400,4.248400390625,-0.9421234130859375,-0.2492218017578125,0.0077362060546875
1772457497506469400,4.258469482421875,-0.9586334228515625,-0.24652099609375,0.00372314453125
1772457497516538400,4.268538330078125,-0.96905517578125,-0.24298095703125,-0.0000152587890625
1772457497526607600,4.278607666015625,-0.97027587890625,-0.2444610595703125,-0.000335693359375
1772457497536675300,4.28867529296875,-0.9711456298828125,-0.2464599609375,-0.0012359619140625
1772457497546744600,4.29874462890625,-0.973876953125,-0.2468414306640625,-0.00042724609375
1772457497556813600,4.3088134765625,-0.9740753173828125,-0.2451629638671875,0.0013275146484375
1772457497566881500,4.318881591796875,-0.9744720458984375,-0.2435760498046875,0.0054168701171875
1772457497576950500,4.328950439453125,-0.9686737060546875,-0.243011474609375,0.0122222900390625
1772457497587019500,4.33901953125,-0.967529296875,-0.2431488037109375,0.0127105712890625
1772457497597087500,4.34908740234375,-0.9701080322265625,-0.242340087890625,0.013824462890625
1772457497607156500,4.359156494140625,-0.973358154296875,-0.2416534423828125,0.0135498046875
1772457497617225500,4.3692255859375,-0.970855712890625,-0.2414703369140625,0.0142364501953125
1772457497627294500,4.37929443359375,-0.9653167724609375,-0.241790771484375,0.0127105712890625
1772457497637362400,4.389362548828125,-0.96746826171875,-0.2396087646484375,0.0126495361328125
1772457497647431400,4.399431396484375,-0.9716796875,-0.238189697265625,0.0123138427734375
1772457497657500400,4.40950048828125,-0.9716949462890625,-0.2401123046875,0.013458251953125
1772457497667569400,4.4195693359375,-0.9651031494140625,-0.2393646240234375,0.0158538818359375
1772457497677637600,4.4296376953125,-0.9608917236328125,-0.2382659912109375,0.0191802978515625
1772457497687706400,4.439706298828125,-0.9580230712890625,-0.24053955078125,0.017486572265625
1772457497697775400,4.449775390625,-0.955322265625,-0.242431640625,0.01605224609375
1772457497707843600,4.459843505859375,-0.9534912109375,-0.2443084716796875,0.014892578125
1772457497717912300,4.469912353515625,-0.95428466796875,-0.244903564453125,0.01153564453125
1772457497727981600,4.479981689453125,-0.957305908203125,-0.2462005615234375,0.00982666015625
1772457497738049500,4.490049560546875,-0.954620361328125,-0.247955322265625,0.008270263671875
1772457497748118500,4.500118408203125,-0.94952392578125,-0.248046875,0.00537109375
1772457497758187500,4.5101875,-0.9505615234375,-0.2496337890625,0.0025787353515625
1772457497768256500,4.520256591796875,-0.958282470703125,-0.2486419677734375,-0.0005645751953125
1772457497778324500,4.530324462890625,-0.9662933349609375,-0.245391845703125,-0.0026092529296875
1772457497788393500,4.5403935546875,-0.9711456298828125,-0.243682861328125,-0.003265380859375
1772457497798462500,4.55046240234375,-0.97174072265625,-0.24432373046875,-0.0016937255859375
1772457497808531500,4.560531494140625,-0.9639739990234375,-0.2446136474609375,0.0026702880859375
1772457497818599400,4.570599365234375,-0.9600830078125,-0.2451324462890625,0.006072998046875
1772457497828668400,4.58066845703125,-0.9579620361328125,-0.2463531494140625,0.0072021484375
1772457497838737400,4.5907373046875,-0.960479736328125,-0.2454376220703125,0.0063323974609375
1772457497848805400,4.600805419921875,-0.961883544921875,-0.243499755859375,0.0081329345703125
1772457497858874600,4.61087451171875,-0.96234130859375,-0.2435760498046875,0.0079803466796875
1772457497868943400,4.620943359375,-0.964508056640625,-0.243316650390625,0.009796142578125
1772457497879012600,4.6310126953125,-0.9609375,-0.2411041259765625,0.01080322265625
1772457497889080600,4.64108056640625,-0.9566497802734375,-0.241302490234375,0.0138092041015625
1772457497899149000,4.651149169921875,-0.95880126953125,-0.240447998046875,0.0131988525390625
1772457497909217800,4.6612177734375,-0.963165283203125,-0.2396697998046875,0.0113525390625
1772457497919285800,4.67128564453125,-0.96173095703125,-0.2406158447265625,0.013671875
1772457497929355000,4.68135498046875,-0.962249755859375,-0.2412109375,0.0135498046875
1772457497939423700,4.691423828125,-0.961700439453125,-0.242431640625,0.0140380859375
1772457497949493000,4.701492919921875,-0.9635467529296875,-0.24212646484375,0.0081024169921875
1772457497959561000,4.71156103515625,-0.973114013671875,-0.2415313720703125,0.0060272216796875
1772457497969630000,4.7216298828125,-0.9745330810546875,-0.242401123046875,0.0066375732421875
1772457497979699000,4.731698974609375,-0.9672393798828125,-0.2452545166015625,0.007720947265625
1772457497989767000,4.741766845703125,-0.9598388671875,-0.2458648681640625,0.0125732421875
1772457497999836000,4.7518359375,-0.9606475830078125,-0.2450408935546875,0.0135345458984375
1772457498009905000,4.76190478515625,-0.958953857421875,-0.2429046630859375,0.0151824951171875
1772457498019974000,4.771973876953125,-0.9623870849609375,-0.24188232421875,0.0125885009765625
1772457498030041900,4.782041748046875,-0.96490478515625,-0.2406158447265625,0.009490966796875
1772457498040110800,4.79211083984375,-0.96380615234375,-0.238555908203125,0.012908935546875
1772457498050179800,4.802179931640625,-0.9573516845703125,-0.23974609375,0.0157623291015625
1772457498060247800,4.812247802734375,-0.9521484375,-0.23919677734375,0.01605224609375
1772457498070316800,4.82231689453125,-0.956024169921875,-0.238250732421875,0.0151824951171875
1772457498080386000,4.832385986328125,-0.966278076171875,-0.2348175048828125,0.0105438232421875
1772457498090454800,4.842454833984375,-0.9661102294921875,-0.235748291015625,0.0074005126953125
1772457498100523000,4.85252294921875,-0.9631195068359375,-0.23870849609375,0.006805419921875
1772457498110592000,4.862592041015625,-0.9599609375,-0.240386962890625,0.004302978515625
1772457498120660700,4.87266064453125,-0.960174560546875,-0.2422943115234375,0.00634765625
1772457498130729000,4.88272900390625,-0.9613189697265625,-0.2445526123046875,0.011199951171875
1772457498140798000,4.8927978515625,-0.95794677734375,-0.2453765869140625,0.01104736328125
1772457498150867000,4.902866943359375,-0.9542083740234375,-0.2492828369140625,0.0074462890625
1772457498160936000,4.91293603515625,-0.9552764892578125,-0.2505645751953125,0.008758544921875
1772457498171004000,4.92300390625,-0.95428466796875,-0.2487030029296875,0.009307861328125
1772457498181073000,4.933072998046875,-0.9587249755859375,-0.24554443359375,0.0096893310546875
1772457498191142000,4.943141845703125,-0.962860107421875,-0.2444305419921875,0.0096588134765625
1772457498201209900,4.9532099609375,-0.9640655517578125,-0.2432708740234375,0.008575439453125
1772457498211278800,4.96327880859375,-0.9651336669921875,-0.2425994873046875,0.0102386474609375
1772457498221347800,4.973347900390625,-0.966583251953125,-0.2438812255859375,0.009429931640625
1772457498231416800,4.983416748046875,-0.969635009765625,-0.2434539794921875,0.0121002197265625
1772457498241484800,4.99348486328125,-0.9740447998046875,-0.2442169189453125,0.008453369140625
1772457498251553800,5.0035537109375,-0.964263916015625,-0.2421722412109375,0.007476806640625
1772457498261622800,5.013622802734375,-0.9580230712890625,-0.2443084716796875,0.0112457275390625
1772457498271690800,5.023690673828125,-0.9589080810546875,-0.24359130859375,0.012359619140625
1772457498281760000,5.033760009765625,-0.952911376953125,-0.2430267333984375,0.0139312744140625
1772457498291829000,5.0438291015625,-0.958770751953125,-0.24237060546875,0.015869140625
1772457498301898000,5.05389794921875,-0.9691314697265625,-0.2375640869140625,0.0123291015625
1772457498311966000,5.063966064453125,-0.9708099365234375,-0.236785888671875,0.0119476318359375
1772457498322035000,5.074034912109375,-0.9619293212890625,-0.239349365234375,0.010894775390625
1772457498332104000,5.08410400390625,-0.9605255126953125,-0.2402801513671875,0.011566162109375
1772457498342172000,5.094171875,-0.9656982421875,-0.2357330322265625,0.0157470703125
1772457498352241000,5.104240966796875,-0.962982177734375,-0.23626708984375,0.0188446044921875
1772457498362310000,5.114309814453125,-0.960205078125,-0.239288330078125,0.0198211669921875
1772457498372379000,5.12437890625,-0.957427978515625,-0.2398834228515625,0.0204010009765625
1772457498382447000,5.134447021484375,-0.9559173583984375,-0.2406463623046875,0.0174560546875
1772457498392515800,5.144515869140625,-0.957061767578125,-0.2430419921875,0.016937255859375
1772457498402584800,5.154584716796875,-0.9583587646484375,-0.242645263671875,0.0167694091796875
1772457498412653000,5.164653076171875,-0.9621734619140625,-0.244476318359375,0.0148468017578125
1772457498422721800,5.1747216796875,-0.96832275390625,-0.243865966796875,0.0134124755859375
1772457498432791000,5.184791015625,-0.96533203125,-0.2431793212890625,0.0138397216796875
1772457498442859800,5.19485986328125,-0.954498291015625,-0.24603271484375,0.0134124755859375
1772457498452927700,5.204927734375,-0.9503173828125,-0.2456207275390625,0.014495849609375
1772457498462997000,5.2149970703125,-0.95135498046875,-0.243438720703125,0.01715087890625
1772457498473065700,5.225065673828125,-0.9588775634765625,-0.242523193359375,0.0173492431640625
1772457498483133700,5.2351337890625,-0.9659423828125,-0.2375946044921875,0.016815185546875
1772457498493203000,5.245202880859375,-0.9665985107421875,-0.2373809814453125,0.01361083984375
1772457498503272000,5.25527197265625,-0.9669952392578125,-0.2392730712890625,0.0122222900390625
1772457498513341000,5.2653408203125,-0.9614715576171875,-0.239898681640625,0.0108489990234375
1772457498523409000,5.275408935546875,-0.958709716796875,-0.2399139404296875,0.0150909423828125
1772457498533478000,5.285477783203125,-0.95904541015625,-0.2404632568359375,0.0183868408203125
1772457498543547000,5.295546875,-0.9620513916015625,-0.239044189453125,0.021697998046875
1772457498553614800,5.30561474609375,-0.9607086181640625,-0.238311767578125,0.0227813720703125
1772457498563684000,5.31568408203125,-0.959320068359375,-0.23956298828125,0.0226898193359375
1772457498573752800,5.3257529296875,-0.9561767578125,-0.2396240234375,0.02099609375
1772457498583821800,5.33582177734375,-0.95556640625,-0.2412872314453125,0.0220184326171875
1772457498593890000,5.34589013671875,-0.9539031982421875,-0.2390594482421875,0.02392578125
1772457498603958800,5.355958740234375,-0.956695556640625,-0.2379608154296875,0.0224456787109375
1772457498614028000,5.366028076171875,-0.9669342041015625,-0.2412261962890625,0.019805908203125
1772457498624096000,5.376095947265625,-0.968475341796875,-0.2417449951171875,0.0095672607421875
1772457498634164700,5.386164794921875,-0.9654998779296875,-0.2446136474609375,0.0081787109375
1772457498644234000,5.39623388671875,-0.9581451416015625,-0.2467498779296875,0.009429931640625
1772457498654302700,5.406302734375,-0.952880859375,-0.250823974609375,0.00970458984375
1772457498664370700,5.41637060546875,-0.9556732177734375,-0.2506256103515625,0.0061187744140625
1772457498674440000,5.42643994140625,-0.9626312255859375,-0.247406005859375,0.0013885498046875
1772457498684509000,5.436509033203125,-0.9691162109375,-0.2458953857421875,0.0033721923828125
1772457498694577000,5.446576904296875,-0.9684906005859375,-0.2432708740234375,0.00372314453125
1772457498704646000,5.45664599609375,-0.9633636474609375,-0.2439727783203125,0.0057525634765625
1772457498714715000,5.46671484375,-0.957550048828125,-0.2451019287109375,0.009063720703125
1772457498724783900,5.476783935546875,-0.959259033203125,-0.2445831298828125,0.006317138671875
1772457498734851800,5.486851806640625,-0.9668426513671875,-0.2420806884765625,0.004150390625
1772457498744921000,5.496921142578125,-0.9715728759765625,-0.24066162109375,0.003326416015625
1772457498754989800,5.50698974609375,-0.9665374755859375,-0.244354248046875,0.005615234375
1772457498765057800,5.517057861328125,-0.963531494140625,-0.2433929443359375,0.010223388671875
1772457498775127000,5.527126953125,-0.9583282470703125,-0.2430267333984375,0.0145721435546875
1772457498785195800,5.53719580078125,-0.95556640625,-0.2415924072265625,0.0162811279296875
1772457498795265000,5.54726513671875,-0.9539031982421875,-0.24285888671875,0.01470947265625
1772457498805333000,5.5573330078125,-0.95660400390625,-0.2421875,0.0099945068359375
1772457498815401700,5.567401611328125,-0.960357666015625,-0.2410125732421875,0.00494384765625
1772457498825471000,5.577470947265625,-0.9603729248046875,-0.240753173828125,0.0086212158203125
1772457498835539000,5.5875390625,-0.959808349609375,-0.241668701171875,0.0115203857421875
1772457498845608000,5.59760791015625,-0.960693359375,-0.2426605224609375,0.0144805908203125
1772457498855677000,5.607677001953125,-0.956939697265625,-0.242279052734375,0.01922607421875
1772457498865745700,5.61774560546875,-0.9542083740234375,-0.2446136474609375,0.0189208984375
1772457498875814000,5.62781396484375,-0.9508514404296875,-0.2464599609375,0.0182952880859375
1772457498885883000,5.6378828125,-0.9510345458984375,-0.2450103759765625,0.0179901123046875
1772457498895952000,5.647951904296875,-0.956268310546875,-0.2431793212890625,0.018524169921875
1772457498906019600,5.65801953125,-0.96148681640625,-0.23895263671875,0.021881103515625
1772457498916088600,5.668088623046875,-0.9647674560546875,-0.2381744384765625,0.0223846435546875
1772457498926157800,5.67815771484375,-0.966644287109375,-0.2375335693359375,0.023773193359375
1772457498936226600,5.6882265625,-0.970703125,-0.237213134765625,0.0146636962890625
1772457498946294500,5.69829443359375,-0.9775543212890625,-0.2372589111328125,0.007476806640625
1772457498956363800,5.70836376953125,-0.9762115478515625,-0.2387237548828125,0.0052490234375
1772457498966432500,5.7184326171875,-0.9747772216796875,-0.240936279296875,0.0068511962890625
1772457498976500700,5.728500732421875,-0.97418212890625,-0.237701416015625,0.0092315673828125
1772457498986569700,5.73856982421875,-0.9679718017578125,-0.2377471923828125,0.01348876953125
1772457498996638500,5.748638427734375,-0.96380615234375,-0.2386322021484375,0.0162506103515625
1772457499006707700,5.758707763671875,-0.9578704833984375,-0.2405242919921875,0.0175018310546875
1772457499016775700,5.768775634765625,-0.9592132568359375,-0.241668701171875,0.015594482421875
1772457499026844700,5.7788447265625,-0.9588470458984375,-0.2402801513671875,0.0137176513671875
1772457499036913700,5.78891357421875,-0.9596710205078125,-0.2409515380859375,0.01220703125
1772457499046981600,5.798981689453125,-0.9656219482421875,-0.242156982421875,0.0118408203125
1772457499057050600,5.809050537109375,-0.970123291015625,-0.2383270263671875,0.007781982421875
1772457499067119600,5.81911962890625,-0.9728240966796875,-0.239044189453125,0.0096588134765625
1772457499077188600,5.829188720703125,-0.9692840576171875,-0.2414398193359375,0.0140838623046875
1772457499087256600,5.839256591796875,-0.9599609375,-0.2439422607421875,0.0127410888671875
1772457499097325600,5.84932568359375,-0.959716796875,-0.2475738525390625,0.014984130859375
1772457499107394800,5.859394775390625,-0.9577178955078125,-0.24835205078125,0.0153961181640625
1772457499117462500,5.869462646484375,-0.958740234375,-0.2477569580078125,0.0127716064453125
1772457499127531500,5.879531494140625,-0.959136962890625,-0.24945068359375,0.0121002197265625
1772457499137600800,5.889600830078125,-0.961395263671875,-0.2485198974609375,0.0112152099609375
1772457499147669500,5.89966943359375,-0.9604644775390625,-0.24700927734375,0.0135040283203125
1772457499157737700,5.90973779296875,-0.9566802978515625,-0.2469940185546875,0.0139617919921875
1772457499167806700,5.919806640625,-0.954376220703125,-0.247467041015625,0.0125732421875
1772457499177875500,5.92987548828125,-0.96063232421875,-0.2444000244140625,0.0085296630859375
1772457499187943700,5.939943603515625,-0.9594879150390625,-0.24298095703125,0.008392333984375
1772457499198012700,5.9500126953125,-0.955474853515625,-0.2432861328125,0.0100250244140625
1772457499208081700,5.96008154296875,-0.9576873779296875,-0.23992919921875,0.01190185546875
1772457499218150700,5.970150634765625,-0.9630279541015625,-0.23834228515625,0.0113372802734375
1772457499228218600,5.980218505859375,-0.96343994140625,-0.237152099609375,0.0147857666015625
1772457499238287600,5.99028759765625,-0.9593658447265625,-0.2371063232421875,0.01531982421875
1772457499248356600,6.000356689453125,-0.9580078125,-0.2360076904296875,0.0180816650390625
1772457499258424600,6.010424560546875,-0.9550323486328125,-0.2369842529296875,0.0180511474609375
1772457499268493600,6.02049365234375,-0.9564361572265625,-0.237274169921875,0.0182037353515625
1772457499278562600,6.0305625,-0.9610443115234375,-0.2362518310546875,0.0198516845703125
1772457499288630800,6.040630859375,-0.9637298583984375,-0.2360076904296875,0.0171356201171875
1772457499298699500,6.050699462890625,-0.9589691162109375,-0.2386932373046875,0.016326904296875
1772457499308768800,6.060768798828125,-0.95770263671875,-0.2413787841796875,0.0160369873046875
1772457499318837800,6.070837646484375,-0.9571990966796875,-0.2418365478515625,0.0146331787109375
1772457499328905500,6.080905517578125,-0.9603271484375,-0.2436981201171875,0.012237548828125
1772457499338974700,6.090974609375,-0.96826171875,-0.24267578125,0.0113067626953125
1772457499349043700,6.101043701171875,-0.968994140625,-0.242828369140625,0.0084381103515625
1772457499359112700,6.11111279296875,-0.9688720703125,-0.24334716796875,0.0082244873046875
1772457499369180700,6.1211806640625,-0.9613800048828125,-0.2481689453125,0.0071868896484375
1772457499379249700,6.131249755859375,-0.9559783935546875,-0.2500762939453125,0.010589599609375
1772457499389318700,6.141318603515625,-0.955047607421875,-0.2494964599609375,0.0136871337890625
1772457499399386600,6.15138671875,-0.9528045654296875,-0.2477264404296875,0.01251220703125
1772457499409455600,6.16145556640625,-0.9542236328125,-0.24639892578125,0.0116729736328125
1772457499419524600,6.171524658203125,-0.958343505859375,-0.2428436279296875,0.0141143798828125
1772457499429593600,6.181593505859375,-0.9602203369140625,-0.24053955078125,0.015533447265625
1772457499439661800,6.191661865234375,-0.95904541015625,-0.24163818359375,0.0159149169921875
1772457499449730600,6.20173046875,-0.9535064697265625,-0.24273681640625,0.0175323486328125
1772457499459799600,6.211799560546875,-0.9566650390625,-0.2412872314453125,0.0180206298828125
1772457499469867800,6.22186767578125,-0.9665069580078125,-0.241455078125,0.01043701171875
1772457499479936500,6.2319365234375,-0.963531494140625,-0.2434234619140625,0.0118408203125
1772457499490005800,6.242005859375,-0.9590911865234375,-0.246551513671875,0.01397705078125
1772457499500073700,6.25207373046875,-0.9556732177734375,-0.247222900390625,0.0154876708984375
1772457499510142500,6.262142578125,-0.9572906494140625,-0.2474517822265625,0.015228271484375
1772457499520211700,6.272211669921875,-0.961578369140625,-0.2455902099609375,0.015350341796875
1772457499530280700,6.28228076171875,-0.9739990234375,-0.243255615234375,0.00872802734375
1772457499540348400,6.292348388671875,-0.97833251953125,-0.2442626953125,0.007720947265625
1772457499550417700,6.302417724609375,-0.9676055908203125,-0.2465362548828125,0.005645751953125
1772457499560486700,6.312486572265625,-0.958648681640625,-0.246734619140625,0.0104522705078125
1772457499570554600,6.3225546875,-0.95465087890625,-0.2470245361328125,0.0171661376953125
1772457499580623600,6.33262353515625,-0.9581756591796875,-0.244964599609375,0.022064208984375
1772457499590692600,6.342692626953125,-0.9631805419921875,-0.2439117431640625,0.020751953125
1772457499600761600,6.35276171875,-0.967254638671875,-0.2437896728515625,0.0203094482421875
1772457499610829600,6.36282958984375,-0.9601287841796875,-0.244415283203125,0.01983642578125
1772457499620898800,6.37289892578125,-0.951507568359375,-0.2478790283203125,0.0195465087890625
1772457499630967600,6.382967529296875,-0.9488067626953125,-0.24951171875,0.0193328857421875
1772457499641035500,6.393035400390625,-0.9494171142578125,-0.246246337890625,0.0221099853515625
1772457499651104800,6.403104736328125,-0.9568634033203125,-0.24298095703125,0.0246734619140625
1772457499661173500,6.413173583984375,-0.966217041015625,-0.237762451171875,0.02301025390625
1772457499671242800,6.42324267578125,-0.9708404541015625,-0.23529052734375,0.0207366943359375
1772457499681310700,6.433310791015625,-0.970916748046875,-0.233978271484375,0.0205230712890625
1772457499691379500,6.44337939453125,-0.9656829833984375,-0.236572265625,0.018768310546875
1772457499701448700,6.45344873046875,-0.9670867919921875,-0.23468017578125,0.017730712890625
1772457499711516700,6.4635166015625,-0.9675445556640625,-0.2344512939453125,0.0182342529296875
1772457499721585700,6.473585693359375,-0.967620849609375,-0.2332000732421875,0.01983642578125
1772457499731654700,6.483654541015625,-0.96746826171875,-0.231964111328125,0.018524169921875
1772457499741723600,6.4937236328125,-0.9652099609375,-0.236297607421875,0.0172119140625
1772457499751791600,6.50379150390625,-0.9645538330078125,-0.2376861572265625,0.0169525146484375
1772457499761860600,6.513860595703125,-0.9675140380859375,-0.237518310546875,0.01373291015625
1772457499771929900,6.523929931640625,-0.9742889404296875,-0.2358245849609375,0.0141448974609375
1772457499781997600,6.53399755859375,-0.973724365234375,-0.238250732421875,0.015167236328125
1772457499792066600,6.544066650390625,-0.9654541015625,-0.242523193359375,0.0149078369140625
1772457499802135800,6.5541357421875,-0.9609375,-0.2449951171875,0.016265869140625
1772457499812204500,6.56420458984375,-0.9598541259765625,-0.2455902099609375,0.0155792236328125
1772457499822272500,6.5742724609375,-0.9599151611328125,-0.24566650390625,0.013275146484375
1772457499832341800,6.584341796875,-0.9702911376953125,-0.2434234619140625,0.013397216796875
1772457499842410500,6.594410400390625,-0.974365234375,-0.24310302734375,0.0084381103515625
1772457499852478700,6.604478759765625,-0.97064208984375,-0.2432403564453125,0.0098876953125
1772457499862547700,6.614547607421875,-0.95953369140625,-0.2479248046875,0.0138092041015625
1772457499872616400,6.624616455078125,-0.95770263671875,-0.24847412109375,0.0130157470703125
1772457499882685700,6.634685791015625,-0.957061767578125,-0.2466888427734375,0.013336181640625
1772457499892753700,6.644753662109375,-0.9594879150390625,-0.2458038330078125,0.01324462890625
1772457499902822700,6.65482275390625,-0.966400146484375,-0.24224853515625,0.0134429931640625
1772457499912891600,6.6648916015625,-0.96533203125,-0.2408447265625,0.014190673828125
1772457499922960000,6.6749599609375,-0.9591064453125,-0.2417755126953125,0.015472412109375
1772457499933028600,6.685028564453125,-0.95159912109375,-0.2415771484375,0.0171356201171875
1772457499943097900,6.695097900390625,-0.948760986328125,-0.2405548095703125,0.0204620361328125
1772457499953166800,6.705166748046875,-0.9518890380859375,-0.2379302978515625,0.0204620361328125
1772457499963234600,6.715234619140625,-0.957427978515625,-0.236907958984375,0.0188446044921875
1772457499973303800,6.7253037109375,-0.9608154296875,-0.2365875244140625,0.0172119140625
1772457499983372800,6.735372802734375,-0.9669189453125,-0.2330474853515625,0.0159454345703125
1772457499993440500,6.7454404296875,-0.9639892578125,-0.2352294921875,0.017547607421875
1772457500003509800,6.755509765625,-0.958404541015625,-0.238433837890625,0.020263671875
1772457500013578800,6.765578857421875,-0.9562225341796875,-0.2407073974609375,0.023773193359375
1772457500023647700,6.775647705078125,-0.954833984375,-0.2406463623046875,0.0240936279296875
1772457500033715700,6.7857158203125,-0.95941162109375,-0.238037109375,0.018585205078125
1772457500043784700,6.79578466796875,-0.96044921875,-0.24090576171875,0.0174407958984375
1772457500053853700,6.805853759765625,-0.9608612060546875,-0.2403411865234375,0.0188140869140625
1772457500063921700,6.815921630859375,-0.960845947265625,-0.2401580810546875,0.017578125
1772457500073991000,6.825990966796875,-0.959991455078125,-0.241424560546875,0.0173492431640625
1772457500084059600,6.8360595703125,-0.9591064453125,-0.24395751953125,0.0158538818359375
1772457500094128600,6.846128662109375,-0.963531494140625,-0.245880126953125,0.0117950439453125
1772457500104196900,6.85619677734375,-0.9648284912109375,-0.24383544921875,0.0078277587890625
1772457500114265600,6.866265625,-0.965576171875,-0.246429443359375,0.0092620849609375
1772457500124334800,6.8763349609375,-0.9659576416015625,-0.246673583984375,0.00823974609375
1772457500134402800,6.88640283203125,-0.96240234375,-0.24859619140625,0.0119476318359375
1772457500144471600,6.896471435546875,-0.9549102783203125,-0.2467803955078125,0.0158843994140625
1772457500154540800,6.906540771484375,-0.9494171142578125,-0.2470703125,0.018798828125
1772457500164609800,6.91660986328125,-0.946990966796875,-0.249267578125,0.01751708984375
1772457500174677500,6.926677490234375,-0.955352783203125,-0.248016357421875,0.014251708984375
1772457500184746800,6.936746826171875,-0.9632110595703125,-0.24609375,0.0101776123046875
1772457500194815700,6.946815673828125,-0.9642333984375,-0.24639892578125,0.0067291259765625
1772457500204883700,6.9568837890625,-0.961883544921875,-0.2461090087890625,0.008270263671875
1772457500214952700,6.96695263671875,-0.9592132568359375,-0.2434539794921875,0.0117950439453125
1772457500225022000,6.97702197265625,-0.961944580078125,-0.2409820556640625,0.0167236328125
1772457500235090700,6.987090576171875,-0.97015380859375,-0.238067626953125,0.014617919921875
1772457500245158700,6.99715869140625,-0.9750518798828125,-0.238311767578125,0.0093994140625
1772457500255228000,7.007227783203125,-0.973480224609375,-0.2410430908203125,0.0086212158203125
1772457500265296600,7.017296630859375,-0.968902587890625,-0.2415924072265625,0.011444091796875
1772457500275364600,7.027364501953125,-0.9571990966796875,-0.24365234375,0.015777587890625
1772457500285433900,7.037433837890625,-0.954010009765625,-0.24273681640625,0.0186614990234375
1772457500295502600,7.047502685546875,-0.9579620361328125,-0.2397918701171875,0.0170135498046875
1772457500305571800,7.05757177734375,-0.959136962890625,-0.2382354736328125,0.01593017578125
1772457500315639800,7.067639892578125,-0.9581756591796875,-0.239410400390625,0.0142974853515625
1772457500325708500,7.07770849609375,-0.9577178955078125,-0.243682861328125,0.0107574462890625
1772457500335777800,7.08777783203125,-0.9607086181640625,-0.2439422607421875,0.008056640625
1772457500345845800,7.097845703125,-0.960235595703125,-0.2442779541015625,0.0091400146484375
1772457500355914800,7.107914794921875,-0.9524078369140625,-0.2456512451171875,0.0137176513671875
1772457500365983700,7.117983642578125,-0.948272705078125,-0.24627685546875,0.017730712890625
1772457500376052700,7.128052734375,-0.944122314453125,-0.246551513671875,0.017578125
1772457500386120700,7.13812060546875,-0.953643798828125,-0.244720458984375,0.0163116455078125
1772457500396189700,7.148189697265625,-0.962554931640625,-0.243316650390625,0.0142059326171875
1772457500406259000,7.158259033203125,-0.969146728515625,-0.2440338134765625,0.011962890625
1772457500416326700,7.16832666015625,-0.9754180908203125,-0.2421875,0.00933837890625
1772457500426395600,7.178395751953125,-0.973297119140625,-0.2419281005859375,0.006072998046875
1772457500436465000,7.18846484375,-0.96435546875,-0.243927001953125,0.0069732666015625
1772457500446532600,7.19853271484375,-0.9608612060546875,-0.2451934814453125,0.0103607177734375
1772457500456601600,7.2086015625,-0.9600372314453125,-0.2441253662109375,0.011932373046875
1772457500466670800,7.2186708984375,-0.9659881591796875,-0.2420501708984375,0.011260986328125
1772457500476739600,7.228739501953125,-0.9715728759765625,-0.2382049560546875,0.011749267578125
1772457500486807800,7.238807861328125,-0.9688568115234375,-0.237884521484375,0.0158843994140625
1772457500496876800,7.248876708984375,-0.9615478515625,-0.2395782470703125,0.0194244384765625
1772457500506945500,7.258945556640625,-0.95361328125,-0.2400360107421875,0.0195159912109375
1772457500517013800,7.269013671875,-0.9521331787109375,-0.24169921875,0.016876220703125
1772457500527082800,7.279082763671875,-0.9574127197265625,-0.2434234619140625,0.0101470947265625
1772457500537151700,7.28915185546875,-0.9624176025390625,-0.2433319091796875,0.008087158203125
1772457500547220700,7.299220703125,-0.9643402099609375,-0.2429046630859375,0.0088348388671875
1772457500557288700,7.309288818359375,-0.9634246826171875,-0.2418670654296875,0.0108184814453125
1772457500567357700,7.319357666015625,-0.963653564453125,-0.242645263671875,0.013763427734375
1772457500577426700,7.3294267578125,-0.966033935546875,-0.243072509765625,0.0127105712890625
1772457500587494700,7.33949462890625,-0.9611968994140625,-0.245208740234375,0.0117340087890625
1772457500597563600,7.349563720703125,-0.961761474609375,-0.2476959228515625,0.0113372802734375
1772457500607632600,7.359632568359375,-0.961639404296875,-0.2458343505859375,0.010650634765625
1772457500617702000,7.369701904296875,-0.958343505859375,-0.245574951171875,0.0145416259765625
1772457500627769600,7.37976953125,-0.9664154052734375,-0.2434539794921875,0.0153350830078125
1772457500637838800,7.3898388671875,-0.9686737060546875,-0.2415924072265625,0.01593017578125
1772457500647907800,7.399907958984375,-0.964019775390625,-0.2410888671875,0.015533447265625
1772457500657975600,7.4099755859375,-0.956512451171875,-0.243408203125,0.0166778564453125
1772457500668044800,7.420044921875,-0.9540557861328125,-0.242889404296875,0.017913818359375
1772457500678113800,7.43011376953125,-0.9505615234375,-0.241729736328125,0.0181884765625
1772457500688182800,7.440182861328125,-0.951904296875,-0.23992919921875,0.0179901123046875
1772457500698250800,7.450250732421875,-0.9566497802734375,-0.237579345703125,0.0156097412109375
1772457500708319700,7.46031982421875,-0.9648590087890625,-0.23895263671875,0.008209228515625
1772457500718388700,7.470388671875,-0.96923828125,-0.238494873046875,0.0086212158203125
1772457500728456700,7.480456787109375,-0.9654693603515625,-0.2392730712890625,0.01153564453125
1772457500738525700,7.490525634765625,-0.9591217041015625,-0.2422332763671875,0.0161285400390625
1772457500748594700,7.5005947265625,-0.95794677734375,-0.2423553466796875,0.0177001953125
1772457500758663700,7.51066357421875,-0.95867919921875,-0.2401123046875,0.021881103515625
1772457500768732000,7.52073193359375,-0.961151123046875,-0.2413330078125,0.0188446044921875
1772457500778800600,7.530800537109375,-0.9611968994140625,-0.2440948486328125,0.0128021240234375
1772457500788869600,7.54086962890625,-0.9615936279296875,-0.2456207275390625,0.010223388671875
1772457500798937900,7.550937744140625,-0.965576171875,-0.2451324462890625,0.0079803466796875
1772457500809006600,7.561006591796875,-0.9625396728515625,-0.24365234375,0.0071258544921875
1772457500819075800,7.571075927734375,-0.9678192138671875,-0.2429046630859375,0.0037841796875
1772457500829144800,7.581144775390625,-0.9786376953125,-0.241058349609375,0.00244140625
1772457500839212500,7.591212646484375,-0.971923828125,-0.242523193359375,0.0043182373046875
1772457500849281800,7.60128173828125,-0.95806884765625,-0.24755859375,0.009735107421875
1772457500859350800,7.611350830078125,-0.9546661376953125,-0.2475738525390625,0.0106048583984375
1772457500869418500,7.62141845703125,-0.9576263427734375,-0.2448883056640625,0.0131988525390625
1772457500879487700,7.63148779296875,-0.955657958984375,-0.245880126953125,0.0114898681640625
1772457500889556700,7.641556640625,-0.9538421630859375,-0.24554443359375,0.0112762451171875
1772457500899625000,7.651625,-0.954315185546875,-0.2433624267578125,0.0107879638671875
1772457500909694000,7.66169384765625,-0.9597320556640625,-0.2420196533203125,0.0105743408203125
1772457500919763200,7.67176318359375,-0.9555816650390625,-0.24334716796875,0.010467529296875
1772457500929832000,7.68183203125,-0.9548797607421875,-0.2437286376953125,0.01171875
1772457500939900000,7.69189990234375,-0.95855712890625,-0.2414093017578125,0.0125579833984375
1772457500949969200,7.70196923828125,-0.95526123046875,-0.242828369140625,0.01123046875
1772457500960038000,7.712037841796875,-0.95562744140625,-0.2415771484375,0.0152130126953125
1772457500970106000,7.722106201171875,-0.9582977294921875,-0.24005126953125,0.0162811279296875
1772457500980175000,7.732175048828125,-0.9629669189453125,-0.2389678955078125,0.016937255859375
1772457500990243800,7.742243896484375,-0.96368408203125,-0.239654541015625,0.0201416015625
1772457501000313000,7.75231298828125,-0.95928955078125,-0.240875244140625,0.0208282470703125
1772457501010381000,7.762381103515625,-0.9608154296875,-0.2431640625,0.01849365234375
1772457501020450000,7.772449951171875,-0.9600067138671875,-0.242706298828125,0.0139312744140625
1772457501030519000,7.78251904296875,-0.958038330078125,-0.2434539794921875,0.0128173828125
1772457501040587000,7.7925869140625,-0.964080810546875,-0.2437744140625,0.014556884765625
1772457501050656000,7.802656005859375,-0.9666290283203125,-0.242156982421875,0.0180206298828125
1772457501060725000,7.81272509765625,-0.9664764404296875,-0.2393341064453125,0.0189666748046875
1772457501070794000,7.8227939453125,-0.965789794921875,-0.241241455078125,0.0184326171875
1772457501080862000,7.832862060546875,-0.9619903564453125,-0.2429962158203125,0.0197296142578125
1772457501090931000,7.842930908203125,-0.9550933837890625,-0.2449493408203125,0.01788330078125
1772457501101000200,7.853000244140625,-0.952850341796875,-0.2458343505859375,0.016937255859375
1772457501111068000,7.86306787109375,-0.9547271728515625,-0.2458953857421875,0.0168609619140625
1772457501121137000,7.873136962890625,-0.9566802978515625,-0.2446441650390625,0.018035888671875
1772457501131206100,7.8832060546875,-0.962554931640625,-0.2425994873046875,0.0184173583984375
1772457501141275000,7.89327490234375,-0.9668731689453125,-0.2397308349609375,0.01336669921875
1772457501151343000,7.903343017578125,-0.9676513671875,-0.2408294677734375,0.0087890625
1772457501161412000,7.913412109375,-0.970001220703125,-0.2415313720703125,0.009765625
1772457501171480800,7.923480712890625,-0.964324951171875,-0.2394866943359375,0.012969970703125
1772457501181549000,7.933549072265625,-0.9610137939453125,-0.2420806884765625,0.0174102783203125
1772457501191618000,7.9436181640625,-0.95849609375,-0.2411956787109375,0.0187835693359375
1772457501201687000,7.95368701171875,-0.9598388671875,-0.2408294677734375,0.0193023681640625
1772457501211755000,7.963755126953125,-0.9588775634765625,-0.2413177490234375,0.0152740478515625
1772457501221824000,7.973823974609375,-0.96063232421875,-0.241241455078125,0.0146026611328125
1772457501231893000,7.98389306640625,-0.9621734619140625,-0.24188232421875,0.013397216796875
1772457501241962000,7.9939619140625,-0.9698333740234375,-0.2401580810546875,0.016082763671875
1772457501252030000,8.004030029296874,-0.967193603515625,-0.241119384765625,0.014312744140625
1772457501262099000,8.014098876953126,-0.9642486572265625,-0.2420196533203125,0.015594482421875
1772457501272168000,8.02416796875,-0.9654998779296875,-0.2396392822265625,0.014617919921875
1772457501282236200,8.034236083984375,-0.970489501953125,-0.2408294677734375,0.014373779296875
1772457501292305000,8.044304931640625,-0.9714508056640625,-0.2398529052734375,0.0144195556640625
1772457501302374100,8.0543740234375,-0.972564697265625,-0.240142822265625,0.0127105712890625
1772457501312443100,8.064443115234376,-0.97216796875,-0.241912841796875,0.01458740234375
1772457501322510800,8.0745107421875,-0.9642181396484375,-0.243408203125,0.017425537109375
1772457501332580000,8.084580078125,-0.958282470703125,-0.2462310791015625,0.0197296142578125
1772457501342649000,8.094649169921874,-0.9533843994140625,-0.2457427978515625,0.019683837890625
1772457501352716800,8.104716796875,-0.9528961181640625,-0.24566650390625,0.0194549560546875
1772457501362786000,8.1147861328125,-0.960052490234375,-0.2434844970703125,0.0160064697265625
1772457501372855000,8.12485498046875,-0.9677276611328125,-0.2425079345703125,0.0119171142578125
1772457501382924000,8.134924072265624,-0.965545654296875,-0.2436370849609375,0.016143798828125
1772457501392992000,8.144991943359376,-0.9609527587890625,-0.2418212890625,0.0164337158203125
1772457501403061000,8.15506103515625,-0.9617462158203125,-0.2389068603515625,0.0158538818359375
1772457501413130000,8.1651298828125,-0.9673309326171875,-0.2379302978515625,0.01885986328125
1772457501423198000,8.175197998046874,-0.97174072265625,-0.2365875244140625,0.0171051025390625
1772457501433267200,8.18526708984375,-0.96343994140625,-0.235504150390625,0.0174102783203125
1772457501443336000,8.1953359375,-0.95733642578125,-0.239715576171875,0.019317626953125
1772457501453405000,8.205405029296875,-0.9574127197265625,-0.2391357421875,0.0216827392578125
1772457501463473200,8.21547314453125,-0.954498291015625,-0.2364349365234375,0.020721435546875
1772457501473542000,8.2255419921875,-0.960479736328125,-0.238006591796875,0.0213623046875
1772457501483611100,8.235611083984375,-0.9652099609375,-0.237945556640625,0.0183868408203125
1772457501493679000,8.24567919921875,-0.961761474609375,-0.2405242919921875,0.0154571533203125
1772457501503747800,8.255747802734374,-0.960113525390625,-0.2443695068359375,0.016998291015625
1772457501513817000,8.265817138671874,-0.9524993896484375,-0.2452392578125,0.0167694091796875
1772457501523885000,8.275885009765625,-0.9494476318359375,-0.2442474365234375,0.0172271728515625
1772457501533953800,8.285953857421875,-0.9454193115234375,-0.2454681396484375,0.0177154541015625
1772457501544023000,8.29602294921875,-0.953643798828125,-0.2454833984375,0.0124664306640625
1772457501554092000,8.306092041015624,-0.96435546875,-0.243896484375,0.005706787109375
1772457501564160000,8.316159912109375,-0.96832275390625,-0.2423248291015625,0.0059967041015625
1772457501574229000,8.32622900390625,-0.966339111328125,-0.244476318359375,0.008026123046875
1772457501584300000,8.336300048828125,-0.962921142578125,-0.2453155517578125,0.0087890625
1772457501594368000,8.346367919921875,-0.9597930908203125,-0.2436065673828125,0.0095672607421875
1772457501604437000,8.35643701171875,-0.9652099609375,-0.243133544921875,0.0103912353515625
1772457501614506000,8.366506103515626,-0.970062255859375,-0.241302490234375,0.00738525390625
1772457501624574000,8.376573974609375,-0.9683837890625,-0.24176025390625,0.0069122314453125
1772457501634643200,8.386643310546875,-0.9622039794921875,-0.243316650390625,0.0083770751953125
1772457501644712000,8.3967119140625,-0.956695556640625,-0.2449951171875,0.0115203857421875
1772457501654780000,8.40677978515625,-0.954925537109375,-0.244903564453125,0.014068603515625
1772457501664849200,8.41684912109375,-0.9545745849609375,-0.244354248046875,0.0131988525390625
1772457501674918000,8.42691796875,-0.9601898193359375,-0.242523193359375,0.0145111083984375
1772457501684987100,8.436987060546874,-0.96295166015625,-0.2409820556640625,0.0150604248046875
1772457501695055000,8.44705517578125,-0.9653167724609375,-0.2405548095703125,0.014739990234375
1772457501705123800,8.457123779296875,-0.9637603759765625,-0.240936279296875,0.015472412109375
1772457501715193000,8.467193115234375,-0.959503173828125,-0.241607666015625,0.019500732421875
1772457501725261000,8.477260986328124,-0.955657958984375,-0.2419586181640625,0.0217132568359375
1772457501735330000,8.487330078125,-0.954498291015625,-0.241790771484375,0.02093505859375
1772457501745399000,8.49739892578125,-0.9571685791015625,-0.2389373779296875,0.0174407958984375
1772457501755468000,8.507468017578125,-0.9635467529296875,-0.2374114990234375,0.012481689453125
1772457501765536000,8.517535888671874,-0.9642333984375,-0.238800048828125,0.009002685546875
1772457501775605000,8.52760498046875,-0.963592529296875,-0.2385101318359375,0.0110321044921875
1772457501785674000,8.537674072265625,-0.958465576171875,-0.2397613525390625,0.0123291015625
1772457501795742000,8.547741943359375,-0.95556640625,-0.24481201171875,0.0120697021484375
1772457501805811000,8.55781103515625,-0.9582366943359375,-0.2450103759765625,0.01318359375
1772457501815880000,8.5678798828125,-0.9638671875,-0.2436676025390625,0.0081787109375
1772457501825948000,8.577947998046875,-0.95770263671875,-0.2436065673828125,0.0104217529296875
1772457501836017200,8.58801708984375,-0.9539337158203125,-0.2470703125,0.0112457275390625
1772457501846086100,8.598086181640625,-0.9537811279296875,-0.2453155517578125,0.0123291015625
1772457501856155000,8.60815478515625,-0.9568328857421875,-0.24322509765625,0.0156097412109375
1772457501866223000,8.61822314453125,-0.9667205810546875,-0.2401275634765625,0.0162506103515625
1772457501876292000,8.6282919921875,-0.976348876953125,-0.2365570068359375,0.01531982421875
1772457501886361000,8.638361083984375,-0.977630615234375,-0.235076904296875,0.0150299072265625
1772457501896429000,8.648428955078124,-0.9768218994140625,-0.2366943359375,0.013763427734375
1772457501906497500,8.65849755859375,-0.972412109375,-0.2367095947265625,0.0134124755859375
1772457501916566300,8.668566162109375,-0.96673583984375,-0.2348785400390625,0.015625
1772457501926635500,8.678635498046875,-0.9677581787109375,-0.2364349365234375,0.0131072998046875
1772457501936703500,8.688703369140624,-0.9763641357421875,-0.235015869140625,0.0111083984375
1772457501946772500,8.6987724609375,-0.97479248046875,-0.236083984375,0.009857177734375
1772457501956841500,8.708841552734375,-0.9666748046875,-0.2377166748046875,0.0130462646484375
1772457501966909400,8.718909423828125,-0.9603729248046875,-0.2396697998046875,0.0140380859375
1772457501976978400,8.728978515625,-0.9542083740234375,-0.2400054931640625,0.01544189453125
1772457501987047400,8.73904736328125,-0.9492645263671875,-0.2404022216796875,0.017791748046875
1772457501997116700,8.74911669921875,-0.9572906494140625,-0.2384033203125,0.0203399658203125
1772457502007184400,8.759184326171875,-0.9617919921875,-0.2372283935546875,0.0179901123046875
1772457502017253400,8.76925341796875,-0.95977783203125,-0.237518310546875,0.0175018310546875
1772457502027322600,8.779322509765626,-0.95648193359375,-0.239593505859375,0.0156707763671875
1772457502037390600,8.789390625,-0.9575958251953125,-0.2413330078125,0.015380859375
1772457502047459300,8.799459228515625,-0.9562835693359375,-0.2447052001953125,0.0143585205078125
1772457502057528600,8.809528564453124,-0.96136474609375,-0.2471466064453125,0.01031494140625
1772457502067597300,8.819597412109376,-0.9572296142578125,-0.2485504150390625,0.007659912109375
1772457502077665500,8.82966552734375,-0.9487457275390625,-0.252410888671875,0.0105438232421875
1772457502087734500,8.839734619140625,-0.944580078125,-0.2535400390625,0.012603759765625
1772457502097803300,8.84980322265625,-0.9468231201171875,-0.2500457763671875,0.01123046875
1772457502107871500,8.85987158203125,-0.9546356201171875,-0.24493408203125,0.012908935546875
1772457502117940500,8.8699404296875,-0.96533203125,-0.2401580810546875,0.0136871337890625
1772457502128009500,8.880009521484375,-0.9700775146484375,-0.2378387451171875,0.013397216796875
1772457502138077400,8.890077392578124,-0.9668426513671875,-0.235931396484375,0.0130767822265625
1772457502148146400,8.900146484375,-0.9648895263671875,-0.2341766357421875,0.0154266357421875
1772457502158215400,8.91021533203125,-0.9659881591796875,-0.2343597412109375,0.0179595947265625
1772457502168284400,8.920284423828125,-0.970306396484375,-0.2309112548828125,0.020294189453125
1772457502178352400,8.930352294921875,-0.979248046875,-0.2279052734375,0.017791748046875
1772457502188421400,8.94042138671875,-0.9825439453125,-0.227020263671875,0.0192413330078125
1772457502198490400,8.950490478515626,-0.973968505859375,-0.22857666015625,0.0235443115234375
1772457502208558600,8.96055859375,-0.9637603759765625,-0.2314453125,0.0250091552734375
1772457502218627300,8.97062744140625,-0.95697021484375,-0.2328033447265625,0.0269622802734375
1772457502228696600,8.980696533203124,-0.956634521484375,-0.234619140625,0.02777099609375
1772457502238765600,8.990765625,-0.960205078125,-0.235870361328125,0.0245513916015625
1772457502248833500,9.00083349609375,-0.967864990234375,-0.235137939453125,0.02008056640625
1772457502258902500,9.010902587890625,-0.967071533203125,-0.23614501953125,0.0174102783203125
1772457502268971500,9.020971435546874,-0.9608612060546875,-0.2408294677734375,0.017120361328125
1772457502279039500,9.03103955078125,-0.9627685546875,-0.242462158203125,0.0129852294921875
1772457502289108500,9.0411083984375,-0.966644287109375,-0.242156982421875,0.0112152099609375
1772457502299177500,9.051177490234375,-0.9691009521484375,-0.2436065673828125,0.0094146728515625
1772457502309245700,9.06124560546875,-0.970062255859375,-0.2435302734375,0.0106658935546875
1772457502319314400,9.071314453125,-0.965850830078125,-0.2433929443359375,0.013427734375
1772457502329383400,9.081383544921875,-0.95721435546875,-0.2440185546875,0.0155181884765625
1772457502339452400,9.091452392578125,-0.9556732177734375,-0.24444580078125,0.016143798828125
1772457502349520400,9.101520263671874,-0.9553985595703125,-0.2440948486328125,0.01397705078125
1772457502359589600,9.111589599609376,-0.9586181640625,-0.2420501708984375,0.0124053955078125
1772457502369658400,9.121658447265625,-0.958587646484375,-0.2410736083984375,0.0116424560546875
1772457502379726300,9.131726318359375,-0.957611083984375,-0.2418975830078125,0.0116119384765625
1772457502389795600,9.141795654296875,-0.9591064453125,-0.2430419921875,0.0126800537109375
1772457502399864300,9.1518642578125,-0.95745849609375,-0.2444000244140625,0.013214111328125
1772457502409933600,9.16193359375,-0.9549713134765625,-0.2439727783203125,0.0160675048828125
1772457502420001500,9.17200146484375,-0.9559783935546875,-0.24267578125,0.0143890380859375
1772457502430070500,9.182070556640625,-0.9521026611328125,-0.244384765625,0.01361083984375
1772457502440139500,9.192139404296874,-0.954925537109375,-0.242340087890625,0.0133819580078125
1772457502450207500,9.20220751953125,-0.96014404296875,-0.23846435546875,0.015533447265625
1772457502460276500,9.2122763671875,-0.961029052734375,-0.2367706298828125,0.0194854736328125
1772457502470345500,9.222345458984375,-0.9661865234375,-0.2373504638671875,0.017120361328125
1772457502480414500,9.23241455078125,-0.975067138671875,-0.23565673828125,0.013427734375
1772457502490482700,9.242482666015626,-0.9793548583984375,-0.2349090576171875,0.016754150390625
1772457502500551400,9.252551513671875,-0.972198486328125,-0.2348175048828125,0.0182647705078125
1772457502510620400,9.262620361328125,-0.9672393798828125,-0.23291015625,0.0167694091796875
1772457502520688600,9.272688720703124,-0.968658447265625,-0.231170654296875,0.0140380859375
1772457502530757400,9.28275732421875,-0.97650146484375,-0.2320709228515625,0.01422119140625
1772457502540826600,9.29282666015625,-0.981475830078125,-0.2329559326171875,0.012664794921875
1772457502550894600,9.30289453125,-0.97857666015625,-0.2347869873046875,0.0116119384765625
1772457502560963300,9.31296337890625,-0.971038818359375,-0.236053466796875,0.01904296875
1772457502571032600,9.323032470703126,-0.9613494873046875,-0.23858642578125,0.0236968994140625
1772457502581101300,9.333101318359375,-0.95001220703125,-0.2409515380859375,0.025115966796875
1772457502591169300,9.343169189453125,-0.9513397216796875,-0.2431182861328125,0.0214080810546875
1772457502601238500,9.353238525390625,-0.954498291015625,-0.2391815185546875,0.0162506103515625
1772457502611307300,9.363307373046876,-0.9598388671875,-0.2399749755859375,0.015228271484375
1772457502621375500,9.37337548828125,-0.959503173828125,-0.2379913330078125,0.0165863037109375
1772457502631444500,9.383444580078125,-0.9615631103515625,-0.23822021484375,0.0185699462890625
1772457502641513500,9.393513427734375,-0.96075439453125,-0.239105224609375,0.015899658203125
1772457502651582500,9.40358251953125,-0.95758056640625,-0.2418670654296875,0.01611328125
1772457502661650400,9.413650390625,-0.9535675048828125,-0.2430267333984375,0.013702392578125
1772457502671719400,9.423719482421875,-0.95404052734375,-0.2431488037109375,0.01080322265625
1772457502681788400,9.433788330078125,-0.960906982421875,-0.2407684326171875,0.0054168701171875
1772457502691856400,9.4438564453125,-0.9637451171875,-0.2404632568359375,0.006134033203125
1772457502701925600,9.453925537109376,-0.966766357421875,-0.2389373779296875,0.009796142578125
1772457502711994400,9.463994384765625,-0.9613494873046875,-0.237457275390625,0.01397705078125
1772457502722063600,9.474063720703125,-0.952056884765625,-0.23944091796875,0.017059326171875
1772457502732131600,9.484131591796874,-0.955535888671875,-0.2390594482421875,0.016082763671875
1772457502742200300,9.494200439453126,-0.964813232421875,-0.237701416015625,0.01593017578125
1772457502752269600,9.50426953125,-0.9642791748046875,-0.2386322021484375,0.017425537109375
1772457502762337500,9.514337646484375,-0.9646453857421875,-0.2386474609375,0.0185546875
1772457502772406500,9.524406494140624,-0.9656829833984375,-0.237579345703125,0.022735595703125
1772457502782475500,9.5344755859375,-0.96893310546875,-0.2373046875,0.023040771484375
1772457502792544300,9.544544189453125,-0.9723968505859375,-0.237030029296875,0.0219573974609375
1772457502802612500,9.554612548828125,-0.9772796630859375,-0.236968994140625,0.0177459716796875
1772457502812681500,9.564681396484374,-0.9722900390625,-0.2434234619140625,0.0179443359375
1772457502822750500,9.57475048828125,-0.96636962890625,-0.24945068359375,0.0180206298828125
1772457502832818400,9.584818359375,-0.9626617431640625,-0.248443603515625,0.0159454345703125
1772457502842887400,9.594887451171875,-0.9575042724609375,-0.248260498046875,0.0194854736328125
1772457502852956400,9.604956298828125,-0.959197998046875,-0.24749755859375,0.0208892822265625
1772457502863024400,9.6150244140625,-0.9623260498046875,-0.2432403564453125,0.0242767333984375
1772457502873093400,9.62509326171875,-0.9648284912109375,-0.23956298828125,0.0222320556640625
1772457502883162600,9.63516259765625,-0.9682769775390625,-0.23822021484375,0.0178985595703125
1772457502893231400,9.6452314453125,-0.965301513671875,-0.2387847900390625,0.0169677734375
1772457502903299300,9.65529931640625,-0.9607086181640625,-0.2393341064453125,0.01898193359375
1772457502913368600,9.66536865234375,-0.9560089111328125,-0.239105224609375,0.0182647705078125
1772457502923437300,9.675437255859375,-0.95556640625,-0.23553466796875,0.016998291015625
1772457502933505300,9.68550537109375,-0.95513916015625,-0.2330474853515625,0.0166015625
1772457502943574500,9.695574462890624,-0.9595947265625,-0.23291015625,0.0202484130859375
1772457502953643300,9.705643310546876,-0.96307373046875,-0.2310638427734375,0.0211639404296875
1772457502963712500,9.71571240234375,-0.9606475830078125,-0.2318267822265625,0.0217437744140625
1772457502973780500,9.725780517578125,-0.95672607421875,-0.2345428466796875,0.0232086181640625
1772457502983849200,9.73584912109375,-0.95404052734375,-0.2375946044921875,0.0236053466796875
1772457502993918500,9.74591845703125,-0.958770751953125,-0.2407379150390625,0.0182037353515625
1772457503003986400,9.755986328125,-0.9629364013671875,-0.2407073974609375,0.0120086669921875
1772457503014055200,9.76605517578125,-0.9705963134765625,-0.24163818359375,0.0097503662109375
1772457503024124400,9.77612451171875,-0.96966552734375,-0.2427978515625,0.009552001953125
1772457503034192400,9.7861923828125,-0.9665679931640625,-0.244659423828125,0.0120391845703125
1772457503044261400,9.796261474609375,-0.9647216796875,-0.2449188232421875,0.0125732421875
1772457503054330400,9.806330322265625,-0.9633026123046875,-0.2457275390625,0.01153564453125
1772457503064399400,9.8163994140625,-0.9623260498046875,-0.2451934814453125,0.010040283203125
1772457503074467300,9.82646728515625,-0.96356201171875,-0.2440338134765625,0.0105743408203125
1772457503084536300,9.836536376953125,-0.9689788818359375,-0.24273681640625,0.010711669921875
1772457503094605600,9.84660546875,-0.9695281982421875,-0.23974609375,0.011871337890625
1772457503104673300,9.85667333984375,-0.964141845703125,-0.2407073974609375,0.0121307373046875
1772457503114742300,9.8667421875,-0.9614410400390625,-0.2423553466796875,0.012725830078125
1772457503124811500,9.8768115234375,-0.954864501953125,-0.2415008544921875,0.01678466796875
1772457503134880300,9.88688037109375,-0.951324462890625,-0.2421417236328125,0.0185089111328125
1772457503144948200,9.8969482421875,-0.948455810546875,-0.2446136474609375,0.0194549560546875
1772457503155017500,9.907017578125,-0.9489593505859375,-0.2429046630859375,0.0161590576171875
1772457503165086200,9.917086181640625,-0.949432373046875,-0.242279052734375,0.0147857666015625
1772457503175154400,9.927154541015625,-0.9563751220703125,-0.2418060302734375,0.01202392578125
1772457503185223400,9.937223388671875,-0.9650421142578125,-0.2419281005859375,0.007232666015625
1772457503195292200,9.947292236328124,-0.9652252197265625,-0.241455078125,0.00799560546875
1772457503205361400,9.957361328125,-0.961700439453125,-0.24200439453125,0.0117034912109375
1772457503215429400,9.967429443359375,-0.964111328125,-0.2408599853515625,0.01800537109375
1772457503225498400,9.977498291015625,-0.960174560546875,-0.2386016845703125,0.022979736328125
1772457503235567400,9.9875673828125,-0.955291748046875,-0.2368316650390625,0.0257415771484375
1772457503245635300,9.99763525390625,-0.9629974365234375,-0.2357940673828125,0.021453857421875
1772457503255704300,10.007704345703125,-0.972564697265625,-0.234130859375,0.0178680419921875
1772457503265773300,10.017773193359375,-0.9760894775390625,-0.2379302978515625,0.0131683349609375
1772457503275842300,10.02784228515625,-0.972625732421875,-0.2385406494140625,0.0113067626953125
1772457503285910300,10.03791015625,-0.96185302734375,-0.2408599853515625,0.0121612548828125
1772457503295979300,10.047979248046875,-0.9588775634765625,-0.244842529296875,0.0141448974609375
1772457503306048500,10.058048583984375,-0.960784912109375,-0.2423553466796875,0.01397705078125
1772457503316116200,10.0681162109375,-0.965667724609375,-0.24163818359375,0.014617919921875
1772457503326185500,10.078185546875,-0.9681854248046875,-0.240509033203125,0.0149688720703125
1772457503336254500,10.08825439453125,-0.96160888671875,-0.2428131103515625,0.0180206298828125
1772457503346322200,10.098322265625,-0.9519805908203125,-0.24395751953125,0.0193634033203125
1772457503356391400,10.108391357421874,-0.9425506591796875,-0.247100830078125,0.0196075439453125
1772457503366460400,10.11846044921875,-0.946258544921875,-0.2467041015625,0.017852783203125
1772457503376529400,10.128529296875,-0.94891357421875,-0.244293212890625,0.0153045654296875
1772457503386597400,10.138597412109375,-0.9519195556640625,-0.24322509765625,0.0159149169921875
1772457503396666400,10.148666259765625,-0.9605255126953125,-0.2399749755859375,0.0157470703125
1772457503406735400,10.1587353515625,-0.970550537109375,-0.2380828857421875,0.0104217529296875
1772457503416803300,10.16880322265625,-0.968658447265625,-0.2395172119140625,0.009307861328125
1772457503426872300,10.178872314453125,-0.9646148681640625,-0.2406768798828125,0.0122833251953125
1772457503436941300,10.18894140625,-0.9597930908203125,-0.241180419921875,0.0168914794921875
1772457503447010300,10.19901025390625,-0.9565277099609375,-0.2424774169921875,0.019866943359375
1772457503457078500,10.20907861328125,-0.9572601318359375,-0.239227294921875,0.020721435546875
1772457503467147300,10.219147216796875,-0.9617462158203125,-0.2393798828125,0.0164794921875
1772457503477216300,10.22921630859375,-0.9711761474609375,-0.236572265625,0.0149078369140625
1772457503487284500,10.239284423828124,-0.97467041015625,-0.2362518310546875,0.0153045654296875
1772457503497353200,10.249353271484376,-0.9750213623046875,-0.237579345703125,0.0163116455078125
1772457503507422500,10.25942236328125,-0.9708099365234375,-0.238525390625,0.0198822021484375
1772457503517490400,10.269490478515625,-0.964813232421875,-0.23980712890625,0.0214691162109375
1772457503527559200,10.27955908203125,-0.9610748291015625,-0.2412109375,0.021484375
1772457503537628400,10.28962841796875,-0.9613037109375,-0.24090576171875,0.020751953125
1772457503547697400,10.299697509765625,-0.9630126953125,-0.239837646484375,0.017791748046875
1772457503557765000,10.30976513671875,-0.9690093994140625,-0.2385101318359375,0.01715087890625
1772457503567834400,10.31983447265625,-0.972412109375,-0.2405853271484375,0.015167236328125
1772457503577903400,10.3299033203125,-0.9712371826171875,-0.2431488037109375,0.0111236572265625
1772457503587971300,10.339971435546875,-0.9644927978515625,-0.2444610595703125,0.01116943359375
1772457503598040300,10.350040283203125,-0.9530029296875,-0.2479248046875,0.015594482421875
1772457503608109300,10.360109375,-0.946990966796875,-0.247802734375,0.0174713134765625
1772457503618178300,10.37017822265625,-0.947540283203125,-0.24310302734375,0.0208282470703125
1772457503628246300,10.380246337890625,-0.9523468017578125,-0.2452239990234375,0.0210723876953125
1772457503638315500,10.3903154296875,-0.957916259765625,-0.2433013916015625,0.0135955810546875
1772457503648384300,10.40038427734375,-0.960601806640625,-0.241424560546875,0.0110931396484375
1772457503658452200,10.4104521484375,-0.9615020751953125,-0.2406463623046875,0.009002685546875
1772457503668521500,10.420521484375,-0.9620208740234375,-0.2411346435546875,0.0095977783203125
1772457503678590200,10.430590087890625,-0.957611083984375,-0.240570068359375,0.0118255615234375
1772457503688658200,10.440658203125,-0.953033447265625,-0.241607666015625,0.015777587890625
1772457503698727400,10.4507275390625,-0.9540252685546875,-0.2405242919921875,0.0182037353515625
1772457503708796200,10.460796142578126,-0.9546661376953125,-0.2387847900390625,0.0197906494140625
1772457503718865400,10.470865478515625,-0.956024169921875,-0.2366485595703125,0.0211029052734375
1772457503728933400,10.480933349609375,-0.959075927734375,-0.23834228515625,0.0197906494140625
1772457503739002000,10.491002197265624,-0.9622802734375,-0.239715576171875,0.01470947265625
1772457503749071400,10.5010712890625,-0.970489501953125,-0.2415313720703125,0.01068115234375
1772457503759139300,10.511139404296875,-0.970367431640625,-0.241973876953125,0.008514404296875
1772457503769208300,10.521208251953125,-0.96630859375,-0.2440948486328125,0.0112152099609375
1772457503779277300,10.53127734375,-0.9654998779296875,-0.244842529296875,0.013427734375
1772457503789346600,10.5413466796875,-0.967376708984375,-0.241729736328125,0.014556884765625
1772457503799414300,10.551414306640625,-0.968994140625,-0.24102783203125,0.0150299072265625
1772457503809483300,10.561483154296875,-0.968231201171875,-0.2425384521484375,0.011474609375
1772457503819552500,10.571552490234374,-0.9681549072265625,-0.242767333984375,0.0079803466796875
1772457503829620500,10.581620361328126,-0.963470458984375,-0.242889404296875,0.0098419189453125
1772457503839689200,10.591689208984375,-0.9571533203125,-0.2440185546875,0.0111846923828125
1772457503849758500,10.601758544921875,-0.960052490234375,-0.2428741455078125,0.0119781494140625
1772457503859827200,10.6118271484375,-0.9627532958984375,-0.239349365234375,0.01470947265625
1772457503869895400,10.6218955078125,-0.952606201171875,-0.2409515380859375,0.0172271728515625
1772457503879964400,10.63196435546875,-0.949432373046875,-0.242950439453125,0.017669677734375
1772457503890033200,10.642033203125,-0.953399658203125,-0.24139404296875,0.0180511474609375
1772457503900102100,10.65210205078125,-0.9531097412109375,-0.2415924072265625,0.01580810546875
1772457503910171100,10.662171142578124,-0.9556121826171875,-0.2421417236328125,0.0135650634765625
1772457503920240000,10.672240234375,-0.959381103515625,-0.241455078125,0.0126190185546875
1772457503930308000,10.68230810546875,-0.95367431640625,-0.24169921875,0.0139312744140625
1772457503940377300,10.69237744140625,-0.9528656005859375,-0.241973876953125,0.016265869140625
1772457503950446000,10.702446044921874,-0.9561614990234375,-0.240203857421875,0.0197296142578125
1772457503960515000,10.71251513671875,-0.9561767578125,-0.240386962890625,0.0210418701171875
1772457503970583300,10.722583251953125,-0.9611358642578125,-0.2396697998046875,0.016876220703125
1772457503980652000,10.732652099609375,-0.969757080078125,-0.2407379150390625,0.0118255615234375
1772457503990721300,10.74272119140625,-0.9765777587890625,-0.2404937744140625,0.0103607177734375
1772457504000789200,10.752789306640626,-0.977294921875,-0.2400970458984375,0.00958251953125
1772457504010858000,10.76285791015625,-0.9728240966796875,-0.24151611328125,0.0129241943359375
1772457504020927200,10.77292724609375,-0.9712677001953125,-0.2420654296875,0.013214111328125
1772457504030996000,10.782995849609375,-0.9696197509765625,-0.2397003173828125,0.01275634765625
1772457504041064000,10.79306396484375,-0.9680633544921875,-0.238372802734375,0.0121612548828125
1772457504051133200,10.80313330078125,-0.9672393798828125,-0.23809814453125,0.0139312744140625
1772457504061202200,10.8132021484375,-0.968658447265625,-0.2383575439453125,0.0138092041015625
1772457504071270100,10.823270263671875,-0.962310791015625,-0.240966796875,0.017333984375
1772457504081339100,10.833339111328126,-0.9549407958984375,-0.24273681640625,0.0199127197265625
1772457504091408100,10.843408203125,-0.9507904052734375,-0.2412567138671875,0.0207366943359375
1772457504101476000,10.85347607421875,-0.952362060546875,-0.2420501708984375,0.0187530517578125
1772457504111545000,10.863545166015625,-0.9514923095703125,-0.2415771484375,0.0198211669921875
1772457504121614300,10.8736142578125,-0.9543304443359375,-0.240966796875,0.0172119140625
1772457504131683000,10.88368310546875,-0.956878662109375,-0.24078369140625,0.0164947509765625
1772457504141751000,10.8937509765625,-0.95819091796875,-0.238983154296875,0.0155029296875
1772457504151820300,10.9038203125,-0.9651336669921875,-0.2402191162109375,0.0144500732421875
1772457504161889000,10.913888916015624,-0.963836669921875,-0.2410125732421875,0.0145263671875
1772457504171957200,10.923957275390626,-0.9624176025390625,-0.23919677734375,0.0152435302734375
1772457504182026200,10.934026123046875,-0.9612579345703125,-0.24005126953125,0.013946533203125
1772457504192095000,10.944094970703125,-0.962005615234375,-0.24200439453125,0.0114288330078125
1772457504202164200,10.954164306640624,-0.963165283203125,-0.242431640625,0.0124053955078125
1772457504212232200,10.964232177734376,-0.963775634765625,-0.2392578125,0.0142974853515625
1772457504222301200,10.97430126953125,-0.96197509765625,-0.23883056640625,0.0140838623046875
1772457504232370200,10.9843701171875,-0.96038818359375,-0.2391815185546875,0.0161590576171875
1772457504242438100,10.994438232421874,-0.9606170654296875,-0.238372802734375,0.0164337158203125
1772457504252507100,11.004507080078126,-0.9662628173828125,-0.237548828125,0.017181396484375
1772457504262576000,11.014576171875,-0.972320556640625,-0.237335205078125,0.0174102783203125
1772457504272644000,11.02464404296875,-0.971466064453125,-0.2377166748046875,0.0178375244140625
1772457504282713000,11.034713134765624,-0.9666595458984375,-0.236846923828125,0.01727294921875
1772457504292782000,11.044781982421876,-0.9644775390625,-0.2371063232421875,0.0208740234375
1772457504302851300,11.054851318359376,-0.9642791748046875,-0.23773193359375,0.021514892578125
1772457504312919000,11.0649189453125,-0.961212158203125,-0.2393798828125,0.02105712890625
1772457504322988000,11.074988037109375,-0.966705322265625,-0.23968505859375,0.0186309814453125
1772457504333057300,11.085057373046874,-0.961395263671875,-0.240478515625,0.01849365234375
1772457504343125000,11.095125,-0.959564208984375,-0.2431182861328125,0.0179901123046875
1772457504353194200,11.1051943359375,-0.9575347900390625,-0.2431182861328125,0.016876220703125
1772457504363263200,11.11526318359375,-0.9631805419921875,-0.2416839599609375,0.01666259765625
1772457504373331000,11.1253310546875,-0.964599609375,-0.2404022216796875,0.0171051025390625
1772457504383400200,11.135400146484375,-0.9664306640625,-0.238525390625,0.016082763671875
1772457504393469200,11.14546923828125,-0.9676666259765625,-0.235443115234375,0.0198974609375
1772457504403538200,11.1555380859375,-0.960662841796875,-0.236175537109375,0.02423095703125
1772457504413606100,11.165606201171874,-0.9558563232421875,-0.2362060546875,0.0251922607421875
1772457504423675100,11.175675048828126,-0.961883544921875,-0.234039306640625,0.0207672119140625
1772457504433744100,11.185744140625,-0.975921630859375,-0.233123779296875,0.01519775390625
1772457504443812000,11.19581201171875,-0.9877777099609375,-0.2304534912109375,0.0115814208984375
1772457504453881000,11.205881103515624,-0.9836883544921875,-0.2286529541015625,0.0155487060546875
1772457504463950000,11.2159501953125,-0.971649169921875,-0.235443115234375,0.015045166015625
1772457504474019000,11.22601904296875,-0.9475250244140625,-0.2386016845703125,0.0257720947265625
1772457504484087300,11.23608740234375,-0.95074462890625,-0.2397003173828125,0.0345916748046875
1772457504494156000,11.246156005859374,-0.9595489501953125,-0.233551025390625,0.03546142578125
1772457504504225300,11.256225341796876,-0.9484100341796875,-0.23388671875,0.0432891845703125
1772457504514293200,11.266293212890625,-0.9259796142578125,-0.2359466552734375,0.046783447265625
1772457504524362000,11.276362060546875,-0.938934326171875,-0.238616943359375,0.03399658203125
1772457504534431200,11.28643115234375,-0.956512451171875,-0.2381591796875,0.016387939453125
1772457504544500200,11.296500244140624,-0.9580841064453125,-0.24310302734375,0.0034027099609375
1772457504554568000,11.30656787109375,-0.961578369140625,-0.253173828125,-0.00830078125
1772457504564637200,11.31663720703125,-0.9749908447265625,-0.2514190673828125,-0.0186614990234375
1772457504574706200,11.3267060546875,-0.9917449951171875,-0.2464141845703125,-0.0142059326171875
