time,seconds_elapsed,z,y,x
1772562123479158500,0.076158447265625,-0.19654782349467276,0.6905003844618797,0.5898494779175147
1772562123489225700,0.086225830078125,-0.4063122714370489,0.7081435931801796,0.6517186722554266
1772562123499292700,0.096292724609375,-0.5150853653669357,0.634614831110835,0.5233748356107623
1772562123509359600,0.106359619140625,-0.35725802541077134,0.6357996569812298,0.39223435398489237
1772562123519426600,0.116426513671875,-0.23319617693424224,0.6669301237821579,0.39190344153009354
1772562123529493500,0.126493408203125,-0.1750187132537365,0.7394809807300567,0.6030803500862791
1772562123539560400,0.136560546875,0.014915829581022262,0.7486983064085244,0.8124963133845478
1772562123549627600,0.146627685546875,0.25402736803889275,0.6327361777573823,0.8593979844868183
1772562123559694600,0.156694580078125,0.4140846590042114,0.47591363092958927,0.7299237555727363
1772562123569761500,0.166761474609375,0.475563502317667,0.3536357432603836,0.4445478210028261
1772562123579828500,0.176828369140625,0.5054740719348192,0.18239245689213274,0.05901241666730493
1772562123589895400,0.1868955078125,0.5048123931556939,-0.05333177721500396,-0.285745681197755
1772562123599962400,0.19696240234375,0.563047139981389,-0.2493359953522682,-0.4966117702390998
1772562123610029800,0.20702978515625,0.6006237141817807,-0.39021979929208755,-0.5981713891262188
1772562123620096800,0.2170966796875,0.5745628057301044,-0.5877665706962346,-0.7725487722691148
1772562123630163700,0.227163818359375,0.4678671025961637,-0.6203583422213792,-0.9051961513265967
1772562123640230700,0.237230712890625,0.4537216728657484,-0.5298626632601022,-0.8883214427627623
1772562123650297600,0.247297607421875,0.5147200391858816,-0.48852293713390826,-0.7827566433548927
1772562123660364500,0.257364501953125,0.3114034522086382,-0.4647235438734293,-0.754195442520082
1772562123670431500,0.267431396484375,0.012966449078917502,-0.42475393705666065,-0.7766350186694413
1772562123680498700,0.277498779296875,-0.23692133493721484,-0.3283914118885994,-0.7991513863820582
1772562123690565600,0.287565673828125,-0.43085283845365047,-0.057682958161830895,-0.566597745135054
1772562123700632600,0.297632568359375,-0.43530163455605503,0.12703472680747507,-0.1654196217160672
1772562123710699500,0.307699462890625,-0.3434831825584173,0.18804712165296075,0.14250070108454674
1772562123720766500,0.317766357421875,-0.2665156782120466,0.20176468136012554,0.25315977315781635
1772562123730833400,0.32783349609375,-0.20664485461711882,0.15938567531406878,0.2211695111897774
1772562123740900600,0.337900634765625,-0.4095809178441763,0.22429390855431555,0.10393449479229748
1772562123750967600,0.347967529296875,-0.692417031738162,0.3961082728087902,0.03717146399822086
1772562123761034500,0.358034423828125,-0.7327443659514188,0.40448797861933705,-0.009081607002206147
1772562123771101400,0.368101318359375,-0.5284644868999719,0.27132395527660846,0.010392689600773155
1772562123781168600,0.378168701171875,-0.12033669047355651,0.06710545102357864,0.013405461550690233
1772562123791235600,0.388235595703125,-0.06199439162015914,0.017834931898117065,-0.03148994776308536
1772562123801302800,0.398302734375,-0.15358897173404693,0.21644261053204536,-0.028425810952112076
1772562123811369700,0.40836962890625,0.03251344559192657,0.36042145787775515,0.07295589408483356
1772562123821436700,0.418436767578125,0.20055062939524648,0.43705812283456325,0.30137484667990355
1772562123831503600,0.428503662109375,0.566294159078598,0.29951427697241306,0.46799551474880424
1772562123841570600,0.438570556640625,0.7855600103378295,-0.02786415848135948,0.43314463918525725
1772562123851637500,0.448637451171875,0.540782701203227,-0.13750234480798243,0.1784847453964874
1772562123861704700,0.45870458984375,0.39126492443084715,0.005490998631715774,-0.1294759094145149
1772562123871771600,0.468771728515625,0.4987456404626369,0.10045300935208797,-0.35326822512224315
1772562123881838600,0.478838623046875,0.690510905855894,0.15956103188097476,-0.21430117805656043
1772562123891905500,0.488905517578125,0.6164730252206325,0.19375439338386058,0.11773644484728574
1772562123901972500,0.498972412109375,0.7212462358593941,-0.03013677958846092,0.37819592829290777
1772562123912039400,0.509039306640625,1.042963576811552,-0.29542320826649665,0.25542156234364954
1772562123922106600,0.519106689453125,0.9936147317528724,-0.3367728712648153,-0.07832673693560063
1772562123932173600,0.529173583984375,0.7466846284985542,-0.18854513430297373,-0.4421704974122345
1772562123942240500,0.539240478515625,0.5567325500071049,-0.2096960588812828,-0.6576173749051988
1772562123952307700,0.5493076171875,0.5043360078155994,-0.20303250933885572,-0.71986413385123
1772562123962374700,0.559374755859375,0.792750798624754,-0.2677238849580288,-0.5432389352489263
1772562123972441600,0.569441650390625,1.4042986424028872,-0.30858605670034883,-0.13397612517690285
1772562123982508500,0.579508544921875,1.2853501914173364,-0.053107905331254,0.06439363478161395
1772562123992575700,0.58957568359375,1.0207996757984161,-0.17922201016247272,-0.05667373545351438
1772562124002642700,0.599642578125,0.8473118253737687,-0.36062428697347637,-0.09439936273577622
1772562124012709600,0.609709716796875,0.39851884108185764,-0.6612386341422796,0.058684755615517496
1772562124022776600,0.619776611328125,0.04838730655014515,-0.7388987969279289,-0.01859882894270122
1772562124032843500,0.629843505859375,0.8761720091551541,-0.42224692267179487,-0.14403989335056394
1772562124042910500,0.639910400390625,1.6216384940356015,-0.21487258473634718,-0.046361198416864494
1772562124052977700,0.649977783203125,1.4631681800007819,-0.12304653395414351,0.05407449447424151
1772562124063044600,0.660044677734375,1.1414642830520867,-0.09441723631918429,-0.06701453960342332
1772562124073111600,0.670111572265625,0.5855529862999915,-0.11267711563110351,-0.28177182739702983
1772562124083178500,0.680178466796875,0.12105799048542976,-0.10441548324227333,-0.5193124084774404
1772562124093245400,0.690245361328125,-0.5690788213610649,0.004753332006931304,-0.8251212555494158
1772562124103312400,0.7003125,-0.6710971803337336,0.18990473221838472,-1.1301957239322364
1772562124113379600,0.710379638671875,0.818950238764286,0.19817454791367053,-0.9462832909312099
1772562124123446800,0.72044677734375,1.2280161928236484,0.06225216577351093,-0.5816421695318073
1772562124133513700,0.730513671875,1.7220330511987207,0.14502689509391783,-0.25375337340310217
1772562124143580700,0.74058056640625,0.9939140069603919,0.3103822924673557,0.0795525158708915
1772562124153647600,0.750647705078125,-0.011809680259227752,0.46847149823009965,0.6730960990659892
1772562124163714600,0.760714599609375,-0.149873750603199,0.2913216181665659,1.1144624404884875
1772562124173781800,0.77078173828125,0.03954758201241493,-0.28126258096694945,1.1847484212443231
1772562124183849500,0.780849365234375,0.07185235328972339,-0.715054395481944,0.9319311596475541
1772562124193916700,0.790916748046875,0.14479425538182258,-0.6876210296332835,0.6332013841163366
1772562124203983600,0.800983642578125,1.300657066142559,-0.6928051542729139,0.39168095788583157
1772562124214050600,0.811050537109375,2.430250294137001,-0.9400929849237203,0.2714154694849625
1772562124224117500,0.821117431640625,2.8236241735458374,-0.9192939425230026,0.06036867184815928
1772562124234184400,0.831184326171875,3.2861060759723184,0.19762801994681356,-0.4942758746374398
1772562124244251400,0.84125146484375,2.248527699330449,0.04390402365624904,-0.7703465129844844
1772562124254318600,0.851318603515625,0.06380348686873913,-0.3840852420598268,-0.10571917711882851
1772562124264385500,0.861385498046875,-0.8208055112421512,0.022123569002747534,0.49681982349921017
1772562124274452500,0.871452392578125,-0.8227391096532344,0.3858347160756588,0.5307610734045505
1772562124284519400,0.88151953125,-0.3887187470793724,0.6046896484464407,0.25825311424145475
1772562124294586600,0.891586669921875,0.25966917331814765,0.5561182175010443,-0.014524884901521727
1772562124304653600,0.901653564453125,1.10865273129642,0.283529356855154,-0.17367902561519294
1772562124314720500,0.911720458984375,1.823427725315094,-0.1465361306130886,-0.42158129836991426
1772562124324787700,0.92178759765625,2.1078432173550126,-0.4856365680426359,-0.7788071020115166
1772562124334854700,0.931854736328125,2.5147300738096234,0.03831716343462467,-1.2902797567740083
1772562124344921600,0.941921630859375,3.3811604411512612,1.553704775494337,-0.9580191753018646
1772562124354988500,0.951988525390625,2.316695226627588,1.3299462889909743,-0.9831674989532678
1772562124365055500,0.962055419921875,0.13857669604122638,-0.11055296308398246,-2.3413697952874
1772562124375122400,0.972122314453125,-0.7075456272870302,-0.1688794798463583,-2.522873632776737
1772562124385189600,0.982189697265625,-0.5283423218250274,-0.2820738973498344,-2.5491490607619283
1772562124395256600,0.992256591796875,0.2867728688210249,-0.63205053358078,-2.581155725875497
1772562124405323500,1.002323486328125,0.3166875300914049,-1.0871844113320113,-2.645452549219131
1772562124415390500,1.012390380859375,0.010541267758607864,-1.3382184427738189,-2.5327462074935436
1772562124425457400,1.02245751953125,-0.33904607689380645,-1.3916530958414077,-2.3267362897790966
1772562124435524400,1.0325244140625,0.10076748212873936,-0.8695967224180697,-1.3158376841396093
1772562124445591600,1.042591552734375,1.2788105605155229,-0.24676760616898535,0.338374607373029
1772562124455658500,1.052658447265625,2.231308268982172,0.8085206146866083,1.0190098697721957
1772562124465725700,1.0627255859375,2.6766420527309176,1.662699403220415,0.5686790083885193
1772562124475792600,1.072792724609375,3.02000482378006,2.320155303953588,-0.24351254989579318
1772562124485859600,1.082859619140625,3.2646248965263367,3.351522550995648,-0.22827114162221548
1772562124495926500,1.092926513671875,3.303571005514264,3.6857971757039425,-0.396848131390661
1772562124505993700,1.10299365234375,4.298837596127391,4.297919312238693,-0.625601503571868
1772562124516060700,1.113060791015625,5.673480520457029,5.139039297235012,-0.6318697701863945
1772562124526127600,1.123127685546875,7.4320724932461975,5.220659595823288,-0.9827794494837522
1772562124536194600,1.133194580078125,9.677541389527917,4.975912097305059,-1.34321493588686
1772562124546261500,1.143261474609375,10.713663137620687,5.882244266924261,-1.4327803482607007
1772562124556328400,1.153328369140625,10.002762939208745,7.972385238850117,-0.7355354579746722
1772562124566395600,1.163395751953125,9.149988172253966,9.768611068984866,1.54564246506989
1772562124576462600,1.173462646484375,8.827863419544697,9.995180521255731,3.9746535728007553
1772562124586529500,1.183529541015625,8.29800835506916,9.51129050461948,5.023291103595495
1772562124596596500,1.193596435546875,7.501796602335572,8.324258064091206,4.759848549218476
1772562124606663400,1.203663330078125,7.675909306660294,6.325106692123413,4.008115405158699
1772562124616730400,1.21373046875,6.697265934067964,3.7932325912892817,3.7337837924987074
1772562124626797300,1.22379736328125,5.113627208080888,1.8671423638790845,3.7378681392028925
1772562124636864800,1.23386474609375,4.824555999189615,0.02630962251573801,3.4329420663148165
1772562124646931700,1.243931640625,2.4979560491412878,-2.0652474998183545,3.179650026813149
1772562124656998700,1.25399853515625,-2.588322548764944,-4.562414882799983,2.958292463971674
1772562124667065600,1.264065673828125,-9.834311913907527,-8.612938227838278,2.481101360452175
1772562124677132500,1.274132568359375,-12.871929551267623,-15.039008216923474,2.3242460803985594
1772562124687199500,1.284199462890625,-13.705308128356933,-22.15170321034193,2.5821017745539545
1772562124697266700,1.2942666015625,-16.012660357099772,-27.22791108061075,0.8795102136671542
1772562124707333600,1.304333740234375,-30.47324675477743,-27.71809581347704,-5.3414510443270204
1772562124717400600,1.314400634765625,-50.621143460822104,-25.33977678210735,-12.545682165670394
1772562124727467500,1.324467529296875,-63.72133114809989,-21.628836689579487,-16.655607547748087
1772562124737534500,1.334534423828125,-65.1397413179636,-15.59486398409605,-14.78778187777996
1772562124747601400,1.344601318359375,-58.72898580238819,-8.473141634613276,-8.927854072082042
1772562124757668600,1.354668701171875,-52.39192213048935,-2.283442068584263,-4.207501374688745
1772562124767735600,1.364735595703125,-45.61281494855881,2.063405232952535,-3.4188127109363675
1772562124777802500,1.374802490234375,-36.614306208539006,4.140696952438354,-5.225231141522526
1772562124787869400,1.384869384765625,-27.86207290725708,5.257705424147844,-8.348805060848592
1772562124797936400,1.394936279296875,-21.986360672450065,5.606799432325363,-12.805808435106277
1772562124808003600,1.405003662109375,-18.224475990104676,5.8182455497443675,-17.686007411062718
1772562124818070500,1.415070556640625,-12.490192333638667,7.486804200387001,-18.69077131333947
1772562124828137700,1.4251376953125,-5.734006593090295,9.818447989821433,-13.916136990660428
1772562124838204700,1.43520458984375,0.6423690984994173,12.241550750291347,-6.071914021342993
1772562124848271600,1.445271728515625,7.7518778630971905,16.269708534264563,-0.3476310960181057
1772562124858338600,1.455338623046875,12.612011371624469,21.5066879812479,2.776300112313032
1772562124868405500,1.465405517578125,14.661666603904962,23.998013798594474,6.185255738362669
1772562124878472400,1.475472412109375,16.3404380210042,23.027674728488922,9.953701678919792
1772562124888539600,1.48553955078125,17.25513294529915,22.841782739043236,8.904908665302395
1772562124898606600,1.495606689453125,18.202585645335912,23.649528862226006,4.131881485559046
1772562124908673500,1.505673583984375,19.741469283795354,22.83261743581295,1.9790398734398185
1772562124918740500,1.515740478515625,19.27911013096571,19.785004474139214,-0.3136377140667289
1772562124928807400,1.525807373046875,16.480268516498803,17.742480408912897,-4.931739778101444
1772562124938874400,1.535874267578125,12.891113559687136,14.989451282072066,-8.365309620925784
1772562124948941600,1.545941650390625,11.402027679097651,12.75246262936592,-9.888704013830424
1772562124959008500,1.556008544921875,11.40859770513773,12.55412032366991,-8.979920943927764
1772562124969075500,1.566075439453125,10.78894604988098,10.324923347753286,-6.405336413136125
1772562124979142400,1.576142333984375,11.622806273007392,7.452580443745851,-5.441232438027859
1772562124989209600,1.586209716796875,13.644772703373432,5.1967707707136865,-5.54188418482244
1772562124999276500,1.596276611328125,15.60058762243986,3.0565929714649913,-5.8551113453269
1772562125009343700,1.60634375,17.538336138939858,2.1345161202251908,-6.293814897280931
1772562125019410700,1.61641064453125,18.372764517343043,2.0571903039604424,-5.588600343289971
1772562125029477600,1.6264775390625,18.990543364465235,1.9053800323367118,-3.807051565544307
1772562125039544600,1.636544677734375,19.2611898588717,2.2723726852983237,-3.089154932373762
1772562125049611500,1.646611572265625,16.851616442060468,3.296944865372777,-2.4302158073455096
1772562125059678500,1.656678466796875,14.02486390736103,4.334543115758896,-2.2889114399060606
1772562125069745700,1.66674560546875,11.66809385997653,4.3710272185474635,-3.460654833626747
1772562125079812600,1.6768125,9.14434987410605,4.151897268627584,-5.117764454016089
1772562125089879600,1.686879638671875,8.481625385320186,4.502582929910719,-4.8429681464537975
1772562125099946500,1.696946533203125,10.537560720783471,4.631455685800313,-1.374170776773244
1772562125110013400,1.707013427734375,15.697785429388285,4.447360516643524,2.0520606859870254
1772562125120080400,1.717080322265625,16.28187360383272,6.215866565203666,2.816839627972245
1772562125130148600,1.727148681640625,9.665270521497726,9.032064388141036,0.8760606577351688
1772562125140214500,1.737214599609375,-0.5074012406051158,12.545823619967699,-2.4970330890774726
1772562125150281500,1.747281494140625,-9.100345897206664,15.853000541019439,-5.321786558914185
1772562125160348700,1.7573486328125,-13.64901165611744,15.178258866703509,-3.842964590446651
1772562125170415600,1.76741552734375,-13.401432733565569,12.51810676100254,-0.1764241961374879
1772562125180482600,1.777482666015625,-10.616797339105606,8.934262185558676,2.0022864551231265
1772562125190550500,1.787550537109375,-7.359001996338367,4.756879470279813,5.044734873640537
1772562125200617500,1.797617431640625,-3.2883295972406863,0.9275469532139599,10.137623829597235
1772562125210684400,1.807684326171875,-1.6096610559940336,-1.9125284427866338,13.826885174280404
1772562125220751600,1.817751708984375,-1.6720844866812228,-3.8271632102027535,15.544689794129132
1772562125230818600,1.827818603515625,-0.5539724376440048,-5.131354003429412,16.680771215099096
1772562125240885500,1.837885498046875,0.005215688821673393,-6.287561682105064,16.10531409087777
1772562125250952400,1.847952392578125,0.7300052963763475,-7.350679573673009,15.223324335354565
1772562125261019400,1.858019287109375,3.064769848179817,-8.016767401412128,15.475925469982624
1772562125271086300,1.86808642578125,5.248042108267545,-8.507515028858185,16.67780301294327
1772562125281153500,1.878153564453125,5.888621985262632,-8.449071023195982,16.753820084697008
1772562125291220700,1.888220703125,6.495138264614344,-8.227579897102713,15.143816498875617
1772562125301287700,1.89828759765625,7.686730560404062,-7.521168242281675,13.88867965941429
1772562125311354600,1.908354736328125,7.272451840132474,-5.510338707479835,14.51858382861614
1772562125321421600,1.918421630859375,5.761410732844472,-4.259888856790959,14.193919328296184
1772562125331488500,1.928488525390625,2.098359349694848,-4.542176396891475,12.751252669054269
1772562125341555700,1.9385556640625,-7.4863254769593475,-6.824139917355775,13.211335693645477
1772562125351622700,1.94862255859375,-17.97410422196388,-9.855350025761126,12.850415638595818
1772562125361689600,1.958689697265625,-28.168123892521855,-13.14843996927142,11.042483588576316
1772562125371756500,1.968756591796875,-38.243186344265936,-15.462310786128043,6.102688514313101
1772562125381823500,1.978823486328125,-49.119876144051545,-15.27340967799425,-2.302674884581566
1772562125391890400,1.988890380859375,-62.44222891116142,-14.979956308495998,-9.663362642049789
1772562125401957600,1.99895751953125,-71.17075868077278,-11.525845781946181,-16.663516128915546
1772562125412024600,2.009024658203125,-74.19101601800918,-4.110294799911975,-21.13511910641193
1772562125422091500,2.019091552734375,-75.52170581884384,3.9793490371406075,-25.044691427493095
1772562125432158500,2.029158447265625,-72.21274142985344,13.259127372390031,-32.8724402318716
1772562125442225400,2.039225341796875,-60.014129657578465,19.649769489741324,-38.51947581299543
1772562125452292400,2.049292236328125,-42.00198475103378,19.343124630236623,-38.41927239449024
1772562125462359600,2.059359619140625,-21.207501621055602,15.46586000304222,-32.72351106864214
1772562125472426800,2.0694267578125,-0.6604834318608045,11.306664101839065,-21.339951943171023
1772562125482493700,2.07949365234375,9.822429752933978,8.237384667280315,-11.005075356680154
1772562125492560600,2.089560546875,15.618209788370132,9.284539266040921,-8.899731554925442
1772562125502627600,2.099627685546875,17.979880467277763,11.638183874881268,-5.872167109546065
1772562125512694500,2.109694580078125,18.587111032378672,12.520201687455177,-1.373908764836192
1772562125522761500,2.119761474609375,17.756888873493672,12.935111691367625,0.20448767658323047
1772562125532828700,2.12982861328125,15.548347732114792,12.053135964369773,-1.4634376445919275
1772562125542895600,2.1398955078125,13.548471553003788,10.978052909719944,-4.892499070081114
1772562125552962600,2.149962646484375,12.079130821847915,9.936404507160185,-7.298505734321474
1772562125563029500,2.160029541015625,11.737986311370134,9.855988323664665,-8.491979606074095
1772562125573096400,2.170096435546875,12.872938436049223,10.965670398008823,-8.171991865393519
1772562125583163400,2.180163330078125,13.300056764149666,11.36590422631502,-6.238458920761943
1772562125593230600,2.190230712890625,13.925205263257025,9.879726926648615,-3.501226205728948
1772562125603297500,2.200297607421875,17.146574370902776,8.0041756308645,-1.6196443976089356
1772562125613364500,2.210364501953125,20.71714153162241,6.8214587154477835,-1.073696860988438
1772562125623431400,2.220431396484375,21.79223861479759,5.864263204553723,-0.9943377853304147
1772562125633498400,2.230498291015625,19.789739101445672,5.551783647546172,-1.6214922174327075
1772562125643565600,2.240565673828125,15.505233397531509,6.276115574461222,-2.583357327573001
1772562125653632800,2.2506328125,10.52320252508521,6.958446096470952,-2.7988740554317832
1772562125663699700,2.26069970703125,6.9829726349622,7.344739077708125,-2.4128692434862256
1772562125673766700,2.2707666015625,5.07357985985279,7.198305238425731,-2.1906533102497456
1772562125683833600,2.28083349609375,4.294430301079154,6.1217918587118385,-2.608510765790939
1772562125693900500,2.290900634765625,5.009390004014969,4.739448443007469,-2.8955364403292534
1772562125703967500,2.300967529296875,6.580235299402475,3.3191490983963012,-3.753885792545974
1772562125714034400,2.311034423828125,7.93032187462449,2.135797392207384,-4.985969380939006
1772562125724101600,2.3211015625,7.575856694802641,1.7394231619387863,-4.663875900150836
1772562125734168600,2.33116845703125,7.135988190722465,1.8568088936522602,-4.071473778608441
1772562125744235500,2.341235595703125,6.537243129894137,2.406197218376398,-5.054235107913613
1772562125754302500,2.351302490234375,5.149363122850656,2.6985435034155842,-6.097251876217126
1772562125764369400,2.361369384765625,3.211248695647716,3.2665210855364797,-6.724958243113756
1772562125774436400,2.371436279296875,1.9643103602111338,3.965245400725305,-5.684157981815934
1772562125784503600,2.381503662109375,2.5277204882860183,4.60133322699815,-2.6849229743421077
1772562125794570500,2.391570556640625,3.729894383844733,5.1065778740912675,-0.06790018159784376
1772562125804637400,2.401637451171875,3.854430279573798,5.187373996815085,1.6767945640683173
1772562125814704600,2.41170458984375,3.3565754504710434,4.617307917982339,2.7746400701463223
1772562125824771600,2.421771484375,3.4419881270796058,3.2381022157818076,3.0768314573735
1772562125834838500,2.431838623046875,4.464856425845623,0.8508809160321951,2.102895531819761
1772562125844905700,2.44190576171875,6.254083190873265,-1.3482140593484044,0.5130716509243473
1772562125854972700,2.45197265625,8.155048913899064,-1.9964228237867354,0.6681845808226615
1772562125865039600,2.46203955078125,8.852143874320387,-1.4241101350709795,1.7816117599792778
1772562125875106600,2.4721064453125,8.19905055271089,-0.12270400412678718,2.5364617208853364
1772562125885173500,2.482173583984375,7.020241166126728,0.8396344226136803,3.1183862875550985
1772562125895240400,2.492240478515625,6.111069389167428,1.1452379563719033,3.5357869392395016
1772562125905307600,2.5023076171875,5.829823759335279,1.605632238869369,3.881247559350729
1772562125915374600,2.51237451171875,4.367870800343155,1.9315341720297932,4.209448417103291
1772562125925442600,2.522442626953125,2.504117494380474,1.117099364863336,3.669101476968825
1772562125935509500,2.532509521484375,1.696468986353278,1.0652908516928552,2.063151550452411
1772562125945576400,2.542576416015625,-0.9582710311710834,2.1859356340780853,0.7118202358663082
1772562125955643600,2.5526435546875,-6.197210964572429,3.1584049942106005,0.48130021933875977
1772562125965710600,2.562710693359375,-11.820393376421928,3.4542478891938924,0.02735635508969426
1772562125975777500,2.572777587890625,-16.4349505343914,1.2319441799223423,-1.469341754069179
1772562125985844700,2.5828447265625,-15.248798968350886,-3.5828190317884085,-1.1971193155828863
1772562125995911700,2.59291162109375,-8.481514910683035,-5.985408288800716,1.1443494830995797
1772562126005978600,2.602978515625,-9.5432942471236,-6.1129696698307985,3.7696670067846774
1772562126016045600,2.613045654296875,-16.51716821435094,-9.203997410339117,9.296170667123794
1772562126026112500,2.623112548828125,-16.113159543681142,-4.545406172592938,9.755277540159225
1772562126036179500,2.633179443359375,-16.921861944675445,1.5291116015076636,7.119424009412526
1772562126046246700,2.64324658203125,-13.229133216142653,-3.1218542559266087,7.579284331163763
1772562126056313600,2.653313720703125,-13.734181171619891,-8.360984743463993,5.698782719495892
1772562126066380500,2.663380615234375,-18.656026163172722,-11.004621767693758,-1.2863567381113767
1772562126076447500,2.673447509765625,-18.794532132065296,-17.114611544930934,-7.627271824741363
1772562126086514400,2.683514404296875,-16.461034239196778,-18.31553631721139,-9.80129753305614
1772562126096581400,2.693581298828125,-15.732598384094237,-15.065987409263847,-5.819042837601899
1772562126106648300,2.7036484375,-18.376940341722964,-9.38267756870985,-1.9855811117768287
1772562126116715500,2.713715576171875,-20.161452937710283,-5.675014890417456,0.19046192770972847
1772562126126782700,2.72378271484375,-17.375390140795705,-4.592037867647409,0.07969707544073462
1772562126136849700,2.733849609375,-10.751973871314524,-2.8352660960227247,0.14463541155830026
1772562126146916600,2.74391650390625,-4.080557248774171,-0.15171923233941195,1.1435281567793338
1772562126156983600,2.753983642578125,1.0191893179923295,2.10916336004287,1.2357058705434203
1772562126167050500,2.764050537109375,3.5145226174145936,3.599925941672921,2.4794576848983763
1772562126177117700,2.77411767578125,3.017814620259404,5.15894343662262,3.4735388651192185
1772562126187183900,2.784183837890625,2.9944395898908374,6.43848406497836,3.08102715549767
1772562126197250800,2.794250732421875,5.306433506959676,4.986331784510612,3.6453356937170027
1772562126207317800,2.80431787109375,11.512726772654055,3.383610756912827,4.070897732286155
1772562126217384700,2.814384765625,16.881524089068172,3.580060380730033,2.6397344638332725
1772562126227452000,2.824451904296875,20.172757591056822,3.432323349894583,-0.06560089167952537
1772562126237518800,2.834518798828125,22.67738712661266,3.7885610923469066,-2.693900353784859
1772562126247585800,2.844585693359375,21.497279516911505,5.849275478780269,-3.3155981279164553
1772562126257652700,2.85465283203125,15.812731658995151,8.004578366446495,-1.3592160764865577
1772562126267719700,2.8647197265625,11.045562849891185,9.815109200787544,1.2255662423882632
1772562126277786600,2.87478662109375,8.096777926716207,10.703327621567249,3.7259485688284038
1772562126287853800,2.884853759765625,7.008366019415855,10.056855763924121,4.89144342354834
1772562126297920800,2.894920654296875,7.066788982290029,8.782218105179071,3.5648090355843305
1772562126307987700,2.90498779296875,7.785564444121718,6.063433777767419,0.7706328556451946
1772562126318055000,2.915054931640625,9.5034567422539,2.5918711811572313,-2.6801930232107636
1772562126328121900,2.925121826171875,11.965735913336276,0.2736451647657901,-4.29206766360104
1772562126338188800,2.935188720703125,13.824115709567069,-0.6658780574459582,-2.776124755746126
1772562126348256000,2.945256103515625,14.195359590232371,-0.8780416024193167,-0.7744950840312987
1772562126358323000,2.955322998046875,12.543482025277614,-0.4605361021209508,-1.2812078309156
1772562126368390000,2.965389892578125,9.35893370502889,-0.22633936984203754,-3.871838218231499
1772562126378456800,2.975456787109375,4.051963606974482,0.23484295776057987,-5.915318853530287
1772562126388523800,2.985523681640625,-3.584432019942999,1.3029606669098137,-5.706580241504311
1772562126398590700,2.9955908203125,1.6783979076117277,-1.8338681630477307,-5.03631775842905
1772562126408657700,3.00565771484375,11.684189254730939,-4.953990772876143,-5.66314675796926
1772562126418724900,3.015724853515625,9.485302661404013,-4.088144635163247,-5.721242973107099
1772562126428792800,3.025792724609375,3.276005537718534,-4.198776216441392,-3.9286861868739127
1772562126438858800,3.035858642578125,1.3187877661168574,-5.0973722388505935,-1.3039612222544847
1772562126448926700,3.0459267578125,0.025981413474678992,-6.185041803351044,2.072849353124201
1772562126458994000,3.055993896484375,0.22241174806952474,-6.953720821514725,4.372519795192778
1772562126469060900,3.066060791015625,1.5648498543649911,-6.810089180171489,4.795600538340211
1772562126479127800,3.0761279296875,0.6335024859547614,-6.460645627903938,4.057101262123883
1772562126489194800,3.08619482421875,-2.371176173877716,-6.061581427899003,2.254329079085588
1772562126499262000,3.096261962890625,-5.239966938361525,-6.140941380339861,1.5584744741141796
1772562126509329000,3.106328857421875,-4.2147728269964455,-5.762108067458867,1.8374460215345023
1772562126519395800,3.116395751953125,-2.8097067073523996,-4.731880345840752,1.505992299465835
1772562126529462800,3.126462890625,-2.1119693573743104,-3.4251872144043443,1.0473211874991655
1772562126539529700,3.13652978515625,-1.151605737838149,-1.9503271353051066,1.118638118737936
1772562126549596700,3.1465966796875,-0.8362427343487739,-0.27779278596453366,2.2693965920969843
1772562126559663900,3.156663818359375,-1.5494962178885936,1.158383269149065,3.5263816897735
1772562126569730800,3.166730712890625,-3.9737931565791365,1.1853474831160158,3.1793980978786944
1772562126579797800,3.1767978515625,-6.9086489231228825,0.015282032544910907,2.8058409718349573
1772562126589864700,3.18686474609375,-9.715025024747847,-1.4806075367100535,2.2123184679605066
1772562126599931600,3.196931640625,-11.037352655428647,-4.740931959563493,1.433490250095725
1772562126609998600,3.20699853515625,-8.995309067195654,-7.382489254909753,-0.38569866860583424
1772562126620065800,3.217065673828125,-9.861784442722797,-8.056405584317446,-4.093735294777154
1772562126630133000,3.227133056640625,-15.514653552305697,-10.38262033444047,-7.274391283762455
1772562126640200000,3.237199951171875,-22.256339642858503,-6.9585875507682555,-7.104625668731331
1772562126650267000,3.247266845703125,-35.55852406668663,4.653432247547805,-6.104884563052654
1772562126660333800,3.257333740234375,-14.10656837710142,7.31503893597126,3.696876495862007
1772562126670400800,3.26740087890625,0.4669406354010105,-5.821026120373606,11.627475433862209
1772562126680468000,3.277468017578125,-22.352236304080485,-4.440090525640547,-8.208211764287949
1772562126690535000,3.287534912109375,-34.78237953494787,-2.5091399987176057,-20.32519154753685
1772562126700601900,3.297601806640625,-23.73890927342176,-0.4453879981540143,-19.460993469291925
1772562126710668800,3.307668701171875,-18.45460459616184,1.9619018377646802,-14.828256511509418
1772562126720735700,3.31773583984375,-19.522841730439662,3.340371334645152,-8.504061089012026
1772562126730802700,3.327802734375,-18.458551287961004,3.519186225311458,-0.9567832037661224
1772562126740870000,3.337869873046875,-14.673821152079105,2.2669709723852574,2.6611940159693357
1772562126750936800,3.347936767578125,-10.026319171363115,1.9422887902781367,0.3637188189227134
1772562126761003800,3.358003662109375,-5.253965653097629,2.4572981677994132,-2.73542274300158
1772562126771070700,3.36807080078125,-0.1275876845151186,2.888873767569661,-2.5146497020497915
1772562126781137700,3.3781376953125,4.29796198233664,3.5160984884291886,-0.6584720189731568
1772562126791204600,3.38820458984375,7.143742458111047,3.5217899780690667,0.805721631617844
1772562126801271600,3.398271484375,8.779372652620077,3.726174486538768,1.8898077846735715
1772562126811339000,3.408339111328125,9.383475441089272,4.289486707197129,1.8635460929527878
1772562126821406000,3.418406005859375,9.636453007814287,4.284834789738059,1.7938463876523076
1772562126831473000,3.428472900390625,11.127734937143325,4.31331094263792,2.569198161578178
1772562126841539800,3.438539794921875,13.581522758734225,5.065092017492652,4.250246291437745
1772562126851606800,3.448606689453125,17.20535272308588,6.225983470070362,5.461676675641536
1772562126861673700,3.458673828125,21.13167276535034,7.350189159807562,5.829532082912325
1772562126871741000,3.468740966796875,24.294731138324735,7.991988933986425,6.873495776677132
1772562126881808000,3.478807861328125,23.924588496899602,8.11812758873701,7.517564080309867
1772562126891875800,3.488875732421875,20.661820041894913,7.745344077414273,7.567177129262685
1772562126901942800,3.49894287109375,17.814770569097995,7.462960383462906,8.282822476375102
1772562126912009700,3.509009765625,15.426325280511378,6.965905180305242,9.307001857739687
1772562126922076700,3.51907666015625,13.839497987616062,5.918413896936178,9.510656882891059
1772562126932143600,3.5291435546875,12.339240724670887,5.101845000350475,8.10645468659997
1772562126942210800,3.5392109375,9.894328283452987,4.447938608792424,5.158072499006987
1772562126952278000,3.549278076171875,9.184771316343545,3.3806823022454977,0.16510211673211306
1772562126962345000,3.559344970703125,10.845820029747486,1.1714301630530506,-5.764013608819246
1772562126972412000,3.569411865234375,12.087633277255296,-1.6053056372635066,-10.501092400085925
1772562126982478800,3.579478759765625,10.334978293299674,-3.1105981178969144,-12.28995968415141
1772562126992545800,3.5895458984375,4.578845208597183,-2.1000990329690277,-9.737039288157224
1772562127002612700,3.59961279296875,-2.017257522022724,-0.32339090018756683,-6.4913195831090205
1772562127012680000,3.609679931640625,-0.4727221414119005,0.5682810951121151,-5.154228683060407
1772562127022747000,3.619746826171875,4.67023520604968,0.24880630892235783,-5.84511543649137
1772562127032813800,3.629813720703125,5.554552527737617,-1.7186366867586969,-5.506511258146166
1772562127042880800,3.639880859375,4.400273771297932,-3.3145307909458874,-4.220016572868824
1772562127052947700,3.64994775390625,3.826290811282396,-4.029710566373169,-2.849910122925043
1772562127063014700,3.6600146484375,2.763657488361001,-4.866472648420929,-1.8961470706976948
1772562127073081900,3.670081787109375,2.2099545153081417,-5.226260484570265,-0.6294920812696219
1772562127083148800,3.680148681640625,2.793055432280898,-5.050962954375147,1.4686416429758071
1772562127093215700,3.6902158203125,3.4539906995624303,-5.659799201107025,3.4836551854640243
1772562127103282700,3.70028271484375,3.7101316987544295,-6.267915316870808,5.368250203925371
1772562127113350000,3.710349853515625,2.7127912244766947,-6.446041933012008,5.77575606906116
1772562127123416800,3.720416748046875,-1.998967247572541,-7.176750409221649,3.3459719311311837
1772562127133483800,3.73048388671875,-5.116799408376217,-7.804139380732178,0.12802549141049385
1772562127143551000,3.740551025390625,-4.328795512017607,-7.258153265666961,-1.3549723014369606
1772562127153618000,3.750617919921875,-4.511824513247609,-5.960643265378475,-0.4525868236169219
1772562127163684900,3.760684814453125,-5.634306447932124,-3.740263217645883,1.1716317500397562
1772562127173751800,3.770751708984375,-4.382926330655813,-1.5709895261637865,3.180275172974169
1772562127183818800,3.78081884765625,-2.9089585242211817,0.2255019691698253,5.027061269783974
1772562127193886700,3.79088671875,-3.1039100184351205,1.0088327591508626,5.847265892523527
1772562127203953700,3.80095361328125,-5.237555785566568,0.9874558437969535,4.948834705287218
1772562127214020600,3.8110205078125,-6.586237754687667,-0.10419665285982191,2.5036545530438423
1772562127224087800,3.821087890625,-6.701199766385555,-2.715894158928096,-0.9312868703946471
1772562127234154800,3.83115478515625,-8.376459375971555,-3.657382689863443,-3.0581875471800566
1772562127244221700,3.8412216796875,-14.973116233342886,-2.99441562449336,-5.043064310079813
1772562127254289000,3.851288818359375,-20.223685814261437,-5.557990685492753,-4.039810812366008
1772562127264355800,3.86135595703125,-25.257873574924467,0.6485701450966298,-4.694471821683645
1772562127274422800,3.8714228515625,-31.143387072777745,9.990904159110784,-7.910503659954666
1772562127284490000,3.881489990234375,-23.08672546787262,9.340558674904704,-2.376943505232781
1772562127294557000,3.891556884765625,-19.54940591223836,2.9687580361455677,-1.7418178019903598
1772562127304623900,3.901623779296875,-29.10058360608816,1.3064740818582474,-10.883422322911024
1772562127314690800,3.91169091796875,-37.76017018785476,-0.9961983185052871,-12.807771259611844
1772562127324757800,3.9217578125,-29.674212345838544,-2.344077446810901,-10.53534421377778
1772562127334824700,3.93182470703125,-27.161432237052917,-1.3342119836114346,-9.144713446721434
1772562127344892000,3.941891845703125,-28.638423190701005,-1.3056623270839451,-9.670527711373566
1772562127354959600,3.951959716796875,-23.47885782278776,-1.3747691810578107,-8.941315611201524
1772562127365026800,3.96202685546875,-15.0809242816329,-1.4519671331591903,-6.102507312527298
1772562127375093800,3.97209375,-9.29988881086409,-0.7929962978184223,-2.498593178001046
1772562127385160700,3.98216064453125,-4.571038918760419,0.49766924340277907,1.1171119320839642
1772562127395228000,3.992227783203125,-0.872242853012681,1.515355901747197,2.340138061535358
1772562127405294800,4.002294921875,2.30654675757885,3.543156883485615,3.651595923155546
1772562127415361800,4.01236181640625,7.178047463294863,5.30012300863862,5.819166756242513
1772562127425429000,4.022428955078125,10.74989297338724,5.159920757222175,5.45683917248249
1772562127435496000,4.032495849609375,12.494096939861773,4.363686792656779,3.88229882196933
1772562127445563000,4.04256298828125,13.579577469885349,4.641264839892089,2.0791449461370703
1772562127455629800,4.0526298828125,14.53716110331416,4.052634930364787,0.8717699017386883
1772562127465696800,4.06269677734375,15.872385624969004,3.150659202389419,0.9565931610867381
1772562127475763700,4.072763671875,18.314609265494347,4.95237456985116,1.4969792641878128
1772562127485830700,4.08283056640625,20.566594411802292,7.17298024303317,2.657655904971063
1772562127495897900,4.09289794921875,21.371710186481476,8.545302030938863,3.601425240319967
1772562127505964800,4.10296484375,21.30431715068817,10.245407327967882,4.416442815810441
1772562127516031700,4.11303173828125,21.294588368356226,11.165386330145596,5.4123593947649
1772562127526098700,4.1230986328125,21.25664588345289,10.544978303563594,6.129073832413554
1772562127536165600,4.13316552734375,19.874183809804915,9.523979890322686,5.176577877512574
1772562127546232600,4.143232666015625,17.456165220731496,8.201956211024521,4.554494903455675
1772562127556299800,4.1532998046875,15.352904654991626,6.977730058133602,5.14059003380835
1772562127566367000,4.163366943359375,13.395170166039467,6.540293749636411,5.572522484192252
1772562127576434000,4.173433837890625,13.25539929177761,6.153484051048755,3.966878847146034
1772562127586500900,4.1835009765625,16.029593956243993,4.634723455424607,-0.23022110664620996
1772562127596567800,4.19356787109375,17.4631362287879,2.6485683431521054,-4.280853611147403
1772562127606634800,4.203634765625,16.309109985804557,1.8253285905003547,-6.7162406836509705
1772562127616702000,4.213701904296875,12.576362550616263,2.1831727452360092,-6.871240106704831
1772562127626769000,4.223768798828125,8.977180705308914,3.186260384863615,-4.711743274480104
1772562127636835800,4.2338359375,9.465927514326571,4.159293224097788,-2.5546952967122194
1772562127646902800,4.24390283203125,8.24507755987048,4.680287228986621,-2.609999543043971
1772562127656969700,4.2539697265625,6.030015492290258,3.631182080680132,-4.906568511965871
1772562127667036700,4.26403662109375,3.957043097308278,1.3646074141360818,-8.679525792467594
1772562127677103900,4.274103759765625,3.065354954591393,-0.31650917784981425,-10.979731656587123
1772562127687170800,4.2841708984375,2.053870804148912,-1.1156298037674277,-11.59834052479267
1772562127697237800,4.29423779296875,0.6478630197405815,-1.9000177746511995,-9.538774139350652
1772562127707304700,4.3043046875,1.122287873417139,-2.89152457433939,-4.400548496586084
1772562127717371600,4.31437158203125,1.0589724623262882,-3.501274428784847,1.295431440448761
1772562127727438600,4.3244384765625,-0.11050386324524879,-3.9088726483792064,4.444363965176046
1772562127737505800,4.334505859375,-1.4765221670925617,-4.4688618620947,4.780081482169032
1772562127747573000,4.344572998046875,-0.9296680370211601,-4.06729006318301,4.584564170765876
1772562127757640000,4.354639892578125,-0.4429641320079565,-4.2503842386037105,4.5745989493295545
1772562127767707000,4.364706787109375,-2.1847230434179306,-5.310083261638879,3.5075115696087478
1772562127777773800,4.37477392578125,-2.5750591625660655,-5.195848395171761,2.0214938444182278
1772562127787841800,4.384841796875,-1.8133797940313816,-4.914576461854577,1.3622925613224506
1772562127797908700,4.39490869140625,-1.7320400659501551,-4.915068044763803,1.70895174356848
1772562127807975700,4.4049755859375,-1.3197428748846054,-4.6736216336175795,1.6911100896686315
1772562127818043000,4.41504296875,-3.821772457075119,-4.018683853185177,1.426405260270834
1772562127828109800,4.42510986328125,-8.136856839126349,-3.5309248861610887,1.0419511848986147
1772562127838176800,4.4351767578125,-10.933781221795082,-3.99921664391011,0.10411211638152598
1772562127848243700,4.44524365234375,-12.9846931761384,-4.723381689825653,-2.036846019589901
1772562127858310700,4.455310546875,-13.748471562778949,-5.825129464039206,-4.461964796057344
1772562127868377600,4.465377685546875,-13.110409806084633,-6.4718310387849804,-5.4032922912120815
1772562127878444800,4.47544482421875,-14.954590396571158,-5.282696657541394,-4.590670963208377
1772562127888512000,4.485511962890625,-20.366189912879467,-4.35206532844603,-3.392850002162158
1772562127898579000,4.495578857421875,-21.962900301885604,0.1405149706274271,-2.91286020783484
1772562127908646000,4.50564599609375,-14.611470202106236,8.119854266399145,-1.9075389639362692
1772562127918712800,4.515712890625,-6.762802528339624,8.997024638941884,1.4577289115563035
1772562127928779800,4.52577978515625,-19.606271708798406,7.77703802331686,-3.71767466147989
1772562127938846700,4.5358466796875,-32.21539320420027,9.982397027528286,-11.275477520936727
1772562127948914000,4.545913818359375,-35.282250964570046,9.637962827855349,-11.827249818187951
1772562127958980900,4.55598095703125,-32.63155408495665,9.478677690306306,-7.172946340763568
1772562127969047800,4.5660478515625,-28.936940857851503,8.720311976364254,-1.829767595861107
1772562127979114800,4.57611474609375,-23.184399075639245,5.820309496536851,0.46668914485797286
1772562127989181700,4.586181640625,-13.67174137431979,2.0061179961100217,-1.6013034158848225
1772562127999248600,4.59624853515625,-6.001449907541275,-1.9258488198697565,-2.8165350920677183
1772562128009315800,4.60631591796875,0.1992950763761997,-2.8656179796665904,-0.36328795322477814
1772562128019382800,4.6163828125,1.8682424340754746,-1.999687378540635,1.4398739597834647
1772562128029449700,4.62644970703125,3.199475255745649,-0.49479924092441796,2.91419321000427
1772562128039516700,4.6365166015625,4.479504544401169,1.5359104678675533,3.469849362951517
1772562128049583900,4.646583984375,2.921463201007247,1.9771559593893586,1.9729558773510156
1772562128059650800,4.65665087890625,0.023798808738589285,-0.07483312266618013,1.2501355240426957
1772562128069717800,4.6667177734375,-0.9582242694199085,-3.3426246665298938,0.9056910952366888
1772562128079785000,4.676784912109375,0.21285832230448723,-6.5782549392402165,-1.9337325588569043
1772562128089852000,4.686851806640625,3.9935593488007783,-8.976195201402902,-7.025417107459902
1772562128099918800,4.6969189453125,10.68652144819498,-8.716656376466155,-10.382972216618061
1772562128109985800,4.70698583984375,16.08054789841175,-7.261638185173273,-13.146272562104462
1772562128120052700,4.717052734375,16.296446903586386,-6.097884328901768,-13.151807984399795
1772562128130119700,4.72711962890625,12.871518047857284,-3.056545040670037,-10.040808299964667
1772562128140187000,4.737186767578125,8.994230039787292,0.4068294271789491,-5.49514639904499
1772562128150253800,4.74725390625,5.806045408862829,2.8411060542225837,-0.752389123750478
1772562128160320800,4.75732080078125,5.564636114856601,3.7730645402684804,3.507483220297098
1772562128170387700,4.7673876953125,7.93944275419116,3.599528174526989,4.962096337920427
1772562128180454700,4.77745458984375,9.948043507027625,2.8720898060292,2.7786279707387087
1772562128190521000,4.78752099609375,12.610414457821845,2.089059460299462,-0.46592926640138027
1772562128200588000,4.797588134765625,14.511993928831815,1.826089784131199,-3.9246562007054684
1772562128210655000,4.807655029296875,14.25032569065094,1.7072804493553935,-6.292794322061538
1772562128220722000,4.817721923828125,12.164637021958827,1.1151307682041078,-6.495266274908184
1772562128230788900,4.827788818359375,10.25307742420435,0.6231514070060103,-4.784255845244228
1772562128240855800,4.837855712890625,9.22290260181725,0.040224458360672,-2.392030453597009
1772562128250924000,4.847924072265625,6.055371467342972,-0.7956901400122791,0.45451326163485645
1772562128260991000,4.857990966796875,9.782787478375434,1.4419028352625667,-0.5846417897392064
1772562128271058200,4.86805810546875,18.572853374445437,2.903389491917193,-1.1069342369407416
1772562128281125000,4.878125,20.77968537381887,1.734594280477613,-2.4451471267566083
1772562128291192000,4.888192138671875,19.563675260609386,-0.07613485291451215,-3.4341447201028465
1772562128301259000,4.898259033203125,16.51026033465862,-1.1881621752105653,-1.9282436060518025
1772562128311326000,4.908325927734375,11.99144786221981,-1.9346673554889857,0.4434213742561638
1772562128321393000,4.918392822265625,10.633889928203821,-2.2698988425306976,3.6937557334929703
1772562128331460000,4.928460205078125,11.059705941534041,-2.7622783089622853,5.569212336730956
1772562128341527000,4.938527099609375,10.260774408447741,-3.4008503532662986,5.617950356414914
1772562128351594000,4.948593994140625,8.272259581306576,-4.139342615219951,4.231667847695946
1772562128361661000,4.958660888671875,5.965764846175909,-4.878348087392747,1.4001796627767382
1772562128371728000,4.968727783203125,1.6793343116790056,-5.333463552704453,-1.931376789510995
1772562128381794800,4.978794921875,-4.032035502189397,-5.749834276819229,-2.16161207081303
1772562128391862300,4.9888623046875,-6.577659311434626,-6.106614163324236,-0.4858952189788222
1772562128401929200,4.99892919921875,-5.287828759732842,-5.750442764106393,0.9646953651301562
1772562128411996200,5.00899609375,-2.9727012208133936,-4.687932190781831,0.999779391862452
1772562128422063000,5.01906298828125,-1.1573562641888857,-4.014994351017475,0.8925652178123593
1772562128432130000,5.029130126953125,0.42126258780956266,-3.3929189757451415,1.5990807713992892
1772562128442197000,5.039197021484375,0.5482347707748413,-2.529142045521736,2.0227561194390056
1772562128452264200,5.04926416015625,-2.4879180547297,-1.8335468221388755,2.2887113872893154
1772562128462331100,5.0593310546875,-8.042681594869494,-0.9239197026275098,2.8171973553687333
1772562128472398000,5.069398193359375,-13.850683398497104,-1.6113040008954702,4.339932407581806
1772562128482465000,5.079465087890625,-16.55860730919838,-5.3521133081167935,7.252315061032772
1772562128492532000,5.089531982421875,-16.341155813884733,-8.826435432568191,9.720847447291016
1772562128502599000,5.099598876953125,-17.739399978554246,-7.478475932502747,9.788986333015561
1772562128512666000,5.109666015625,-24.986407580828665,-5.1246834396243095,8.475915775501727
1772562128522733000,5.119733154296875,-31.866990100896356,0.08100282427705824,6.609184915032983
1772562128532800000,5.129800048828125,-42.47009326117038,11.395236703783272,6.307849267852306
1772562128542867000,5.139866943359375,-36.153247032392024,14.049097015863657,14.52908534888625
1772562128552934000,5.149933837890625,-20.764104358327387,3.8321915597587823,14.152017292112111
1772562128563001000,5.1600009765625,-23.303047666895388,5.148504460194706,0.5737544850219041
1772562128573068000,5.170068115234375,-27.23768662469387,4.797032616969942,-0.9008912206742912
1772562128583135200,5.18013525390625,-23.235210394465923,6.678790366178751,-2.329351294583082
1772562128593202200,5.1902021484375,-18.91133246510625,8.882932395815848,-5.459989745467901
1772562128603269000,5.20026904296875,-15.52574660872817,7.9212021641016,-5.738133317631482
1772562128613336000,5.210336181640625,-11.927592352902888,5.896739825266599,-4.421885883647203
1772562128623403000,5.220403076171875,-7.5962705372780555,4.712697798725962,-5.160960621663928
1772562128633470000,5.230469970703125,-4.402997643303871,4.3581566310584545,-6.759736126506328
1772562128643537200,5.240537109375,-1.8854694632083175,4.753113103483617,-6.747633016258478
1772562128653604000,5.25060400390625,1.0876561204969883,5.711532895475625,-6.802249572587013
1772562128663671000,5.260671142578125,4.802037293389439,5.382801291847229,-7.208673487704992
1772562128673738000,5.270738037109375,10.03151323287487,4.859454294091463,-6.4980597050189965
1772562128683805000,5.280804931640625,14.677470906758307,4.664055640631914,-5.320818006142973
1772562128693873000,5.290872802734375,17.085343364870546,4.679774311028421,-3.7104938100650906
1772562128703940000,5.300940185546875,16.586832702207563,5.427737581160664,-2.0011986598864198
1772562128714007000,5.311007080078125,12.485305730640887,5.850622801735997,-0.19694858631528914
1772562128724074200,5.32107421875,10.551238533002138,4.009220736052096,0.3789634055340662
1772562128734141200,5.33114111328125,12.050146719425916,2.19489328590706,-0.19318042942080646
1772562128744208100,5.3412080078125,14.54624223539233,1.281020053258538,-1.692815432281792
1772562128754275000,5.351275146484375,15.728283443504571,0.9957682565249502,-3.554157877710461
1772562128764342000,5.361342041015625,15.397870754921435,1.3183188334308564,-3.73334101716727
1772562128774409000,5.371408935546875,15.15181275832653,2.371147824566066,-1.9160519407376646
1772562128784476200,5.38147607421875,13.639877917069196,3.5822564294695853,0.42506819063760337
1772562128794543000,5.391543212890625,10.382741914993524,4.308252782465518,2.388078501100838
1772562128804610000,5.401610107421875,7.170056464540958,4.305773532870411,3.056326429483294
1772562128814677000,5.411677001953125,6.494869384545088,4.1870682429909705,3.1174747256681323
1772562128824744000,5.421743896484375,7.564348043316603,3.3166461756646632,2.6413714173853395
1772562128834811000,5.431810791015625,9.383974622783064,2.030040138967335,0.3252585206903517
1772562128844878000,5.441878173828125,10.25324342842102,1.631236927986145,-2.4838831001251935
1772562128854945000,5.451945068359375,8.435300271996855,1.94206813326478,-4.289761432485282
1772562128865012000,5.462011962890625,6.121446406275034,1.8487519900552927,-4.516128347921371
1772562128875079200,5.4720791015625,4.747132567769289,1.5164002962335943,-4.039710274600982
1772562128885146000,5.48214599609375,3.4174750325918195,1.8512514056555927,-1.6983093535229563
1772562128895213000,5.492213134765625,-0.3064963909447193,2.4156708569034935,2.4689175861835477
1772562128905280000,5.502280029296875,3.0626088707536456,1.1329055674128234,0.660618748678267
1772562128915347200,5.51234716796875,16.957403213655947,-3.766271519127488,-7.825354018196463
1772562128925414100,5.5224140625,20.13993551790714,-5.715508228847384,-10.03367830195427
1772562128935481000,5.532481201171875,14.035630800569056,-4.696981174156069,-5.5372834130287165
1772562128945548000,5.542548095703125,11.459018563342093,-4.264948186007142,-1.8672572224304078
1772562128955615000,5.552614990234375,10.184066431820392,-2.684875335808098,-1.0350694625608623
1772562128965682000,5.562681884765625,9.612623803937435,-2.453269935196638,0.6441679646149278
1772562128975749000,5.5727490234375,9.242293530985712,-3.245548440134525,2.9327123247742652
1772562128985816000,5.582816162109375,7.731119152706861,-3.36537513525933,4.413745831811428
1772562128995883000,5.592883056640625,4.778097614875436,-3.0729470171555877,5.0515685190528625
1772562129005950000,5.602949951171875,0.8795973074287176,-2.7547581425905228,5.338768088853359
1772562129016017000,5.613016845703125,-2.9820588317453858,-2.559522862999141,5.626390267980098
1772562129026083800,5.623083740234375,-4.9259132639050485,-2.497460959100723,5.306954315963387
1772562129036151000,5.633151123046875,-5.011852594736218,-2.4314593776658175,5.113758725506067
1772562129046218200,5.64321826171875,-1.6840771222919224,-2.6953780251219865,5.013217453348636
1772562129056285200,5.65328515625,2.9394162063270803,-2.764533978934586,5.046724001631141
1772562129066352000,5.66335205078125,6.131216105139255,-3.93542338617444,4.1270778846696015
1772562129076419000,5.673419189453125,5.196250546231866,-5.3064814377546305,1.5219621681444346
1772562129086486000,5.683486083984375,2.123105668416619,-6.852097599339484,-0.13292305419370531
1772562129096553000,5.693552978515625,-2.560526779344678,-8.831432510203122,0.4828957449018955
1772562129106620200,5.7036201171875,-6.9731912456601854,-10.10849944192171,2.589855749681592
1772562129116687000,5.71368701171875,-9.996492188376187,-10.04245898978114,3.2704213078454134
1772562129126754000,5.723754150390625,-16.48370199807882,-9.240613615074754,-1.4166149570100008
1772562129136821000,5.733821044921875,-26.853092264068124,-10.3245995226264,-7.052728892755508
1772562129146889000,5.743888916015625,-34.27104680011272,-8.399850772953034,-6.558382364034652
1772562129156955000,5.753954833984375,-39.954708522844314,-0.937441593632102,-0.39095300893746315
1772562129167022800,5.76402294921875,-45.37133726549148,5.501044224911928,5.444629679250717
1772562129177090000,5.774090087890625,-41.359758860397335,7.1080252480417485,4.23334922491163
1772562129187157200,5.7841572265625,-44.44085791208744,8.104448022952676,-1.5020874009817837
1772562129197224700,5.794224609375,-38.25505447671413,7.187383446916938,-6.004985095930099
1772562129207291600,5.804291748046875,-26.967455140829085,5.341884175047278,-5.768254315128922
1772562129217358600,5.814358642578125,-21.276797860121725,5.143915378838777,-4.168956832239031
1772562129227425500,5.824425537109375,-17.662119170475005,5.388362433105707,-5.331553335168957
1772562129237492500,5.834492431640625,-13.46662913609743,5.034707985144854,-6.627628334218263
1772562129247559700,5.8445595703125,-5.7439270986020565,3.235205033035576,-5.82696953894794
1772562129257627000,5.854626953125,3.1554572503209113,2.1662328624814746,-3.1062244328573345
1772562129267693800,5.86469384765625,10.957425132232904,1.946625942699611,-0.4067849304500967
1772562129277760800,5.8747607421875,14.677695363163947,2.6445152683690187,0.49658517449311906
1772562129287827700,5.88482763671875,15.068067138147354,3.665434478893876,0.4194004471994936
1772562129297894700,5.894894775390625,15.135598121106623,4.141362722870707,0.43737434917688367
1772562129307961600,5.904961669921875,14.215147994285822,4.183046440128982,0.38440329503305254
1772562129318028800,5.91502880859375,11.879468665724993,4.729772852167486,1.0043896621368824
1772562129328095700,5.925095703125,9.854608852005004,6.459086123502254,2.043418091456592
1772562129338162700,5.93516259765625,7.959985776004195,7.022590359601378,3.163348588092625
1772562129348229600,5.945229736328125,9.238058085373044,5.073312733349204,3.952831909354031
1772562129358296600,5.955296630859375,14.09332778725624,3.4298435157775877,4.0168335491433735
1772562129368363500,5.965363525390625,20.105923358190058,2.6474638890415427,2.992784808421135
1772562129378430700,5.9754306640625,24.323601843500136,1.6920251586869357,0.8181566041685641
1772562129388497700,5.98549755859375,23.954569793665407,0.819054575921595,-0.6940590998567641
1772562129398564600,5.995564697265625,21.851298706531523,2.053674843185395,-0.7246119129002094
1772562129408631600,6.005631591796875,19.469274975425005,3.1971132027894256,0.29039990021176637
1772562129418698800,6.01569873046875,15.741144094121456,4.143732082350552,1.0868751992523669
1772562129428765700,6.025765625,11.87587385610342,4.973347799775004,0.9371732980847358
1772562129438832600,6.03583251953125,7.139111875700951,4.980632696086168,0.009933803384751081
1772562129448899800,6.04589990234375,3.7075656476587056,4.333283763347566,-0.9827804723970591
1772562129458966800,6.055966796875,3.0665163995862006,3.542638120308518,-1.849847237946093
1772562129469033700,6.06603369140625,2.6560353180319067,2.968468697810173,-2.072970641416311
1772562129479100700,6.0761005859375,1.4541110133200883,2.310521068037301,-1.574513608636707
1772562129489167600,6.086167724609375,1.3061311136394738,0.8615911836821586,-1.5447637825392186
1772562129499234600,6.096234619140625,2.2465157749861477,-0.48935284861940886,-3.31721140833199
1772562129509301800,6.1063017578125,-0.7098276007443666,-0.20712551427353174,-4.669940899278223
1772562129519368700,6.11636865234375,0.5694301190167665,0.13728746908144093,-5.228375284767151
1772562129529435600,6.126435546875,14.232073410123586,-2.226984852825105,-6.203946994829177
1772562129539502600,6.136502685546875,17.057627674949167,-2.50100111592561,-4.448953338792919
1772562129549569500,6.146569580078125,10.605272905528544,-1.1878197184484451,-1.602610845221579
1772562129559636500,6.156636474609375,7.114343345147371,-0.8789655853964388,-0.26397008538246153
1772562129569703700,6.16670361328125,8.34957662974298,-2.0726441859409213,0.493532874250412
1772562129579770600,6.1767705078125,9.739911044201254,-3.5066710271313783,2.62707547326833
1772562129589837800,6.186837890625,8.927854656603932,-4.082133412049711,5.579012430733442
1772562129599904800,6.19690478515625,5.998200550356507,-3.8581463774874805,8.292782144853472
1772562129609972700,6.20697265625,1.9982529618233442,-4.040267323961854,9.57913654487729
1772562129620038700,6.21703857421875,-3.0352929938048123,-4.558888462239503,9.738777071735262
1772562129630106600,6.227106689453125,-7.575362773805856,-6.124406425124406,8.850808241802454
1772562129640173600,6.237173583984375,-9.56714507831037,-7.545344652161002,7.065486082997918
1772562129650240800,6.24724072265625,-8.243366664299367,-7.587391065251826,6.739346833950281
1772562129660307700,6.2573076171875,-7.242533671730756,-7.704523991248011,6.310825068792701
1772562129670374700,6.267374755859375,-9.795474525991082,-8.523763568347691,4.483083864192665
1772562129680441600,6.277441650390625,-13.125989652532338,-8.8090751324445,0.4809095395207405
1772562129690508500,6.287508544921875,-17.857365848243237,-8.777788013777137,-2.9319629677116867
1772562129700575500,6.297575439453125,-23.3162298045516,-8.029248112800717,-2.203351171520352
1772562129710642700,6.307642578125,-26.344537177252768,-6.651635817271471,1.4685413974717259
1772562129720709600,6.317709716796875,-28.144920711588856,-5.166049469235539,6.021708851715922
1772562129730776800,6.32777685546875,-28.17839277307987,-4.068557598900795,6.366935663071274
1772562129740843800,6.33784375,-27.753183493471145,-3.5387989805370568,-0.33826647082343697
1772562129750910700,6.34791064453125,-30.24735943955183,-2.92987827039212,-8.761011651021242
1772562129760977700,6.357977783203125,-32.29508925672769,2.4275052332125604,-7.946552878457307
1772562129771044600,6.368044677734375,-37.629510840809345,9.020544046217202,-2.5183336512595416
1772562129781111800,6.37811181640625,-33.04516411218643,12.708648037558794,-6.951710066214203
1772562129791178800,6.3881787109375,-22.04961061708927,4.156308363068104,-9.962049820548295
1772562129801245700,6.39824560546875,-26.074602630507943,6.150459734791517,-14.888310290455816
1772562129811312600,6.408312744140625,-17.608988468790052,6.06229396008253,-8.037283535218238
1772562129821379600,6.418379638671875,-0.9816320330142975,2.018270790718496,-0.22266177730783818
1772562129831446500,6.428446533203125,6.0181508669734,1.661343604697287,0.9575346797205507
1772562129841513700,6.438513671875,5.421655630898475,1.2259852715179322,-2.525896779990196
1772562129851580700,6.44858056640625,4.071771300250291,2.0257427340343592,-6.8194824469387525
1772562129861647600,6.458647705078125,4.157917551830411,2.242920965364575,-7.422113409289717
1772562129871714600,6.468714599609375,5.434179012385011,2.7898724183306096,-5.173404508173466
1772562129881781500,6.478781494140625,6.796895936599373,3.8141488303288815,-4.1591012086570265
1772562129891848400,6.488848388671875,8.339751985821128,5.755753145474195,-3.9907892995655536
1772562129901916000,6.498916015625,8.286619530570507,8.97064341249466,-1.9624676549538969
1772562129911982800,6.50898291015625,7.521155967321992,9.90409330614209,0.872874648110196
1772562129922049800,6.5190498046875,9.78372797409594,8.816660473006964,3.2752354301288724
1772562129932116700,6.52911669921875,15.4966304043591,7.125369766074418,4.7024812328770755
1772562129942183700,6.53918359375,20.669741482543944,6.1590650660514825,4.660352694460749
1772562129952250600,6.549250732421875,22.709091593909264,5.489263186225295,3.3599954880475997
1772562129962317800,6.55931787109375,23.547627992153167,5.6188271392494435,1.993965201501548
1772562129972384800,6.569384765625,23.233957179534436,6.344337462294101,1.1045686037879436
1772562129982451700,6.57945166015625,21.259771906518935,7.025542779666185,1.3716187542028724
1772562129992518700,6.5895185546875,17.70002658406496,7.8431977179229255,2.3541876296758653
1772562130002585600,6.599585693359375,13.153051846981048,8.584777132236956,3.136397452802956
1772562130012652500,6.609652587890625,8.476309743255376,8.845079927283525,3.25904212795794
1772562130022719700,6.6197197265625,6.65422934089601,8.19095550906062,2.9488270087510347
1772562130032786700,6.62978662109375,8.351710134640335,7.142066633853316,2.0248063299670815
1772562130042853600,6.639853515625,10.204334143823385,5.99064092875719,0.07145442631358746
1772562130052920600,6.649920654296875,11.74313828730583,4.318428139521181,-3.5793127772331235
1772562130062988800,6.65998876953125,10.98958435755968,2.7337717609241605,-5.3680105499506
1772562130073055700,6.6700556640625,8.735186304891108,2.8056542170912024,-3.514786236786842
1772562130083122700,6.680122802734375,6.736837481477856,3.5266973315939305,-0.9300893311731516
1772562130093189600,6.690189697265625,5.26039773197174,4.091361259122193,-0.07541209159791469
1772562130103256600,6.700256591796875,7.917231506904959,3.788073308829963,-1.5780568342015147
1772562130113323800,6.71032373046875,14.371034137046337,1.3710098285242915,-4.404499572299421
1772562130123390700,6.720390625,15.676518184953927,-0.5955689150102437,-4.987518363946676
1772562130133457700,6.730457763671875,13.488328926730155,-1.3993616243921219,-4.091683038422465
1772562130143524600,6.740524658203125,10.045403811061382,-2.229038570484519,-2.2362711520865557
1772562130153591600,6.750591552734375,8.685537015581131,-2.374932311540842,-0.4357333039715886
1772562130163658500,6.760658447265625,9.566284662088751,-3.1227164257138966,0.997285821481049
1772562130173725700,6.7707255859375,8.462769878202677,-4.348467596215009,2.237187974670529
1772562130183792600,6.780792724609375,5.107397373780608,-5.521847358965873,2.8011612895861266
1772562130193859300,6.790859375,1.9200304889798163,-6.3982023234725,2.516131757301092
1772562130203926300,6.80092626953125,-2.0026491509556767,-7.46104958140552,1.5774159059494732
1772562130213993200,6.8109931640625,-5.737818260332942,-8.113635538014769,-0.1879644118055701
1772562130224060400,6.821060302734375,-8.718806832498311,-8.317438447204232,-0.3233966723412275
1772562130234127400,6.83112744140625,-10.62048216509819,-8.718111251449585,1.4997960751742123
1772562130244194300,6.8411943359375,-12.470730092799663,-9.044742083406447,3.4267212921038266
1772562130254261200,6.85126123046875,-15.079053811585903,-8.865878969684243,3.59008025496304
1772562130264328200,6.861328125,-18.46409840069413,-8.523131115663052,1.6439993789255618
1772562130274395100,6.87139501953125,-20.595439398014545,-8.41626823926866,-0.5199699225381016
1772562130284462300,6.88146240234375,-20.272030450713633,-8.319726265880465,-0.8417804947316646
1772562130294529500,6.891529541015625,-19.735039543008803,-8.042534295353294,1.2898729295387863
1772562130304596500,6.901596435546875,-19.511195716309548,-7.587688002371787,3.898949220257997
1772562130314663400,6.911663330078125,-19.346260005652905,-6.827547095450758,5.229387676680088
1772562130324730400,6.92173046875,-19.949474905371666,-6.048757017639279,3.559971824686229
1772562130334797300,6.93179736328125,-24.725308666968346,-7.896275812637805,1.7484776982709764
1772562130344864300,6.9418642578125,-28.971345816278458,-4.262327482114732,-1.4986958588473498
1772562130354931500,6.951931396484375,-33.18016996400356,-1.925896458403766,-8.150130162197351
1772562130364998400,6.961998291015625,-33.69294062268734,-0.6992249581873416,-15.468366432905196
1772562130375065300,6.9720654296875,-29.110700510954857,1.048698321071267,-19.32390438145995
1772562130385132300,6.98213232421875,-22.14484092335701,1.4074164821624755,-16.315639095312356
1772562130395199200,6.99219921875,-12.220730080580712,2.2968045312434433,-11.10495495005846
1772562130405266200,7.00226611328125,-5.489074970176816,3.3721693254441023,-5.991866086637973
1772562130415333400,7.01233349609375,-2.7002310181111095,4.191270370855928,-4.568695570504665
1772562130425400300,7.022400390625,-1.5286901612251995,4.040374875989556,-7.2050780935615295
1772562130435468500,7.032468505859375,0.34775428400635716,4.272539371788501,-7.746783754828572
1772562130445534200,7.0425341796875,3.0037159522801637,4.42030650550127,-5.769874609807133
1772562130455602400,7.0526025390625,5.8831228033244605,5.25269607155323,-2.785747739616036
1772562130465669400,7.06266943359375,8.300478544574975,6.188892633560299,-0.10720511396080255
1772562130475736300,7.072736328125,9.55584393209517,7.067711357831954,0.9230601631887256
1772562130485803300,7.08280322265625,9.829799404919147,7.857229750406741,0.9679878308042883
1772562130495870500,7.092870361328125,7.879827366662025,8.647914848673343,1.931659551975131
1772562130505937400,7.1029375,4.981272747555375,8.736579805076122,3.298324337032437
1772562130516004400,7.11300439453125,2.706704013517499,7.117092936116457,3.4794919283047316
1772562130526071300,7.1230712890625,2.839689757683873,4.82707441175133,3.6186873407661913
1772562130536138200,7.13313818359375,7.054603454455733,3.461894604554772,3.611137948299944
1772562130546205200,7.143205078125,11.608864256894588,3.4263606420978903,2.5295754685029386
1772562130556272400,7.1532724609375,13.369970258331298,3.125918144364655,1.6595529218882321
1772562130566339300,7.16333935546875,13.832780662059783,2.665501942296326,0.7476129953898489
1772562130576406300,7.17340625,14.391684126365185,2.6672411871790884,-0.23698555927984416
1772562130586473200,7.18347314453125,14.594523743480442,2.6405641926556824,-0.606274652615562
1772562130596540400,7.19354052734375,14.591336930137873,2.799900183609128,-0.3930332492776215
1772562130606607400,7.203607421875,13.726526272952556,3.266675399315357,-0.20758008964061736
1772562130616674300,7.21367431640625,12.49789048692584,3.489243214729428,-0.05682484349515289
1772562130626741500,7.223741455078125,11.934031446039675,3.306135010783374,-0.07692187510635703
1772562130636808400,7.233808349609375,12.441824316310882,3.3175705970332023,-0.252585717863217
1772562130646875400,7.24387548828125,12.303973011934756,3.7548920469790694,0.47228638034313913
1772562130656942300,7.2539423828125,11.614480343210696,4.02336850387007,1.0527705389462412
1772562130667009300,7.26400927734375,10.759695405477284,3.608032675760984,0.7202245646614581
1772562130677076200,7.274076171875,9.473364970850945,2.4489161239013075,-0.8655894595380872
1772562130687143400,7.284143310546875,8.36222159178257,1.9136705985590814,-3.534173658823967
1772562130697210400,7.29421044921875,4.279692166152596,3.0380916846126316,-4.899899117204547
1772562130707277300,7.30427734375,1.3002818030893801,4.281768095643818,-4.592741632002592
1772562130717344300,7.31434423828125,7.491929872837662,2.3194974245667455,-6.562864477884769
1772562130727411200,7.3244111328125,11.359458118915557,-1.6770258886061609,-9.113740216308832
1772562130737478100,7.33447802734375,10.150843376654386,-4.572457553386688,-9.862848272562026
1772562130747545300,7.34454541015625,8.382367138710617,-4.417942406718432,-9.45658802357316
1772562130757612300,7.3546123046875,7.073942361176013,-4.673707850596308,-8.561751645958424
1772562130767679500,7.364679443359375,8.024089707124233,-6.087518417710066,-7.213606852453947
1772562130777746400,7.374746337890625,9.037727236208319,-6.119115332978963,-3.6798072876393793
1772562130787813400,7.3848134765625,8.127675753805041,-5.923637184542417,0.8351724747687578
1772562130797880300,7.39488037109375,5.493387572678923,-5.752731167304516,4.283819475215673
1772562130807948300,7.4049482421875,2.16512285541296,-5.382949760407209,6.634885173478722
1772562130818015200,7.41501513671875,-1.1431512132257222,-5.130299525940418,8.5911677100569
1772562130828082400,7.42508251953125,-5.121899946385621,-4.761126021808385,11.00485908358097
1772562130838149400,7.4351494140625,-9.065116762915252,-3.4869933899760244,13.014370521521567
1772562130848216300,7.44521630859375,-12.044933953213691,-2.4114297122023998,13.893351158356666
1772562130858283300,7.455283203125,-14.66064369059801,-2.413868483656645,13.724626576811074
1772562130868350200,7.46535009765625,-17.218455365765095,-2.9887492692947384,13.46166888334155
1772562130878417200,7.475417236328125,-19.725053571045397,-3.744722827403247,12.699964380365609
1772562130888484400,7.485484375,-22.000305026650427,-3.5689246542096136,12.810125713783501
1772562130898551300,7.49555126953125,-23.596250861024856,-3.8562911050096154,13.34391227248907
1772562130908618500,7.505618408203125,-25.304471659970282,-3.4479870752334594,11.408199061208963
1772562130918685400,7.515685546875,-27.595371935606,-2.1194421774730086,5.44578060285151
1772562130928752400,7.52575244140625,-29.696989994835853,-3.3736738847881553,-0.18756971339955925
1772562130938819300,7.5358193359375,-27.3485260035038,-2.0183423946499826,-1.0046796580594033
1772562130948886300,7.54588623046875,-25.708532937610148,-0.3062932695880532,-0.6604729835320263
1772562130958953500,7.555953369140625,-29.505145234465598,-0.12714929309785367,-3.0209578867211935
1772562130969020400,7.5660205078125,-34.333709884774684,1.4333724689349532,-8.896651124566793
1772562130979087400,7.57608740234375,-36.444801874792574,1.6934283034831283,-14.156573055720328
1772562130989154300,7.586154296875,-35.411837129426,2.1100039025202393,-18.158474116408822
1772562130999221200,7.59622119140625,-27.4530759267807,1.3463713540911673,-19.350357504099605
1772562131009288200,7.6062880859375,-14.21914027879238,-0.19336743989288807,-17.423042703330516
1772562131019355400,7.61635546875,-4.023094070842862,0.6464543219864368,-13.04489659268856
1772562131029422300,7.62642236328125,0.8592594527989625,3.3639304894089697,-9.29455621766448
1772562131039489300,7.6364892578125,4.4061254199355835,4.6735988372638815,-7.98655346493423
1772562131049556200,7.64655615234375,9.137270729500054,4.881211075608432,-6.481788953697681
1772562131059623200,7.656623046875,11.568345199501513,4.914669400835037,-3.4177339757889507
1772562131069690000,7.666690185546875,11.77813127475381,5.191514165359735,-1.0553113094702362
1772562131079757600,7.676757568359375,11.19549972885847,5.622038502511382,-0.48863633438050746
1772562131089824500,7.686824462890625,10.583905123329162,6.022768589901924,0.2525662825103849
1772562131099891500,7.696891357421875,9.528560203850269,6.325756680464744,1.4475168757520616
1772562131109958400,7.70695849609375,9.02685279097259,6.434675320345163,2.2020918191090226
1772562131120025300,7.717025390625,8.37046568851471,6.47371670640111,1.9253622053965924
1772562131130092300,7.72709228515625,7.069972873023152,6.480165151888132,2.438077626761794
1772562131140159500,7.737159423828125,7.712356584569811,5.64063681999743,3.6019618314146995
1772562131150226400,7.747226318359375,12.053619948494434,4.245211804401874,3.6818934462636705
1772562131160294400,7.75729443359375,17.129327468025682,3.4794609486445784,2.9863936460793017
1772562131170361300,7.767361328125,20.119860698127745,2.521930214446783,1.2462091443791985
1772562131180428300,7.77742822265625,20.894586010718346,1.8336890070885419,-0.32015988237708803
1772562131190495200,7.7874951171875,20.863718578767774,2.112074863575399,-0.642702422107011
1772562131200562400,7.7975625,19.70757636654377,2.5658678481116888,0.29299742415798824
1772562131210629400,7.80762939453125,17.097688467180728,3.044861324878037,1.0819044981677084
1772562131220696600,7.817696533203125,14.173193351131676,3.419169561550021,0.7538618997167795
1772562131230763500,7.827763427734375,11.685917101436853,3.2518396492332218,-0.4323877564033493
1772562131240830500,7.83783056640625,9.326367652466892,3.14834449570626,-1.4228195107385515
1772562131250897400,7.8478974609375,7.185822773471474,3.1877512079432604,-1.8959210068568586
1772562131260964400,7.85796435546875,4.692105677074194,3.4961429111152884,-1.6327584384649991
1772562131271031300,7.86803125,1.833283933418989,4.145895690125227,-0.8522136990059167
1772562131281098200,7.87809814453125,1.4319856907516717,4.532046340282261,-0.2807720940362662
1772562131291165400,7.88816552734375,3.093165921580791,4.177473316171765,-1.0008283163934946
1772562131301232400,7.898232421875,2.9167788425832986,3.534454813852906,-3.143543232904374
1772562131311299300,7.90829931640625,1.5147235951930285,3.210311707058549,-5.8523529865294694
1772562131321366300,7.9183662109375,0.8569955995202064,3.007003887909651,-7.486979556953907
1772562131331433500,7.92843359375,0.4800929624408483,2.640213771782815,-7.1925056122362605
1772562131341500400,7.93850048828125,0.3092769615739584,2.156069780385494,-6.330075128185749
1772562131351567600,7.948567626953125,0.02110240926146507,1.9349300980783999,-5.309961096563935
1772562131361634600,7.958634521484375,4.773451834896207,-0.8396701515141874,-4.4079082116991275
1772562131371701500,7.968701416015625,11.527680011636019,-5.30269782756269,-2.59987445487082
1772562131381768400,7.9787685546875,10.759551613092421,-6.579656622731685,-0.44133784598037595
1772562131391835400,7.98883544921875,8.69803117097318,-7.030553301304578,2.262494557623565
1772562131401902300,7.99890234375,8.867717291027306,-8.493909697353839,4.80798421909511
1772562131411969500,8.008969482421875,8.876675673508643,-9.326979646885395,6.720664345312118
1772562131422036500,8.019036376953125,5.660596488964558,-8.906229684773088,7.758895048382878
1772562131432103400,8.029103515625,2.400890928661823,-8.342966271692514,8.408016543751955
1772562131442170400,8.03917041015625,-0.17283610851764677,-8.037562352159618,9.049059362083673
1772562131452237300,8.0492373046875,-3.4745559332072733,-7.518888022390008,9.145304398351907
1772562131462304300,8.05930419921875,-7.156581481418013,-7.476903568619489,8.004967658025025
1772562131472371500,8.069371337890624,-12.59130643724799,-6.550801699647307,6.912920609092712
1772562131482438400,8.0794384765625,-18.51244069905877,-4.2574733200818295,6.577693213704228
1772562131492505300,8.08950537109375,-23.54530627120733,-2.4899703110843894,5.245491839262843
1772562131502573600,8.099573486328126,-25.882615246796608,-1.7711955799050627,3.632399347515404
1772562131512640500,8.109640625,-25.138624095165728,-1.5360086675450204,3.1871476890921593
1772562131522707500,8.11970751953125,-24.027204821765423,-1.6698586273252962,3.0732603208884597
1772562131532774400,8.1297744140625,-23.380971449053288,0.09932663567066193,1.4034025703459978
1772562131542841300,8.13984130859375,-24.993646299910544,0.512546494539082,-3.0823318083554505
1772562131552908500,8.149908447265625,-23.72304534933567,-3.9272356958046553,-4.955180274921656
1772562131562975500,8.1599755859375,-16.70670411325693,-4.968042679104209,-3.2295255260944367
1772562131573042400,8.17004248046875,-15.024101739692687,-6.558342616546153,0.3975274919569492
1772562131583109400,8.180109375,-17.66940114417672,-5.912880228206515,-1.3633672048166394
1772562131593176300,8.19017626953125,-19.01607060443163,-4.7128807540774345,-5.4159489436894654
1772562131603243300,8.2002431640625,-17.557155405700207,-1.5913076531797647,-11.424682578498125
1772562131613310500,8.210310546875,-13.371798642802238,-0.8137292892456054,-14.855025275969505
1772562131623377400,8.22037744140625,-6.572219166207313,-3.255327491348982,-12.199091080224512
1772562131633444400,8.2304443359375,-0.8283376603126525,-3.9249008231163023,-7.098091883048415
1772562131643511600,8.240511474609375,0.553733368191123,-1.6775713936597108,-3.564690377640724
1772562131653578500,8.25057861328125,-2.256690547519922,1.3101280743211507,-3.1049484215721486
1772562131663645400,8.2606455078125,-3.5450153708338736,2.5253958447307348,-2.933606058743596
1772562131673712400,8.27071240234375,-3.1229175012439487,3.3185371039777993,-2.680561856523156
1772562131683779600,8.280779541015624,-1.332703478744626,4.266719287332892,-1.5733787593878805
1772562131693846500,8.290846435546875,0.9240653947085141,5.149693962240219,-0.3226882318109274
1772562131703913500,8.30091357421875,2.7191718654245136,5.901772558736801,-0.2088739288434386
1772562131713980400,8.31098046875,4.103997161072493,6.335416489213705,-1.3810095367521047
1772562131724047400,8.32104736328125,5.310013119012117,6.145728614616393,-3.429694170434773
1772562131734114300,8.3311142578125,6.206892985153198,6.417341908228397,-4.088298364420235
1772562131744181500,8.341181396484375,7.068115262457728,7.511616570082307,-2.3936712065413595
1772562131754248400,8.35124853515625,7.457035669589042,8.474889355063437,-0.4311594201847911
1772562131764315400,8.3613154296875,9.03979293656647,9.047415686529874,2.1771695592984557
1772562131774382300,8.37138232421875,12.912135304927824,9.451233218541741,5.588183579182624
1772562131784449300,8.38144921875,17.295481322300432,9.270929842883348,8.180145945754647
1772562131794516200,8.39151611328125,19.731812982177733,8.040687206181884,8.699892873191834
1772562131804583400,8.40158349609375,19.886138451492783,7.043969247716665,6.896570362794399
1772562131814650600,8.411650634765625,17.77557837639451,7.12423053291142,4.34685343901664
1772562131824717600,8.421717529296876,14.431520462191104,7.237544777402281,1.8641919896408914
1772562131834784500,8.431784423828125,11.632476603150367,7.69863317964375,-0.3025231033995747
1772562131844851500,8.4418515625,9.932685778898,8.298471296405792,-1.0768235416416079
1772562131854919400,8.45191943359375,8.56306155951321,8.347920679229498,-1.336458593494445
1772562131864986400,8.461986328125,7.6546099135220045,7.993701583123206,-1.8606039020210503
1772562131875053300,8.47205322265625,7.943329824757575,7.272245503905415,-2.4837284940853714
1772562131885120500,8.48212060546875,9.774353996551037,6.045916825777292,-2.248975150837004
1772562131895187500,8.4921875,12.133755561482905,5.243542458760738,-0.5150533262608572
1772562131905254400,8.50225439453125,13.008589600032566,4.978022221326828,1.4277939381502567
1772562131915321300,8.5123212890625,11.826119352853297,4.416514127480983,1.6754200608447194
1772562131925388300,8.52238818359375,9.076302173796295,3.592536415943503,-0.5282802163742483
1772562131935455200,8.532455322265625,5.85009439394772,2.92203544793725,-3.47560690356493
1772562131945522400,8.5425224609375,1.080554764059186,3.2852199407875537,-6.19271423767507
1772562131955589600,8.552589599609375,-4.5478129414737225,4.524998467597365,-6.993032841205596
1772562131965656600,8.562656494140626,-2.185168449097872,1.1348058480761944,-5.519567139074206
1772562131975723500,8.5727236328125,2.832245286896825,-2.0177067270949482,-2.8893147893354296
1772562131985790500,8.58279052734375,2.635457224905491,-2.713428645597398,-0.5596330937542021
1772562131995857400,8.592857421875,2.7777152398079634,-3.6729052531659603,1.4529372933655977
1772562132005924400,8.60292431640625,3.397468017351627,-4.659774310050905,4.606114616055787
1772562132015991600,8.612991455078125,3.2497575822621583,-5.385426379653811,7.678411060348153
1772562132026058500,8.62305859375,2.3998452190011736,-5.760481927561759,8.863043453997372
1772562132036125400,8.63312548828125,0.6817588596016169,-5.469283058992028,8.6190125793159
1772562132046192400,8.6431923828125,-0.725403355538845,-5.1558606681764125,8.290893554627894
1772562132056259300,8.65325927734375,-0.6412894865691662,-5.216270420953631,8.259671902412176
1772562132066326300,8.663326171875,-0.14424363576173782,-5.419284810113907,8.451746964406967
1772562132076393500,8.6733935546875,-1.2777853091210125,-5.125321737527847,7.706424856433272
1772562132086460400,8.68346044921875,-4.834684009972214,-4.850931672678888,5.9203410656064746
1772562132096527400,8.69352734375,-9.124844963169098,-5.024924257755279,4.264023472377658
1772562132106594300,8.70359423828125,-14.543327809250354,-3.9970220564752816,2.528607207992673
1772562132116661200,8.7136611328125,-21.899821037638187,-3.310562471836805,0.04974588155224919
1772562132126728400,8.723728515625,-25.47234634668827,-5.406717589485645,-1.7851747131578624
1772562132136795600,8.733795654296875,-22.118537438321113,-9.44235666912496,1.5672197983667253
1772562132146862600,8.743862548828124,-14.452773678100108,-10.909059452992677,6.00058189253509
1772562132156929500,8.753929443359375,-13.872482557851075,-11.525590930402279,4.911870710027218
1772562132166996500,8.76399658203125,-23.252902703022954,-14.005156167328357,3.618805706448853
1772562132177063400,8.7740634765625,-23.989545245456693,-8.750137205785512,-1.7271797664374111
1772562132187131400,8.78413134765625,-32.589403042447564,-7.501399711972475,-6.025040041965246
1772562132197199000,8.79419921875,-40.500441539931295,-3.7472272114396095,-12.941402315944432
1772562132207266300,8.804266357421875,-45.9164109418869,-0.21159137110859155,-18.161478558921814
1772562132217333200,8.814333251953125,-40.94247102143764,1.4070935338184236,-14.490903210008144
1772562132227400200,8.824400146484376,-26.125140393090245,2.028465144735575,-9.007245588704944
1772562132237467400,8.83446728515625,-11.561478236341475,2.4713521198540924,-3.0260929115220905
1772562132247534300,8.844534423828126,-1.8647201051682232,3.9924990260928865,1.953429777495563
1772562132257601300,8.854601318359375,1.8186451672136783,5.321267503476142,3.5721588138252494
1772562132267668200,8.864668212890624,5.614393540716171,5.471083386412262,3.1625802340686318
1772562132277735200,8.874735107421875,9.41268809157014,4.831884734642506,1.0723134438060224
1772562132287802000,8.884802001953124,11.763975323629378,3.819881236501038,-1.3569286962017417
1772562132297869300,8.894869384765625,13.21188748230934,4.481196150749922,-4.088171523170173
1772562132307936300,8.904936279296875,11.063780059105158,6.065926179105043,-4.8662049373954535
1772562132318003200,8.915003173828126,10.559778397810458,6.866012727445364,-2.368176992061734
1772562132328070100,8.925070068359375,11.662020677542685,7.946120916780829,-0.37349078280925746
1772562132338137000,8.93513720703125,11.28183361196518,8.646065421414376,0.7800332097403705
1772562132348204000,8.9452041015625,9.525528288808465,8.487706166538596,2.668174376375973
1772562132358271200,8.955271240234374,10.134737460505962,7.857622549116611,5.120983416062593
1772562132368338200,8.965338134765625,13.374022164070606,7.371347683170438,6.124115333223343
1772562132378405000,8.975405029296875,16.314349640023707,6.88670246425271,6.217499719363451
1772562132388472300,8.985472412109376,16.949795076739786,6.201276898837089,4.960742585223913
1772562132398539300,8.995539306640625,15.665722065651416,5.617303290683031,2.813777025531232
1772562132408606200,9.005606201171876,14.584347217381,5.300602316588163,1.7374718817405401
1772562132418673200,9.015673095703125,14.348997661805152,4.998260707235336,0.030983313415199516
1772562132428740400,9.025740234375,12.14307167136073,5.3380789375454185,-2.560633162328601
1772562132438807300,9.035807373046875,9.084614659589528,5.87911473672688,-5.176719331809878
1772562132448874200,9.045874267578125,5.900674826627969,5.32145922665596,-6.736013305613398
1772562132458941200,9.055941162109375,4.389108818683028,3.7392929113090037,-6.669700466272235
1772562132469008100,9.066008056640625,6.346765566223859,1.8389831679739057,-5.990448036533594
1772562132479075000,9.076074951171876,9.819839151918888,0.14466580669656395,-4.96190461474061
1772562132489142300,9.086142333984375,11.937850712066888,-1.321892892525345,-3.473646417146921
1772562132499209200,9.096209228515624,11.906369532132148,-2.0026437441281972,-2.41171393597126
1772562132509277200,9.106277099609375,11.167412283015251,-2.1716657011851668,-2.4646987994447347
1772562132519344400,9.116344482421875,10.242551354014873,-1.8886492622882127,-3.510040503564477
1772562132529411300,9.126411376953126,7.891182288891077,-0.9460996049273759,-4.338376702572405
1772562132539478300,9.136478271484375,6.249613936504721,-0.6948502502344548,-3.450557217982411
1772562132549545200,9.146545166015626,5.634128753277659,-1.1129027899563313,-0.7284206575334071
1772562132559612200,9.156612060546875,3.833601426556706,-2.3556787450164554,2.507832715511322
1772562132569679400,9.166679443359374,7.135513558948039,-3.1054426348298785,6.196267546242475
1772562132579746300,9.176746337890625,4.7619496131509536,-3.56608709269613,9.1227704949826
1772562132589813200,9.186813232421875,2.4655098235666753,-5.495164519223571,10.889480307775735
1772562132599880200,9.196880126953126,2.6470751819849014,-5.656705911266803,12.104251234579086
1772562132609947100,9.206947021484375,1.6853507954895495,-6.398790352493524,12.97934129371643
1772562132620014000,9.21701416015625,-1.1053466754883527,-7.119076218888163,12.959540030181406
1772562132630081300,9.227081298828125,-4.84670353358984,-6.82241616230309,12.925506827676296
1772562132640148200,9.237148193359374,-7.961219117191433,-6.495932045340537,13.316228146749735
1772562132650215200,9.247215087890625,-8.690121420761942,-6.396589627578854,13.475076646447182
1772562132660282000,9.2572822265625,-8.916267094662786,-6.136495506846904,12.972502387607097
1772562132670349000,9.26734912109375,-11.25186166754961,-5.824609824079275,10.914968969297409
1772562132680416000,9.277416015625,-13.554817122638225,-5.773913071542978,7.553024685269594
1772562132690483200,9.287483154296876,-15.030185443520544,-5.605335204991698,4.933327924075723
1772562132700550400,9.29755029296875,-17.116741542696953,-4.642903547009825,3.764359840287268
1772562132710617300,9.307617431640624,-20.472848791134357,-3.287288856016099,2.8637138996109366
1772562132720684300,9.317684326171875,-24.068116677868364,-2.26030800736472,3.282371565619111
1772562132730751200,9.327751220703124,-25.44942607434988,-2.9530162771344184,5.043518483588099
1772562132740818200,9.337818115234375,-23.6200409019351,-3.7218013860210775,3.3840783744245764
1772562132750885400,9.347885498046875,-26.924069588088987,-4.367017982906103,-1.0196917145565152
1772562132760952300,9.357952392578126,-31.681294510805603,-4.217524463792145,-3.417638114199042
1772562132771019300,9.368019287109375,-28.507516006374356,1.2950874493166804,-3.6177532747864722
1772562132781086200,9.378086181640626,-28.69421697411537,5.720978769212961,-2.9269173747599124
1772562132791154200,9.388154296875,-28.990981075596807,7.270942604613304,-5.998354279613494
1772562132801221000,9.39822119140625,-24.629556967175006,6.0060974410861725,-11.401496933221816
1772562132811288000,9.4082880859375,-19.999687673783303,3.0383740086853503,-13.319792561233044
1772562132821355000,9.41835498046875,-14.223129056167602,1.5729595110625028,-12.350268314641713
1772562132831422200,9.428422119140626,-5.543534874638914,1.41529700627923,-9.603004911720753
1772562132841489400,9.438489501953125,2.0129092636853456,1.4561860660284758,-6.733709704846143
1772562132851556400,9.448556396484374,3.386405356067419,2.0666724180549383,-6.830817495423555
1772562132861623300,9.458623291015625,2.234312711495161,2.8286440475344654,-9.315416634863615
1772562132871690200,9.468690185546874,2.1490064178705213,3.5034926893562077,-10.682051024782657
1772562132881757200,9.478757080078125,3.69966817240715,3.4021412698596714,-9.386400973147154
1772562132891824000,9.48882421875,5.070201323330402,3.5650954513102766,-7.109751925703883
1772562132901891300,9.498891357421876,6.481805320310592,4.175583556902408,-5.625117179304361
1772562132911958300,9.508958251953125,7.42816964058876,4.557664181141555,-5.967502045232057
1772562132922025200,9.519025146484376,7.9949594742298125,4.549683996042609,-7.100597728389501
1772562132932092200,9.529092041015625,8.24118172147572,5.425030075767636,-7.572372359818219
1772562132942159000,9.5391591796875,7.534442734396457,6.366628789079189,-6.365759605029225
1772562132952226000,9.54922607421875,6.5637441833287475,7.608689873868227,-2.1857304668948054
1772562132962293200,9.559293212890625,5.097623583263158,7.601139020097255,3.7740909607067703
1772562132972360200,9.569360107421875,5.6452621417105195,5.616567962145805,7.255423548442125
1772562132982427100,9.57942724609375,8.886757507061958,3.6955645364806053,6.54697249674797
1772562132992494000,9.589494140625,11.712551425862312,3.1076883679300544,4.837715632753074
1772562133002561300,9.599561279296875,13.800374768495558,3.0740812818825245,3.053961746178567
1772562133012628200,9.609628173828124,15.546661970984935,3.572795942685008,0.3673199852198362
1772562133022695400,9.6196953125,15.752126091384886,4.569027286677062,-1.6947873168766499
1772562133032762400,9.629762451171874,14.702972427761553,5.6062610876649615,-2.4387343371048567
1772562133042829300,9.639829345703125,14.022507115101813,6.308981486752629,-2.2142221096247434
1772562133052896300,9.649896240234375,13.079881396830082,6.306285087275505,-2.082493672043085
1772562133062963200,9.659963134765626,12.339445307332277,6.154423962247371,-2.2463205446749925
1772562133073030100,9.670030029296875,12.137561968028544,6.103721364492178,-1.8643249683707952
1772562133083097300,9.680097412109374,12.628284461033344,5.72153991022706,-1.1101751916233449
1772562133093164300,9.690164306640625,13.748857347226142,5.571918673080206,-0.8888549651175737
1772562133103232300,9.700232177734375,14.367749124026298,5.302184032821655,-1.00122812936604
1772562133113299200,9.71029931640625,13.015822473895549,4.814710897001624,-1.9357156954981385
1772562133123366100,9.7203662109375,9.381589188951253,4.934214059260487,-3.029713147845864
1772562133133433000,9.73043310546875,6.750698833569884,5.024037538048625,-3.3763311212986706
1772562133143500300,9.740500244140625,6.582353606730699,4.663176519709825,-2.805559816806018
1772562133153567200,9.750567138671874,5.333131544271112,4.431460644461215,-1.071587613749504
1772562133163634200,9.76063427734375,3.4798750824034212,3.9322152377828954,0.6005491876408457
1772562133173701400,9.770701416015624,7.864355072242021,1.215302768657729,1.7335145224168895
1772562133183768300,9.780768310546875,9.539052371770143,-1.983180918767303,1.4219073643296956
1772562133193835300,9.790835205078125,5.604704505872726,-2.8933640647262333,2.783034096743166
1772562133203901200,9.800901123046875,1.4451467856198548,-3.781378195105493,4.022838927038014
1772562133213968400,9.810968505859375,-1.4591981073260307,-4.85529951249957,4.744074933764338
1772562133224035300,9.821035400390626,-2.844564670243859,-6.083945819920301,5.692661021745205
1772562133234102300,9.831102294921875,-3.2114293129116294,-6.655595368552207,7.782045037823915
1772562133244169200,9.841169189453124,-3.2594828574627637,-7.80928375788331,10.6298275010705
1772562133254236200,9.851236083984375,-4.713377013161778,-9.688991588824987,10.941807876384258
1772562133264303000,9.86130322265625,-6.682271194031834,-11.891251457977294,8.160075217628478
1772562133274370300,9.871370361328125,-8.414725686001777,-13.598228394341469,5.597780844089389
1772562133284437200,9.881437255859375,-12.474379847478867,-14.340730184197424,3.1442057884663344
1772562133294504400,9.89150439453125,-16.384588128376006,-13.649201041209697,2.1506419101178644
1772562133304571400,9.9015712890625,-20.60825913209915,-12.737157508206367,0.2762795318573713
1772562133314638300,9.911638427734376,-24.34232057249546,-11.957232288885116,-1.1810796696037054
1772562133324705300,9.921705322265625,-22.48441540803909,-12.62409460812807,-0.3437295585349202
1772562133334772200,9.931772216796874,-20.45898626999855,-14.522366854286194,2.177185633650422
1772562133344839400,9.94183935546875,-21.582827802598477,-15.767531750309466,5.703538974112272
1772562133354906400,9.95190625,-27.917378030371665,-13.143856148612498,1.9266104518920182
1772562133364973300,9.961973388671876,-38.922400780081745,-11.326000085949897,-10.40932480149269
1772562133375040300,9.972040283203125,-47.19630812859535,-10.769971300297975,-17.796621164423225
1772562133385107200,9.982107177734376,-47.29894082007408,-3.419491925372183,-16.07525563722253
1772562133395174100,9.992174072265625,-45.329485498189925,0.9417258468225598,-15.4866724894464
1772562133405242000,10.0022421875,-41.707179966926574,4.798880875185132,-22.612979828631875
1772562133415309300,10.012309326171875,-35.84112403373718,6.8465095700740815,-25.311364342093466
1772562133425376300,10.022376220703125,-25.727733312642574,6.8969257521033285,-20.628822612178325
1772562133435443500,10.032443359375,-9.875312617337704,7.209724458062649,-13.328449330419302
1772562133445510400,10.042510498046875,2.0647265446841714,8.975705956581235,-7.278531452307105
1772562133455577300,10.052577392578126,5.396922171658277,10.894875444817542,-3.586805471076071
1772562133465644300,10.062644287109375,6.49130263197422,11.79834521074295,-3.331292248393595
1772562133475711200,10.072711181640624,9.073395930960773,11.588394300317763,-4.970718620315194
1772562133485778400,10.0827783203125,11.106264279091357,10.68842231338024,-5.875324696794152
1772562133495845400,10.092845458984375,13.795815497756003,10.18166521589756,-5.611271024781465
1772562133505912300,10.102912353515626,15.543302139163016,10.51436338506937,-4.173691167284548
1772562133515979300,10.112979248046875,14.96372530466318,10.808506490397452,-2.947755580127239
1772562133526046200,10.123046142578126,13.736243364846706,10.697248593914509,-2.338858981510252
1772562133536113200,10.133113037109375,12.955532548105715,10.557122330343722,-1.9086453177429734
1772562133546180400,10.143180419921874,11.861827795094252,10.134860210102795,-1.3527622241720556
1772562133556247300,10.153247314453125,10.776296996188163,9.053678254055976,0.04539519379576668
1772562133566314200,10.163314208984374,13.335712599420546,6.854024183487891,1.9167752865761518
1772562133576381200,10.173381103515625,17.80193446840048,5.285606992030144,3.176875593663752
1772562133586448100,10.1834482421875,21.683823832786082,5.121540465423465,2.939890838101506
1772562133596515000,10.19351513671875,24.41762569658756,5.2235903885781765,1.571173358298093
1772562133606582500,10.20358251953125,25.853354080998898,5.330326423722505,1.1736813760459421
1772562133616649500,10.2136494140625,27.543592648530005,5.9475032132983205,1.973830760489404
1772562133626716400,10.22371630859375,27.362741575860976,6.78845368694663,1.3577505339786409
1772562133636783400,10.233783447265624,24.061202952957153,7.5466183253586285,0.45733124166503547
1772562133646850300,10.243850341796875,19.93000798835754,8.56341577977836,0.07505290289670229
1772562133656917200,10.253917236328125,15.183933405208586,8.944155218541622,0.03631481063626706
1772562133666984200,10.263984130859376,10.84967085995674,8.317157292175292,0.6454596118606627
1772562133677051400,10.274051513671875,7.878478874662518,7.570533453953265,0.9278726780369877
1772562133687118300,10.284118408203126,5.7190749814182515,6.23348347043693,-0.5064947932846844
1772562133697185300,10.294185302734375,1.6039228046029805,4.578499171638488,-3.1261195121556518
1772562133707252200,10.304252197265624,-3.7113977731674908,3.0715856656745073,-4.109183916060626
1772562133717320200,10.3143203125,-6.515526388126611,1.16477304325141,-3.6334900653615594
1772562133727387100,10.32438720703125,-6.188941733399033,-1.1376173253003508,-2.105283596000075
1772562133737454300,10.334454345703126,-4.851624623379111,-2.761982540886104,-0.29863194117993114
1772562133747521300,10.344521240234375,-4.450629747572541,-4.078424328398705,0.947654360088706
1772562133757588500,10.35458837890625,-4.664478834480047,-5.223962144500017,2.0824602081649006
1772562133767655400,10.364655517578125,-4.767597848170995,-5.778227427610755,3.659388184466958
1772562133777722400,10.374722412109374,-5.136204366070031,-6.248686884787678,5.305930818134546
1772562133787789300,10.384789306640625,-5.749411082971096,-6.802561707276105,6.20409195625782
1772562133797856300,10.394856201171875,-6.144751878538727,-6.948336790388822,6.633389381963014
1772562133807923200,10.404923095703126,-5.512720049658418,-6.785851395493745,6.567012245213985
1772562133817990400,10.414990478515625,-4.602460477462411,-6.460425847673416,6.076306118822098
1772562133828057300,10.425057373046876,-2.712621713128686,-6.099588794732093,6.177918819603324
1772562133838124300,10.435124267578125,-0.9586036241263151,-5.423537791383266,6.5777049041420215
1772562133848191200,10.445191162109374,0.23166531410515306,-4.6273868289262055,6.613551878070831
1772562133858258200,10.455258056640625,1.4064070128589867,-3.4704239479690786,6.112036772894859
1772562133868325000,10.4653251953125,1.647438121202588,-2.440000119256973,5.045597627949714
1772562133878392300,10.475392333984376,0.3159609693825245,-1.9469088512942194,3.2537019359737633
1772562133888459300,10.485459228515625,-1.5178192231208085,-1.2006152679398656,2.214744672194123
1772562133898526200,10.495526123046876,-2.2870301562041044,-0.6756072051040828,2.037161076888442
1772562133908593200,10.50559326171875,-2.4280127443432806,-0.7747421175949275,1.568790700945258
1772562133918660400,10.515660400390624,-4.169421527141332,0.3644409226521849,0.9772197695299982
1772562133928727300,10.525727294921875,-5.843330891162156,0.8204150506198405,-1.5073121498927473
1772562133938794500,10.53579443359375,-6.490323557808995,0.27672464527636764,-2.617382931293547
1772562133948861400,10.545861328125,-5.617802472376823,-0.3601005553603172,-0.5845858948335051
1772562133958928400,10.555928466796875,-0.9274597133219241,-1.4167001510754227,2.109532193355262
1772562133968995300,10.565995361328126,0.3941267436027527,-1.6648656413435936,1.1964335983410477
1772562133979062300,10.576062255859375,-5.095619842225313,-4.066865992552041,-1.0999027308687568
1772562133989129200,10.586129150390626,-9.000858518016338,-3.9379645950898525,-3.7167595924615857
1772562133999196400,10.596196533203125,-12.89642101844549,-2.4272683557167647,-6.201940331181883
1772562134009263400,10.606263427734374,-17.568944043171406,-2.7643738199368117,-8.497259007781743
1772562134019331300,10.616331298828126,-13.22537240230441,-2.2589447561874985,-10.167220510959625
1772562134029398300,10.626398193359375,-11.341611496579647,-1.3940560653299092,-10.525046107125283
1772562134039465200,10.63646533203125,-11.229434731686114,-1.0905769763797521,-9.467076099839806
1772562134049532400,10.646532470703125,-9.235941531610488,-0.4787108604326844,-7.396412566322088
1772562134059599400,10.656599365234374,-6.695836193525791,0.13219284022301434,-5.162404975253343
1772562134069666300,10.666666259765625,-4.980253925901651,0.9446361813113093,-3.777985337796807
1772562134079733200,10.676733154296874,-3.990564843159914,1.1900070724248886,-2.9128493941798803
1772562134089800400,10.686800537109375,-4.344455437964201,0.9652642510592937,-2.2429311944976447
1772562134099867400,10.696867431640625,-5.019324538052082,1.05134094453454,-2.43358119212538
1772562134109934300,10.706934326171876,-4.507449951425195,1.4022551538765429,-2.7156916220933196
1772562134120001300,10.717001220703125,-3.9720682324826715,1.7834274310991167,-2.3691718483179804
1772562134130068200,10.727068115234376,-3.4996839447230097,2.1819813434943556,-1.303614308512956
1772562134140135200,10.73713525390625,-3.7054186987578865,2.8513039153710005,-0.706896077337116
1772562134150202400,10.747202392578124,-1.85982122721076,3.4490649335980414,-0.40673729191608726
1772562134160269300,10.757269287109375,-0.5603992558211088,3.710720604558289,-0.08439064008444547
1772562134170336300,10.767336181640625,0.15141455030441284,3.3473253915667533,0.3394783308312297
1772562134180403200,10.7774033203125,1.2611118222177027,2.9071672568902374,0.6256232770122587
1772562134190470100,10.78747021484375,2.5199948624700306,2.422476445265114,0.703717008909583
1772562134200537000,10.797537109375,-4.066651473018527,0.05753185925334692,-6.087069504898786
1772562134210604000,10.80760400390625,-3.9916824490129947,-3.9048701347395776,-13.791322862511873
1772562134220671000,10.8176708984375,4.849101242381334,-2.838410239267349,-6.652155457231402
1772562134230738000,10.827738037109375,5.540189655864238,-2.1986507387444374,-3.0819276114687324
1772562134240804900,10.837804931640624,3.880023570513725,-0.5684957607761025,1.800770633957535
1772562134250871800,10.847871826171875,2.288800673007965,1.2794371679812668,3.4330291600763796
1772562134260939000,10.85793896484375,4.368129743540287,3.0195591258391734,2.1518222059436143
1772562134271006000,10.868005859375,5.778417397224903,4.03561102258861,1.9260946113243698
1772562134281073000,10.878072998046875,5.806031964859366,3.70229793638885,1.965655491209775
1772562134291139800,10.888139892578126,4.4039872388631105,2.073194513300061,2.256184936085343
1772562134301206800,10.898206787109375,1.472715176025033,-0.08856500315964222,2.5161159752100706
1772562134311273700,10.908273681640624,0.6283797361135482,-0.3712441729262471,0.7330125884335488
1772562134321341000,10.9183408203125,-0.09131810126006602,0.21955928124785423,1.2474269957363604
1772562134331408100,10.928408203125,1.0479285057425498,1.0179583148926497,0.9203287654634564
1772562134341475000,10.93847509765625,1.3629828816741705,0.6593260785192251,-0.2775386650729924
1772562134351542000,10.9485419921875,1.3650748855173587,0.025331717394292352,-0.8217650769893079
1772562134361609000,10.95860888671875,1.5488760401636361,-0.49541620377898216,-0.8922720070194452
1772562134371677000,10.968677001953125,2.299166584199667,-0.5503063163518905,-0.35690132092759014
1772562134381743900,10.978743896484374,2.650777543634176,-0.2054910084068775,0.4667513964392245
1772562134391810800,10.988810791015625,2.4104782566964627,-0.2651674784734845,0.9364414036136121
1772562134401877800,10.998877685546875,2.0446698450833556,-0.6527504995211959,0.7439392022479325
1772562134411945000,11.008945068359376,1.6104817247271537,-0.7376274618178605,0.2958694907292723
1772562134422012000,11.019011962890625,1.0337234547793865,-0.42239743705838917,-0.28318302763551473
1772562134432078800,11.029078857421876,0.5123796135395765,0.02758534153997898,-0.7935637955080718
1772562134442145800,11.039145751953125,0.2306494150608778,0.34805063660442825,-1.0856666271802038
1772562134452212700,11.049212646484374,-0.021240940949320792,0.4626633964732289,-1.2273057064667343
1772562134462280000,11.059280029296875,-0.7070692419469357,0.35799876077547665,-1.204112316275388
1772562134472347100,11.06934716796875,-0.729677964118123,-0.2367887945987284,-1.0366020789556205
1772562134482414000,11.0794140625,-0.540784454768896,-0.5116546602658927,-0.37694450345970687
1772562134492481000,11.08948095703125,-0.41354280721247194,-0.6988879813179373,0.26148046052381396
1772562134502548000,11.0995478515625,-0.2015133369475603,-0.9035875470861792,0.5622676069762558
1772562134512615000,11.109614990234375,-0.2212935576945543,-0.8284260692484676,0.7474098740331828
1772562134522681900,11.119681884765624,-0.3997206180870533,-0.7654062801033258,0.7038184234574437
1772562134532749000,11.1297490234375,-0.5816045409351587,-0.7447340789526701,0.4609248091775924
1772562134542816000,11.13981591796875,-0.48079672679603097,-0.5643275351807475,0.3973465824320912
1772562134552883000,11.149883056640626,-0.4433545926302671,-0.42623394648134705,0.4626728949539363
1772562134562950000,11.159949951171875,-0.42434360269010063,-0.5172571564480662,0.5525480308640748
1772562134573016800,11.170016845703126,-0.4879553663790226,-0.5438625470399856,0.7430871885284781
1772562134583083800,11.180083740234375,-0.5104384163439274,-0.5917427808508277,0.7592087406374514
1772562134593151000,11.19015087890625,-0.30832477541565895,-0.5513704384520649,0.796756161808595
1772562134603218000,11.200218017578125,-0.0723924515157938,-0.4250447366967797,0.8499423200078308
1772562134613284900,11.210284912109374,0.15605799219608307,-0.4209641893848777,0.5547706022843718
1772562134623351800,11.220351806640625,0.28227088122665883,-0.43179859487116334,0.333852563371323
1772562134633419000,11.2304189453125,0.4824497547000646,-0.31993659501522775,0.176246793743968
1772562134643486000,11.24048583984375,0.6341098041981458,-0.19802403352707623,0.042546361969597636
1772562134653553000,11.250552978515625,0.7043593984663487,-0.1816913228854537,0.01515891762189567
1772562134663620000,11.2606201171875,0.8847048597007989,-0.09047142130285502,0.07709098459556699
1772562134673687000,11.27068701171875,0.7253671151816844,-0.19521102193295956,-0.051820313206128774
1772562134683754000,11.28075390625,1.6821575524061918,-0.24313714071214199,0.06901325740627944
1772562134693821000,11.290821044921875,2.2459891207635403,0.08848784627020359,0.2680034325517714
1772562134703888000,11.300887939453125,2.1861837636202575,-0.19271803607344626,0.12032558455765247
1772562134713955800,11.310955810546876,1.9325959560424089,-0.7520736280605197,-0.2823034683220088
1772562134724022800,11.321022705078125,1.7259633763849733,-0.6935153483688831,-0.44477918207328765
1772562134734089700,11.33108984375,1.4820482370376586,-0.20322773965001106,-0.4800993921816349
1772562134744157000,11.341156982421875,0.9785942727535962,0.043188861124217506,-0.7022187331758439
