time,seconds_elapsed,z,y,x
1772563481702100200,0.070100341796875,0.012414660415053368,-0.002687859977642074,-0.07961356187574566
1772563481712168200,0.080168212890625,0.15289514425098896,-0.0016616222024429588,0.0014059212751686573
1772563481722236200,0.090236083984375,0.21319383786916732,-0.011388239976763725,0.08467943043056875
1772563481732304100,0.10030419921875,0.17310148145556448,0.014471145420288666,0.07293682405818254
1772563481742372400,0.110372314453125,0.07527940512895584,0.009672549499524757,-0.002206898927129805
1772563481752440300,0.1204404296875,-0.0060644146054983136,-0.011567258938634768,-0.05526658120248466
1772563481762509000,0.130509033203125,-0.07502922976016999,-0.01925210521966219,-0.051905945662967856
1772563481772577300,0.140577392578125,0.0238373871833086,0.0004609229094814509,-0.00024889672715216874
1772563481782645200,0.150645263671875,0.19568156205415724,0.0027860413888003677,0.04395980896409601
1772563481792713200,0.160713134765625,0.21778817992210386,-0.014264462133357301,0.03778988815750926
1772563481802781200,0.17078125,0.09694061731696128,-0.020257985193422062,0.013862228874862194
1772563481812849400,0.180849365234375,-0.01996434514224529,-0.01655023498297669,-0.03885371799673885
1772563481822917000,0.190917236328125,-0.026934184154868125,0.010331963256327435,-0.036813298210315405
1772563481832986000,0.200986083984375,0.058304889452457424,0.008346269331825897,-0.018805859289504588
1772563481843054300,0.211054443359375,0.13599544737637043,-0.003022791020432487,0.003037467999756336
1772563481853122300,0.221122314453125,0.1434030932843685,-0.007946757753379642,0.027932328346744178
1772563481863190300,0.231190185546875,0.09811083014011382,-0.01810021350448951,0.038862266629375516
1772563481873258200,0.24125830078125,0.03853752818703651,-0.00852546182363294,0.001556289531290531
1772563481883326200,0.251326171875,0.019770868396759032,-0.00013670505695044993,-0.01851410980131477
1772563481893395200,0.261395263671875,0.027658406776189803,-0.018011886767065152,-0.02515570324026048
1772563481903463200,0.271463134765625,0.09620704234540461,-0.0037198333738837387,0.010439414819329976
1772563481913531100,0.28153125,0.1492237622618675,0.0022854075234383345,0.0017676307270303368
1772563481923599400,0.291599365234375,0.11887947740256785,0.0006926767055876553,0.011042531811632216
1772563481933667000,0.3016669921875,0.05302841035425663,-0.0030118860339280215,-0.008516337802261114
1772563481943735000,0.311735107421875,0.021416882038116453,-0.0112554256436415,-0.010090966707840562
1772563481953803000,0.321802978515625,0.043832127463817594,0.000249627379514277,-0.00005647942759096622
1772563481963872300,0.331872314453125,0.1007043537646532,-0.0082524535685312,-0.007886004009470343
1772563481973940200,0.341940185546875,0.10925824709832668,-0.009518820242537186,0.00452876600343734
1772563481984008200,0.35200830078125,0.07755904049873352,0.0033961269780062135,0.0157680624961853
1772563481994076200,0.362076171875,0.05361760841906071,-0.0040045411999337375,-0.009466587731800973
1772563482004144000,0.37214404296875,0.041323359513282774,0.010337982005160302,-0.008680040463991463
1772563482014212000,0.382212158203125,0.04624211121499538,-0.008077498860424383,-0.013464571326784788
1772563482024281300,0.39228125,0.08050853795409202,-0.00651673408341594,0.0022418241100385784
1772563482034349300,0.402349365234375,0.0980289970755577,-0.0018556104045826941,-0.0012349120898172258
1772563482044417000,0.4124169921875,0.10059271008372306,-0.001316315896110609,0.011636113790608941
1772563482054485000,0.422485107421875,0.07785831570625305,-0.0028987262493465095,-0.016199074324592947
1772563482064553200,0.43255322265625,0.06302957988679408,-0.0026946733109187333,-0.00585950315054506
1772563482074621200,0.44262109375,0.04654840068519115,0.0016340309426188468,0.006651530311070382
1772563482084689200,0.452689208984375,0.05985621054768562,-0.006903240049816668,0.004645341587811708
1772563482094758400,0.46275830078125,0.0869534763097763,-0.0015583170915953815,0.007874751963093876
1772563482104826000,0.472826171875,0.10822364335358142,0.0031080855505540967,-0.005862096966430545
1772563482114894000,0.48289404296875,0.09327683411240577,-0.0025736498802900313,0.007132189967483282
1772563482124962000,0.492962158203125,0.05376490793526172,-0.009521432324731722,0.0027277809960767627
1772563482135030300,0.5030302734375,0.06092763917148113,-0.01608219734611921,-0.00835577694568783
1772563482145098200,0.51309814453125,0.0721393535375595,-0.00919416399858892,0.005523293466120958
1772563482155166200,0.523166259765625,0.07409341021478176,-0.005893396286992356,-0.00353719768282026
1772563482165235200,0.533235107421875,0.08697744170725345,-0.0006331650706939398,0.016481654125638304
1772563482175303200,0.54330322265625,0.07082534832954407,-0.008303206508234143,-0.003215637578256428
1772563482185371100,0.55337109375,0.055255438753962514,-0.0023082221434451637,-0.02298603105098009
1772563482195439000,0.563439208984375,0.05778524949252605,-0.0037574619705323126,0.0000881166748702526
1772563482205507300,0.57350732421875,0.06001870763301849,-0.009032817690726369,0.010104958700574934
1772563482215575300,0.5835751953125,0.08844868330359458,-0.018437729230010882,0.0011585589179769157
1772563482225643300,0.593643310546875,0.09728782331943511,0.006804382785223424,0.003711056412383914
1772563482235712300,0.603712158203125,0.07814473143219948,0.0026865813360083847,0.013980265763960779
1772563482245780200,0.6137802734375,0.07949146986603736,-0.006365470778150484,-0.0068607160823419685
1772563482255848200,0.62384814453125,0.06901391499340534,-0.010762408829154446,-0.006315503289736807
1772563482265916200,0.633916259765625,0.0672159256607294,-0.0070643123630434275,-0.016369572053290902
1772563482275984400,0.643984375,0.0820300484329462,0.00966074946387671,0.007104132916778326
1772563482286052400,0.65405224609375,0.07604629784822464,0.0019952106715179978,-0.0015169073689728974
1772563482296121000,0.66412109375,0.06572773292958736,-0.01149295159340836,0.0007700710570439696
1772563482306189300,0.674189208984375,0.0820429079145193,-0.005491692751459777,0.01452467483896762
1772563482316257300,0.68425732421875,0.07635843253731728,-0.006851902588224038,0.002841433971002698
1772563482326325200,0.6943251953125,0.09102057961821555,-0.004510883286874741,0.00321403014305979
1772563482336393200,0.704393310546875,0.060195817765593525,-0.005268222726508975,0.0017282850973308085
1772563482346461200,0.714461181640625,0.07874971158802509,0.022834201490133998,0.0012199337163940071
1772563482356529200,0.724529052734375,0.07679390134513378,0.01571552859134972,0.007173691021651029
1772563482366598100,0.73459814453125,0.10848843176960944,-0.007392046480067074,-0.011461378278210758
1772563482376666000,0.744666015625,0.3276601750046015,0.014346496127313002,0.014153503439016639
1772563482386734300,0.754734375,0.10228431643247604,-0.04288480014372617,0.05209397904835641
1772563482396802300,0.76480224609375,-0.38738311456143854,0.01261366271902807,-0.0072000675719231366
1772563482406870000,0.7748701171875,-0.26429098789989947,0.009492233629710972,-0.08660922944936901
1772563482416938000,0.78493798828125,0.27185587019622326,0.00335752113382332,-0.047612924644164736
1772563482427007200,0.79500732421875,0.37980537278354165,0.012588464345689863,0.03364226695876568
1772563482437075200,0.8050751953125,0.1887742668837309,0.0027433256250806153,0.09069233404453843
1772563482447143200,0.81514306640625,0.006498129847645759,-0.008145705258427187,0.05776117449719458
1772563482457211100,0.825211181640625,-0.020640052446722984,-0.006708165002288297,-0.04575648312252015
1772563482467279000,0.835279052734375,-0.004935118314623833,0.013695822799392044,-0.020426592359133064
1772563482477347000,0.84534716796875,-0.005039747732877731,0.014263083027023822,-0.023435857177712023
1772563482487415000,0.8554150390625,0.029860300734639165,0.018042839027754963,0.01749601879995316
1772563482497484300,0.865484375,0.2105857011973858,-0.0037256420601624995,0.04460811680499464
1772563482507552300,0.87555224609375,0.23939210896492003,0.0004974920602049678,0.028029030186869204
1772563482517620700,0.885620849609375,0.03812134860157966,0.007435346765676513,0.007138546643033624
1772563482527688700,0.895688720703125,-0.07418634919524192,-0.007481642725970595,-0.026631292218156157
1772563482537757000,0.9057568359375,-0.02219312710762024,-0.019519670114666224,-0.016939882754534483
1772563482547825000,0.915824951171875,0.13102818035781383,0.005227881582966074,-0.004727028521895408
1772563482557892900,0.925892822265625,0.19708441458940504,0.005582019649725407,0.02033003664948046
1772563482567961600,0.935961669921875,0.08656886090636252,0.011114309273054823,0.027260530032403765
1772563482578029800,0.94602978515625,0.020735914036631584,0.0038607122824527323,-0.00015544629003852605
1772563482588097800,0.956097900390625,0.031306407889723775,-0.0017112243646755813,-0.035353454790823156
1772563482598165800,0.966165771484375,0.043671383944153784,-0.0013267276922706514,-0.01547222135476768
1772563482608233700,0.976233642578125,0.062221770635247226,0.003560277164308354,0.011146357512287795
1772563482618302000,0.986302001953125,0.101471246483922,0.011985119024524465,0.008245448439009487
1772563482628370700,0.99637060546875,0.11887012505233287,0.0051574649615678935,0.007601122653484344
1772563482638438700,1.006438720703125,0.08011573924422263,0.011908574056439102,-0.002378163840807974
1772563482648507000,1.0165068359375,0.012596446722745895,0.005859676680481061,-0.025350970084033905
1772563482658574800,1.026574951171875,0.025275311031937597,-0.00543669289490208,-0.017699870808981357
1772563482668642800,1.036642822265625,0.06492167724370956,-0.010965274457493797,0.010954305538907647
1772563482678710800,1.046710693359375,0.11403028380572795,0.007370537901157513,0.010883286129310726
1772563482688778800,1.05677880859375,0.13187222996652126,0.0011394249592442064,0.0010149857288226484
1772563482698847700,1.06684765625,0.059311436146497726,0.004506462840083986,-0.010348777393810451
1772563482708915700,1.076915771484375,0.032954759618639945,0.008677300517633556,0.004998283211328089
1772563482718984000,1.08698388671875,0.04354395817220211,-0.0028952647837810217,-0.00239021960478276
1772563482729052000,1.097052001953125,0.0852758984863758,-0.0045070838945917785,0.003373020097054541
1772563482739119900,1.107119873046875,0.097567809304595,0.00917117584864609,0.01045475851893425
1772563482749187600,1.1171875,0.1128688388109207,0.00086931191412732,0.00621237170882523
1772563482759255800,1.127255859375,0.09956921225488186,-0.001470182150416076,0.009362177509255706
1772563482769324800,1.13732470703125,0.05631400789618492,0.002184075173968449,-0.009094539549015462
1772563482779392800,1.147392822265625,0.03474222755730152,0.00911002024593763,-0.025848471277393398
1772563482789461000,1.1574609375,0.0598614712446928,-0.006834887521341443,-0.007436835469864308
1772563482799529000,1.167529052734375,0.0871019448697567,-0.010543514514621346,0.016281016987003384
1772563482809596700,1.1775966796875,0.12901976314485072,-0.011020064251497387,0.014014204566180705
1772563482819664600,1.18766455078125,0.0778647454470396,0.015504278727155178,-0.005421732787787914
1772563482829732900,1.19773291015625,0.06828735428452491,0.008607441018661484,-0.008815686075016855
1772563482839801900,1.2078017578125,0.05914601645171642,-0.0037385563406627624,-0.01510031930245459
1772563482849869800,1.217869873046875,0.05403904870152473,0.00021437340304255483,-0.012748020555265248
1772563482859937800,1.227937744140625,0.06840075153112411,-0.0004870254651177674,-0.0027522943828254937
1772563482870005800,1.238005859375,0.09759294374585151,0.0022927779791411013,0.012435557072609663
1772563482880073700,1.24807373046875,0.08833353249132633,-0.008593403360154479,0.009521569322049617
1772563482890141700,1.2581416015625,0.07172843464910984,-0.007135030378540978,0.007004581532441079
1772563482900211000,1.2682109375,0.071869888946414,-0.0019452157836407423,0.0023089345294982195
1772563482910279000,1.27827880859375,0.06318214010000228,0.0042191246655303985,0.003537489943765104
1772563482920346600,1.2883466796875,0.049560441982746124,0.0050024844624102114,-0.003178008981607854
1772563482930414800,1.298414794921875,0.0744008687287569,-0.005555515235289931,0.02553151428271085
1772563482940482800,1.30848291015625,0.10224106181263923,-0.014032151214824989,0.010529942646995185
1772563482950550800,1.31855078125,0.07486439458727837,-0.00707655079010874,-0.003288958542793989
1772563482960618800,1.32861865234375,0.07426525965034961,-0.0026787176899611947,0.009179697081819177
1772563482970687700,1.338687744140625,0.06468728396594524,-0.0037754360186401754,0.0007299947749823332
1772563482980755700,1.348755615234375,0.0718652127712965,-0.006888106412766501,-0.015794073720276355
1772563482990823700,1.35882373046875,0.08413198914825916,0.007692472465056926,-0.0057902007739990945
1772563483000892000,1.368891845703125,0.07994213624298573,-0.0036046186295337975,-0.009058993311598897
1772563483010960000,1.3789599609375,0.08817278897166252,-0.0048267351698596025,0.0011260083552449942
1772563483021027800,1.38902783203125,0.08847674035429955,-0.009961257647257298,-0.006984415527246892
1772563483031095800,1.399095703125,0.08623392986357212,-0.005558702706219628,0.0001336728496477008
1772563483041164800,1.409164794921875,0.06767828247547149,-0.0038194760897662487,-0.0003026362083852291
1772563483051232800,1.419232666015625,0.09445756832957267,0.0051330977052915835,0.0038474692083895205
1772563483061300700,1.42930078125,0.06931786637604236,0.012782799607701598,0.014318594340234993
1772563483071368700,1.43936865234375,0.07036474508047104,-0.004810934812529012,0.0006454217640683055
1772563483081437000,1.44943701171875,0.07245908701121807,0.006209476498840376,0.0017135624522343277
1772563483091505000,1.4595048828125,0.0715641839981079,-0.007297061672993004,0.012720621091686188
1772563483101573600,1.46957373046875,0.0774029731541872,-0.013709960922598838,0.0005469663582742213
1772563483111641900,1.479641845703125,0.08324234683215617,0.0047573231954593205,-0.004867679101601243
1772563483121709800,1.489709716796875,0.0796551359951496,0.005200189858442172,-0.009074519674293697
1772563483131777800,1.49977783203125,0.0651420419961214,-0.0013162245645653456,0.00023289544042199848
1772563483141845800,1.509845703125,0.05990414134263992,-0.009596022797748446,0.011865392501838505
1772563483151914000,1.5199140625,0.07396715348660945,-0.001581962828664109,0.0045656274151057
1772563483161981700,1.529981689453125,0.06409457876980304,-0.009981606315542011,-0.00452971585150808
1772563483172050700,1.54005078125,0.06305062267482281,-0.0017559950881637632,0.003222907569259405
1772563483182119000,1.550118896484375,0.07591594946682453,-0.0034307781662791964,0.012642916212975978
1772563483192187000,1.560186767578125,0.07830839756131172,-0.010216757645132019,0.01241853287257254
1772563483202254800,1.5702548828125,0.058252282482385634,-0.0018768723883200436,-0.002591368200071156
1772563483212322800,1.58032275390625,0.06139174955189228,0.010046652642078697,0.0034944179870188235
1772563483222390800,1.590390869140625,0.09356091175079345,0.005045364622911438,0.006066460432112217
1772563483232458800,1.600458740234375,0.07725450459420681,-0.008007137037953362,0.014194310373440384
1772563483242527700,1.61052783203125,0.06828092454373837,-0.008755617317697032,-0.004058043219149113
1772563483252596000,1.620595947265625,0.06708616180121899,0.0012475797751452774,-0.0039402255257591605
1772563483262664000,1.630663818359375,0.06483925965726375,-0.0037452052771579473,-0.006062222648411989
1772563483272732000,1.64073193359375,0.07620353423655032,0.00526690755225718,0.007281352647207677
1772563483282799600,1.650799560546875,0.06542319702506065,-0.0034453729472123085,0.005695508227869868
1772563483292867800,1.660867919921875,0.06317629488110542,0.013717687571328133,-0.002879354828596115
1772563483302936800,1.670936767578125,0.061976855963468545,0.004116038750391454,0.005728825975582003
1772563483313004800,1.6810048828125,0.07738719106316566,0.01077589849838987,-0.0015620251523330807
1772563483323073000,1.691072998046875,0.07319792267978191,-0.01486872990312986,0.0011952011339366436
1772563483333140700,1.701140625,0.078287354773283,0.008825431150896474,0.000009169687144458294
1772563483343208700,1.711208740234375,0.08427695057690143,0.004284335388848558,-0.0027952567417174577
1772563483353276700,1.721276611328125,0.07574410003125667,-0.006325449295016005,0.009766155200265348
1772563483363345000,1.731344970703125,0.07320084528923035,-0.0057160304260905825,0.006440042984858155
1772563483373414000,1.741413818359375,0.06092939273715019,-0.002945259671658277,0.009790157130360603
1772563483383481900,1.75148193359375,0.08277882097363472,0.006193895337218419,-0.012679668026790021
1772563483393549800,1.7615498046875,0.08742167834341526,0.009716242510778829,-0.007036657171137631
1772563483403617800,1.77161767578125,0.06706979518830776,0.0037089192542247473,-0.0018538477057591079
1772563483413685800,1.781685791015625,0.07649521065950393,0.008886130095878615,-0.009582359598577022
1772563483423753700,1.791753662109375,0.06961421897411346,-0.0031767577394377438,-0.004377119105681776
1772563483433822000,1.801822021484375,0.07634557305574417,0.0017064477248582989,-0.007512567587196826
1772563483443890700,1.811890625,0.08727087169587612,0.01020598965594545,0.00568593668192625
1772563483453958700,1.821958740234375,0.07275719317495823,0.008326797446375713,-0.0020293869357556104
1772563483464026600,1.832026611328125,0.08053776404857635,-0.008932654385035857,-0.0038602556247264146
1772563483474094800,1.8420947265625,0.07036474508047104,0.003037988589564338,0.004888064302504063
1772563483484162800,1.852162841796875,0.08129004372060299,-0.0017877054006792603,-0.004400536513887346
1772563483494230800,1.862230712890625,0.07904372609853744,0.000197942858049646,0.013205920390598475
1772563483504299000,1.872299072265625,0.07799158669710159,-0.007303829340497031,0.009679792091064154
1772563483514367700,1.88236767578125,0.06617430765330791,0.0002840867715422064,-0.000391666198708117
1772563483524436000,1.89243603515625,0.06932020446360111,-0.009713192037167027,-0.007151954113878309
1772563483534504000,1.90250390625,0.06378419764637946,-0.007623782009864226,0.01321034083738923
1772563483544572000,1.912572021484375,0.06842471692860126,0.009856957022566348,0.0006918912542983889
1772563483554640000,1.922639892578125,0.06033844110667705,0.01208412241959013,-0.0018424495289102196
1772563483564708000,1.9327080078125,0.06542378154695033,-0.017048028437281027,-0.0003935658948495984
1772563483574776800,1.94277685546875,0.07544891647696494,0.0007062394400592892,0.0008191708957776426
1772563483584844800,1.9528447265625,0.05240297193229198,0.015890337168984116,0.011184899424389005
1772563483594913000,1.9629130859375,0.08232990816235541,0.008279935230500995,0.0029474150961264966
1772563483604981000,1.97298095703125,0.07814005525708198,-0.0024123857708182182,-0.004944909056276083
1772563483615049000,1.983049072265625,0.06482347756624221,-0.007846475716680288,0.007182751110941171
1772563483625117000,1.993116943359375,0.06512216825187206,0.002956666981661692,-0.003144070179387927
1772563483635185000,2.003184814453125,0.07260054130852223,-0.0029358525224961337,-0.007550963368825614
1772563483645254000,2.01325390625,0.0748451053649187,-0.003969552084943279,0.010103826189413667
1772563483655321900,2.02332177734375,0.06407002885043621,0.010300435606902464,-0.011304543748684226
1772563483665390000,2.03339013671875,0.07738602201938628,0.0038762751777656375,-0.0027640213532373306
1772563483675458000,2.0434580078125,0.07918401135206223,-0.004985478528682142,-0.0012199337163940071
1772563483685526000,2.053526123046875,0.07724106059074401,-0.002861298582097515,-0.005472184333391487
1772563483695593700,2.06359375,0.0723047732323408,-0.00110090131345205,-0.0016907295659184455
1772563483705662000,2.073661865234375,0.06137889007031917,0.0018483221472706645,0.016784692192822692
1772563483715731000,2.08373095703125,0.07678980969190598,-0.008061753302020951,0.0015995441511273383
1772563483725799000,2.093798828125,0.08472469434440136,0.0014652959127444774,0.002535729022696614
1772563483735867100,2.1038671875,0.08996376404166222,-0.005259390966081991,0.010090236055478452
1772563483745934800,2.113934814453125,0.07619710449576378,-0.006777065520035102,0.01103135283049196
1772563483756002800,2.1240029296875,0.08023673527538776,-0.005888720111874863,0.008223492335528135
1772563483766070800,2.13407080078125,0.0624275223404169,0.010137920255260542,-0.008444989599101244
1772563483776139000,2.144138916015625,0.07185293781161307,-0.0015063951081130654,-0.0014548384508118032
1772563483786208000,2.1542080078125,0.08202771034538746,0.0016168880115728825,-0.010714176640100777
1772563483796276000,2.16427587890625,0.0902519333332777,0.0041018366951029745,0.0044187662903219455
1772563483806344000,2.174343994140625,0.06466390309035777,-0.003031330519914627,-0.009874876271747051
1772563483816412000,2.184411865234375,0.04640753090977669,0.003036143692350015,0.003307845906354487
1772563483826479900,2.19447998046875,0.07798164982497692,0.006305319822439924,0.006312872941233217
1772563483836547800,2.2045478515625,0.07513444370031357,0.009030150809604674,-0.0051852936834096905
1772563483846617000,2.2146171875,0.07527940512895584,0.0075118917337618765,0.009848682384565472
1772563483856684800,2.224684814453125,0.06929799263179302,-0.0009599858722649515,0.018903072586283088
1772563483866752800,2.234752685546875,0.08381342471837996,-0.01924256107318215,-0.0006864113615825772
1772563483876821000,2.244821044921875,0.07932605017125606,-0.0046518078612163664,0.02372640108950436
1772563483886889000,2.254888916015625,0.06974982805252075,-0.0038514421306084837,0.00696070585809648
1772563483896957000,2.26495703125,0.07230009705722332,0.0035320009178947654,0.004623056690767407
1772563483907025000,2.27502490234375,0.08337503330111504,-0.0038565018982160836,-0.009488543835282325
1772563483917094000,2.285093994140625,0.07095394314527512,0.006139954926585778,-0.003256992501951754
1772563483927161900,2.295161865234375,0.07110065813958645,0.00774442184800282,0.011456300244294107
1772563483937229800,2.305229736328125,0.07169803951084613,0.008678633958194404,-0.008021028565987944
1772563483947298000,2.315298095703125,0.06840835031569004,-0.004192127060750499,0.003023110680840909
1772563483957366000,2.325365966796875,0.07319909172356129,-0.0019512801982462405,0.00004248743485659361
1772563483967434000,2.33543408203125,0.0761918437987566,0.0005570219614077359,0.000940203459560871
1772563483977502000,2.345501953125,0.07439736159741878,0.0235897964972537,0.0035158991664648053
1772563483987571000,2.355571044921875,0.07245090370476245,-0.001827964345831424,0.0025741978695616122
1772563483997639000,2.365638916015625,0.06302548823356628,0.017802171272831038,-0.004980491826310753
1772563484007707000,2.375706787109375,0.07125614096224307,0.00035943529638461766,0.0061330228623002764
1772563484017774800,2.38577490234375,0.06556991201937198,-0.008782112598977982,0.0018557108692824839
1772563484027843000,2.395843017578125,0.07260697104930877,0.002514193044323474,0.013323263159953056
1772563484037911000,2.4059111328125,0.07350538119375705,-0.002420706074591726,0.005024915489926934
1772563484047978800,2.415978759765625,0.06602467004954815,0.016286980936909095,0.017919322245940564
1772563484058048000,2.426048095703125,0.07230769584178924,0.003231401402968913,-0.0005566475020721554
1772563484068116000,2.436115966796875,0.08262976789176464,0.00005818732748739421,-0.010468787044286727
1772563484078184000,2.446183837890625,0.07439969968497753,-0.00615096951094456,0.005122567178122699
1772563484088252000,2.456251953125,0.06272796659171581,-0.005207185854809358,-0.0015844561798498034
1772563484098320100,2.466320068359375,0.07799567835032939,0.005186152199935168,0.00915069018304348
1772563484108387800,2.476387939453125,0.0824918207257986,0.004653333098022267,-0.0011961875146254896
1772563484118456800,2.486456787109375,0.07142097613513469,0.00877190173221752,0.018302914736047386
1772563484128525000,2.496525146484375,0.062439797300100325,0.002755536652682349,0.013850830698013305
1772563484138593000,2.506593017578125,0.05840016652047634,-0.005374605710431933,-0.0035934944473206996
1772563484148661000,2.516660888671875,0.09655541739165782,0.003981324721127748,-0.006485051170364022
1772563484158729000,2.52672900390625,0.08473287765085696,0.009685381581634282,-0.008546367614343763
1772563484168797000,2.536796875,0.08204232339262962,0.0039050080819055437,0.003247420956008136
1772563484178865000,2.546864990234375,0.06708031658232212,0.003827120540104806,0.008351429564133286
1772563484188934000,2.556933837890625,0.08159282605946064,0.011650845568859949,-0.0029351401364430783
1772563484199002000,2.567002197265625,0.06961714158356189,0.004082337410189211,0.010114603311754762
1772563484209070000,2.577070068359375,0.04836626376211643,0.013188421266525982,0.0041967941027134656
1772563484219137800,2.5871376953125,0.06228197638988495,0.013486938422219827,0.0007986395644024014
1772563484229205800,2.597205810546875,0.07380231831371784,0.00005052461083978414,0.005544811178185045
1772563484239274000,2.60727392578125,0.0740998399555683,-0.008695183234196156,-0.007044109825231134
1772563484249342000,2.617342041015625,0.08607435538768768,0.0005645111481193453,-0.001767374998703599
1772563484259411000,2.627410888671875,0.06961304993033408,-0.0011355616348795593,0.007520458632707595
1772563484269479000,2.63747900390625,0.07680033108592033,0.011463451504288241,0.005127133755385875
1772563484279547000,2.647546875,0.0735077192813158,0.020753467959631233,-0.002209821536578238
1772563484289614800,2.65761474609375,0.09251344852447509,0.00869629747904837,-0.008034509102068842
1772563484299682800,2.667682861328125,0.08503156833648681,0.008255695838388056,0.00760481244791299
1772563484309751000,2.6777509765625,0.07201543489694595,0.0037229021138045935,0.017018099089898167
1772563484319820000,2.687820068359375,0.05750117185413837,-0.01405851863194257,0.003279021670669317
1772563484329887700,2.6978876953125,0.07441606629788876,-0.0065044865231961005,-0.00495488246101886
1772563484339956000,2.7079560546875,0.07561725878119469,0.0053612165058963,0.0007279854809865355
1772563484350024000,2.71802392578125,0.06978139223456382,-0.008521479768259451,-0.015475180496834218
1772563484360092000,2.728091796875,0.07112929971218108,-0.0028301727914717047,0.006411401412263512
1772563484370159900,2.738159912109375,0.08444763096868992,0.02235632744585164,0.011924867604114115
1772563484380228000,2.74822802734375,0.0687368516176939,0.0143395640630275,0.010890373457223176
1772563484390296800,2.758296875,0.0790624307990074,-0.008946765108779071,0.013308686645328997
1772563484400364800,2.76836474609375,0.07292787356674671,0.011224117189925163,0.0038163434177637097
1772563484410432800,2.778432861328125,0.06409457876980304,0.017327365968469528,-0.0037794089408591386
1772563484420501000,2.7885009765625,0.060201078462600706,-0.008754210811899974,-0.002920819350145757
1772563484430569000,2.79856884765625,0.07710837412178516,-0.0007337302351836114,-0.0018014233987778425
1772563484440637000,2.808636962890625,0.0835462982147932,0.004572870006645098,0.008800415440648794
1772563484450705000,2.818704833984375,0.06963000106513499,0.018250371698057277,-0.0019422931741923093
1772563484460774000,2.82877392578125,0.07112988423407077,-0.010407521843723953,0.008965542874485253
1772563484470841900,2.838841796875,0.07217676293849945,0.0025831300946883855,0.015820011879131197
1772563484480909800,2.848909912109375,0.06828969237208365,-0.007726283403113484,-0.009112002140469849
1772563484490978000,2.85897802734375,0.06769172647893429,-0.003686680022953078,-0.004599931543506681
1772563484501046000,2.8690458984375,0.06754150435328483,0.0021396697766613215,-0.013307042677514255
1772563484511114000,2.879114013671875,0.04943827690780162,0.005324647355172783,0.004847038172371685
1772563484521182500,2.889182373046875,0.07143442013859748,0.00021344182128086686,0.017845526357367632
1772563484531250400,2.89925048828125,0.07128653610050678,0.006167655784264207,0.008148892729356885
1772563484541318700,2.909318603515625,0.06949380746483802,0.01251199244284071,0.0027278540613129734
1772563484551386600,2.91938671875,0.06321311976015567,-0.0034360845290590074,-0.003608728549070656
1772563484561454600,2.92945458984375,0.08072831818461418,0.008200504185585305,0.004482807969860733
1772563484571522600,2.9395224609375,0.09225742793679237,-0.008645170080009847,-0.004752418691478669
1772563484581590500,2.949590576171875,0.05754384195208549,-0.016793323023850098,-0.002307546290010214
1772563484591659500,2.959659423828125,0.0696603962033987,0.0035587975932750847,0.009288710414245725
1772563484601727500,2.9697275390625,0.09330430664122104,-0.004606242553284391,0.010701719017326831
1772563484611795700,2.979795654296875,0.08282967437803745,0.000016439678147435186,0.008837130721844732
1772563484621863700,2.98986376953125,0.07415069335997104,-0.0011822137882001697,0.010329597769305109
1772563484631931600,2.999931640625,0.08328150979876518,-0.0005713701471686363,-0.002796681513823569
1772563484641999400,3.009999267578125,0.06577566372454166,0.013783994273189454,-0.016663951889984308
1772563484652067600,3.020067626953125,0.06802256586849689,0.013381213025422766,0.00603036620542407
1772563484662136600,3.030136474609375,0.07790273936986923,-0.0011818941277917474,-0.004342559248954057
1772563484672204500,3.04020458984375,0.07341068864762783,-0.014499914857046678,-0.0021773075064644215
1772563484682272800,3.050272705078125,0.08208908514380454,0.012773702985793351,0.0071831529697403305
1772563484692340700,3.0603408203125,0.07804886984229087,0.014535835553798823,0.00003466945458203554
1772563484702408400,3.070408447265625,0.07624971146583556,-0.002643418047716841,0.007722630141302943
1772563484712476400,3.080476318359375,0.08851473427712916,0.001851674014981836,0.013404000245966016
1772563484722544600,3.090544677734375,0.0735515584230423,0.0050150242835748935,-0.00811612297091633
1772563484732613600,3.100613525390625,0.07205284429788589,-0.00032979820994660255,-0.018256810571998357
1772563484742681600,3.110681640625,0.0696563045501709,0.006673769542342052,-0.0013761837240308522
1772563484752749600,3.12074951171875,0.056037529042363164,0.004282490491634235,0.010987623286619782
1772563484762817500,3.130817626953125,0.06441840389668942,-0.005098044658219441,0.003941906026192009
1772563484772885500,3.140885498046875,0.0811801536053419,0.016230428444081915,0.004292546094767749
1772563484782953500,3.150953369140625,0.07699205426573753,0.006405939785856753,0.011845664888061583
1772563484793021400,3.161021484375,0.06756313166320324,0.010992746986309065,0.015511457386612892
1772563484803090700,3.171090576171875,0.0741483552724123,0.016186735432827844,0.018970621397159992
1772563484813158400,3.181158447265625,0.07774141132831573,0.007869646529713645,0.005530709587596357
1772563484823226400,3.191226318359375,0.09091127402484417,0.011687661314755678,-0.00860028975866735
1772563484833294600,3.201294677734375,0.0683136577695608,0.01401143722035922,-0.01058174589946866
1772563484843362600,3.211362548828125,0.06995674880146979,-0.016475772374123333,0.0034581410972401496
1772563484853430500,3.221430419921875,0.0735468822479248,-0.0034132333764340726,-0.0036551249740645287
1772563484863499500,3.23149951171875,0.0958423006862402,-0.00030307459980249404,0.0045529505966231225
1772563484873567500,3.2415673828125,0.06636427726745606,-0.007347202691342682,-0.013851963209174572
1772563484883635500,3.251635498046875,0.07219488311707974,0.0008869663018267601,-0.005568082455918192
1772563484893703400,3.261703369140625,0.07698328643739223,0.0018789730138611047,-0.0008901537727564573
1772563484903771600,3.271771728515625,0.06217150175273418,-0.011519081548508257,0.012014335985854267
1772563484913839600,3.281839599609375,0.06187573367655277,0.014340778772579506,-0.005240129143185913
1772563484923907600,3.291907470703125,0.07638999671936035,0.017558069451805203,0.0021930165322497485
1772563484933976600,3.3019765625,0.07893383598327636,0.006096033586468547,-0.0033257468892261386
1772563484944044500,3.31204443359375,0.072945993745327,-0.005419760026410222,-0.005477700758725405
1772563484954112500,3.322112548828125,0.06860942584574223,0.006865218727523461,0.0049428632296621795
1772563484964180500,3.332180419921875,0.07579144630432129,-0.0012563019377179443,0.004455189310573041
1772563484974248700,3.342248779296875,0.06965922715961932,0.014984812297159806,0.011790865960903466
1772563484984316700,3.352316650390625,0.07534077992737293,0.005215551824355498,-0.007173143032379448
1772563484994384600,3.362384521484375,0.07160100887715816,0.0016595215769018977,0.0002142638051882386
1772563485004453600,3.37245361328125,0.07444704595804214,0.0057575954123400145,0.004318118927441537
1772563485014521600,3.382521484375,0.07190905191302299,0.013841743209259584,0.005179229268804192
1772563485024589600,3.392589599609375,0.07280746205747127,0.008943504572613165,-0.01109272762890905
1772563485034657500,3.402657470703125,0.07520166371762751,0.003656421882007271,-0.0033268063351511953
1772563485044725800,3.412725830078125,0.06383212844133376,-0.00031280140937305984,-0.013828911127150057
1772563485054793500,3.42279345703125,0.06772387518286704,-0.005166022727359086,-0.01182100537084043
1772563485064861400,3.432861328125,0.06458323906958102,0.0014223974859341978,0.011352730271965265
1772563485074930700,3.4429306640625,0.0698217242449522,-0.00695875136302784,-0.008310732227563858
1772563485084998700,3.45299853515625,0.062492988792061804,0.0009492818151600658,0.019170527883432806
1772563485095066600,3.463066650390625,0.07132102289199829,-0.006292944398056715,0.0008806918246671557
1772563485105134600,3.473134521484375,0.07401683784723281,0.0025166681292001156,0.00916851810067892
1772563485115202600,3.48320263671875,0.06234452023208141,0.008812133277906104,0.02136069487147033
1772563485125270500,3.4932705078125,0.07880699473321437,-0.0007583532197866588,0.009623787587508559
1772563485135338500,3.50333837890625,0.07776070055067538,-0.007446187820099294,-0.008436623629555105
1772563485145407500,3.513407470703125,0.07746025629937649,0.003925722076371312,-0.008319682718999683
1772563485155475700,3.523475830078125,0.060253685432672496,0.014796112191490829,0.01856993164177984
1772563485165543700,3.533543701171875,0.07595920408666133,0.0005880746867973358,0.006004318448714911
1772563485175611400,3.543611328125,0.08553601072728634,-0.011428873381251469,0.014222842348180711
1772563485185679600,3.5536796875,0.07700491374731064,0.005072417026618496,0.016184570875205098
1772563485195747600,3.56374755859375,0.07670330045223235,0.017856312612863256,-0.004426474672742188
1772563485205816600,3.573816650390625,0.08403671208024024,0.004603886199416592,0.01473024388104677
1772563485215884500,3.583884521484375,0.08657996682226657,-0.006753830774920061,0.01031016241647303
1772563485225952500,3.593952392578125,0.07490940277278423,-0.0022746760668698697,0.017233458873629568
1772563485236020500,3.6040205078125,0.08852350210547447,-0.004284801179729402,0.009936799059435725
1772563485246088400,3.61408837890625,0.07895195616185664,-0.006849171775020658,-0.0018863617358729243
1772563485256156400,3.624156494140625,0.0813414816468954,-0.0014143055110238491,0.016539448727481067
1772563485266224600,3.634224609375,0.07161094574928284,-0.00029964053370058535,-0.009600698972865938
1772563485276293600,3.644293701171875,0.08118775238990783,0.00914242467819713,-0.02207534594684839
1772563485286361300,3.654361328125,0.08807108216285706,0.0019814378744922576,0.013260865448229015
1772563485296429600,3.6644296875,0.07520400180518627,0.0003306475933175534,0.00763005648702383
1772563485306497500,3.67449755859375,0.0731114134401083,0.0008871854975353926,-0.0052692091071978205
1772563485316565500,3.6845654296875,0.07595218982398509,-0.001168998113600537,0.009323489466682076
1772563485326633500,3.694633544921875,0.062485390007495874,0.01451473796684295,0.007235979135520756
1772563485336701700,3.70470166015625,0.07116554006934166,0.010895606754766777,-0.0023116014106199143
1772563485346770400,3.7147705078125,0.06293488734066487,-0.0032675869612023233,0.002340133385360241
1772563485356838400,3.72483837890625,0.04976502464413642,0.0019044362486805766,-0.01720949347615242
1772563485366906600,3.73490673828125,0.0630851094663143,0.019400537247024476,-0.011151179817877709
1772563485376974600,3.744974609375,0.07191431261003017,0.0054587494630832225,0.0035301834201440212
1772563485387042600,3.75504248046875,0.07640694785416126,0.001051463548000902,0.004354761143401265
1772563485397110500,3.765110595703125,0.07386836928725242,0.006533319892035797,0.0017424232205376028
1772563485407178800,3.7751787109375,0.07521510772109032,-0.002158840268012136,0.001746697536855936
1772563485417247500,3.78524755859375,0.06489245114922523,0.01079332455722615,-0.008546769473142922
1772563485427315500,3.7953154296875,0.07521393867731094,0.006367434406373649,-0.013200696226209402
1772563485437383700,3.8053837890625,0.06683423286676407,-0.00046205542064271863,-0.007547273574396968
1772563485447451600,3.81545166015625,0.08763269074559212,0.004680513365892693,0.009037402534298598
1772563485457519600,3.82551953125,0.07925181589126587,0.007572745942370966,0.011711590179614722
1772563485467587600,3.835587646484375,0.07101940959692,0.009116194258397445,0.009067213150672614
1772563485477655600,3.845655517578125,0.08074410027563571,0.007040894954837858,0.023918635725975034
1772563485487724500,3.855724609375,0.07715279778540134,-0.0009010587592609226,0.020164616954699156
1772563485497792500,3.86579248046875,0.062336921447515486,-0.0036735648130532352,-0.005596139506623149
1772563485507860700,3.87586083984375,0.07625438764095306,0.0037159883158281444,0.005543678667023778
1772563485517929000,3.885928955078125,0.0725146165907383,0.00873153318921104,-0.004786978548206389
1772563485527997000,3.895996826171875,0.07909224141538143,-0.008301553407264873,-0.00012497808653861285
1772563485538065200,3.906065185546875,0.07789046441018581,0.008913931418256834,0.0072757266240194435
1772563485548133000,3.916133056640625,0.0781868170082569,0.006202517035091296,0.007094707501307129
1772563485558202000,3.9262021484375,0.0750415047198534,0.008694023323571309,-0.003982274569198489
1772563485568270000,3.93627001953125,0.06785948426127433,-0.007191226678341627,0.011593516757898032
1772563485578338000,3.946338134765625,0.07997954564392566,-0.0018900332639925181,0.005768463866226375
1772563485588406000,3.956406005859375,0.07579378439188003,0.008005100344493985,0.0003647781917825341
1772563485598474000,3.966473876953125,0.08612403974831104,0.0005279967963229865,0.006902655527926981
1772563485608542200,3.976542236328125,0.07130757888853549,0.024638227837951852,0.004145611904747784
1772563485618610200,3.986610107421875,0.09031155456602573,0.008848063107812776,-0.00031670126635581253
1772563485628679000,3.996678955078125,0.07998831347227096,0.0038520723182708023,-0.008143558967113494
1772563485638747100,4.0067470703125,0.08792202908098697,0.01387793790064752,-0.012998086326196789
1772563485648815000,4.016815185546875,0.06039163259863853,0.009333965194923802,0.008774879140593111
1772563485658883000,4.026883056640625,0.07924480162858963,0.0016118008445017038,0.01907631026133895
1772563485668951000,4.036950927734375,0.07639818002581596,0.002847516651917249,0.015191212456300854
1772563485679019300,4.047019287109375,0.05978431435525417,0.0032135278195608405,-0.008702982948161662
1772563485689087200,4.057087158203125,0.07908581167459487,0.014435160791454836,-0.012742540662549436
1772563485699156000,4.067156005859375,0.09779285023212432,0.012062047585099935,0.0013955460116267203
1772563485709224000,4.077223876953125,0.07325169869363307,0.01117151021985337,0.004983487500995397
1772563485719292200,4.087292236328125,0.07804536271095275,-0.00047451304341666396,-0.007716346530988812
1772563485729360100,4.097360107421875,0.06981880163550376,0.01509090302013792,0.011936156183108686
1772563485739428000,4.107427978515625,0.0633861382395029,-0.009119500460335984,0.00865538094677031
1772563485749496000,4.11749609375,0.0490256044536829,-0.004389138337038457,0.00997767905909568
1772563485759564300,4.127564208984375,0.07192424948215484,0.012800079536065458,0.00006966770272701979
1772563485769633000,4.137633056640625,0.0711766459852457,0.0037202169663738457,-0.004230257980898023
1772563485779701000,4.147700927734375,0.07760872485935688,0.0024035083446186036,-0.001602357162721455
1772563485789769200,4.157769287109375,0.08613982183933258,0.017854412916721775,0.015078290133737026
1772563485799837200,4.167837158203125,0.0856903245061636,0.002139505379879847,-0.004534245896153152
1772563485809905200,4.1779052734375,0.0740174223691225,0.0025314547063782808,-0.006094006026163697
1772563485819972900,4.187972900390625,0.062493573313951487,0.00404297351418063,-0.003459164010547101
1772563485830042000,4.1980419921875,0.07655833902359008,0.014212330087320878,0.0005533960990607739
1772563485840110000,4.208110107421875,0.07775660889744758,-0.0013880020259879528,-0.011610212164372205
1772563485850178000,4.218177978515625,0.06309153920710087,-0.007364281690306961,0.020627302563004195
1772563485860246300,4.228246337890625,0.07566109792292118,-0.002929669376881793,0.003413425172679126
1772563485870314200,4.238314208984375,0.07880641021132469,0.0011162724125199019,0.011066387611255049
1772563485880382000,4.2483818359375,0.07850888856947422,0.003292118614260107,-0.007301701315492391
1772563485890450000,4.258449951171875,0.06728723733127116,-0.004474862125422805,-0.005914703936502337
1772563485900518100,4.26851806640625,0.0770148506194353,-0.00466209179321304,0.007213876901566982
1772563485910587100,4.278587158203125,0.08988193097710609,0.007094533971371129,-0.005385236702300608
1772563485920655000,4.288655029296875,0.0856897399842739,-0.00286126204947941,-0.0007926116824150085
1772563485930723000,4.29872314453125,0.06279577113091946,0.0036542390580754725,0.007642258381471038
1772563485940791000,4.308791015625,0.08508768243789672,-0.001683550906460732,0.01308207481522113
1772563485950859000,4.31885888671875,0.07446282804906368,-0.006661074457550421,0.0066708560660481446
1772563485960927000,4.328927001953125,0.08703530937433242,0.010043620434775948,-0.00523450311999768
1772563485970995200,4.3389951171875,0.08224690605401992,-0.003027394130313769,-0.002862659422121942
1772563485981064200,4.349064208984375,0.06683540191054343,-0.0051256815838161855,0.008032974732108414
1772563485991132000,4.3591318359375,0.07760930938124656,0.002893849144829437,0.014445472122915089
1772563486001200000,4.3692001953125,0.08209376131892204,0.004558549220347777,-0.0024499139027670024
1772563486011268000,4.37926806640625,0.07281681440770625,0.00509985302281566,0.004576441070064902
1772563486021336000,4.389336181640625,0.07191898878514766,0.002192943467013538,0.01173445959854871
1772563486031404000,4.399404052734375,0.07625906381607055,0.006961363445222377,0.00799231392815709
1772563486041472300,4.40947216796875,0.07461071208715439,-0.011487352969683706,-0.0037681203618645668
1772563486051541000,4.419541015625,0.08148819664120674,-0.017634897547680883,-0.0024029694885015487
1772563486061609000,4.42960888671875,0.05664893893897533,-0.006679559962311759,0.0010145473374053836
1772563486071677200,4.43967724609375,0.06876666223406791,-0.0032654224035795778,0.02215823845732957
1772563486081745200,4.4497451171875,0.0772936675608158,-0.003851935320952907,0.00668236384075135
1772563486091813000,4.459813232421875,0.06966565690040588,0.0012730978088919072,-0.008369586275331676
1772563486101881000,4.469881103515625,0.07071545821428299,0.001880068992404267,-0.00985028981976211
1772563486111950000,4.4799501953125,0.07670388497412205,0.00047605654653161763,0.008419672494754196
1772563486122018000,4.49001806640625,0.07625380311906338,0.007580664387345314,-0.006469744003377855
1772563486132086000,4.5000859375,0.07954875301122664,0.001433969192719087,-0.009510901797562837
1772563486142154200,4.510154296875,0.07880290307998657,0.009086255777860059,0.003729980308562517
1772563486152222200,4.52022216796875,0.06189210028946399,-0.01057398271812126,0.011643237651139497
1772563486162290200,4.530290283203125,0.08284311838150024,0.0037726686728186904,0.005860854857414961
1772563486172358100,4.540358154296875,0.07341770291030407,0.011558125784108414,0.007101502568274736
1772563486182426000,4.550426025390625,0.058007367810606954,-0.007251067106798291,0.010486176570504904
1772563486192495000,4.5604951171875,0.07431435948908328,-0.012354271997325122,0.006852898102067411
1772563486202563000,4.57056298828125,0.06578443155288696,-0.006329038624744862,-0.0034738135904073715
1772563486212631000,4.580631103515625,0.07311725865900516,0.005752590443659574,0.00774988347440958
1772563486222699300,4.59069921875,0.06787935800552368,0.023116808690642938,0.006464629436843097
1772563486232767200,4.600767333984375,0.08389058160781859,0.009670859865937381,-0.01042370579354465
1772563486242835000,4.6108349609375,0.08134674234390259,-0.01607383137657307,0.0005844122918322682
1772563486252903000,4.62090283203125,0.06578443155288696,0.003351584583381191,0.009097498691082
1772563486262972200,4.63097216796875,0.06368716701269149,0.007270201065531,0.0026616934899240732
1772563486273040100,4.6410400390625,0.07610533455908298,-0.008936883035581558,0.004003134694136679
1772563486283108000,4.651108154296875,0.08747720792293548,0.00480180165800266,0.011903532555140555
1772563486293176000,4.661176025390625,0.08313771741390227,0.0034188137338496743,0.011789295058324932
1772563486303244000,4.671244140625,0.0743096833139658,-0.0034940617939922957,-0.0001765256106853485
1772563486313312000,4.68131201171875,0.06817746416926383,0.012842786166630685,0.0042689094908535475
1772563486323381200,4.69138134765625,0.07475976516902447,-0.015943108535837382,0.031631511658243835
1772563486333449200,4.70144921875,0.06727554689347744,0.000884710412658751,-0.0003691986385732889
1772563486343517200,4.71151708984375,0.07625731025040149,-0.006766489327093586,0.01020005310550332
1772563486353585000,4.7215849609375,0.07475859612524509,-0.004718525555031374,0.004129756748490036
1772563486363653000,4.731653076171875,0.0952577787965536,0.006234199948143213,-0.00898468596637249
1772563486373721000,4.74172119140625,0.07026537635922432,0.0003044537061359733,0.007051051022671163
1772563486383789000,4.7517890625,0.05350362665057182,0.009772228748025372,-0.008567227739281952
1772563486393857000,4.76185693359375,0.08058861745297909,-0.001764068796765059,-0.008322459197975694
1772563486403926000,4.771926025390625,0.09256021027565002,0.0023860092205461115,0.0032994799368083476
1772563486413994000,4.781993896484375,0.06248305191993713,-0.005687306655105203,0.017763729825429616
1772563486424062000,4.79206201171875,0.07415069335997104,0.0015479418280534445,0.010465864434838294
1772563486434130200,4.802130126953125,0.07938625592589378,0.011260257082385941,0.013557437242008745
1772563486444198100,4.8121982421875,0.06711655693948268,0.0002762961907312274,-0.0024768019096925854
1772563486454266000,4.82226611328125,0.08163023546040057,0.003938334962772206,0.0011162541462108493
1772563486464334000,4.832333984375,0.0783352855682373,-0.010572366149770095,-0.000016914602182805537
1772563486474403000,4.842403076171875,0.08596329622864722,-0.006149325543129816,-0.014615020003542303
1772563486484471000,4.852470947265625,0.07099778228700161,0.00785287805800326,-0.0010210136108100413
1772563486494539000,4.8625390625,0.08536182320415973,-0.0037429311216808855,0.000926795988716185
1772563486504607200,4.872607177734375,0.07248889762759209,0.002710090075759217,0.01128160126451403
1772563486514675200,4.88267529296875,0.07578034038841724,0.005646737182699144,0.004490333689190447
1772563486524742700,4.89274267578125,0.06440846702456474,0.001476621024357155,0.0055665846185758705
1772563486534810600,4.902810546875,0.0712894587099552,0.0008744812795892357,-0.005072115632519126
1772563486544879600,4.912879638671875,0.0615647680312395,0.00019632628969848154,0.01925813310164958
1772563486554947600,4.922947509765625,0.06680383772850036,0.005633055717218667,-0.006494147792272269
1772563486565015600,4.933015625,0.06456219628155231,-0.006353341948939487,-0.014938443271629511
1772563486575083500,4.94308349609375,0.08251578612327576,-0.0004252944736741483,0.010301577251218259
1772563486585151700,4.95315185546875,0.06411036086082458,-0.005797699093865231,-0.008247859591804444
1772563486595219700,4.9632197265625,0.08969663753807544,-0.01571660630358383,-0.0003372691303491592
1772563486605287400,4.973287353515625,0.08580605984032154,0.005537468121945857,-0.011699863209202886
1772563486615356700,4.983356689453125,0.07712941690981388,-0.012947853976301849,0.002251322590745985
1772563486625424600,4.993424560546875,0.08251227899193764,0.0014267996664159,-0.008351027705334127
1772563486635492600,5.00349267578125,0.06784720930159091,0.007744138720212504,-0.005803863973170518
1772563486645560600,5.013560546875,0.07009469596743584,-0.0048698801918420935,0.0003999956356361508
1772563486655628800,5.02362890625,0.05737900677919387,0.004352697050478309,-0.005410334610939025
1772563486665696500,5.033696533203125,0.07668342670798302,-0.0007082304677460342,-0.0057125689605250956
1772563486675764500,5.043764404296875,0.08760872534811497,0.0014498791479039936,-0.005394150661118328
1772563486685833700,5.053833740234375,0.0789279907643795,-0.0027483762595336882,0.011987374913692474
1772563486695901700,5.063901611328125,0.07504033567607403,-0.011240145876118912,-0.005712824688851833
1772563486705969700,5.0739697265625,0.06261924552023411,-0.00974764229604043,0.004277896514907479
1772563486716037600,5.08403759765625,0.06082300975322723,0.0036999504964798685,0.012176760005950927
1772563486726105600,5.094105712890625,0.08611351835429668,-0.008553491474874317,0.007756422813050449
1772563486736173600,5.104173583984375,0.08716098158061504,-0.007009577367966994,0.0016301950177177785
1772563486746241500,5.114241455078125,0.07638824315369129,-0.0038627672422211616,0.030262305664271114
1772563486756310800,5.124310791015625,0.07294073304831981,-0.0028459822819568215,0.0015436857780441642
1772563486766378800,5.134378662109375,0.06799743142724037,-0.005541413644701242,0.001674362953007221
1772563486776446500,5.144446533203125,0.06844459067285061,-0.00005216857865452766,0.016686529047973454
1772563486786514400,5.154514404296875,0.08864742074608803,0.0017889566428493707,-0.01322864367906004
1772563486796582700,5.164582763671875,0.08221534187197685,0.002232362161949277,-0.01436338333003223
1772563486806650600,5.174650634765625,0.06665069299340248,-0.010127115733455866,0.02040712047368288
1772563486816719600,5.1847197265625,0.07637421462833881,0.00027760223182849586,-0.010840141107328236
1772563486826788600,5.19478857421875,0.06649930182397365,0.0048820638199802485,0.006232939572818577
1772563486836856600,5.204856689453125,0.07428045721948147,0.0030633696259930727,-0.0020003069717437027
1772563486846924500,5.214924560546875,0.09582710311710833,0.009955960417632012,-0.010272205026261508
1772563486856992500,5.224992431640625,0.0754769735276699,0.005702951748808845,-0.005182407606579363
1772563486867060700,5.235060791015625,0.08550210845768451,0.017400951794488355,0.006275573138147592
1772563486877128700,5.245128662109375,0.07682488100528717,0.01967240385781042,-0.002098871975392103
1772563486887196400,5.255196533203125,0.07158581130802631,0.008151678341487422,-0.003809767546504736
1772563486897264400,5.265264404296875,0.08071195157170295,0.006719627111218869,-0.004739924536086618
1772563486907333600,5.275333740234375,0.07666998270452022,0.002696088949870318,-0.002228891563229263
1772563486917401600,5.285401611328125,0.07277414430975913,-0.0043121001786086705,-0.008077179200015962
1772563486927469600,5.295469482421875,0.0804050775796175,-0.004760528932698071,0.0017771657403558491
1772563486937537800,5.305537841796875,0.05586334151923656,0.001919615551503375,-0.0013564926428720355
1772563486947605500,5.31560546875,0.08429097910225392,0.0018427417898550628,-0.0036842049380764364
1772563486957673500,5.325673583984375,0.0666319882929325,-0.007178741656104102,0.008962181873619557
1772563486967741400,5.335741455078125,0.08548574184477328,-0.006506952474918216,0.01804875731188804
1772563486977810700,5.345810791015625,0.08473696930408477,0.0028598829431459305,0.008717705593258141
1772563486987878700,5.355878662109375,0.07770224836170674,0.018511452053347602,-0.014183935109898448
1772563486997946600,5.365946533203125,0.06947568728625773,0.010450146275898442,0.011149791578389703
1772563487008014600,5.3760146484375,0.08069909209012985,0.0003815009977202862,0.009965586762502789
1772563487018082600,5.38608251953125,0.07920388509631157,0.0056301879066973926,-0.0002750906143337488
1772563487028150500,5.396150634765625,0.07756196310818195,-0.00839584409459494,0.011874817917309701
1772563487038218500,5.406218505859375,0.07786240735948086,0.00023048428762704134,-0.004125592030026018
1772563487048287700,5.416287841796875,0.09342471815049648,-0.00913794029932469,-0.003256809838861227
1772563487058355500,5.42635546875,0.07891162415146827,-0.006116418787371367,0.0003099427320063114
1772563487068423400,5.43642333984375,0.07502338454127311,0.007595350499823689,0.0003042071109637618
1772563487078491600,5.44649169921875,0.08025310188829898,0.0015517777529545128,0.006380640947818756
1772563487088559600,5.4565595703125,0.07217208676338195,0.00008710289471782744,-0.014364223580248654
1772563487098627600,5.466627685546875,0.07262333766222,-0.0006173921128269285,-0.006493855531327426
1772563487108695600,5.476695556640625,0.07711714195013046,-0.001018410661770031,-0.0012959580946713685
1772563487118764500,5.4867646484375,0.08160627006292343,-0.00009261932005174458,0.005297741081938147
1772563487128832500,5.49683251953125,0.0759212101638317,0.004082437874889001,-0.007237111646682024
1772563487138900500,5.506900390625,0.08011223211288451,-0.015774072111863643,0.004184044218994677
1772563487148968700,5.51696875,0.08550093941390514,0.007343878223095089,-0.0031155382046476007
1772563487159036700,5.52703662109375,0.07293196521997451,-0.006437303038500249,0.008573036425560713
1772563487169104600,5.537104736328125,0.06979308267235755,0.0015002393619623034,-0.002686900996416807
1772563487179172600,5.547172607421875,0.07413140413761138,-0.006266640913020819,0.014336495323106645
1772563487189241600,5.55724169921875,0.07726736407577992,0.0034883444392587986,0.002871098456904292
1772563487199309600,5.5673095703125,0.06873568257391452,0.011703525604167953,0.007668050409853458
1772563487209377500,5.57737744140625,0.07531798357367515,-0.002478729005297646,0.01091057599503547
1772563487219445800,5.58744580078125,0.08803601084947585,-0.007473404620587825,0.008449629241600632
1772563487229513700,5.597513671875,0.07427344295680523,-0.011540827589435502,0.005133271235227585
1772563487239581700,5.607581787109375,0.06918342634141444,0.0013117493188474327,-0.004462824627757072
1772563487249649400,5.6176494140625,0.084147186717391,0.02602326158871874,-0.004153247221931815
1772563487259718700,5.62771875,0.07531564548611641,-0.007897119058528915,0.0015402882445603608
1772563487269786600,5.63778662109375,0.0706716190725565,0.008780404699081555,-0.013099683537147938
1772563487279854600,5.6478544921875,0.08398995032906532,0.005381592573644593,-0.004592661552503705
1772563487289922800,5.6579228515625,0.07785948475003242,0.01371456403248012,-0.004535488005168736
1772563487299990500,5.667990478515625,0.08189794648587703,-0.015368797512911259,-0.010530490636266767
1772563487310058500,5.67805859375,0.06753215200304985,-0.007766268353629857,-0.0019659297781065106
1772563487320126500,5.68812646484375,0.07650807014107704,-0.0018069854898843914,0.004437507523410022
1772563487330194700,5.698194580078125,0.07531213835477829,-0.010516370779369026,-0.0024310996044427154
1772563487340263700,5.708263671875,0.0679787267267704,0.00047483270382508633,0.0108318116704002
1772563487350331600,5.71833154296875,0.06273965702950954,-0.019118341038469225,-0.014661745222099124
1772563487360399400,5.7283994140625,0.07934767748117447,-0.006588584610074758,-0.01692698674034327
1772563487370467600,5.738467529296875,0.06872165404856205,0.0015420692096929996,0.0017528350166976451
1772563487380535600,5.74853564453125,0.0622884061306715,0.003623186332685873,-0.007136318153329193
1772563487390603500,5.758603515625,0.08204349243640899,-0.00816084802863188,0.008984941694699227
1772563487400671500,5.76867138671875,0.06573825432360172,-0.0026771741868462412,0.012863536693714558
1772563487410740700,5.77874072265625,0.06738835961818694,-0.004835302068805321,-0.0015477774312719701
1772563487420808400,5.788808349609375,0.058711132165789603,-0.0033550643152557313,0.011311631076596676
1772563487430876400,5.79887646484375,0.07037877360582351,-0.0005447287354152649,0.014819127740897237
1772563487440944600,5.808944580078125,0.06439502302110195,-0.012774187042983248,0.0032287162555381652
1772563487451012600,5.8190126953125,0.07427110486924648,0.00044483942436054344,-0.0011535904819145798
1772563487461080600,5.82908056640625,0.05317278726100921,0.0075582150935195385,-0.011193082730844616
1772563487471148500,5.8391484375,0.07681085247993469,0.009017190863331779,-0.007546469856798649
1772563487481217500,5.849217529296875,0.07576338925361632,-0.001806355302222073,0.01231909108608961
1772563487491285500,5.859285400390625,0.07740998741686343,-0.00010404489636421203,0.008127155821584164
1772563487501353500,5.869353515625,0.06469020657539368,-0.011254923320142551,0.011059263750724494
1772563487511421700,5.879421630859375,0.07890460988879203,-0.010149875554535538,0.003723696698248386
1772563487521490000,5.889489990234375,0.07037643551826477,0.008743461089022457,-0.001978058607317507
1772563487531558000,5.899557861328125,0.08593640822172165,0.0009856043707113713,0.0073938000457361335
1772563487541625900,5.9096259765625,0.09432079020738601,-0.010275118502555414,0.0003264554753899574
1772563487551694800,5.91969482421875,0.07741524811387061,0.00943639352293685,0.0023771043948829173
1772563487561762800,5.9297626953125,0.07337211020290851,0.0050119098778814075,0.0004561097370460629
1772563487571830800,5.939830810546875,0.07741349454820155,0.012415391067415476,0.003300064458698034
1772563487581898800,5.949898681640625,0.06918342634141444,-0.0036510789866093544,-0.0008544248722493648
1772563487591967000,5.959967041015625,0.07277355978786945,-0.005573955074278637,0.008100779271312057
1772563487602034700,5.97003466796875,0.0825005885541439,-0.0011638926802203058,-0.004429981804080307
1772563487612102700,5.9801025390625,0.0854933406293392,0.01122635481278412,-0.005025719207525253
1772563487622172000,5.990171875,0.0733773708999157,0.00894709390234202,0.010597345327399671
1772563487632239900,6.000239990234375,0.07936404409408569,-0.008009328995039686,0.0018431436486542223
1772563487642307800,6.010307861328125,0.06334872883856296,0.01528302805875428,0.016092837471142412
1772563487652375800,6.020375732421875,0.06020692368149757,-0.006783011203631758,0.0018706892427057026
1772563487662443800,6.03044384765625,0.08325286822617053,-0.0024315745284780857,-0.002858129377476871
1772563487672511700,6.04051171875,0.06859130566716194,0.0003294237506110221,0.007622567300312221
1772563487682579700,6.050579833984375,0.08295943823754787,-0.0071129738103598355,0.006970058208331465
1772563487692647700,6.060647705078125,0.057223523956537244,0.0023611487739253786,0.000859685569256544
1772563487702717000,6.070717041015625,0.06514964078068733,0.0020161986606195567,0.001797477876022458
1772563487712784600,6.08078466796875,0.07652034510076046,-0.004286180286062881,0.003447765833698213
1772563487722852600,6.0908525390625,0.08340776652693747,-0.004683956565149128,0.004423552063293755
1772563487732920800,6.1009208984375,0.0679915862083435,0.0026740049822255967,0.005310198704712093
1772563487742988800,6.11098876953125,0.0720353086411953,-0.004836206251103431,-0.007238244157843291
1772563487753056800,6.121056884765625,0.06530103195011615,0.011776709571387618,0.012737462628632783
1772563487763124700,6.131124755859375,0.07323240947127342,0.013478051862865686,0.005284406676329672
1772563487773193700,6.14119384765625,0.08130991746485233,0.010539413728239013,-0.005698138576373458
1772563487783261700,6.15126171875,0.05557108057439327,-0.0003668331515509635,-0.008362900806218385
1772563487793329700,6.16132958984375,0.07277648239731788,-0.0068336180128622795,-0.008408968437649308
1772563487803398000,6.17139794921875,0.07486381006538867,-0.0035801417754031716,-0.002318396477587521
1772563487813465900,6.1814658203125,0.06977671605944633,-0.0018602135144639759,-0.001582739146798849
1772563487823533800,6.191533935546875,0.07815291473865509,-0.003489257754711434,0.0035527605781331658
1772563487833601800,6.201601806640625,0.07739946602284908,0.0018152783941943198,0.0011721125192940235
1772563487843670800,6.2116708984375,0.0717126525580883,-0.012342983418330549,0.0008096724150702357
1772563487853738800,6.22173876953125,0.07979016055166721,-0.004787572203250602,-0.004097060055285692
1772563487863806700,6.231806640625,0.06976385657787322,0.005833199665509164,-0.000681954382173717
1772563487873875000,6.241875,0.08233283077180385,0.0002600117762107402,0.0054196138959378
1772563487883943000,6.25194287109375,0.0820300484329462,0.00880879054334946,-0.0109870752973482
1772563487894011000,6.262010986328125,0.05853577559888363,-0.0024742172269616274,-0.0139156030299142
1772563487904078800,6.272078857421875,0.06886252382397651,-0.007203812165278941,-0.002321355619654059
1772563487914146800,6.282146728515625,0.07649404161572455,0.01016679928987287,-0.0018643690997734665
1772563487924215800,6.2922158203125,0.07424655494987964,0.010213634106284007,-0.001941306793503463
1772563487934283800,6.30228369140625,0.06750409495234488,0.01043387099453248,-0.00287668794747442
1772563487944352000,6.31235205078125,0.07049333989620209,-0.001129835146991536,0.004533844037353992
1772563487954420000,6.322419921875,0.09069675449132919,0.009654767247661948,-0.009209251969866454
1772563487964487700,6.33248779296875,0.08052373552322387,-0.01276386657836847,-0.015258067147433756
1772563487974555600,6.3425556640625,0.06630699412226676,0.004942324373545125,-0.005039163210988044
1772563487984623900,6.352623779296875,0.06196808813512325,-0.0005096117562614381,-0.005201623763702809
1772563487994692900,6.36269287109375,0.07124737313389777,0.008429956426750868,-0.00425360232386738
1772563488004760800,6.3727607421875,0.07872633071243762,-0.004215918928291648,-0.0020776830568909645
1772563488014828800,6.382828857421875,0.06899988646805286,0.01547144503663294,-0.015415741927176712
1772563488024896800,6.392896728515625,0.0775292298823595,-0.002423994010221213,-0.0035850554125383496
1772563488034964700,6.40296484375,0.06600304273962974,-0.004862683266075328,-0.010390607241541146
1772563488045032700,6.41303271484375,0.073337623411417,-0.0033326789535116402,0.0027052403707057237
1772563488055101000,6.423100830078125,0.07947802586257458,-0.015575654329778626,-0.011022511936910449
1772563488065170000,6.433169921875,0.06810673702061176,-0.008341620556171983,0.00039038755707442756
1772563488075237600,6.443237548828125,0.07229542088210582,-0.009910733036417513,0.004426365074887872
1772563488085305600,6.4533056640625,0.08366612520217895,-0.008338012960134073,-0.019527780355885625
1772563488095373800,6.463373779296875,0.08501520172357559,-0.004723512257402762,-0.009267777224071324
1772563488105441800,6.47344189453125,0.07364215931594371,0.0074420413679443295,-0.0009897051570937037
1772563488115509800,6.483509765625,0.06256663855016231,0.004859979852335527,-0.007295052378997207
1772563488125577700,6.49357763671875,0.07962707894444465,-0.007952968298457562,-0.0005541998166590929
1772563488135646700,6.503646728515625,0.0857639742642641,-0.008313864899566396,-0.012940328256972134
1772563488145714700,6.513714599609375,0.052393619582056995,-0.0008879252830520272,-0.0013160145020112396
1772563488155782700,6.52378271484375,0.060925301083922384,0.010476952084433286,0.0012380538949742913
1772563488165851000,6.533850830078125,0.06856149505078792,0.008993426395254208,0.0024321955829858777
1772563488175918800,6.5439189453125,0.07559621599316596,-0.002898561852565035,0.014329444527812301
1772563488185986800,6.55398681640625,0.06362228508293628,0.008178785544121638,0.0039123511381447314
1772563488196054800,6.5640546875,0.07095569671094418,0.007103776723751798,0.006188296713493764
1772563488206122800,6.574122802734375,0.08277472932040691,0.005224767177272588,0.0009133154526352882
1772563488216191700,6.584191650390625,0.08531798406243324,-0.013715504747396334,-0.01694634902793914
1772563488226259700,6.594259765625,0.0740957483023405,-0.00924344650041312,0.008490911100059747
1772563488236328000,6.604327880859375,0.07978665342032909,-0.000024230258958414194,0.0019114231118932366
1772563488246396000,6.61439599609375,0.0788929194509983,0.0016293456343468278,0.0056423167359083886
1772563488256464000,6.6244638671875,0.0730588064700365,0.0043399654330685735,0.0037595717292279005
1772563488266531600,6.634531494140625,0.06662614307403564,0.007865691873803734,0.009761223296821117
1772563488276599800,6.644599853515625,0.06767477534413337,-0.003255859990790486,0.006652516691759229
1772563488286668800,6.654668701171875,0.06782733555734158,0.0013902670483104884,-0.010984335350990295
1772563488296736800,6.66473681640625,0.07471534150540829,-0.008502966864034534,-0.006198197053000331
1772563488306805000,6.674804931640625,0.08967734831571579,0.005318911734130233,-0.0015860636150464415
1772563488316873000,6.684873046875,0.07471826411485671,0.007426871198276058,0.0037341815596446393
1772563488326940700,6.694940673828125,0.07007657578885555,0.013476599691295995,-0.000584485357068479
1772563488337008600,6.705008544921875,0.06229600491523742,0.0036032303900457915,-0.002265314583480358
1772563488347076900,6.715076904296875,0.07381868492662906,0.0012931359499227255,0.00394818963650614
1772563488357145900,6.725145751953125,0.09177636642158031,-0.002634988146089017,0.0017804171433672307
1772563488367213800,6.7352138671875,0.07816168256700039,-0.011071173384226859,-0.005489098935574293
1772563488377281800,6.74528173828125,0.08429799336493014,0.003365512644033879,-0.008026471926085651
1772563488387349800,6.755349853515625,0.07487140884995461,0.0017206315138377248,0.0014144333751872182
1772563488397417700,6.765417724609375,0.059761518001556393,-0.006993950540572404,0.005749247709102928
1772563488407485700,6.775485595703125,0.06739712744653224,0.0012092205261345953,-0.009928652285598218
1772563488417554000,6.785553955078125,0.07892039197981357,-0.003506756878783926,-0.003582461596652865
1772563488427622000,6.795621826171875,0.06994155123233795,-0.006868689326243475,0.019922697957605123
1772563488437690600,6.805690673828125,0.06964169150292873,-0.006615664413245395,0.021696648827567694
1772563488447758800,6.8157587890625,0.07577800230085849,0.014597429547924548,0.007117357724532485
1772563488457826800,6.825826904296875,0.06291384455263614,-0.0008496116998139768,-0.009809884744137526
1772563488467894800,6.835894775390625,0.08745733417868613,-0.004294116997346282,-0.0023056831264868377
1772563488477962800,6.845962646484375,0.08476151922345161,-0.006603562983497977,0.0035815482812002297
1772563488488031000,6.856031005859375,0.06875029562115668,-0.0021194581056945025,-0.006300890242494642
1772563488498099000,6.866098876953125,0.08550678463280201,0.003344679918559268,0.0079431044915691
1772563488508167700,6.876167724609375,0.07653086649477481,0.012350710067059845,-0.014869250492937861
1772563488518236200,6.886236083984375,0.07891863841414451,0.020705637629376723,-0.014020634306967258
1772563488528304000,6.89630419921875,0.07876958533227443,-0.013267642248887568,-0.001193995557539165
1772563488538372400,6.906372314453125,0.06949322294294834,-0.004998812934290617,0.001250292322039604
1772563488548440300,6.9164404296875,0.08430676119327545,0.007893018272146583,-0.0033220205621793866
1772563488558508000,6.926508056640625,0.08625146552026271,-0.010206528512062505,-0.01066924151983112
1772563488568576000,6.936575927734375,0.0753249978363514,-0.0021240429492667317,-0.006257489492185414
1772563488578645200,6.946645263671875,0.07697042695581913,0.005826185402832925,-0.015549780103005468
1772563488588713200,6.956713134765625,0.07278232761621475,-0.0011412607233040033,0.002345467147603631
1772563488598781200,6.96678125,0.07892039197981357,-0.003115026747994125,0.01647858538571745
1772563488608849400,6.976849365234375,0.08520867846906184,0.0006585187076590955,0.00591762654595077
1772563488618917000,6.986917236328125,0.06605740327537059,-0.01295931608523242,0.00808594702836126
1772563488628985000,6.996985107421875,0.07025134783387184,-0.005742452642135322,0.00024480507392436263
1772563488639053000,7.007052978515625,0.0766881028831005,-0.001999046596419066,0.00477200017478317
1772563488649121300,7.017121337890625,0.059331309890747065,-0.00923473347099498,0.007550926836207509
1772563488659190300,7.027190185546875,0.08626783213317393,-0.002540569594595581,-0.0016932868491858243
1772563488669258200,7.03725830078125,0.06935936743021011,-0.01931388187687844,-0.016731318037770688
1772563488679326200,7.047326171875,0.06786240687072277,-0.007454288928164169,0.0035305852789431808
1772563488689394200,7.057394287109375,0.07130582532286643,0.011248731041373684,0.01225333237349987
1772563488699462100,7.067462158203125,0.08057984962463378,-0.0070137238201219585,-0.008798479211889207
1772563488709530000,7.077530029296875,0.06965747359395026,0.003161879830714315,-0.007578070571459829
1772563488719598300,7.087598388671875,0.07055529921650885,0.01639902647663839,-0.007399170340597629
1772563488729667000,7.0976669921875,0.0813239459902048,0.0029107180812396106,0.0025116174947470427
1772563488739735000,7.107735107421875,0.09374035997092724,-0.002579805626440793,0.0008747004752978682
1772563488749803000,7.117802978515625,0.05871873095035553,0.011174204500438645,0.0032705461032688614
1772563488759871200,7.127871337890625,0.06694763011336326,0.00816074756393209,-0.00036561844199895855
1772563488769939200,7.137939208984375,0.08011457020044327,0.0031858817608095705,0.012298267493769525
1772563488780007200,7.148007080078125,0.07697685669660567,0.008112707171123475,-0.0023092998556792734
1772563488790075100,7.1580751953125,0.06440846702456474,0.014067934914259238,-0.012639847473055124
1772563488800144100,7.16814404296875,0.06365501830875873,-0.012127386172581463,0.010828852528333663
1772563488810212000,7.178212158203125,0.06021335342228412,-0.009837055878853425,0.011079758549481629
1772563488820280000,7.188280029296875,0.06994155123233795,-0.002278694654861465,0.001241049569658935
1772563488830348300,7.198348388671875,0.07143675822615624,-0.003949422612367198,0.0038813714779913425
1772563488840416300,7.208416259765625,0.07308335638940334,-0.0005330930965486914,0.013382993990555404
1772563488850484200,7.218484130859375,0.07278232761621475,0.01181790009830147,-0.00923635917250067
1772563488860552200,7.22855224609375,0.06649754825830459,-0.01785482390867546,0.00016523703169077635
1772563488870620200,7.2386201171875,0.06380290234684943,-0.009093370505236089,0.0015187705324962734
1772563488880689200,7.248689208984375,0.07397241418361664,-0.003068602923536673,0.005157200100086629
1772563488890757000,7.258757080078125,0.08354980534613132,0.01066839213646017,-0.00032214462645351884
1772563488900825300,7.268825439453125,0.07217910102605819,-0.003162784013012424,0.012133943777531384
1772563488910893300,7.278893310546875,0.07188333294987678,-0.011224710844969376,0.005002447929792105
1772563488920961000,7.2889609375,0.07023673478662967,0.010461389189120382,-0.006101531745493411
1772563488931029000,7.299029052734375,0.06604279022812842,0.006990525607625022,-0.007737645047344267
1772563488941097200,7.30909716796875,0.0802566090196371,-0.002746147769829258,0.005221899366751313
1772563488951166200,7.319166259765625,0.06215045896470547,-0.0009059997958596795,0.017762853042595086
1772563488961234200,7.329234130859375,0.08040566210150718,-0.0016650562685448676,0.01220054274033755
1772563488971302100,7.33930224609375,0.07502455358505249,0.0017210059731733052,0.0013800927141681312
1772563488981370000,7.3493701171875,0.0714338356167078,0.019164993191789836,-0.0007337211020290852
1772563488991438000,7.35943798828125,0.07651625344753266,0.0054932271214202045,-0.010724990295059978
1772563489001506000,7.369506103515625,0.07696575078070163,-0.0034610911061521616,-0.0036738296745344994
1772563489011574300,7.37957421875,0.06843523832261562,0.007794571999507024,0.0009496288750320672
1772563489021642200,7.389642333984375,0.08504325877428054,0.004286901805270463,-0.00900521729774773
1772563489031711000,7.3997109375,0.07680968343615531,0.0034252160751726476,0.0003847250012680888
1772563489041779200,7.409779296875,0.06797931124866008,0.006105769529193639,-0.0020154680082574484
1772563489051847200,7.41984716796875,0.07950082221627235,-0.002073317409027368,-0.007542378203570842
1772563489061915100,7.4299150390625,0.07650456300973892,0.0033166046015452593,-0.0034638767182826992
1772563489071983000,7.439983154296875,0.05570610513091087,0.0026549806213472037,0.004629888290353119
1772563489082051300,7.45005126953125,0.08787760541737079,-0.011821973485220223,-0.0074922919841483235
1772563489092119300,7.460119384765625,0.08204115434885025,-0.01618394068754278,0.0030951895363628863
1772563489102187300,7.470187255859375,0.0835416220396757,-0.0038732064378447827,0.004231061698496342
1772563489112256300,7.48025634765625,0.08219722169339656,-0.0015815061709377914,0.006202288706228137
1772563489122324200,7.49032421875,0.06708674632310867,-0.00122606206308119,0.006621208238042891
1772563489132392200,7.50039208984375,0.06424363185167312,-0.003978210315434262,0.015428930202312766
1772563489142460200,7.510460205078125,0.06798574098944664,-0.0011452519118320195,0.02048508108071983
1772563489152528400,7.5205283203125,0.058711132165789603,0.004261630366696045,0.004753953061439097
1772563489162596400,7.530596435546875,0.07053367190659046,-0.006175820824410766,-0.0017800152845680712
1772563489172664000,7.5406640625,0.07712064908146858,0.002297801214130595,-0.004411971223354339
1772563489182733300,7.5507333984375,0.06470949579775333,-0.008403853871114551,0.0016098828820511697
1772563489192801300,7.56080126953125,0.07877367698550224,0.002869463622244075,-0.01570979297030717
1772563489202869200,7.570869140625,0.07577917134463787,0.006788317566411569,0.011030695243366062
1772563489212937200,7.580937255859375,0.06860182706117629,0.0034861981479451056,0.018763627582974732
1772563489223005200,7.591005126953125,0.058875382816791534,-0.014886210760893298,-0.0040406536929309365
1772563489233073200,7.6010732421875,0.05797814171612262,0.0029736272496171294,0.0007849398326128721
1772563489243141000,7.61114111328125,0.09000409605205059,0.0020508498488925396,0.011604659206420183
1772563489253210000,7.621210205078125,0.08551321437358855,-0.0032660617243964224,0.022003559352271256
1772563489263278300,7.6312783203125,0.08760755630433559,0.0017536296011414379,-0.010979184251837432
1772563489273346300,7.64134619140625,0.07324117729961872,-0.0058136821142863475,0.005110401816293597
1772563489283414000,7.6514140625,0.08387187690734862,0.0017819423801731318,-0.0029864684648811817
1772563489293482000,7.66148193359375,0.08641922330260277,-0.00026862434092909097,-0.009802030231244862
1772563489303550200,7.67155029296875,0.0639747517824173,-0.006554234815901145,0.005197970501892269
1772563489313618200,7.6816181640625,0.06801496708393097,0.00027738303611986336,-0.015912402870319784
1772563489323686100,7.69168603515625,0.0677174454420805,0.001937863594247028,0.004588606431894004
1772563489333755100,7.701755126953125,0.06113455992043018,-0.010319770495034753,0.0008339300734922289
1772563489343823000,7.711822998046875,0.07714695256650447,0.00039865306192077694,0.0004873451255261898
1772563489353891000,7.72189111328125,0.07206395021378993,0.01076274675587192,-0.010334383542276919
1772563489363959000,7.731958984375,0.06458090098202228,0.0019950006089638917,0.0009519669625908135
1772563489374027300,7.74202734375,0.060388125467300414,-0.014901864987751468,0.0020736279362812637
1772563489384095200,7.75209521484375,0.06802490395605564,0.006406990098627284,0.008840345592238008
1772563489394163200,7.7621630859375,0.07565700626969336,-0.003940280324686319,0.009307670843042433
1772563489404232200,7.772232177734375,0.08074351575374603,0.0030351207790430632,-0.02405976122971624
1772563489414300200,7.782300048828125,0.08643032921850681,-0.018993454283475875,0.00847154881246388
1772563489424368000,7.7923681640625,0.0801391201198101,-0.003468735556490719,0.008842610614560544
1772563489434436000,7.80243603515625,0.0873234786659479,-0.0036136056535877284,-0.0038974458299577235
1772563489444504300,7.81250439453125,0.06802022778093815,0.013959871429903433,-0.004618599711358547
1772563489454572300,7.822572265625,0.07535480845272541,-0.003259193592192605,0.011368037438951432
1772563489464640300,7.83264013671875,0.07639993359148502,0.002855005838628858,0.014369813070818782
1772563489474708000,7.8427080078125,0.05650047037899494,0.00040917445593513545,-0.0005449935968965292
1772563489484777200,7.852777099609375,0.07819733840227126,0.009038781640632078,0.0033192806158214806
1772563489494845200,7.86284521484375,0.07205868951678275,0.013468516849540172,-0.009925510480441152
1772563489504913200,7.8729130859375,0.06277531286478043,0.013597824051324278,-0.000041829847730696197
1772563489514981400,7.8829814453125,0.07519640302062035,-0.005213460331968963,-0.011510185855999588
1772563489525048600,7.893048583984375,0.0760953976869583,-0.0024421872540377077,-0.0025127865385264157
1772563489535116800,7.90311669921875,0.0744487995237112,-0.000444620228651911,-0.01628510864023119
1772563489545184500,7.9131845703125,0.07803542583882808,-0.0007669840508140623,-0.008746493296325207
1772563489555253500,7.92325341796875,0.07473696881532668,-0.004346395173855126,-0.0066986939210444685
1772563489565321700,7.93332177734375,0.06456102723777293,0.002602008325094357,0.015460932775773107
1772563489575389700,7.9433896484375,0.06829962924420833,-0.004076866650627926,-0.007251797759160399
1772563489585457700,7.953457763671875,0.06919979295432567,-0.00789362106034532,-0.0004122340627014637
1772563489595525400,7.963525390625,0.08296411441266537,-0.008739131973776966,0.0006386997623369097
1772563489605593600,7.973593505859375,0.08386194003522396,0.0070607504327781494,0.005557816790230572
1772563489615661600,7.98366162109375,0.07877192341983318,0.005922640647785738,-0.0013854995416477322
1772563489625729500,7.9937294921875,0.07368249132633209,-0.0037079694061540065,0.0020483838971704243
1772563489635798800,8.003798828125,0.06754618052840232,0.00736974331671372,-0.004373575441725552
1772563489645866800,8.01386669921875,0.06275368555486202,0.018323802260449155,0.013526019190438091
1772563489655934500,8.0239345703125,0.07158113513290881,-0.0021842395707499236,-0.00371602484844625
1772563489666002400,8.03400244140625,0.0733773708999157,0.003243667229497805,-0.007279708679392934
1772563489676070700,8.044070556640625,0.08100947321355342,0.0016337204153649507,-0.010539441127702593
1772563489686138600,8.054138671875,0.07771978401839733,0.007848329747049137,0.0013301891578361392
1772563489696206600,8.06420654296875,0.06993745957911014,0.005713080417178571,0.013465265446528792
1772563489706274600,8.074274658203125,0.06844517519474029,0.003182356363162398,0.006644406450539827
1772563489716343600,8.084343505859374,0.07293430330753325,-0.0006673596012406051,-0.005451105012744665
1772563489726411500,8.09441162109375,0.056923664227128024,-0.008449190850183367,0.014323343580588697
1772563489736479500,8.1044794921875,0.08072071940004825,0.005618579667294398,-0.001994388687610626
1772563489746547700,8.114547607421875,0.07039923187196254,0.00021907697762362657,0.00723228934109211
1772563489756615700,8.12461572265625,0.053636897641420364,-0.00310807641739957,0.0017532003428786993
1772563489766683600,8.13468359375,0.08191782023012638,0.0009121007430832833,0.013389898655377328
1772563489776751600,8.144751708984375,0.08550620011091231,-0.01189790653195232,-0.009419095328263937
1772563489786820600,8.154820556640624,0.08221534187197685,-0.0021433778373990205,0.00837981540840119
1772563489796888600,8.164888671875,0.07892682172060013,-0.0022792700435966253,0.005194463370554149
1772563489806956500,8.17495654296875,0.07144727962017058,-0.0026451442139223216,-0.001998991797491908
1772563489817024800,8.185024658203124,0.09269874196350573,0.006031115124095231,0.012097849550843238
1772563489827092700,8.1950927734375,0.07235153498351574,0.023781537943379952,0.009645487962663173
1772563489837160700,8.20516064453125,0.07744155159890652,-0.00798214872716926,-0.006752543000131845
1772563489847228400,8.215228515625,0.08117956908345222,-0.0003595905600115657,0.0035379283351823685
1772563489857296600,8.225296630859376,0.07863806790709495,0.0020139610377606005,0.016911679573357104
1772563489867365600,8.23536572265625,0.08252396942973136,0.013535800798935816,-0.010108502364531159
1772563489877433600,8.24543359375,0.0644143122434616,0.009812314163241536,0.001603233945555985
1772563489887501800,8.255501708984376,0.07234744333028793,0.014642766526993364,-0.0033911768082529304
1772563489897569500,8.265569580078125,0.0662093789666891,0.0014901563593652098,-0.0003305836612358689
1772563489907637500,8.275637451171875,0.07084814468324184,-0.005287448016786948,0.018657792588323355
1772563489917705500,8.28570556640625,0.060520227414369576,-0.003156290340144187,0.0041253728343173856
1772563489927773700,8.295773681640625,0.06830196733176708,-0.01654031637716107,0.016683423775434494
1772563489937842700,8.3058427734375,0.07593231607973575,-0.0032161855675280093,0.008180712639726698
1772563489947910700,8.31591064453125,0.0606716185837984,0.0017417565002571791,-0.0019114231118932366
1772563489957978400,8.325978271484376,0.07264321140646934,-0.008096249226666987,-0.002385397299192846
1772563489968046600,8.336046630859375,0.0729454092234373,0.007949333302956075,-0.00139507108759135
1772563489978114600,8.346114501953124,0.08626140239238739,0.014441280004987492,0.017138583664409814
1772563489988182500,8.3561826171875,0.0733896458595991,0.002048630492342636,0.005136047714203596
1772563489998250500,8.36625048828125,0.08446341305971145,0.006480000535910949,0.00863532453943044
1772563490008318700,8.376318603515625,0.07623451389670372,0.0165005049565807,0.00842869605142623
1772563490018387500,8.386387451171874,0.0768318952679634,-0.005724789121281356,-0.003241356541402638
1772563490028455400,8.396455322265625,0.06980126597881317,-0.004660402159625664,-0.001583725527487695
1772563490038523600,8.406523681640625,0.07503507497906685,-0.0018172328892629593,0.0006826850345358252
1772563490048591600,8.416591552734374,0.0648591334015131,-0.0006385444987099618,-0.008420805005915463
1772563490058659600,8.42665966796875,0.0772808080792427,-0.0039012269559316336,0.005805325277894735
1772563490068727600,8.4367275390625,0.07953121735453605,-0.004802550576673821,-0.00036207477804273364
1772563490078795800,8.446795654296874,0.07803133418560028,-0.0011883238685782998,0.005079714417085051
1772563490088863500,8.456863525390625,0.07264613401591777,0.003832216840330511,-0.001707644168101251
1772563490098932500,8.466932373046875,0.07324643799662589,0.012682115712203085,0.002184431366994977
1772563490109000700,8.477000732421875,0.07339607560038566,0.010929636888531968,0.006981017993763089
1772563490119068700,8.487068603515626,0.07294716278910636,0.00008544979374855756,-0.002313281911052763
1772563490129136600,8.49713671875,0.07699030070006847,-0.002503689916618168,0.00567972613684833
1772563490139204600,8.50720458984375,0.07758359041810035,0.0006991795116104185,0.014877689527720213
1772563490149272600,8.5172724609375,0.07593348512351512,-0.010705993333645164,0.01703600007276982
1772563490159340500,8.527340576171875,0.07413666483461856,-0.010620570939360186,0.002307911616191268
1772563490169409500,8.537409423828125,0.06381050113141537,0.000058269525878131386,0.0024517040010541675
1772563490179477800,8.547477783203124,0.07712532525658607,0.004396207398641854,0.0010051584545522929
1772563490189545700,8.557545654296876,0.07682078935205935,-0.013351174080185591,-0.0016050971090793608
1772563490199613700,8.56761376953125,0.07218085459172725,0.00815982511532493,0.01584912837576121
1772563490209681400,8.577681396484374,0.08400047172307967,0.0030845402781851587,0.007913951462320983
1772563490219749600,8.58774951171875,0.07217851650416851,0.00220355619257316,-0.0013070640105754137
1772563490229817600,8.597817626953125,0.07232815410792827,0.003699512105062604,0.0009434183299541472
1772563490239885600,8.607885498046874,0.06813771668076515,0.006138073496753349,-0.001746514873765409
1772563490249954800,8.617954833984374,0.07232640054225921,0.0039068438459653404,0.005988134498894214
1772563490260022500,8.6280224609375,0.06394260307848453,0.0013404182909056543,0.000626388270035386
1772563490270090500,8.638090576171875,0.06663607994616032,0.0005817636770196259,0.008404621056094765
1772563490280158500,8.648158447265626,0.08085399039089679,0.0068642140805255615,0.006459332207217812
1772563490290226700,8.658226806640625,0.06947568728625773,0.017012126006837932,0.0016878069564700126
1772563490300294700,8.668294677734375,0.07606850968003273,0.005833464526990428,-0.0037613983601331707
1772563490310362600,8.678362548828124,0.07622282345890999,0.008812699533486738,0.0081942297084257
1772563490320430600,8.6884306640625,0.07338263159692288,0.006948841890366747,-0.010441022254526615
1772563490330499600,8.69849951171875,0.07667641244530678,0.00047261334727518255,0.007860979166068136
1772563490340567600,8.708567626953124,0.08820026150047779,0.0009753021724056451,-0.002839315079152584
1772563490350635500,8.718635498046876,0.08206570426821708,-0.00441008979352191,-0.0014240779863670468
1772563490360703700,8.728703857421875,0.07368482941389083,-0.008975013955729081,0.012494776446558534
1772563490370771700,8.738771728515625,0.07263678166568278,-0.011799195397831499,0.006407346291653812
1772563490380839700,8.748839599609376,0.0799690242499113,-0.0037153489950112997,-0.00946015799101442
1772563490390907600,8.75890771484375,0.0747322926402092,-0.002009293995797634,-0.004317497872933745
1772563490400975600,8.7689755859375,0.07772446019351482,-0.010688640340045094,-0.0002744695598259568
1772563490411044600,8.779044677734374,0.08639759599268436,0.004063842772273347,0.00047806584052741526
1772563490421112600,8.789112548828125,0.07023264313340187,-0.008197782505536452,-0.0010759952010586857
1772563490431179500,8.799179443359375,0.07023322765529155,-0.008274610601412132,-0.0011037965234369038
1772563490441247700,8.809247802734374,0.07173252630233765,-0.006753940372774377,0.007388064424693584
1772563490451315700,8.819315673828125,0.05931611232161522,0.006612842268496752,-0.011697232860699295
1772563490461383700,8.8293837890625,0.0843085147589445,-0.002574371399497613,-0.004747084929235279
1772563490471451600,8.83945166015625,0.0828144768089056,0.0061004722995683545,0.0033355376308783886
1772563490481519600,8.84951953125,0.06739829649031162,0.0016292817022651434,-0.008883052222803235
1772563490491588600,8.859588623046875,0.07443067934513091,0.008938061212515457,-0.000019508418068289755
1772563490501656600,8.869656494140624,0.08416179976463317,-0.0018504958380479363,-0.01160579171758145
1772563490511724800,8.879724853515626,0.07728197712302208,0.003022087767533958,-0.009738865334540605
1772563490521792300,8.889792236328125,0.08297054415345191,-0.004847275634389371,-0.017180376979522405
1772563490531860200,8.899860107421874,0.07055062304139137,0.0034923538940958678,-0.00491626748368144
1772563490541928200,8.90992822265625,0.07444295430481433,0.01338889400837943,0.009446567857079207
1772563490551996200,8.91999609375,0.07773615063130855,0.001233341187238693,-0.011931041616573929
1772563490562064100,8.930064208984374,0.06981061832904815,-0.008363028670381753,0.008582973297685384
1772563490572133000,8.940133056640626,0.06398235056698322,-0.001999795515090227,-0.006319010421074927
1772563490582201300,8.950201416015625,0.08329144667088985,-0.013709485998563468,0.0006700082160532474
1772563490592269000,8.96026904296875,0.05381459229588508,0.0019722225215751676,-0.00018306494932621717
1772563490602337000,8.9703369140625,0.06893208192884921,0.000054424467822536826,0.012816921073012053
1772563490612405200,8.9804052734375,0.07207037995457649,-0.005511374699464068,-0.012450462380796671
1772563490622473200,8.99047314453125,0.07222177112400531,-0.009440960100200027,-0.014209544475190341
1772563490632541200,9.000541259765624,0.07880816377699375,-0.025264269048115236,0.00976597253717482
1772563490642609200,9.010609130859375,0.08479600601494312,-0.0015282690132036804,-0.008537453655526042
1772563490652678100,9.02067822265625,0.07357669286429881,-0.007134464122960343,0.0052245297152549025
1772563490662746000,9.03074609375,0.0753811119377613,-0.0005342347408644855,-0.0075056263897567985
1772563490672814000,9.04081396484375,0.07179039396941661,0.008496582789020612,-0.006416771707125008
1772563490682882000,9.050882080078125,0.07882453038990497,-0.00768089162511751,-0.006837664000317454
1772563490692950300,9.0609501953125,0.08017652952075004,-0.0013194303018040955,0.009846600025333463
1772563490703018200,9.071018310546876,0.06820785930752754,0.00886067599421367,-0.01326543202549219
1772563490713086200,9.081086181640625,0.07179916179776191,-0.0002495999800506979,0.00034665801320224996
1772563490723155200,9.0911552734375,0.06910919206142425,-0.011722979223309084,0.006610686844028532
1772563490733223200,9.10122314453125,0.08916530714035034,0.004283641269104555,0.0016825827920809388
1772563490743291100,9.111291015625,0.08453063307702541,0.009232715043844654,0.0021955738155171275
1772563490753359000,9.121359130859375,0.07210954292118549,0.0026440299690701067,-0.0005919745437800884
1772563490763427300,9.13142724609375,0.07016483859419823,-0.008290054765716195,-0.008518347096256911
1772563490773495300,9.141495361328126,0.07315642162561416,-0.01557389163095504,0.0029975378481671214
1772563490783563300,9.151563232421875,0.08482815471887588,-0.007349038455402478,-0.003687529406324029
1772563490793631000,9.161630859375,0.07225976504683494,0.0018643690997734665,-0.000018375906907021997
1772563490803700200,9.1717001953125,0.05595277336835861,-0.0017378018443472683,-0.005299567712843418
1772563490813768200,9.181768310546875,0.06747837598919867,0.01378595790141262,0.00849916747175157
1772563490823836200,9.191836181640625,0.09337035761475562,0.0037273773595225064,-0.00003832271639257669
1772563490833904400,9.201904296875,0.08125204979777335,-0.007415728749753907,0.005218940224684774
1772563490843973000,9.21197314453125,0.07587152580320834,-0.017464609881537033,-0.01944079619217664
1772563490854041000,9.222041015625,0.06958557740151881,-0.0005333031591027975,-0.007274594112858176
1772563490864109300,9.232109375,0.0636000732511282,0.0009369977223221212,-0.00011862141098827124
1772563490874177300,9.24217724609375,0.06374971085488795,-0.0016291264386381953,-0.015390059496648609
1772563490884245200,9.252245361328125,0.061357847282290455,0.005476312519237398,-0.016017470679990948
1772563490894313200,9.262313232421874,0.06689326957762241,0.00016428718362003565,0.006858962516672909
1772563490904381200,9.272381103515626,0.07722060232460498,0.003256060920190066,0.031152057578228413
1772563490914449200,9.28244921875,0.0832066909968853,0.0015528737314976751,0.006161956695839762
1772563490924518100,9.29251806640625,0.08784370314776897,-0.0018756485456135122,0.007824702276289463
1772563490934586400,9.30258642578125,0.07198620880246162,0.0077343114459421484,0.0015244696209207177
1772563490944654300,9.312654296875,0.07977262489497661,0.00898327946057543,0.00763666889090091
1772563490954722000,9.32272216796875,0.07858136928379535,-0.0006586283055134117,-0.008455364862643183
1772563490964790000,9.3327900390625,0.0854682061880827,-0.0038931532473303375,0.014077625191211699
1772563490974858200,9.342858154296875,0.07125497191846371,0.001118263440206647,0.004834397886507213
1772563490984926200,9.35292626953125,0.06616846243441105,0.002979773862613365,0.003786715464480221
1772563490994994200,9.362994140625,0.07275543960928917,-0.006300497516850009,0.016298844904638825
1772563491005063200,9.373063232421876,0.07156126138865947,-0.01331403867388144,0.000041208793222904206
1772563491015131100,9.383131103515625,0.07725158198475837,-0.007119303086446598,-0.00876494226846844
1772563491025199000,9.39319921875,0.08383096037507057,-0.0045713813024573025,0.02430401831436902
1772563491035267000,9.40326708984375,0.08412439036369324,0.0018465320489834992,0.019846856242418286
1772563491045335300,9.413335205078125,0.06436930405795574,-0.0021382176050916313,-0.004770611935295164
1772563491055403300,9.4234033203125,0.06122925246655941,0.0059247504064813255,0.000587152238190174
1772563491065471200,9.43347119140625,0.08142740636467934,-0.0011375069967936723,0.0024278847340494392
1772563491075539200,9.443539306640625,0.0781388862133026,0.00422254959847778,0.008449994567781687
1772563491085608200,9.453608154296875,0.06691314332187176,-0.01643145830836147,-0.006368256390281021
1772563491095676200,9.46367626953125,0.0769412008613348,0.002029249938437715,-0.004289915746264159
1772563491105744100,9.473744140625,0.06481938591301441,0.0029370672320481388,-0.0035698943760246035
1772563491115812000,9.48381201171875,0.0571861145555973,-0.007358746998663991,-0.0005093377616256475
1772563491125880300,9.49388037109375,0.06376900007724762,-0.0016690109244547784,0.009265402603894472
1772563491135948300,9.5039482421875,0.06631225481927394,0.011292871577199548,0.002792626393213868
1772563491146016000,9.51401611328125,0.07619067475497722,0.005419120705593377,-0.0058212900320068
1772563491156084200,9.524084228515624,0.07529460269808769,-0.003914205168513581,0.016512779916264115
1772563491166153200,9.5341533203125,0.070510291031003,0.010952816834719851,0.006935936743021011
1772563491176221200,9.54422119140625,0.07859072163403034,-0.009599849589494988,-0.0032625454599037765
1772563491186289200,9.5542890625,0.0874199247777462,0.005763997753662988,0.008398483576253056
1772563491196357400,9.564357421875,0.09325579132437706,0.008429444970097393,-0.0016339213447645305
1772563491206425000,9.574425048828125,0.08757190046906471,-0.016852725060889497,-0.004455919962935149
1772563491216493000,9.5844931640625,0.07724865937530993,-0.003749753588112071,0.0023610665755346414
1772563491226561000,9.59456103515625,0.08293897997140884,0.006602923662681132,0.022403335792198775
1772563491236629200,9.604629150390625,0.07740063506662845,0.007338279599370435,0.009988017790019512
1772563491246698200,9.6146982421875,0.07560556834340094,-0.005226986533822492,-0.0036164003988727925
1772563491256766200,9.62476611328125,0.08832476466298103,-0.0025354002291336653,0.0066249345650896425
1772563491266834200,9.634834228515626,0.07620294971466064,0.011757712609972805,0.001525821327790618
1772563491276902100,9.644902099609375,0.06707564040720462,-0.002401316387532279,0.006369315836206078
1772563491286970000,9.65497021484375,0.07456395033597946,0.005447670946642756,0.011705416167154908
1772563491297038000,9.6650380859375,0.09506664013862609,0.00279081802861765,0.0010351152013987302
1772563491307106300,9.675106201171875,0.07486614815294743,-0.0012120426708832383,0.020455635790526866
1772563491317174300,9.68517431640625,0.07097732402086257,0.01024164549121633,0.0032744185607880352
1772563491327243000,9.695242919921874,0.06499708056747913,-0.0040550932102371,0.0006312471082434058
1772563491337311200,9.705311279296875,0.07652326771020888,-0.001480456949258223,0.009232413649745285
1772563491347379200,9.715379150390625,0.07532850496768952,-0.003987042075861245,0.004991488144360482
1772563491357447200,9.725447265625,0.08475333591699599,0.018742036805674434,0.017829598135873675
1772563491367515100,9.73551513671875,0.08235621164739132,0.0012290577377658336,0.00337692908719182
1772563491377583400,9.745583251953125,0.07622282345890999,0.015576558512076734,0.032002500395104286
1772563491387651300,9.7556513671875,0.07292553547918797,0.010417650512093677,-0.009133665983006358
1772563491397719000,9.765718994140625,0.06993161436021328,-0.002142245326237753,0.010220694034732877
1772563491407788300,9.775788330078125,0.07098200019598007,-0.004371968006528914,0.011367233721353114
1772563491417856300,9.785856201171875,0.07966624191105365,0.010261966760037466,0.015567133096605538
1772563491427924200,9.79592431640625,0.08699789997339248,0.010518535336991772,0.0010081175966188312
1772563491437992200,9.8059921875,0.08669745572209357,-0.0020475619132630527,-0.008593531224317849
1772563491448060200,9.81606005859375,0.07382862179875374,0.0007049881978891789,0.012831570652872323
1772563491458128100,9.826128173828126,0.08684767784774303,0.012879327917890622,0.017049553674086927
1772563491468196000,9.836196044921875,0.08415537002384663,-0.0014406272623687982,0.0020032295811921357
1772563491478264000,9.84626416015625,0.07921382196843624,-0.003964063059072941,0.007876030604727566
1772563491488333300,9.856333251953124,0.07891103962957859,-0.002622146930824965,0.02802610757742077
1772563491498401300,9.8664013671875,0.0693336484670639,0.001378558344207704,0.017580701408721505
1772563491508469000,9.876468994140625,0.07247837623357772,-0.012315154696488752,0.011944120293855666
1772563491518537200,9.886537109375,0.08564940797388552,-0.008341794086107983,0.015593436581641435
1772563491528605700,9.896605712890626,0.07323007138371466,-0.007710866638273001,0.01196845101751387
1772563491538673700,9.906673583984375,0.07053308738470077,0.0034983817760832607,0.007575695951282977
1772563491548741600,9.91674169921875,0.07217968554794787,0.009778256630012765,0.0013132380230352282
1772563491558810600,9.926810546875,0.07591945659816264,0.00726020939447917,0.003970255337841808
1772563491568878600,9.936878662109375,0.07801496757268905,-0.00009023556672036647,0.008471768008172512
1772563491578946600,9.946946533203125,0.07262626027166844,-0.005664373304089531,-0.0011120528951287269
1772563491589014800,9.957014892578124,0.07247370005846022,-0.001998297677747905,0.0049593029078096144
1772563491599082800,9.967082763671876,0.06319499958157539,0.0015013810062780976,0.0034466333225369452
1772563491609150700,9.977150634765625,0.08593991535305977,0.0014972436872776596,0.005192454076558351
1772563491619218700,9.98721875,0.07681202152371407,-0.003602335340902209,0.004577683179080486
1772563491629286700,9.99728662109375,0.07441606629788876,-0.002228928095847368,0.015607465106993913
1772563491639355600,10.007355712890625,0.07575812855660916,-0.0016245963939931242,-0.004979505445621908
1772563491649423600,10.017423583984375,0.07725392007231711,0.0014977094781585037,-0.0015619520870968698
1772563491659491800,10.027491943359376,0.07455868963897228,0.0035885534107219425,-0.0017087401466444135
1772563491669559800,10.037559814453125,0.08473696930408477,0.013045642661815508,0.014710954658687114
1772563491679627800,10.047627685546875,0.08084405351877212,0.009432484532799571,0.0004154489330947399
1772563491689695500,10.057695556640626,0.06379004286527633,0.005151427946425974,0.007706921115517616
1772563491699763700,10.067763671875,0.0750152012348175,0.008255522308452055,0.0011766790965571999
1772563491709831700,10.077831787109375,0.08234627477526664,-0.00035418373253196477,0.007250701780617237
1772563491719899600,10.087899658203124,0.08743629139065742,-0.0036386304969899352,-0.001503024974092841
1772563491729969000,10.097968994140626,0.0627414105951786,0.003750995697127655,-0.006364566595852375
1772563491740036600,10.10803662109375,0.08189268578886985,0.01566702240766026,-0.00399699721429497
1772563491750104600,10.1181044921875,0.05899345623850822,0.013458296849625184,0.01995886524952948
1772563491760172500,10.128172607421876,0.07859948946237563,0.00028698198152706027,0.019767470863275228
1772563491770240800,10.13824072265625,0.08293897997140884,0.0024209252703003585,0.0008704626915976405
1772563491780308700,10.148308837890625,0.07919745535552501,0.007255030895862728,0.004308912707678973
1772563491790376700,10.158376708984376,0.0717214203864336,0.010400735909910872,0.0029937384558841582
1772563491800445700,10.16844580078125,0.06049801558256149,0.00730027654338628,-0.0018519845422357319
1772563491810513700,10.178513671875,0.06902735899686813,0.0038024336234200743,-0.005772044062800705
1772563491820581600,10.18858154296875,0.07740355767607689,-0.005167091306438669,0.009848499721474944
1772563491830649600,10.198649658203125,0.07590484355092048,-0.004223499446548522,0.01945234049949795
1772563491840717800,10.2087177734375,0.07140694760978221,-0.0002678023570217192,0.009768895146623253
1772563491850785800,10.218785888671874,0.07783668839633465,0.0000830386409536004,-0.004123290475085377
1772563491860853800,10.228853759765625,0.08442658818066119,0.00011479461924172937,-0.0001793751548975706
1772563491870921700,10.238921630859375,0.08502455407381057,0.006993576081236824,0.006086699502542614
1772563491880989700,10.24898974609375,0.08861877917349338,0.008986101605324074,0.005980718377418816
1772563491891058700,10.25905859375,0.08054244022369385,-0.002728776509920135,0.004739157351106405
1772563491901126700,10.269126708984375,0.07336158880889415,0.007237148179300129,0.0019963979816064238
1772563491911194600,10.279194580078125,0.06947218015491963,0.0006370101287495345,0.006422653458639979
1772563491921262800,10.289262939453126,0.06857318548858166,0.007479752162983641,0.00687901892401278
1772563491931330600,10.29933056640625,0.06722293992340564,-0.010676264915661886,-0.005607976074889302
1772563491941398500,10.3093984375,0.06856967835724354,-0.003061269000452012,0.0049506812099367374
1772563491951466800,10.319466796875,0.0697691172748804,-0.011792162868846207,-0.004278079177998006
1772563491961535700,10.32953564453125,0.07665478513538837,0.005524371178355068,0.002876943675801158
1772563491971603700,10.339603759765625,0.07710837412178516,0.005139682709705084,0.006733911364898085
1772563491981671700,10.349671630859374,0.07905190940499306,-0.007692107138875872,-0.0001308598380535841
1772563491991739600,10.35973974609375,0.0690244363874197,-0.004013345560897142,0.02064611686132848
1772563492001807600,10.3698076171875,0.09550912320911883,-0.00444252162524499,0.013377367967367172
1772563492011875600,10.37987548828125,0.0769499686896801,-0.00838555102944374,0.0013425737153738735
1772563492021943600,10.389943603515626,0.06288169584870339,-0.009410537562472746,0.006212006382644176
1772563492032011800,10.40001171875,0.08502689216136931,0.0027891466613393276,0.020508096630126236
1772563492042079700,10.410079833984375,0.09221008166372775,-0.0003217062350362539,0.002436469899304211
1772563492052148500,10.4201484375,0.0762006116271019,-0.00016094444906339047,0.013032061661034822
1772563492062216700,10.430216796875,0.0748579648464918,-0.006695351186487823,0.015424655885994433
1772563492072284700,10.44028466796875,0.07441080560088158,-0.004987670485768467,0.010123955661989748
1772563492082352600,10.4503525390625,0.06438567067086697,-0.0062778016278520225,-0.0031435952553525567
1772563492092420600,10.460420654296875,0.06798048029243946,0.011166066859755665,0.012499781415238975
1772563492102488800,10.47048876953125,0.06753098295927047,-0.0001928648241329938,0.008152692121639847
1772563492112556800,10.480556884765624,0.06199029996693134,-0.008961734349047765,-0.009022095367312431
1772563492122625500,10.49062548828125,0.0835375303864479,-0.0046471134197898206,0.014449600308761
1772563492132693800,10.50069384765625,0.07770692453682422,-0.004237043914711102,0.008157185633666813
1772563492142761700,10.51076171875,0.0753162300080061,-0.007976796698616817,0.013157295475900173
1772563492152829700,10.52082958984375,0.07337094115912914,0.0030170097336173055,-0.009568111877515911
1772563492162897700,10.530897705078125,0.06244447347521782,-0.003080713486438617,-0.009881634806096553
1772563492172966000,10.5409658203125,0.0652858343809843,0.007617242671223357,-0.011845957149006426
1772563492183033600,10.55103369140625,0.07306698977649212,-0.0016387710498180239,-0.011838577560149133
1772563492193101600,10.5611015625,0.06453764636218548,0.004648958317004144,0.010066599451564252
1772563492203169500,10.57116943359375,0.07696107460558414,0.004264562109299003,0.009997077879309653
1772563492213238800,10.58123876953125,0.07950432934761047,-0.007715533680235967,0.0023343246990814802
1772563492223306800,10.591306640625,0.08818038775622844,0.003181041188910603,-0.01850654754936695
1772563492233374700,10.601374755859375,0.06887772139310837,0.002706619477039203,0.015226868291571735
1772563492243442700,10.611442626953124,0.08174304818511009,0.0031386542187537996,0.006284815890528261
1772563492253510700,10.6215107421875,0.09640461074411869,-0.0020475893127266317,0.025972280320152637
1772563492263578600,10.63157861328125,0.09026713090240955,0.005115580314910039,0.006644077656976878
1772563492273646600,10.641646484375,0.08039104905426502,-0.004093954782746732,-0.0002088935103267431
1772563492283714800,10.65171484375,0.06767126821279526,0.0024092348325066267,0.0010902794547379016
1772563492293783600,10.661783447265625,0.08278641975820064,0.004135373638523742,0.0021492139231413603
1772563492303851500,10.6718515625,0.07574819168448448,-0.011660599777894094,0.0005107625337317586
1772563492313919700,10.681919677734374,0.08008592862784862,-0.0023653317586984483,0.014097170141898095
1772563492323987700,10.69198779296875,0.07081248884797096,-0.0012072568979114293,0.010454977714642882
1772563492334055700,10.7020556640625,0.08547171331942081,0.0012049462098162622,0.0003373056629672646
1772563492344123600,10.71212353515625,0.08203063295483588,-0.008077590191969648,0.015010522127151489
1772563492354192000,10.72219189453125,0.07859013711214065,0.004238395621581003,-0.0017519947664812207
1772563492364259800,10.732259765625,0.08532149119377136,0.005296617703931406,0.006358684844337404
1772563492374328600,10.74232861328125,0.09325462228059768,0.01589442882221192,0.009175751559063791
1772563492384396800,10.752396728515626,0.07215922728180885,-0.011350109056616202,0.010677351761050521
1772563492394464800,10.76246484375,0.0848755009919405,0.0018226305835880338,0.018737945152446627
1772563492404532700,10.77253271484375,0.07215513562858104,0.007393790912581607,0.0025008038397878406
1772563492414600700,10.7826005859375,0.07679448586702346,0.005524179382110014,0.002176869115047157
1772563492424668700,10.792668701171875,0.07559738503694534,0.00440012552193366,0.005284406676329672
1772563492434736600,10.802736572265625,0.0763444040119648,0.008780943555198609,0.0080436787892133
1772563492444804600,10.8128046875,0.07918634943962097,0.008793793903617187,-0.00041150341033935545
1772563492454873900,10.822873779296875,0.06392565194368362,-0.001250548050366342,0.0021292671136558055
1772563492464941800,10.83294189453125,0.07200842063426971,0.005755960577679797,0.030108393744193017
1772563492475009800,10.843009765625,0.08996727117300032,0.016314827925059942,0.02411207593884319
1772563492485077500,10.853077392578125,0.08053776404857635,0.011417466071248054,0.005347973431833088
1772563492495145700,10.863145751953125,0.06063537822663784,0.015032076371833682,0.008687273922376334
1772563492505213700,10.873213623046874,0.0898158800035715,0.003162089893268421,0.00736062842849642
1772563492515281700,10.88328173828125,0.06856909383535385,0.0050978163293562825,0.0026213249469175933
1772563492525349600,10.893349609375,0.06916705972850322,0.011249708288908004,0.0029996567400172353
1772563492535418600,10.903418701171875,0.06752396869659423,0.0007935706636402755,0.01911306207515299
1772563492545486300,10.913486328125,0.08054244022369385,-0.00504230501614511,0.011178798477165401
1772563492555554600,10.923554443359375,0.06946633493602275,0.004164243539981544,-0.002853087876178324
1772563492565622500,10.93362255859375,0.06048515610098838,0.010852014208212494,0.001165061723999679
1772563492575690500,10.9436904296875,0.0794897163003683,-0.002832492612721398,0.001071392091177404
1772563492585758500,10.953758544921875,0.0853279209345579,0.00179955110209994,-0.00012410130370408296
1772563492595826700,10.96382666015625,0.06976736370921134,-0.0022213019118178636,0.020986637394689023
1772563492605894700,10.973894775390624,0.07665010896027087,-0.010303394748969004,0.0007594400651752949
1772563492615963400,10.98396337890625,0.08203940078318119,0.005598824654053897,0.00265120862852782
1772563492626031600,10.994031494140625,0.06707973206043243,0.0038336142129730432,0.022043306840769945
1772563492636099600,11.004099609375,0.06633622021675109,0.008830856244685128,0.016671806402876972
1772563492646167600,11.01416748046875,0.05885317098498344,0.009662557828472926,0.003805895088985562
1772563492656235500,11.024235595703125,0.0781564218699932,-0.0022838274877052755,-0.004034297017380595
1772563492666303700,11.0343037109375,0.07770926262438296,0.005741858987091109,-0.008936207182146608
1772563492676371500,11.044371337890626,0.05751227777004242,-0.008925904983840882,-0.006713562696613371
1772563492686439400,11.054439453125,0.07876549367904663,0.006401528472220525,0.013906871734187006
1772563492696508700,11.0645087890625,0.07532265974879264,-0.0036968178244773295,-0.00420559846367687
1772563492706576600,11.07457666015625,0.07173135725855827,0.0008224496982526034,-0.0022462080242112276
1772563492716644600,11.08464453125,0.06694120037257671,0.0047691049647983165,-0.007164996258541941
1772563492726712600,11.094712646484375,0.08295593110620975,0.005021061298716813,0.009698241063207387
1772563492736780500,11.104780517578124,0.0738297908425331,-0.0032975619743578133,0.02826996280327439
1772563492746848500,11.1148486328125,0.0825046802073717,-0.005402726693218574,0.006734130560606718
1772563492756916500,11.12491650390625,0.07098141567409039,-0.004073067258344963,-0.007082067215442657
1772563492766984400,11.134984375,0.058711716687679286,-0.00046213761903345584,0.0041147783750668165
1772563492777052700,11.145052734375,0.07517419118881224,-0.000749375328887254,0.019685162874683738
1772563492787121400,11.155121337890625,0.08519815707504749,0.008789209060044958,-0.004079012941941618
1772563492797189400,11.165189453125,0.0706844785541296,0.005963675911072642,-0.00934241336286068
1772563492807257600,11.175257568359376,0.06993804410099982,-0.009996703419974074,0.0057101943403482435
1772563492817325600,11.18532568359375,0.06709609867334365,0.0010109671408310532,0.005111022870801389
1772563492827393500,11.1953935546875,0.07817220396101475,-0.0029443098235875367,-0.010681333816424011
1772563492837461500,11.20546142578125,0.08520400229394436,0.0037602658489719032,-0.0010111863365396857
1772563492847529700,11.21552978515625,0.08700023806095122,0.0025409166544675824,0.011876242689415811
1772563492857597700,11.22559765625,0.10106734185814857,-0.003496381615241989,0.0011787614557892084
1772563492867666400,11.23566650390625,0.079372811922431,-0.008179214802384377,-0.009371018402837217
1772563492877734700,11.245734619140626,0.07129179679751396,0.002151588543318212,-0.012237842543423175
1772563492887802600,11.255802734375,0.07772679828107357,-0.002706281550321728,-0.005303184442035854
1772563492897870600,11.26587060546875,0.08086684987246989,-0.005577818398643285,0.014065861688181757
1772563492907938600,11.2759384765625,0.0703968937844038,0.002653144857287407,0.009826908944174647
1772563492918006800,11.2860068359375,0.06246610078513622,0.014218129640445113,0.002599478441290557
1772563492928074500,11.296074462890624,0.07488602189719676,-0.013223127253726125,0.018138883280754088
1772563492938142500,11.306142578125,0.08881167139708995,-0.005775094536412507,0.0030878830127418037
1772563492948211700,11.316211669921875,0.07415069335997104,-0.006538041732925921,0.005583974144794047
1772563492958279700,11.32627978515625,0.0755026924908161,0.0023906671293545513,-0.0037015579316765066
1772563492968347600,11.33634765625,0.07251110945940017,0.00905520305247046,-0.008476188454963266
1772563492978415600,11.34641552734375,0.07849310647845267,-0.011690209464868529,-0.01364306969884783
1772563492988483600,11.356483642578125,0.07699906852841377,0.006123743577301502,0.01651292604673654
1772563492998551600,11.366551513671874,0.07461071208715439,0.0003461830891668796,0.004075030886568129
1772563493008619500,11.37661962890625,0.05934767650365829,0.007880551516218111,-0.005373473199270665
1772563493018687500,11.3866875,0.06742869162857532,0.011038997280830517,-0.013594335186295211
1772563493028756700,11.3967568359375,0.07431026783585548,0.00689890180141665,0.009265877527929843
1772563493038824400,11.406824462890626,0.08657762873470783,0.0023725560839287937,0.008022416805475949
1772563493048892400,11.416892333984375,0.06996610115170479,-0.015842059314157813,-0.003303973448835313
1772563493058960400,11.42696044921875,0.0747580116033554,-0.004871971684228629,0.004097096587903797
1772563493069028600,11.437028564453126,0.07401157715022563,0.00975996292149648,0.004142104773409664
1772563493079096600,11.4470966796875,0.05680500628352165,-0.003182867819815874,0.024733714968524872
1772563493089164500,11.45716455078125,0.062192544540762895,-0.007170768412202596,0.0025781799249351024
1772563493099232800,11.467232666015626,0.07071779630184173,-0.006482621751260012,0.014230441132746637
1772563493109301500,11.477301513671875,0.09076455903053283,0.0033476664600893854,0.01586911171786487
1772563493119369500,11.487369384765625,0.07670037784278393,0.0008410539340227842,0.017663959245383738
1772563493129437400,11.4974375,0.07190963643491267,-0.00945482422877103,0.006327376390621066
1772563493139505700,11.507505615234376,0.0659305620253086,-0.00723486489066854,0.02103394713513553
1772563493149573600,11.51757373046875,0.07072130343317985,-0.006480575924646109,0.01108238889798522
1772563493159641600,11.5276416015625,0.07626257094740867,0.009230176026886328,-0.00130096306335181
1772563493169709600,11.53770947265625,0.07521510772109032,-0.011063592865969986,0.007550853770971298
1772563493179777500,11.547777587890625,0.06564297725558281,0.002493816976575181,0.003335574163496494
1772563493189845500,11.557845458984374,0.06923486426770686,0.007438461171369999,-0.0032328079087659716
1772563493199914500,11.56791455078125,0.0617523995578289,-0.003944792103022337,0.0019906988931819797
1772563493209982700,11.577982666015625,0.07761515460014343,-0.004609183429041877,0.004142177838645875
1772563493220050700,11.58805078125,0.06893325097262859,0.009182309164013714,-0.004903700263053179
1772563493230118400,11.598118408203124,0.055467620199918743,0.005714934447547421,0.002712291166000068
1772563493240186400,11.608186279296875,0.07821078240573406,-0.022948658182658253,-0.007252090020105242
1772563493250254600,11.618254638671875,0.06429273169040679,-0.002362838407512754,-0.000992664299160242
1772563493260322600,11.628322509765624,0.09272972162365913,0.007113010342977941,-0.0051970937190577386
1772563493270390500,11.638390625,0.08600245919525623,0.00842824852685444,0.013415398422814905
1772563493280459500,11.64845947265625,0.06595102029144763,-0.0033848840647842733,-0.00006539338640868664
1772563493290527500,11.658527587890624,0.07098141567409039,-0.0079998031148687,-0.021132219877839087
1772563493300595500,11.668595458984376,0.03488192828893661,0.004489219444338232,-0.02230878937654197
1772563493310663400,11.678663330078125,0.045704351076483726,0.001992470725160092,-0.04445062468834221
1772563493320731600,11.688731689453125,0.0660001201301813,-0.01825122108142823,-0.013326404965110122
1772563493330799600,11.698799560546876,0.025223288583755492,0.013500574221927672,0.023688078373111782
1772563493340867600,11.70886767578125,0.21064064625501633,-0.018633069139020516,0.04236223757434636
1772563493350935600,11.718935546875,0.17223171288371086,-0.021761238496378062,0.01301200525369495
1772563493361004500,11.729004638671874,-0.0053068742364645,-0.001254046048549935,0.01568345295265317
1772563493371072500,11.739072509765625,0.017599369576573373,-0.013815494523150845,0.0350607189219445
1772563493381140500,11.749140380859375,0.1814618980437517,-0.014435261256154627,0.05429550768062472
1772563493391208700,11.759208740234374,0.3127057669788599,-0.01642496463549323,0.10744122427161783
1772563493401276700,11.769276611328126,0.13681377802193165,0.007397864299500361,0.002334854422044009
