time,seconds_elapsed,z,y,x
1772563481693292000,0.0612919921875,-0.0026911243330687284,0.06556116789579391,0.009940248914062977
1772563481703360000,0.071360107421875,-0.0037438718136399984,0.027106985449790955,0.010044910944998264
1772563481713428200,0.08142822265625,-0.003355316584929824,-0.03611858934164047,-0.00014540860138367862
1772563481723496200,0.09149609375,-0.002284459536895156,-0.06316778063774109,-0.003096723696216941
1772563481733564200,0.101564208984375,-0.0005584649043157697,-0.03484107181429863,-0.0032083101104944944
1772563481743632100,0.111632080078125,-0.003257312346249819,0.013135509565472603,0.0037587855476886034
1772563481753700400,0.121700439453125,-0.0026988473255187273,0.036671727895736694,0.006661098450422287
1772563481763769000,0.13176904296875,-0.005302620120346546,0.02299453131854534,0.008418518118560314
1772563481773837000,0.141837158203125,0.000014647385796706658,-0.011802330613136292,0.00039707732503302395
1772563481783905300,0.1519052734375,-0.004712463356554508,-0.03801475837826729,-0.00210682675242424
1772563481793973200,0.16197314453125,-0.0052355085499584675,-0.03533242270350456,0.000966993800830096
1772563481804041200,0.172041259765625,-0.0034855452831834555,-0.0044048684649169445,0.0027830032631754875
1772563481814109200,0.182109130859375,-0.0041436124593019485,0.02093484252691269,0.005564142484217882
1772563481824178200,0.19217822265625,-0.005881591234356165,0.020127905532717705,0.005593969952315092
1772563481834246100,0.20224609375,-0.003456516657024622,-0.004239752423018217,0.0044293696992099285
1772563481844314000,0.212314208984375,-0.004865328781306744,-0.02515009418129921,0.0014737932942807674
1772563481854382300,0.22238232421875,-0.0020447750575840473,-0.029284652322530746,0.00007057376933516935
1772563481864450300,0.2324501953125,-0.00461685610935092,-0.007103183306753635,0.0009568737586960196
1772563481874518300,0.242518310546875,-0.0059596216306090355,0.01187982875853777,0.004869057331234217
1772563481884586000,0.2525859375,-0.004923386033624411,0.012002067640423775,0.00484402384608984
1772563481894655200,0.2626552734375,-0.005050951149314642,-0.0013622068800032139,0.005391835700720549
1772563481904723200,0.27272314453125,-0.001823466387577355,-0.018096977844834328,0.0008135957177728415
1772563481914791200,0.282791259765625,-0.0035577169619500637,-0.018138257786631584,0.002222674200311303
1772563481924859400,0.292859375,-0.003397660795599222,-0.006896255537867546,0.0016799219883978367
1772563481934927000,0.302927001953125,-0.0034296188969165087,0.0056861150078475475,0.002867958042770624
1772563481944995000,0.3129951171875,-0.004700212739408016,0.005402488633990288,0.0029758161399513483
1772563481955064300,0.323064208984375,-0.0034911378752440214,-0.0026162895374000072,0.005255215801298618
1772563481965132300,0.33313232421875,-0.002864762442186475,-0.014194648712873459,0.0005001416429877281
1772563481975200300,0.3432001953125,-0.004543885588645935,-0.014384797774255276,0.005426190793514252
1772563481985268200,0.353268310546875,-0.0036999296862632036,-0.00893996562808752,0.0008847020799294114
1772563481995336200,0.363336181640625,-0.004565989598631859,0.00023941817926242948,0.00430233683437109
1772563482005404200,0.373404052734375,-0.0037180392537266016,0.0024825986474752426,0.005520733073353767
1772563482015472000,0.38347216796875,-0.005544168874621391,-0.004620318301022053,0.0006340986583381891
1772563482025541000,0.393541015625,-0.0031494542490690947,-0.010929879732429981,0.005122856702655554
1772563482035609300,0.403609375,-0.0046272422187030315,-0.010036388412117958,0.001252750982530415
1772563482045677300,0.41367724609375,-0.00336090917699039,-0.008553806692361832,0.002675145398825407
1772563482055745000,0.4237451171875,-0.0033963292371481657,-0.001166198286227882,0.005613144487142563
1772563482065813000,0.43381298828125,-0.004262921866029501,0.0012381036067381501,0.0038008634001016617
1772563482075881200,0.443881103515625,-0.006853911560028791,-0.0009960222523659468,0.004886900540441275
1772563482085949200,0.45394921875,-0.0029734193813055754,-0.0028519791085273027,0.004486893769353628
1772563482096018200,0.46401806640625,-0.001886317040771246,-0.010818026959896088,0.0016964336391538382
1772563482106086100,0.474086181640625,-0.002698314841836691,-0.009614277631044388,0.0014215953415259719
1772563482116154000,0.484154052734375,-0.0041822283528745174,-0.0037417414132505655,0.0025859293527901173
1772563482126222000,0.49422216796875,-0.003981425892561674,0.0014684670604765415,0.001955559244379401
1772563482136290000,0.5042900390625,-0.0026575683150440454,-0.0016498282784596086,0.0038922098465263844
1772563482146358300,0.514358154296875,-0.004769721534103155,-0.004452539142221212,0.0031912659760564566
1772563482156427300,0.52442724609375,-0.00347435986623168,-0.009195095859467983,0.002877012826502323
1772563482166495000,0.534494873046875,-0.004803543444722891,-0.009122658520936966,0.0026224146131426096
1772563482176563200,0.544563232421875,-0.005131112411618233,-0.004254399798810482,0.0007659250986762345
1772563482186631200,0.554631103515625,-0.0057529606856405735,-0.001580319833010435,0.0017965685110539198
1772563482196699100,0.56469921875,-0.0026581010315567255,-0.000589091214351356,0.0028298748657107353
1772563482206767000,0.57476708984375,-0.0033127060160040855,-0.004857073072344065,0.0047026099637150764
1772563482216835300,0.58483544921875,-0.0044022053480148315,-0.007429686840623617,0.0018413095967844129
1772563482226904000,0.594904052734375,-0.0028999161440879107,-0.009501093067228794,0.0019180085510015488
1772563482236972000,0.604971923828125,-0.003667971817776561,-0.00703873485326767,0.0005427522119134665
1772563482247040300,0.615040283203125,-0.005712214391678572,-0.005501824431121349,0.004662129562348127
1772563482257108200,0.625108154296875,-0.002668487373739481,-0.0037617150228470564,0.004066647030413151
1772563482267176200,0.63517626953125,-0.0021912488155066967,-0.0041617220267653465,0.003763579297810793
1772563482277244200,0.645244140625,-0.0038093857001513243,-0.007183610461652279,0.005653890781104565
1772563482287313200,0.655313232421875,-0.0021781993564218283,-0.007027283310890198,0.004322843160480261
1772563482297381000,0.665381103515625,-0.0019917781464755535,-0.005529521498829126,0.0038535939529538155
1772563482307449000,0.675448974609375,-0.0013813816476613283,-0.00490314606577158,0.002043443499132991
1772563482317517300,0.685517333984375,-0.004052798729389906,-0.0029728866647928953,0.002641855739057064
1772563482327585300,0.695585205078125,-0.0033870083279907703,-0.003951864782720804,0.004936168901622295
1772563482337653200,0.7056533203125,-0.0030802120454609394,-0.005282380152493715,0.0022058964241296053
1772563482347721200,0.71572119140625,-0.002776611829176545,-0.004774515051394701,0.004987301770597696
1772563482357790200,0.725790283203125,-0.004237089306116104,0.00467651104554534,0.014331269077956676
1772563482367858200,0.735858154296875,-0.0033095101825892925,-0.019362246617674828,-0.006658701691776514
1772563482377926100,0.745926025390625,-0.002822950715199113,-0.04983013868331909,-0.014086524024605751
1772563482387994400,0.755994384765625,-0.0026735474821180105,-0.02184511162340641,0.014477742835879326
1772563482398062300,0.766062255859375,-0.006491188891232014,0.05152098089456558,0.014912370592355728
1772563482408130000,0.776130126953125,-0.005387308541685343,0.06107959896326065,0.003035471076145768
1772563482418198000,0.786197998046875,-0.004162254277616739,0.0036522590089589357,0.001898301183246076
1772563482428267300,0.796267333984375,-0.0024607607629150152,-0.060076385736465454,-0.005396896041929722
1772563482438335200,0.806335205078125,0.00045806370326317847,-0.06862007081508636,-0.000059388490626588464
1772563482448403200,0.8164033203125,-0.002918824553489685,-0.01083001121878624,0.006216883193701506
1772563482458471400,0.826471435546875,-0.0013403689954429865,0.04120948910713196,-0.000215716048842296
1772563482468539100,0.8365390625,-0.0036282907240092754,0.039676304906606674,0.007996673695743084
1772563482478607000,0.846607177734375,-0.002037850907072425,-0.0016277240356430411,0.00788508728146553
1772563482488676000,0.856676025390625,-0.0018431737553328276,-0.03640807420015335,0.000025566347176209092
1772563482498744300,0.866744384765625,-0.0022863238118588924,-0.03672312572598457,-0.0035369442775845528
1772563482508812300,0.876812255859375,-0.00216568261384964,-0.013569870963692665,-0.0010181264951825142
1772563482518880800,0.886880859375,-0.003025617217645049,0.014259896241128445,0.008923720568418503
1772563482528948700,0.89694873046875,-0.0036991306114941835,0.022968165576457977,0.007846471853554249
1772563482539016700,0.9070166015625,-0.004496747627854347,0.007241667713969946,0.005528189707547426
1772563482549085000,0.9170849609375,-0.005073321983218193,-0.01888580620288849,0.004400340840220451
1772563482559154000,0.92715380859375,-0.0031140341889113188,-0.030295588076114655,0.0030426615849137306
1772563482569221600,0.9372216796875,-0.0037020600866526365,-0.016991233453154564,0.0019294602097943425
1772563482579289900,0.947289794921875,-0.0006713828770443797,0.008185225538909435,0.0032746228389441967
1772563482589357800,0.95735791015625,-0.004337756894528866,0.013488378375768661,0.005249889567494392
1772563482599425800,0.96742578125,-0.003912449814379215,0.004550543148070574,0.0033076461404561996
1772563482609493800,0.97749365234375,-0.00455826660618186,-0.019568108022212982,-0.001258609932847321
1772563482619562000,0.98756201171875,-0.0011086739832535386,-0.01984827220439911,-0.00017177389236167073
1772563482629630700,0.997630615234375,-0.002133724745362997,-0.01034771278500557,0.0015060176374390721
1772563482639698700,1.00769873046875,-0.001258343574590981,0.001484712352976203,0.0020762004423886538
1772563482649767000,1.017766845703125,-0.003183276392519474,0.006427539046853781,0.008724515326321125
1772563482659835000,1.0278349609375,-0.001728924224153161,0.003960120491683483,0.005780390929430723
1772563482669902800,1.03790283203125,-0.004553738981485367,-0.011757856234908104,0.0018170748371630907
1772563482679970800,1.047970703125,-0.0034163030795753,-0.01655340939760208,-0.0012279836228117347
1772563482690039000,1.0580390625,-0.004500209353864193,-0.013737383298575878,0.0028759476263076067
1772563482700107800,1.068107666015625,-0.0033481260761618614,-0.0022570290602743626,0.0063031697645783424
1772563482710175700,1.07817578125,-0.004081560764461756,0.006503173150122166,0.004232029430568218
1772563482720243700,1.08824365234375,-0.004293282050639391,0.0027654264122247696,0.00803129468113184
1772563482730312000,1.09831201171875,-0.004229099955409765,-0.008749282918870449,0.001686846255324781
1772563482740380000,1.1083798828125,-0.003644269658252597,-0.01709616184234619,0.0032778186723589897
1772563482750447900,1.11844775390625,-0.003230947069823742,-0.015442073345184326,-0.0008551410282962024
1772563482760516900,1.128516845703125,-0.0029795446898788214,-0.004564391914755106,0.003026416292414069
1772563482770584800,1.138584716796875,-0.004049070179462433,0.002993126632645726,0.0033931334037333727
1772563482780652800,1.14865283203125,-0.0035396073944866657,0.000764593540225178,0.005313006229698658
1772563482790720800,1.158720703125,-0.003590740030631423,-0.004523112904280424,0.004027498420327902
1772563482800789000,1.1687890625,-0.004517253953963518,-0.013063870370388031,0.004345479886978865
1772563482810856700,1.178856689453125,-0.0036727653350681067,-0.011830294504761696,0.002008289797231555
1772563482820924700,1.188924560546875,-0.0043862261809408665,-0.006964698899537325,0.0023350596893578768
1772563482830994000,1.198993896484375,-0.0032887374982237816,-0.0020442423410713673,0.002938798163086176
1772563482841062000,1.209061767578125,-0.0031763522420078516,0.0006482133758254349,0.002989931032061577
1772563482851129900,1.2191298828125,-0.0021196098532527685,-0.0014652712270617485,0.0020578245166689157
1772563482861197800,1.22919775390625,-0.002825347473844886,-0.009502424858510494,0.001517469179816544
1772563482871265800,1.239265869140625,-0.005736182443797588,-0.01245107688009739,0.0037385455798357725
1772563482881333800,1.249333740234375,-0.002147573046386242,-0.009488310664892197,0.003906324505805969
1772563482891401700,1.259401611328125,-0.001998968655243516,-0.004059456288814545,0.0020652813836932182
1772563482901471000,1.269470947265625,-0.0043808999471366405,-0.0011739213950932026,0.00507092522457242
1772563482911539000,1.2795390625,-0.004001932218670845,-0.0019315907265990973,0.0023347933311015368
1772563482921606700,1.289606689453125,-0.005592105444520712,-0.0038506644777953625,0.002359560690820217
1772563482931674600,1.299674560546875,-0.0028607675340026617,-0.005283711478114128,0.00023808660625945777
1772563482941742800,1.309742919921875,-0.003379551460966468,-0.009652094915509224,0.004664260428398848
1772563482951810800,1.319810791015625,-0.002662894781678915,-0.005052549298852682,0.004493818152695894
1772563482961878800,1.329878662109375,-0.0036818201187998056,-0.004732171073555946,0.0001613875647308305
1772563482971948000,1.339947998046875,-0.003260241821408272,-0.0024085629265755415,0.003996605984866619
1772563482982015700,1.350015625,-0.0020809939596801996,-0.0010420948965474963,0.002838130807504058
1772563482992083700,1.360083740234375,-0.0026202842127531767,-0.006441654171794653,0.0033422671258449554
1772563483002151700,1.370151611328125,-0.0018825886072590947,-0.007449660450220108,0.0040975394658744335
1772563483012220000,1.380219970703125,-0.0034059167373925447,-0.0073567163199186325,0.002847185591235757
1772563483022288000,1.390287841796875,-0.0006860303110443056,-0.0048887645825743675,0.0023425165563821793
1772563483032356900,1.40035693359375,-0.004745486658066511,-0.006204099860042334,0.006456035189330578
1772563483042424800,1.4104248046875,-0.0007384945638477802,-0.003129746997728944,0.0044046021066606045
1772563483052492800,1.420492919921875,-0.0033997914288192987,-0.004603806417435408,0.0054847802966833115
1772563483062560800,1.430560791015625,-0.0025007082149386406,-0.003177151083946228,0.003019491909071803
1772563483072628700,1.440628662109375,-0.004002464935183525,-0.00427091121673584,0.003849865635856986
1772563483082697000,1.450697021484375,-0.0026937874499708414,-0.0048797097988426685,0.002773415995761752
1772563483092765000,1.460764892578125,-0.0021819279063493013,-0.00666535971686244,0.003612045431509614
1772563483102833700,1.470833740234375,-0.003233343828469515,-0.007988417521119118,0.004831506870687008
1772563483112901600,1.480901611328125,-0.002778475871309638,-0.005346029531210661,0.00315984059125185
1772563483122969900,1.490969970703125,-0.00003435477628954686,-0.0026402578223496675,0.0020908478181809187
1772563483133037800,1.501037841796875,-0.0027744811959564686,-0.005109274294227362,0.003926032222807407
1772563483143105800,1.511105712890625,-0.004611263517290354,-0.0034061830956488848,0.000570981705095619
1772563483153174000,1.521174072265625,-0.003064233111217618,-0.0020543625578284264,0.0032027175184339285
1772563483163242000,1.531241943359375,-0.0022892532870173454,-0.00583738274872303,0.0011808456620201468
1772563483173310700,1.541310791015625,-0.004089550115168095,-0.005928462836891413,0.0037502634804695845
1772563483183378700,1.551378662109375,-0.0057479003444314,-0.00563950976356864,0.0018279937794432044
1772563483193447000,1.561447021484375,-0.004816060420125723,-0.006000634748488665,0.005018460564315319
1772563483203515000,1.571514892578125,-0.0033036512322723866,-0.0034730283077806234,0.006205165293067694
1772563483213582800,1.581582763671875,-0.002043709857389331,-0.003912183456122875,0.005328985396772623
1772563483223650800,1.59165087890625,-0.004059189930558205,-0.005790511146187782,0.0030189594253897667
1772563483233719800,1.6017197265625,-0.003147856332361698,-0.0051750545389950275,0.006292250473052263
1772563483243787800,1.611787841796875,-0.003369963960722089,-0.006563893053680658,0.004037884995341301
1772563483253855700,1.621855712890625,-0.002998719457536936,-0.006570817437022924,0.004560663364827633
1772563483263924000,1.631924072265625,-0.002109756227582693,-0.005858421791344881,0.003254116512835026
1772563483273992000,1.641991943359375,-0.003162503708153963,-0.003754524514079094,0.0021856562234461308
1772563483284059600,1.6520595703125,-0.005253617651760578,-0.0028543761000037193,0.0073324814438819885
1772563483294127600,1.662127685546875,-0.0018543590558692813,-0.0038008634001016617,0.002971555106341839
1772563483304196900,1.67219677734375,0.00007004113285802305,-0.005842176266014576,0.004290086217224598
1772563483314264800,1.682264892578125,-0.0036788906436413527,-0.006258694920688868,0.0010050770360976458
1772563483324332800,1.692332763671875,-0.005309277679771185,-0.005904227960854769,0.0036514601670205593
1772563483334400800,1.70240087890625,-0.005732986610382795,-0.0037499971222132444,0.003307912265881896
1772563483344468700,1.71246875,-0.004040814470499754,-0.003344397759065032,0.0041002025827765465
1772563483354536700,1.72253662109375,-0.002153431996703148,-0.004993693437427282,-0.00016458335448987782
1772563483364604700,1.732604736328125,-0.003201119601726532,-0.003756654914468527,0.00529702752828598
1772563483374674000,1.742673828125,-0.0024682176299393177,-0.006312756799161434,0.0019068233668804169
1772563483384742000,1.752741943359375,-0.005774265620857477,-0.00788295641541481,-0.00009161273919744417
1772563483394809600,1.7628095703125,-0.003120425855740905,-0.003847202518954873,0.0027561055030673742
1772563483404877800,1.7728779296875,-0.002189118415117264,-0.003151052165776491,0.005283178761601448
1772563483414945800,1.78294580078125,-0.0027363980188965797,-0.0028210864402353764,0.003722300287336111
1772563483425013800,1.793013671875,0.0004905542591586709,-0.003325489116832614,-0.00022397184511646628
1772563483435083000,1.8030830078125,-0.004172108136117458,-0.0033547841012477875,-0.0002950782363768667
1772563483445151000,1.81315087890625,-0.002921487670391798,-0.004727909807115793,0.00472524669021368
1772563483455218700,1.82321875,-0.00290391081944108,-0.006031260825693607,0.002522812457755208
1772563483465286700,1.83328662109375,-0.005488774739205837,-0.004878911189734936,0.002769953804090619
1772563483475355000,1.84335498046875,-0.0038802255876362324,-0.005589442327618599,0.0005688511882908642
1772563483485422800,1.8534228515625,-0.0051992894150316715,-0.004487692844122648,0.0015534218400716782
1772563483495490800,1.86349072265625,-0.001627191435545683,-0.005019792355597019,0.0031039142049849033
1772563483505559800,1.873559814453125,-0.0031936627347022295,-0.00777669670060277,0.004852545913308859
1772563483515627800,1.883627685546875,-0.0032434638123959303,-0.005804359447211027,0.0028514466248452663
1772563483525696000,1.893696044921875,-0.0048424256965518,-0.006789196282625198,0.005350290797650814
1772563483535764000,1.903763916015625,-0.005757487844675779,-0.006951116491109133,0.00210709311068058
1772563483545832000,1.91383203125,-0.004028297495096922,-0.00507039250805974,0.003484213724732399
1772563483555900000,1.92389990234375,-0.0026370619889348745,-0.0023361248895525932,0.002734001260250807
1772563483565968100,1.933968017578125,-0.0021971079986542463,-0.00430286955088377,0.0014106763992458582
1772563483576036900,1.944036865234375,-0.0034791536163538694,-0.004969192203134298,0.0028605014085769653
1772563483586104800,1.954104736328125,-0.004145210143178701,-0.007122091483324766,0.004863198380917311
1772563483596173000,1.964173095703125,-0.002935868687927723,-0.007428088691085577,0.0030186930671334267
1772563483606241000,1.974240966796875,-0.00452817277982831,-0.004594751633703709,0.003707919269800186
1772563483616309000,1.98430908203125,-0.0033987262286245823,-0.002778742229565978,0.006274673622101545
1772563483626377000,1.994376953125,-0.0018229337874799967,-0.00583685003221035,0.004673847462981939
1772563483636445000,2.00444482421875,-0.004920456558465958,-0.006734068971127272,0.0027446537278592587
1772563483646514000,2.014513916015625,-0.0044259075075387955,-0.0043926178477704525,-0.000969656917732209
1772563483656582000,2.024581787109375,-0.003147589974105358,-0.007606787141412497,0.004277569241821766
1772563483666649900,2.03464990234375,-0.002948385663330555,-0.005072256550192833,0.001755023142322898
1772563483676718000,2.044718017578125,-0.002671416848897934,-0.005369198974221945,0.007358314003795385
1772563483686786000,2.0547861328125,-0.002784334821626544,-0.003689543344080448,-0.00037497308221645653
1772563483696853800,2.064853759765625,-0.000708134553860873,-0.0027289411518722773,0.0015425028977915645
1772563483706923000,2.074923095703125,-0.0027973842807114124,-0.0062736086547374725,0.002588059986010194
1772563483716991000,2.084990966796875,-0.002892725635319948,-0.005880792159587145,0.003325489116832614
1772563483727059000,2.095058837890625,-0.00552126532420516,-0.006429936271160841,0.004451207350939512
1772563483737127000,2.105126953125,-0.0044144559651613235,-0.004913798533380032,0.00043809000635519624
1772563483747195000,2.11519482421875,-0.0030567762441933155,-0.005509813781827688,0.002132659312337637
1772563483757262800,2.125262939453125,-0.0026431872975081205,-0.004010720644146204,0.00018748654110822827
1772563483767330800,2.135330810546875,-0.002766491612419486,-0.0037955371662974358,0.003410177771002054
1772563483777400000,2.145400146484375,-0.0028309402987360954,-0.0046967510133981705,0.004285026341676712
1772563483787468000,2.155468017578125,-0.003178216516971588,-0.004337224178016186,0.0026607641484588385
1772563483797536000,2.165535888671875,-0.0030128341168165207,-0.004009388852864504,0.005752161610871553
1772563483807603700,2.175603759765625,-0.0015864450251683593,-0.006809703074395657,0.0020591560751199722
1772563483817672000,2.185671875,-0.0029904635157436132,-0.005537510849535465,0.0012977584265172482
1772563483827740000,2.195739990234375,-0.0020367854740470648,-0.003828826593235135,0.004332962911576033
1772563483837807900,2.205807861328125,-0.004278901033103466,-0.004293282050639391,0.0028101676143705845
1772563483847877000,2.215877197265625,-0.00461658975109458,-0.00580702256411314,0.003165699541568756
1772563483857945000,2.225945068359375,-0.001749430550262332,-0.0016900419723242521,0.003982490859925747
1772563483868012800,2.2360126953125,-0.0020269318483769894,-0.0038690404035151005,0.004622448701411486
1772563483878080800,2.246080810546875,-0.003060770919546485,-0.006403038278222084,0.0010341054294258356
1772563483888149000,2.25614892578125,-0.002008556155487895,-0.004792358260601759,0.0043747746385633945
1772563483898217000,2.266217041015625,-0.0044229780323803425,-0.006770820822566748,-0.0005137237603776157
1772563483908286000,2.276285888671875,-0.0010852381819859147,-0.005646966863423586,0.0019342538435012102
1772563483918354000,2.28635400390625,-0.004222441930323839,-0.007435545790940523,0.0005848301807418466
1772563483928422000,2.296421875,-0.0013289173366501927,-0.0041095237247645855,0.004659200087189674
1772563483938489900,2.30648974609375,-0.0032461269292980433,-0.00558118661865592,0.0022602248936891556
1772563483948557800,2.316557861328125,-0.0023009711876511574,-0.005467736162245274,0.0034490597900003195
1772563483958626000,2.3266259765625,-0.0024525050539523363,-0.0065103634260594845,0.0006671218434348702
1772563483968694000,2.336694091796875,-0.002344913315027952,-0.0057007623836398125,0.0028008464723825455
1772563483978762800,2.3467626953125,-0.005519134923815727,-0.0049510826356709,0.003897269954904914
1772563483988831000,2.3568310546875,-0.0018192053539678454,-0.004064782522618771,0.002335592173039913
1772563483998899000,2.36689892578125,-0.0034935346338897943,-0.007238205522298813,0.0024767396971583366
1772563484008967000,2.376966796875,-0.005306082312017679,-0.007846471853554249,0.0032474587205797434
1772563484019035000,2.387034912109375,-0.004369714763015509,-0.007518370170146227,0.003915379289537668
1772563484029103000,2.39710302734375,-0.0015121428295969963,-0.004309793468564749,0.002177666872739792
1772563484039171000,2.407171142578125,-0.0026160231791436672,-0.004552940372377634,0.0031004520133137703
1772563484049239800,2.41723974609375,-0.0030301446095108986,-0.0033955303952097893,0.0014231932582333684
1772563484059307800,2.427307861328125,-0.0009928264189511538,-0.004120708908885717,0.005798234138637781
1772563484069376000,2.4373759765625,-0.004752411041408777,-0.005824865773320198,0.0007520766812376678
1772563484079444000,2.44744384765625,-0.002939330879598856,-0.00475507415831089,0.002810966456308961
1772563484089512000,2.457511962890625,-0.0027952538803219795,-0.007784686051309109,0.0023369237314909697
1772563484099580200,2.467580078125,-0.003802727675065398,-0.0060179452411830425,0.0020098877139389515
1772563484109648000,2.47764794921875,-0.0046240463852882385,-0.00626002624630928,0.0023015039041638374
1772563484119716900,2.487716796875,-0.0020128171890974045,-0.005849367007613182,0.0007113303290680051
1772563484129784800,2.497784912109375,-0.005403287708759308,-0.005151885095983744,0.003126551164314151
1772563484139853000,2.50785302734375,-0.0014618091518059373,-0.006668555550277233,0.0029971215408295393
1772563484149921000,2.517921142578125,-0.001517735538072884,-0.005173723213374615,0.0013603427214547992
1772563484159989000,2.527989013671875,-0.003995274193584919,-0.005782255437225103,0.003385410411283374
1772563484170056700,2.538056640625,-0.004719121381640434,-0.005736182443797588,0.00381417921744287
1772563484180126000,2.5481259765625,-0.00376064982265234,-0.004816326778382063,0.0029854036401957273
1772563484190194000,2.55819384765625,-0.003625627374276519,-0.004546282347291708,0.002785133896395564
1772563484200262000,2.568261962890625,-0.0034549187403172255,-0.004998220596462488,0.0016492956783622503
1772563484210330000,2.578330078125,-0.0020152139477431774,-0.003930293023586273,0.0008948221220634878
1772563484220397800,2.588397705078125,-0.0007888282998465002,-0.0043859598226845264,0.0038695731200277805
1772563484230465800,2.5984658203125,-0.001978995045647025,-0.0032527849543839693,0.0031188279390335083
1772563484240533800,2.60853369140625,-0.003132942598313093,-0.005091431550681591,0.0035121769178658724
1772563484250603000,2.61860302734375,-0.0034173682797700167,-0.005490372888743877,-0.0009829727932810783
1772563484260671000,2.6286708984375,-0.001916144392453134,-0.002945189829915762,0.004079164005815983
1772563484270739000,2.638739013671875,-0.002174737397581339,-0.005130046978592873,0.00444055488333106
1772563484280807000,2.648806884765625,-0.0009235842735506594,-0.0034173682797700167,-0.0008676578872837126
1772563484290875000,2.658875,-0.004454136826097965,-0.005331914871931076,0.0025590313598513603
1772563484300942800,2.66894287109375,-0.006345247384160757,-0.004138019867241383,0.000568052229937166
1772563484311010800,2.6790107421875,-0.004295945167541504,-0.006756706163287163,0.003477822057902813
1772563484321080000,2.689080078125,-0.0008141283178701997,-0.005674929823726416,0.000592020689509809
1772563484331148000,2.69914794921875,-0.00538571085780859,-0.004770254250615835,0.0008250473183579743
1772563484341215700,2.7092158203125,-0.0031017838045954704,-0.005380384158343077,0.0005840312223881483
1772563484351284000,2.719283935546875,-0.004193413536995649,-0.00410419749096036,0.004751345608383417
1772563484361352000,2.72935205078125,-0.0018602180061861873,-0.0035095135681331158,0.0014777880860492587
1772563484371420000,2.739419921875,-0.0031529164407402277,-0.005024053156375885,-0.0015270565636456013
1772563484381489200,2.7494892578125,-0.0036400086246430874,-0.005855225957930088,0.0014109427575021982
1772563484391556900,2.759556884765625,-0.004584365524351597,-0.0060445768758654594,0.0018871158827096224
1772563484401624800,2.769624755859375,-0.0028573055751621723,-0.0038211036007851362,0.004180630203336477
1772563484411692800,2.77969287109375,-0.0035230957437306643,-0.005618204362690449,0.00024101608141791075
1772563484421761000,2.789760986328125,-0.0034229608718305826,-0.00392896169796586,0.0020722055342048407
1772563484431829000,2.7998291015625,-0.0018796591321006417,-0.004597414750605822,0.003433347214013338
1772563484441897000,2.80989697265625,-0.001788312685675919,-0.006596916355192661,0.003856523660942912
1772563484451966000,2.819966064453125,-0.0047031426802277565,-0.005691441707313061,0.0032168321777135134
1772563484462034000,2.830033935546875,-0.0030684941448271275,-0.004612861201167107,0.0025782061275094748
1772563484472102000,2.840101806640625,-0.003579554846510291,-0.007537011988461018,0.0007611314067617059
1772563484482169900,2.850169921875,-0.00544403400272131,-0.0064831990748643875,0.004222974646836519
1772563484492238000,2.860238037109375,-0.004373443312942982,-0.00498224189504981,0.0020184097811579704
1772563484502306000,2.87030615234375,-0.0033332123421132565,-0.00469541922211647,0.0012159993639215827
1772563484512373500,2.88037353515625,-0.0032088428270071745,-0.007949535734951496,0.005073321983218193
1772563484522442500,2.8904423828125,-0.0017363809747621417,-0.004317782819271088,0.001999235013499856
1772563484532510500,2.900510498046875,-0.002924150787293911,-0.0073173013515770435,0.003611512714996934
1772563484542578400,2.910578369140625,-0.002686064224690199,-0.006910103838890791,0.005876531358808279
1772563484552646700,2.920646728515625,-0.001716673607006669,-0.005596366710960865,-0.00002103897168126423
1772563484562714600,2.930714599609375,-0.0016378440195694566,-0.005279982928186655,0.002341717481613159
1772563484572782600,2.940782470703125,-0.00424401368945837,-0.0033811493776738644,-0.0003251719754189253
1772563484582851600,2.9508515625,-0.0033904702868312597,-0.006143379956483841,0.004893558565527201
1772563484592919600,2.96091943359375,-0.002288188086822629,-0.003954527899622917,0.0018647453980520368
1772563484602987500,2.970987548828125,-0.0005289037944748998,-0.005311674904078245,0.000978711643256247
1772563484613055500,2.981055419921875,-0.0041641187854111195,-0.004444815684109926,0.002755040070042014
1772563484623123700,2.991123779296875,-0.0029555761720985174,-0.005244030617177486,0.0007651261985301971
1772563484633191700,3.001191650390625,-0.003686347510665655,-0.0024200144689530134,0.0021576930303126574
1772563484643259600,3.011259765625,-0.001859419047832489,-0.006585997529327869,0.0031334753148257732
1772563484653327400,3.021327392578125,-0.001555552356876433,-0.0052203284576535225,0.003463174682110548
1772563484663396600,3.031396728515625,-0.0027563716284930706,-0.0062768044881522655,0.006089051254093647
1772563484673464600,3.041464599609375,-0.0037092508282512426,-0.003954527899622917,0.0018527611391618848
1772563484683532500,3.051532470703125,-0.0017558221006765962,-0.002829076023772359,0.0070216902531683445
1772563484693600800,3.061600830078125,-0.004132959526032209,-0.0038456046022474766,0.0029973878990858793
1772563484703668500,3.07166845703125,-0.003687146585434675,-0.0030013825744390488,0.005048288032412529
1772563484713736400,3.081736328125,-0.004707137122750282,-0.005571865476667881,0.003460777923464775
1772563484723805700,3.0918056640625,-0.003468767274171114,-0.005005677696317434,0.0020780644845217466
1772563484733873700,3.101873779296875,-0.0025595640763640404,-0.0046394928358495235,0.0016591493040323257
1772563484743941600,3.111941650390625,-0.002055960241705179,-0.004229632206261158,0.0028692898340523243
1772563484754009600,3.122009521484375,-0.004467186518013477,-0.004742290824651718,0.0017475662752985954
1772563484764077600,3.13207763671875,-0.004028830211609602,-0.005224589258432388,0.003771835006773472
1772563484774145500,3.1421455078125,-0.004200071096420288,-0.004056793171912432,0.003893541404977441
1772563484784213500,3.152213623046875,-0.0036996633280068636,-0.004322044085711241,0.0026911243330687284
1772563484794282800,3.16228271484375,-0.004140949342399836,-0.00561101408675313,0.0044200485572218895
1772563484804350700,3.172350830078125,-0.0031675638165324926,-0.007741276640444994,0.0016290555940940976
1772563484814418400,3.18241845703125,-0.0027385284192860126,-0.003727360162883997,0.0006130596739239991
1772563484824486400,3.192486328125,-0.0028447885997593403,-0.004858138505369425,0.0016245282022282481
1772563484834554600,3.2025546875,-0.0043590618297457695,-0.006731405854225159,0.006851514335721731
1772563484844622600,3.21262255859375,-0.0025212145410478115,-0.003826696192845702,0.0019824570044875145
1772563484854690600,3.222690673828125,-0.004835501778870821,-0.004054929129779339,0.004920190200209618
1772563484864759600,3.232759521484375,-0.00028762139845639467,-0.005167597904801369,0.0028698223177343607
1772563484874827500,3.24282763671875,-0.0020636834669858217,-0.0058656120672822,0.00552233075723052
1772563484884895500,3.2528955078125,-0.004354801028966904,-0.0038421424105763435,0.00315930787473917
1772563484894963500,3.26296337890625,-0.004756405483931303,-0.004476773552596569,0.0006325007416307926
1772563484905031400,3.273031494140625,-0.002157160546630621,-0.004978513345122337,0.004098338540643454
1772563484915099600,3.283099609375,-0.0023574302904307842,-0.002925216220319271,0.0031411985401064157
1772563484925167600,3.293167724609375,-0.00250470289029181,-0.0046637277118861675,-0.000517718493938446
1772563484935236400,3.303236328125,0.00006231796578504145,-0.004450940992683172,0.003478354774415493
1772563484945304600,3.3133046875,-0.0027116306591778994,-0.004776911810040474,0.000702009245287627
1772563484955372500,3.32337255859375,-0.003916444722563028,-0.006444583646953106,0.0031396006233990192
1772563484965440500,3.3334404296875,-0.004169178660959005,-0.004186222795397043,0.0020652813836932182
1772563484975508500,3.343508544921875,-0.0025891251862049103,-0.006806773599237204,0.004192081745713949
1772563484985576700,3.35357666015625,-0.0030541131272912025,-0.004781705792993307,0.0019214707426726818
1772563484995645400,3.3636455078125,-0.004751345608383417,-0.005345496814697981,0.0021409152541309595
1772563485005713400,3.37371337890625,-0.003114300547167659,-0.0057036918587982655,0.003599528456106782
1772563485015781600,3.38378173828125,-0.0030897995457053185,-0.0036075180396437645,0.003073021536692977
1772563485025849600,3.393849609375,-0.0029667613562196493,-0.004351871553808451,0.0032487902790308
1772563485035917600,3.40391748046875,-0.0035654399544000626,-0.0067511131055653095,0.004620051942765713
1772563485045985500,3.413985595703125,-0.003457315731793642,-0.005792907904833555,0.0011108045000582933
1772563485056053800,3.4240537109375,-0.0031015174463391304,-0.00672341650351882,0.004780374001711607
1772563485066122500,3.43412255859375,-0.004728708881884813,-0.006355101242661476,0.003055444685742259
1772563485076190500,3.4441904296875,-0.0017422399250790477,-0.004169445019215345,-0.001546763931401074
1772563485086258700,3.4542587890625,-0.0036008600145578384,-0.006329801399260759,0.0013648699969053268
1772563485096326700,3.46432666015625,-0.0021518340799957514,-0.004618720151484013,0.001859419047832489
1772563485106394600,3.47439453125,-0.0041223070584237576,-0.0018096179701387882,0.002930009737610817
1772563485116462600,3.484462646484375,-0.0033840788528323174,-0.006432333029806614,0.005308212712407112
1772563485126530600,3.494530517578125,-0.0027382622938603163,-0.005138569511473179,0.006687463726848364
1772563485136599600,3.504599609375,-0.003278883872553706,-0.0028964539524167776,0.0011832424206659198
1772563485146667500,3.51466748046875,-0.004324174486100674,-0.006421946454793215,0.0006191849242895842
1772563485156735700,3.52473583984375,-0.0015949672088027,-0.004729773849248886,0.002251702593639493
1772563485166803700,3.5348037109375,-0.0028298748657107353,-0.006362025626003742,0.000565389113035053
1772563485176871400,3.544871337890625,-0.004629106726497412,-0.006422745529562235,0.0038980687968432903
1772563485186939400,3.554939453125,-0.0019118833588436246,-0.005857356358319521,0.0030338731594383717
1772563485197007600,3.565007568359375,-0.005663478281348944,-0.005337773822247982,0.004348143003880978
1772563485207076600,3.57507666015625,-0.0008175904513336718,-0.005486644338816404,-0.000005060006060375599
1772563485217144600,3.58514453125,-0.004289020784199238,-0.0027361316606402397,0.003603257006034255
1772563485227212500,3.595212646484375,-0.0052259210497140884,-0.004719121381640434,0.004269579891115427
1772563485237280500,3.605280517578125,-0.0031502533238381147,-0.00441019469872117,0.0035542547702789307
1772563485247348500,3.615348388671875,-0.004063983913511038,-0.006936735473573208,0.0025840650778263807
1772563485257416400,3.62541650390625,-0.003421629313379526,-0.004772917367517948,0.004033890087157488
1772563485267484700,3.635484619140625,-0.0034557178150862455,-0.005403819959610701,0.0032439965289086103
1772563485277553700,3.6455537109375,-0.0036216326989233494,-0.003961718175560236,0.0016492956783622503
1772563485287621400,3.655621337890625,-0.0030983216129243374,-0.007056844420731068,0.0015267902053892612
1772563485297689300,3.665689453125,-0.0020604876335710287,-0.00495054991915822,0.002329733222723007
1772563485307757600,3.675757568359375,-0.004357197787612677,-0.0036940707359462976,0.0010554107138887048
1772563485317825500,3.685825439453125,-0.0027944548055529594,-0.0044259075075387955,0.0010998855577781796
1772563485327893500,3.6958935546875,-0.005252286326140165,-0.005006476305425167,0.0021433120127767324
1772563485337961700,3.705961669921875,-0.0030740867368876934,-0.007358580362051725,0.006579605862498283
1772563485348030500,3.716030517578125,-0.0034975295420736074,-0.003832288784906268,0.0014927018200978637
1772563485358098400,3.726098388671875,-0.0020359866321086884,-0.005161472596228123,0.00017683389887679368
1772563485368166400,3.73616650390625,-0.001984853995963931,-0.007626228034496307,0.0038900794461369514
1772563485378234600,3.746234619140625,-0.00270630419254303,-0.006668821442872286,0.0015078817959874868
1772563485388302600,3.756302490234375,-0.0023065637797117233,-0.00803395826369524,0.002724946476519108
1772563485398370600,3.76637060546875,-0.005579588934779167,-0.005072789266705513,0.004540157038718462
1772563485408439600,3.776439453125,-0.0026144252624362707,-0.006758570205420256,0.0026146916206926107
1772563485418507500,3.786507568359375,-0.0031515848822891712,-0.005782788153737783,0.0041039311327040195
1772563485428575500,3.796575439453125,-0.0038059235084801912,-0.006391853094100952,0.004255198873579502
1772563485438643500,3.8066435546875,-0.0046940878964960575,-0.0034000577870756388,0.0057404437102377415
1772563485448711700,3.816711669921875,-0.005529787857085466,-0.005738579668104649,0.003489007242023945
1772563485458779600,3.826779541015625,-0.0037923413328826427,-0.005489307455718517,0.00577852688729763
1772563485468847600,3.83684765625,-0.0030866037122905254,-0.0029047098942101,0.002112419344484806
1772563485478916600,3.84691650390625,-0.004610997159034014,-0.004506068304181099,0.004713795147836208
1772563485488984600,3.856984619140625,-0.0008426241693086922,-0.0060293967835605145,0.002326271263882518
1772563485499052500,3.867052490234375,-0.0025454494170844555,-0.005938583053648472,0.0032748891972005367
1772563485509120500,3.87712060546875,-0.001812014845199883,-0.003882089862599969,0.0007337008719332516
1772563485519189000,3.88718896484375,-0.002921754028648138,-0.00577959232032299,0.004673581570386887
1772563485529257000,3.897257080078125,-0.0034416031558066607,-0.005225654691457748,0.0037476003635674715
1772563485539325000,3.907324951171875,-0.0025268071331083775,-0.0037835529074072838,0.0036373452749103308
1772563485549394200,3.917394287109375,-0.0023009711876511574,-0.0030890004709362984,0.005910885985940695
1772563485559462100,3.927462158203125,-0.001784850494004786,-0.006247243378311396,0.0016130766598507762
1772563485569530000,3.937530029296875,-0.004336957819759846,-0.004011519718915224,0.002939863596111536
1772563485579598000,3.94759814453125,-0.003320429241284728,-0.005253617651760578,0.004316451493650675
1772563485589666000,3.957666015625,-0.004489823244512081,-0.005655222572386265,0.003456783015280962
1772563485599734000,3.967734130859375,-0.003297259798273444,-0.004005128052085638,0.0006804376607760787
1772563485609802000,3.977802001953125,-0.0019539613276720047,-0.003373159794136882,0.00449941074475646
1772563485619871200,3.987871337890625,-0.0020455741323530674,-0.006175071466714144,0.004721784498542547
1772563485629939200,3.997939208984375,-0.00398621940985322,-0.005949235521256924,0.003023753175511956
1772563485640007000,4.0080068359375,-0.0029944581910967827,-0.003999002743512392,0.0021081583108752966
1772563485650075100,4.0180751953125,-0.0032581111881881952,-0.005569735076278448,0.004518585279583931
1772563485660143000,4.02814306640625,-0.002689526416361332,-0.006353503558784723,0.0015704660909250379
1772563485670211000,4.038211181640625,-0.0004964132094755769,-0.006776147056370974,0.0029084382113069296
1772563485680279000,4.048279052734375,-0.003481017891317606,-0.0030003173742443323,0.006521814968436956
1772563485690348000,4.05834814453125,-0.0011486213188618422,-0.004816859494894743,0.0033835461363196373
1772563485700416000,4.068416015625,-0.004037085920572281,-0.0059721386060118675,0.005404352676123381
1772563485710484000,4.07848388671875,-0.003171025775372982,-0.006780141964554787,0.0031273500062525272
1772563485720552200,4.08855224609375,-0.00589543953537941,-0.008013717830181122,0.0006229133578017354
1772563485730620200,4.0986201171875,-0.002919090911746025,-0.005310609471052885,0.0037297571543604136
1772563485740688100,4.108688232421875,-0.002540122950449586,-0.003991812001913786,0.0005808354471810162
1772563485750756000,4.118756103515625,-0.0028698223177343607,-0.006098638754338026,0.003826962551102042
1772563485760825000,4.1288251953125,-0.002817091764882207,-0.005051750224083662,0.0037388119380921125
1772563485770893000,4.13889306640625,-0.0036245621740818024,-0.004570250865072012,0.0024138891603797674
1772563485780961000,4.1489609375,-0.002025600289925933,-0.006554838269948959,0.003937750123441219
1772563485791029200,4.159029296875,-0.0016460998449474573,-0.00418382603675127,0.0026644926983863115
1772563485801097200,4.16909716796875,-0.004308195784687996,-0.005526592023670673,0.004148139618337154
1772563485811165200,4.179165283203125,-0.0046568033285439014,-0.002843989757820964,0.0037004624027758837
1772563485821233200,4.189233154296875,-0.0020418455824255943,-0.006712763570249081,0.004576376173645258
1772563485831302100,4.19930224609375,-0.0038013961166143417,-0.004393949639052153,0.00008309062832267955
1772563485841370000,4.2093701171875,-0.003023753175511956,-0.00498197553679347,0.0017086841398850083
1772563485851438000,4.21943798828125,-0.0016447682864964008,-0.005139368120580912,0.0031334753148257732
1772563485861506000,4.229506103515625,-0.004067446105182171,-0.007877097465097904,0.0027145601343363523
1772563485871574300,4.23957421875,-0.0011622034944593906,-0.006213154643774033,0.0006588660762645304
1772563485881642000,4.24964208984375,-0.0046911584213376045,-0.004046939779073,0.0015590144321322441
1772563485891710000,4.2597099609375,-0.003216033335775137,-0.004744155332446098,0.0026165556628257036
1772563485901779200,4.269779296875,-0.001924932817928493,-0.006359362509101629,0.003064499469473958
1772563485911847200,4.27984716796875,-0.0030799456872045994,-0.005586779210716486,0.0015507587231695652
1772563485921915100,4.2899150390625,-0.0034232272300869226,-0.003998470026999712,0.004281564150005579
1772563485931983000,4.299983154296875,-0.0035603800788521767,-0.004258926957845688,0.003834951901808381
1772563485942051000,4.310051025390625,-0.0029459886718541384,-0.0028581044171005487,0.0023089605383574963
1772563485952119000,4.320119140625,-0.0030543794855475426,-0.0068272799253463745,0.0017744642682373524
1772563485962187000,4.33018701171875,-0.002168079372495413,-0.00561021501198411,0.0019046928500756621
1772563485972256300,4.34025634765625,-0.004514324478805065,-0.003156644757837057,0.0026080335956066847
1772563485982324200,4.35032421875,-0.004319114610552788,-0.0038725025951862335,0.0031135017052292824
1772563485992392000,4.360391845703125,-0.004595817066729069,-0.004087419714778662,0.005548429675400257
1772563486002460000,4.3704599609375,-0.0021260015200823545,-0.0029497172217816114,0.002174737397581339
1772563486012528000,4.380528076171875,-0.004798483569175005,-0.0060182115994393826,0.0038746329955756664
1772563486022596000,4.39059619140625,-0.003692472819238901,-0.0029523803386837244,0.004240817856043577
1772563486032664000,4.4006640625,-0.0023995081428438425,-0.0059811933897435665,0.0028610338922590017
1772563486042733300,4.4107333984375,-0.0040456079877913,-0.004756938200443983,0.005815810989588499
1772563486052801000,4.420801025390625,-0.003410177771002054,-0.005573996342718601,0.0022034994326531887
1772563486062869000,4.430868896484375,-0.0026581010315567255,-0.0032519858796149492,0.0051867724396288395
1772563486072937000,4.44093701171875,-0.0028240159153938293,-0.005050152540206909,0.0023646207991987467
1772563486083005200,4.451005126953125,-0.0038807583041489124,-0.007552991155534983,0.0017504957504570484
1772563486093073200,4.4610732421875,-0.006368417292833328,-0.006161223165690899,0.0022897860035300255
1772563486103141000,4.47114111328125,-0.002956907730549574,-0.000984836951829493,0.0023883229587227106
1772563486113210000,4.481210205078125,-0.004710865672677755,-0.005198223982006311,0.0018253305461257696
1772563486123278000,4.491278076171875,-0.0018407768802717328,-0.005569202359765768,0.005000883713364601
1772563486133346000,4.501345947265625,-0.004210990387946367,-0.004933505784720182,0.002257561543956399
1772563486143414000,4.5114140625,-0.0027798074297606945,-0.004565456882119179,0.004310592543333769
1772563486153482200,4.521482177734375,-0.0060357884503901005,-0.0062309978529810905,0.003939614165574312
1772563486163550200,4.53155029296875,-0.002936667762696743,-0.00452684098854661,0.001525991247035563
1772563486173618200,4.5416181640625,-0.0034551850985735655,-0.004971056245267391,0.004055461846292019
1772563486183687200,4.551687255859375,-0.002151035238057375,-0.005586246494203806,0.007533017545938492
1772563486193755100,4.561755126953125,-0.003020024625584483,-0.004042412154376507,0.003771835006773472
1772563486203823000,4.571822998046875,-0.003951065707951784,-0.006738862954080105,0.0018676748732104897
1772563486213891000,4.58189111328125,-0.0032386700622737408,-0.004536428488790989,-0.00029081720276735723
1772563486223959300,4.591959228515625,-0.00287434970960021,-0.004370247479528189,0.0054853130131959915
1772563486234027300,4.60202734375,-0.0036756948102265596,-0.004303401801735163,0.0037020600866526365
1772563486244095000,4.612094970703125,-0.004644286818802357,-0.005033374298363924,0.0019004317000508308
1772563486254164000,4.6221640625,-0.0042719766497612,-0.007030212786048651,0.004332962911576033
1772563486264232200,4.632232177734375,-0.0028570392169058323,-0.005530320107936859,0.0013049489352852106
1772563486274300200,4.642300048828125,-0.0054823835380375385,-0.005494900047779083,0.004235225263983011
1772563486284368100,4.6523681640625,-0.0032405343372374773,-0.007700530346482992,0.0035366779193282127
1772563486294436000,4.66243603515625,-0.004038151353597641,-0.004585430957376957,0.005660282447934151
1772563486304504000,4.672504150390625,-0.005380650516599417,-0.005233644042164087,0.0026557042729109526
1772563486314572000,4.682572021484375,-0.002508964156731963,-0.005498628597706556,0.0017265273490920663
1772563486324641000,4.69264111328125,-0.002822950715199113,-0.0034527883399277925,0.0023273364640772343
1772563486334709200,4.702709228515625,-0.004874916281551123,-0.007494135294109583,0.0028213527984917164
1772563486344777200,4.712777099609375,-0.0030013825744390488,-0.002837598090991378,0.0023377228062599897
1772563486354845000,4.722844970703125,-0.0051446943543851376,-0.0035055188927799463,0.0016924388473853469
1772563486364913000,4.732912841796875,-0.004430434666574001,-0.006490123458206654,0.005911152344197035
1772563486374981000,4.742981201171875,-0.003722300287336111,-0.006477074231952429,0.00177952426020056
1772563486385049000,4.753049072265625,-0.003038134193047881,-0.005274923052638769,0.004297010600566864
1772563486395118000,4.7631181640625,-0.0016924388473853469,-0.004047738388180733,0.0029111013282090425
1772563486405186300,4.773186279296875,-0.004013916477560997,-0.005373726598918438,-0.0026442527305334806
1772563486415254000,4.78325390625,-0.0018229337874799967,-0.005853627808392048,0.0031103058718144894
1772563486425320200,4.7933203125,-0.0020817930344492197,-0.0054613444954156876,0.003224555402994156
1772563486435389000,4.803388916015625,-0.003078614128753543,-0.0032469260040670633,0.003335609333589673
1772563486445457000,4.813456787109375,-0.0015246596885845065,-0.006066947244107723,0.0026045716367661953
1772563486455525000,4.823525146484375,-0.0018074874533340335,-0.005030711181461811,0.004977181553840637
1772563486465593000,4.833593017578125,-0.002873817225918174,-0.0025925873778760433,0.002603772561997175
1772563486475661000,4.8436611328125,0.0004980111261829734,-0.0054395063780248165,0.0056712012737989426
1772563486485729300,4.853729248046875,-0.0013262542197480798,-0.00427277572453022,0.0033968619536608458
1772563486495797200,4.86379736328125,-0.0041127195581793785,-0.0051739891059696674,0.0031760858837515116
1772563486505866000,4.873865966796875,-0.004065581597387791,-0.004340420011430979,0.003944141324609518
1772563486515934000,4.883933837890625,-0.00333214714191854,-0.005480252671986818,0.003279150230810046
1772563486526001700,4.894001708984375,-0.0028245486319065094,-0.0031470574904233217,0.005676527973264456
1772563486536069600,4.904069580078125,-0.0035332157276570797,-0.005683984607458115,0.0022620889358222485
1772563486546137600,4.9141376953125,-0.0031902005430310965,-0.004874117206782103,0.004707936197519302
1772563486556205600,4.92420556640625,-0.003451190423220396,-0.007536745630204678,0.004311923868954182
1772563486566273800,4.934273681640625,-0.0026908579748123884,-0.004189418628811836,0.005751362536102533
1772563486576342500,4.944342529296875,-0.00495134899392724,-0.003893541404977441,0.004905010107904673
1772563486586410500,4.954410400390625,-0.0038064562249928713,-0.005604356061667204,0.004195011220872402
1772563486596478700,4.964478759765625,-0.0026900589000433683,-0.006909038871526718,0.0034559841733425856
1772563486606546700,4.974546630859375,-0.00261868629604578,-0.005663211923092604,0.003489273600280285
1772563486616614700,4.98461474609375,-0.004417917691171169,-0.00469621829688549,-0.00026791400159709156
1772563486626682600,4.9946826171875,-0.003683684393763542,-0.006173207424581051,0.002299106912687421
1772563486636750600,5.00475048828125,-0.004750812891870737,-0.006333263125270605,0.005498628597706556
1772563486646819600,5.014819580078125,-0.0035451999865472317,-0.007024353835731745,0.00520674604922533
1772563486656887600,5.024887451171875,-0.0032671659719198942,-0.005546831991523504,0.002698581200093031
1772563486666955800,5.034955810546875,-0.0013949638232588768,-0.006472546607255936,0.0006612628931179643
1772563486677023700,5.045023681640625,-0.0014948323369026184,-0.003879693103954196,0.0029949909076094627
1772563486687091700,5.055091796875,-0.002183525823056698,-0.004596616141498089,0.00040187101694755256
1772563486697159400,5.065159423828125,-0.004572381265461445,-0.00689092930406332,0.0043992758728563786
1772563486707227600,5.0752275390625,-0.002956375014036894,-0.006070675794035196,-0.0015278555219992995
1772563486717295600,5.085295654296875,-0.0023734092246741056,-0.005800365004688501,0.0030282805673778057
1772563486727364600,5.095364501953125,-0.0034402713645249605,-0.005513808690011501,-0.0004391552647575736
1772563486737432600,5.1054326171875,-0.003832288784906268,-0.006846720818430185,0.0032581111881881952
1772563486747500500,5.11550048828125,-0.002435993403196335,-0.005844307132065296,0.00570049649104476
1772563486757568500,5.125568603515625,-0.004032558295875788,-0.006894125137478113,0.0005917543894611299
1772563486767636500,5.135636474609375,-0.0021281319204717875,-0.0034141724463552237,0.001989913871511817
1772563486777704700,5.14570458984375,-0.003183542750775814,-0.007303985767066479,0.002401106059551239
1772563486787772700,5.155772705078125,-0.004738030023872852,-0.0065353973768651485,0.004067711997777224
1772563486797841700,5.165841552734375,-0.003035204717889428,-0.005203284323215485,0.0034381409641355276
1772563486807909400,5.175909423828125,-0.0022181468084454536,-0.005787048954516649,0.002680205274373293
1772563486817977600,5.1859775390625,-0.0046637277118861675,-0.0038312235847115517,0.0037926076911389828
1772563486828046600,5.196046630859375,-0.0028455876745283604,-0.003944940399378538,-0.0009739180095493793
1772563486838114600,5.206114501953125,-0.0037888791412115097,-0.00458649592474103,0.005111671518534422
1772563486848182800,5.216182861328125,-0.0036368127912282944,-0.005614476278424263,0.0031273500062525272
1772563486858250500,5.22625048828125,-0.00216568261384964,-0.005786782596260309,0.005715409759432077
1772563486868318500,5.236318359375,-0.004068511072546244,-0.004341219086199999,0.003912183456122875
1772563486878386400,5.246386474609375,-0.0031007183715701103,-0.005400358233600855,0.0037025928031653166
1772563486888454700,5.25645458984375,-0.003230147995054722,-0.006299973931163549,0.0019795275293290615
1772563486898522600,5.266522705078125,-0.0038746329955756664,-0.005132444202899933,0.004545216914266348
1772563486908591600,5.276591552734375,-0.004157727118581533,-0.003948402591049671,0.0025710156187415123
1772563486918659600,5.28665966796875,-0.005601692944765091,-0.005316202063113451,0.006959372665733099
1772563486928727600,5.2967275390625,-0.004727643448859453,-0.003382747294381261,0.003937750123441219
1772563486938795500,5.30679541015625,-0.002642122097313404,-0.00580728892236948,0.0022184131667017937
1772563486948863500,5.316863525390625,-0.0054789213463664055,-0.0060296631418168545,0.0027425233274698257
1772563486958931700,5.326931640625,-0.0029949909076094627,-0.0036932716611772776,0.002246642718091607
1772563486968999700,5.336999755859375,-0.0025782061275094748,-0.0032048479188233614,0.0007795072160661221
1772563486979068400,5.347068359375,-0.0029470541048794985,-0.006819822825491428,-0.0001411475386703387
1772563486989136600,5.35713671875,-0.004363323096185923,-0.0054970309138298035,0.0018988338997587562
1772563486999204600,5.36720458984375,-0.004043211229145527,-0.005348692648112774,0.0025329324416816235
1772563487009272600,5.3772724609375,-0.003837615018710494,-0.007287207525223494,0.003981692250818014
1772563487019340500,5.387340576171875,-0.004605404566973448,-0.004387291613966227,0.0006551376427523792
1772563487029408800,5.39740869140625,-0.002785400254651904,-0.005056277383118868,-0.0005699164466932416
1772563487039476700,5.407476806640625,-0.004233094397932291,-0.004634699318557978,0.0006687197601422668
1772563487049545500,5.41754541015625,-0.005560946650803089,-0.006899717729538679,0.0007363640470430255
1772563487059613700,5.42761376953125,-0.0009302421822212636,-0.004395014606416225,-0.0009542105835862458
1772563487069681700,5.437681640625,-0.001868207473307848,-0.005048820748925209,0.003153448924422264
1772563487079749600,5.44774951171875,-0.0027142937760800123,-0.005138569511473179,0.0008548747282475233
1772563487089817600,5.457817626953125,-0.0027363980188965797,-0.00433189794421196,0.003897536313161254
1772563487099885800,5.4678857421875,-0.001449292292818427,-0.006836866959929466,0.004825381562113762
1772563487109953500,5.47795361328125,-0.00242107966914773,-0.003882622579112649,0.0044075315818190575
1772563487120022500,5.4880224609375,-0.001967543503269553,-0.0027411917690187693,0.00440966198220849
1772563487130090800,5.4980908203125,-0.0020487697329372168,-0.006391320377588272,0.0068147629499435425
1772563487140158700,5.50815869140625,-0.00472444761544466,-0.004069842863827944,0.0014761901693418622
1772563487150226700,5.518226806640625,-0.005251753609627485,-0.00452897185459733,0.004343615844845772
1772563487160294700,5.528294677734375,-0.0002759034978225827,-0.004372910596430302,0.0011459582019597292
1772563487170362600,5.538362548828125,-0.003951332066208124,-0.008043012581765652,0.004224305972456932
1772563487180430600,5.5484306640625,-0.00310524576343596,-0.0028099012561142445,0.004641090985387564
1772563487190499600,5.55849951171875,-0.0005936186062172055,-0.005406483076512814,0.001662877737544477
1772563487200567600,5.568567626953125,-0.0028639633674174547,-0.004461061209440231,0.0025563682429492474
1772563487210635800,5.5786357421875,-0.0021022993605583906,-0.00412363838404417,0.002035187790170312
1772563487220703500,5.588703369140625,-0.0016612798208370805,-0.005291434936225414,0.00301682879216969
1772563487230771500,5.598771484375,-0.004246410448104143,-0.005155613645911217,0.004909005016088486
1772563487240839400,5.60883935546875,-0.0021260015200823545,-0.0067881313152611256,0.0030860709957778454
1772563487250907600,5.61890771484375,-0.002225603675469756,-0.005269863177090883,0.0007640608819201589
1772563487260976600,5.6289765625,-0.00353428116068244,-0.0028093685396015644,0.0008460862445645034
1772563487271044600,5.639044677734375,-0.004352404270321131,-0.004171309061348438,0.003180346917361021
1772563487281112600,5.649112548828125,-0.004674113821238279,-0.006873885169625282,0.0027052389923483133
1772563487291180500,5.6591806640625,-0.0018908443162217736,-0.005679457448422909,0.0020245350897312164
1772563487301248500,5.66924853515625,-0.0020061591640114784,-0.005654423497617245,0.003980360459536314
1772563487311316500,5.67931640625,-0.003635481232777238,-0.004923386033624411,0.007445133291184902
1772563487321384700,5.689384765625,-0.0041521345265209675,-0.006165750324726105,0.0033848776947706938
1772563487331452700,5.69945263671875,-0.002397377509623766,-0.007328486535698175,0.0032477248460054398
1772563487341521400,5.709521484375,-0.004396879114210606,-0.004041346721351147,0.002831739140674472
1772563487351589600,5.719589599609375,-0.0024564997293055058,-0.005481051746755838,0.0017515610670670867
1772563487361657600,5.72965771484375,-0.003748399205505848,-0.006058957893401384,0.004326571244746447
1772563487371725600,5.7397255859375,-0.0046663908287882805,-0.004009921569377184,0.003169161733239889
1772563487381793500,5.74979345703125,-0.004195810295641422,-0.007270163390785456,0.00413482403382659
1772563487391861800,5.75986181640625,-0.004515123087912798,-0.004429901950061321,0.0031784826423972845
1772563487401929700,5.7699296875,-0.0033486587926745415,-0.0038029940333217382,0.003450924064964056
1772563487411998500,5.77999853515625,-0.005477855913341045,-0.004571049474179745,0.0009837717516347766
1772563487422066700,5.790066650390625,-0.004661330953240395,-0.004895955324172974,0.003043993143364787
1772563487432134700,5.800134765625,-0.0023209447972476482,-0.00504109775647521,0.0032796829473227262
1772563487442202600,5.81020263671875,-0.0027087011840194464,-0.004879177547991276,0.0035744947381317616
1772563487452270600,5.8202705078125,-0.003373426152393222,-0.005622199270874262,0.0004673847579397261
1772563487462338600,5.830338623046875,-0.00221921200864017,-0.004731904715299606,0.002132659312337637
1772563487472406500,5.840406494140625,-0.0020090886391699314,-0.0038045919500291348,0.0024088292848318815
1772563487482475500,5.8504755859375,-0.004534830804914236,-0.004632302559912205,0.0057100835256278515
1772563487492543700,5.860543701171875,-0.005372661165893078,-0.005376656074076891,0.0020937772933393717
1772563487502611700,5.87061181640625,-0.004758269991725683,-0.004066647030413151,0.004539091605693102
1772563487512679700,5.8806796875,-0.0035473306197673082,-0.004454935900866985,0.0016729978378862143
1772563487522747600,5.89074755859375,-0.004173705819994211,-0.004734035115689039,0.001856223214417696
1772563487532815600,5.900815673828125,-0.003971039317548275,-0.006561229936778545,0.006638195365667343
1772563487542883800,5.9108837890625,-0.004327103961259127,-0.006455768831074238,0.005787581671029329
1772563487552952800,5.920952880859375,-0.003900199430063367,-0.004394748248159885,0.006387858185917139
1772563487563020800,5.931020751953125,-0.0031467911321669817,-0.00529702752828598,0.0018527611391618848
1772563487573088800,5.9410888671875,-0.0017576862592250109,-0.0037971350830048323,0.0016982977977022529
1772563487583156700,5.95115673828125,-0.004082093480974436,-0.0051992894150316715,0.003677292726933956
1772563487593224700,5.961224609375,-0.006358297076076269,-0.003877029987052083,0.00558012118563056
1772563487603292700,5.971292724609375,-0.0030919299460947514,-0.0054299188777804375,0.005761216394603252
1772563487613361000,5.98136083984375,-0.0030357372015714645,-0.006739927921444178,0.004435760900378227
1772563487623430000,5.991429931640625,-0.0017571536591276526,-0.002808036981150508,0.003226952161639929
1772563487633497600,6.00149755859375,-0.0036946034524589777,-0.005025917664170265,0.004746818449348211
1772563487643565800,6.01156591796875,-0.0036304211243987083,-0.005903961602598429,0.006795587949454784
1772563487653633800,6.0216337890625,-0.001886050682514906,-0.005681321490556002,0.001614940818399191
1772563487663701800,6.03170166015625,-0.003650128608569503,-0.005711148958653212,0.004983839578926563
1772563487673769700,6.041769775390625,-0.004042145796120167,-0.004333761986345053,0.002435460686683655
1772563487683838000,6.051837890625,-0.0039854203350842,-0.004304200876504183,0.003038400551304221
1772563487693906000,6.061906005859375,-0.002555303042754531,-0.004159857518970966,0.002487925114110112
1772563487703974700,6.071974609375,-0.0037878139410167933,-0.00358781055547297,0.004024302586913109
1772563487714043000,6.08204296875,-0.004000600427389145,-0.004703674931079149,0.0034083134960383177
1772563487724110800,6.09211083984375,-0.002981142606586218,-0.0037944719661027193,0.004251470323652029
1772563487734178800,6.1021787109375,-0.004457332659512758,-0.0038224351592361927,0.003436809405684471
1772563487744246800,6.112246826171875,-0.0028487835079431534,-0.006947122048586607,0.0004980111261829734
1772563487754315000,6.12231494140625,-0.0034549187403172255,-0.004983306862413883,0.006169212516397238
1772563487764382700,6.1323828125,-0.002745985286310315,-0.004473578184843063,0.004983040504157543
1772563487774451700,6.14245166015625,-0.003340669209137559,-0.004262921866029501,0.0030362699180841446
1772563487784520000,6.15252001953125,-0.003085005795583129,-0.005498362239450216,0.004026433452963829
1772563487794588000,6.162587890625,-0.004312722943723202,-0.005702893249690533,0.0030772825703024864
1772563487804655900,6.17265576171875,-0.0037172401789575815,-0.0041033984161913395,0.003442401997745037
1772563487814723800,6.182723876953125,-0.0008522115531377494,-0.0052197957411408424,0.0015068164793774486
1772563487824791800,6.192791748046875,-0.002109489869326353,-0.006180131807923317,0.0057593523524701595
1772563487834859800,6.20285986328125,-0.002843723399564624,-0.00526666734367609,0.0021403825376182795
1772563487844928800,6.2129287109375,-0.0024258734192699194,-0.006842459551990032,-0.001374457380734384
1772563487854997000,6.2229970703125,-0.0028988507110625505,-0.006322344299405813,0.002296710154041648
1772563487865065000,6.23306494140625,-0.0032320122700184584,-0.00538411270827055,0.002432797569781542
1772563487875132700,6.243132568359375,-0.001820803270675242,-0.0039880839176476,0.005708752200007439
1772563487885200600,6.25320068359375,-0.003623496973887086,-0.0049529471434652805,0.0034495925065129995
1772563487895268900,6.263268798828125,-0.003465305082499981,-0.0059926449321210384,0.004003263544291258
1772563487905336800,6.2733369140625,-0.0046789078041911125,-0.0052168662659823895,0.002275404753163457
1772563487915404800,6.28340478515625,-0.003242398612201214,-0.005648564547300339,0.006336991675198078
1772563487925473800,6.293473876953125,-0.0021521004382520914,-0.006342317909002304,0.004258926957845688
1772563487935541800,6.303541748046875,-0.005534847732633352,-0.004151335451751947,0.005093029234558344
1772563487945609700,6.313609619140625,-0.006442452780902386,-0.005906358826905489,0.0035268242936581373
1772563487955677700,6.323677734375,-0.005750829819589853,-0.004256796557456255,0.003370763035491109
1772563487965746000,6.333745849609375,-0.0015510249650105834,-0.004203000571578741,0.003552923211827874
1772563487975814000,6.34381396484375,-0.003649862250313163,-0.006699714343994856,0.003634415799751878
1772563487985881900,6.3538818359375,-0.0002591255761217326,-0.004703674931079149,0.0003067961661145091
1772563487995950600,6.36395068359375,-0.0035057852510362864,-0.0048890309408307076,0.0028913940768688917
1772563488006018800,6.374018798828125,-0.003602990647777915,-0.0028482507914304733,0.002701510675251484
1772563488016086800,6.384086669921875,-0.0031105722300708294,-0.005603556986898184,0.0010439591715112329
1772563488026154800,6.39415478515625,-0.0032264196779578924,-0.0027297399938106537,0.004954544827342033
1772563488036222700,6.40422265625,-0.0009853695519268513,-0.005410744342952967,0.001427987008355558
1772563488046291000,6.414291015625,-0.001734783174470067,-0.005349225364625454,0.0025363946333527565
1772563488056359000,6.42435888671875,-0.004767857491970062,-0.006520750001072884,0.004024568945169449
1772563488066427600,6.434427734375,-0.0028602350503206253,-0.005101551301777363,0.0051990230567753315
1772563488076496000,6.444495849609375,-0.002251968951895833,-0.0047849016264081,0.006850715726613998
1772563488086563800,6.454563720703125,-0.00487092137336731,-0.005532717332243919,0.005529521498829126
1772563488096631800,6.4646318359375,-0.0028431906830519438,-0.004341751337051392,0.002825880190357566
1772563488106699800,6.47469970703125,-0.0024471788201481104,-0.005871737375855446,0.005637113004922867
1772563488116768000,6.48476806640625,-0.0032834112644195557,-0.005198223982006311,0.0014713965356349945
1772563488126835700,6.494835693359375,-0.002931075170636177,-0.003221093211323023,0.002240783767774701
1772563488136904700,6.50490478515625,-0.0037316211964935064,-0.004720719531178474,0.0028578380588442087
1772563488146973000,6.514972900390625,-0.0005211806274019182,-0.005240834783762693,0.0026493126060813665
1772563488157041000,6.525041015625,-0.003967577591538429,-0.007814247161149979,0.004752677399665117
1772563488167108900,6.53510888671875,-0.0024224112275987864,-0.0059508332051336765,0.005959089379757643
1772563488177176800,6.5451767578125,-0.003222158644348383,-0.0027771443128585815,0.0036514601670205593
1772563488187244800,6.555244873046875,-0.004387557972222567,-0.004139351192861795,-0.00014168016787152737
1772563488197312800,6.565312744140625,-0.001659948262386024,-0.006732204928994179,0.005644303746521473
1772563488207380700,6.575380615234375,-0.0028932581190019846,-0.00433163158595562,0.0030455910600721836
1772563488217450000,6.585449951171875,-0.002713228575885296,-0.007421697489917278,0.0033601103350520134
1772563488227518000,6.59551806640625,-0.002927346620708704,-0.006926615722477436,-0.000182959163794294
1772563488237585700,6.605585693359375,-0.004298075567930937,-0.006403836887329817,0.002400306984782219
1772563488247653600,6.615653564453125,-0.005506884306669235,-0.004789961501955986,0.002974750939756632
1772563488257721900,6.625721923828125,-0.004761998075991869,-0.005849367007613182,0.004791026934981346
1772563488267789800,6.635789794921875,-0.002936667762696743,-0.005001682788133621,0.003173955250531435
1772563488277857800,6.64585791015625,-0.004311391618102789,-0.004893292207270861,0.002959304489195347
1772563488287927000,6.655927001953125,-0.005536179058253765,-0.005619269795715809,0.0021766014397144318
1772563488297994800,6.665994873046875,-0.002656769473105669,-0.003608316881582141,0.003326021833345294
1772563488308062700,6.676062744140625,-0.004979046061635017,-0.0041364217177033424,0.005005144979804754
1772563488318130700,6.686130615234375,-0.003665308468043804,-0.007879228331148624,0.0023004384711384773
1772563488328199000,6.696198974609375,-0.0033808830194175243,-0.004824049770832062,0.002326803747564554
1772563488338267000,6.706266845703125,-0.0032631712965667248,-0.004335093777626753,0.003460777923464775
1772563488348334800,6.7163349609375,-0.0046823699958622456,-0.004190484061837196,0.004273840691894293
1772563488358403800,6.72640380859375,-0.0029089709278196096,-0.005106078926473856,0.0024983114562928677
1772563488368471800,6.736471923828125,-0.0021028320770710707,-0.005284244194626808,0.0023667511995881796
1772563488378539800,6.746539794921875,-0.00637960247695446,-0.004397411365061998,0.00529489666223526
1772563488388607700,6.756607666015625,-0.005102883093059063,-0.005790244787931442,0.004895422607660294
1772563488398676000,6.766676025390625,-0.004554005339741707,-0.0060384515672922134,0.0021995047573000193
1772563488408744000,6.776743896484375,-0.0038959383964538574,-0.005117264110594988,0.004740426782518625
1772563488418812000,6.78681201171875,-0.0027688886038959026,-0.004473578184843063,0.0035515916533768177
1772563488428879600,6.796879638671875,-0.0017670074012130499,-0.005222725216299295,0.003564108395949006
1772563488438948900,6.806948974609375,-0.004020840395241976,-0.0052320463582873344,0.003689010627567768
1772563488449016800,6.817016845703125,-0.0019038938917219639,-0.004382763989269733,0.0017116136150434613
1772563488459084800,6.827084716796875,-0.004481833893805742,-0.005539907608181238,0.0019600866362452507
1772563488469152800,6.83715283203125,-0.0029984530992805958,-0.005392901133745909,0.0036461339332163334
1772563488479221000,6.847220947265625,-0.0017718010349199176,-0.005526059307157993,0.0009198558400385082
1772563488489288700,6.857288818359375,-0.005666407756507397,-0.008625712245702744,0.0037675739731639624
1772563488499356700,6.867356689453125,-0.0033481260761618614,-0.00569969741627574,0.001184307737275958
1772563488509426000,6.877426025390625,-0.0029971215408295393,-0.005234975833445787,0.003049053018912673
1772563488519494400,6.887494384765625,-0.0015949672088027,-0.006082660052925348,0.003811249742284417
1772563488529562000,6.89756201171875,-0.0023971113841980696,-0.004217648413032293,0.0028575719334185123
1772563488539630000,6.907630126953125,-0.002653839997947216,-0.0062669506296515465,0.003608050523325801
1772563488549698000,6.917697998046875,-0.0006327670416794717,-0.005370797123759985,0.005815544631332159
1772563488559766300,6.927766357421875,-0.0038570561446249485,-0.003923634998500347,0.0015246596885845065
1772563488569834200,6.937834228515625,-0.004096208140254021,-0.005416070576757193,0.003698864486068487
1772563488579903200,6.9479033203125,-0.0021904499735683203,-0.004218713380396366,0.0016596820205450058
1772563488589971000,6.957970947265625,-0.0014764565275982022,-0.00449807895347476,0.0034767568577080965
1772563488600039200,6.9680390625,-0.0032661007717251778,-0.004914064891636372,0.0038075214251875877
1772563488610107100,6.978107177734375,-0.0032887374982237816,-0.006958573590964079,0.004833104554563761
1772563488620175000,6.988175048828125,-0.0038133803755044937,-0.0027683558873832226,0.0023912524338811636
1772563488630243000,6.9982431640625,-0.0009353021741844714,-0.005627791862934828,0.0025995115283876657
1772563488640311300,7.008311279296875,-0.002980609890073538,-0.004838431254029274,0.004716458264738321
1772563488650379300,7.018379150390625,-0.002645317930728197,-0.005043760873377323,0.005600095260888338
1772563488660448000,7.028447998046875,-0.003306314582005143,-0.005873601883649826,0.00452817277982831
1772563488670516200,7.03851611328125,-0.0028756812680512667,-0.004228567238897085,0.0021108214277774096
1772563488680584200,7.048584228515625,-0.001202150946483016,-0.0054791877046227455,0.0013161342358216643
1772563488690652200,7.058652099609375,-0.0029891319572925568,-0.0035198999103158712,0.006067746318876743
1772563488700720000,7.06872021484375,-0.0023166837636381388,-0.004246144089847803,0.0025798040442168713
1772563488710788400,7.078788330078125,-0.004748416133224964,-0.00561154680326581,0.00481259822845459
1772563488720856000,7.08885595703125,-0.0041057956404984,-0.0029089709278196096,0.004295945167541504
1772563488730925000,7.098925048828125,-0.0035630431957542896,-0.007514375261962414,0.0005020058597438037
1772563488740993300,7.1089931640625,-0.002680737990885973,-0.004622981417924166,-0.0004961469094268978
1772563488751061200,7.119061279296875,-0.0014924354618415236,-0.003326820908114314,0.002781938062980771
1772563488761129200,7.129129150390625,-0.005269596818834543,-0.006481335032731295,0.00021411814668681473
1772563488771197200,7.139197265625,-0.0027896612882614136,-0.005453621037304401,0.0034104441292583942
1772563488781265200,7.14926513671875,-0.003498328384011984,-0.005282113794237375,0.0024205471854656935
1772563488791333000,7.1593330078125,-0.005029379855841398,-0.0028362665325403214,0.004475442226976156
1772563488801402000,7.169402099609375,0.0005145227187313139,-0.005456018261611462,0.004307396709918976
1772563488811470300,7.17947021484375,-0.0017457021167501807,-0.00523577444255352,0.0005808354471810162
1772563488821538300,7.189538330078125,-0.003944407682865858,-0.004627508576959372,0.00264798104763031
1772563488831606300,7.199606201171875,-0.003689809702336788,-0.003746002446860075,0.003922037314623594
1772563488841674000,7.209674072265625,-0.0016114787431433797,-0.0062341936863958836,0.0032059133518487215
1772563488851742200,7.2197421875,-0.003067428944632411,-0.00501020485535264,0.005543902516365051
1772563488861810200,7.22981005859375,-0.0018461032304912806,-0.0064834654331207275,0.002258094260469079
1772563488871878100,7.239878173828125,-0.0033425334841012955,-0.005536179058253765,0.0034234935883432627
1772563488881947400,7.249947509765625,-0.0024591628462076187,-0.004057325888425112,0.005675728898495436
1772563488892015000,7.26001513671875,-0.0035092474427074194,-0.005045891273766756,0.002267415402457118
1772563488902083000,7.2700830078125,-0.0021672805305570364,-0.004664793144911528,0.005589442327618599
1772563488912151000,7.280151123046875,-0.003894074121490121,-0.005074120592325926,0.000606668065302074
1772563488922219300,7.29021923828125,-0.004546282347291708,-0.003943609073758125,0.004630704410374165
1772563488932287200,7.300287353515625,-0.0025358619168400764,-0.005222192499786615,0.0037590519059449434
1772563488942355200,7.310355224609375,-0.0033537186682224274,-0.0029611687641590834,0.003326021833345294
1772563488952424200,7.320424072265625,-0.0025744778104126453,-0.005045891273766756,0.004012584686279297
1772563488962492200,7.3304921875,-0.002418150193989277,-0.0018671422731131315,0.0029345371294766665
1772563488972560100,7.34056005859375,-0.0034290861804038286,-0.004511128645390272,0.004707669839262962
1772563488982628000,7.350628173828125,-0.004448011517524719,-0.00526586826890707,0.002582467393949628
1772563488992696300,7.3606962890625,-0.005116465035825968,-0.003257312346249819,0.0019052254501730204
1772563489002764300,7.370764404296875,-0.004483964294195175,-0.005456284619867802,0.004083691164851189
1772563489012832300,7.380832275390625,-0.0024564997293055058,-0.004505003336817026,0.0057319216430187225
1772563489022900200,7.390900146484375,-0.0011238539591431618,-0.002633600030094385,0.002888997085392475
1772563489032969200,7.40096923828125,-0.005016063805669546,-0.00589623861014843,0.004284759983420372
1772563489043037200,7.411037109375,-0.004445082042366266,-0.004685831721872091,0.005102350376546383
1772563489053105200,7.421105224609375,-0.005218463949859142,-0.00785419438034296,0.003563842037692666
1772563489063173400,7.43117333984375,-0.0033510555513203144,-0.005602225661277771,0.0044133905321359634
1772563489073241300,7.441241455078125,-0.0033489251509308815,-0.0035779569298028946,0.0018884475575760007
1772563489083309000,7.45130908203125,-0.0025387913919985294,-0.005084240809082985,0.002594451420009136
1772563489093377000,7.461376953125,-0.004974518436938524,-0.004156395327299833,0.0017241304740309715
1772563489103445200,7.4714453125,-0.0016993631143122911,-0.005556153133511543,0.00446825148537755
1772563489113514200,7.48151416015625,-0.0027326694689691067,-0.0030716899782419205,0.0017816547770053148
1772563489123582200,7.491582275390625,-0.0032719597220420837,-0.006717024836689234,0.0015494271647185087
1772563489133650200,7.501650146484375,-0.004760400392115116,-0.005169461946934462,0.004747084807604551
1772563489143718100,7.51171826171875,-0.004163053352385759,-0.006021939683705568,0.0020458402577787638
1772563489153786000,7.5217861328125,-0.0028101676143705845,-0.0029518476221710443,0.002481267089024186
1772563489163854000,7.53185400390625,-0.001710548298433423,-0.004336158744990826,0.006161755882203579
1772563489173922300,7.54192236328125,-0.002252235310152173,-0.004304733593016863,0.002029328839853406
1772563489183991300,7.5519912109375,-0.001683650421909988,-0.006409695837646723,-0.0010370349045842886
1772563489194059000,7.56205908203125,-0.0038256309926509857,-0.005301288329064846,0.002572613535448909
1772563489204127000,7.572126953125,-0.0033369408920407295,-0.005870938766747713,0.0028477180749177933
1772563489214195200,7.5821953125,-0.0025505092926323414,-0.005477056838572025,0.0036911412607878447
1772563489224263200,7.59226318359375,-0.0035803536884486675,-0.005036303773522377,0.0021723404061049223
1772563489234331100,7.6023310546875,-0.0033420007675886154,-0.005081311333924532,0.004415787290781736
1772563489244399000,7.612399169921875,-0.0031198931392282248,-0.005270928610116243,0.0007741809240542352
1772563489254468000,7.622468017578125,-0.003440005239099264,-0.0036756948102265596,0.0025659557431936264
1772563489264536000,7.6325361328125,-0.0039880839176476,-0.004997954238206148,0.0017736653098836541
1772563489274604000,7.64260400390625,-0.005395830608904362,-0.007349791936576366,0.004683967679738998
1772563489284672300,7.65267236328125,-0.00333241350017488,-0.0054735951125621796,0.0023608922492712736
1772563489294740200,7.662740234375,-0.0034554514568299055,-0.005701827816665173,0.000815193576272577
1772563489304808200,7.67280810546875,-0.0014053500490263104,-0.005115665961056948,0.0018213358707726002
1772563489314876200,7.682876220703125,-0.003907656297087669,-0.005625395104289055,0.0035926043055951595
1772563489324944400,7.6929443359375,-0.005264270585030317,-0.007782022934406996,0.0027105652261525393
1772563489335013000,7.70301318359375,-0.002484196564182639,-0.005094626918435097,0.006944991648197174
1772563489345081000,7.7130810546875,-0.0028575719334185123,-0.006697051227092743,0.0007731156656518579
1772563489355149300,7.7231494140625,-0.004204598721116781,-0.005510080140084028,0.0012128035305067897
1772563489365217300,7.73321728515625,-0.003078880487009883,-0.003930026665329933,0.0014508900931105018
1772563489375285200,7.74328515625,-0.0029995182994753122,-0.0064863949082791805,0.0019688750617206097
1772563489385353200,7.753353271484375,-0.0031318773981183767,-0.006482933182269335,0.003093527862802148
1772563489395421200,7.763421142578125,-0.004137753508985043,-0.004320180043578148,0.0043745082803070545
1772563489405490200,7.773490234375,-0.0020964404102414846,-0.0036578518338501453,0.0057194046676158905
1772563489415558100,7.78355810546875,-0.003433879930526018,-0.006549512036144733,0.001630387152545154
1772563489425626400,7.79362646484375,-0.004516188520938158,-0.005848035216331482,0.0041486723348498344
1772563489435694300,7.8036943359375,-0.005795038305222988,-0.005408613942563534,0.002939064521342516
1772563489445762000,7.813761962890625,-0.0031129689887166023,-0.00475347600877285,0.0006543386843986809
1772563489455830000,7.823830078125,-0.0029854036401957273,-0.0019680759869515896,0.0033872744534164667
1772563489465898200,7.833898193359375,-0.0038035267498344183,-0.00503949960693717,0.0018317222129553556
1772563489475966200,7.84396630859375,-0.002728142309933901,-0.006764429155737162,0.0035475967451930046
1772563489486035200,7.85403515625,-0.0027076357509940863,-0.0046208505518734455,0.0029206888284534216
1772563489496103200,7.864103271484375,-0.0013262542197480798,-0.0043532028794288635,0.005500758998095989
1772563489506171100,7.874171142578125,-0.0034993935842067003,-0.002953711897134781,0.001639441936276853
1772563489516239000,7.884239013671875,-0.0018492990639060736,-0.004448544234037399,0.0011827098205685616
1772563489526306600,7.894306640625,-0.0035601137205958366,-0.006696518510580063,0.001674861996434629
1772563489536374500,7.90437451171875,-0.0011515507940202951,-0.002519350266084075,0.0052016861736774445
1772563489546442500,7.9144423828125,-0.0005696501466445625,-0.0037238982040435076,0.005759884603321552
1772563489556511700,7.92451171875,-0.0018458369886502624,-0.004801679402589798,0.003094326937571168
1772563489566579500,7.934579345703125,-0.00580648984760046,-0.004938565660268068,0.004290086217224598
1772563489576647400,7.9446474609375,-0.0008649947121739388,-0.005596899427473545,0.0020823257509618998
1772563489586715600,7.954715576171875,-0.0033835461363196373,-0.004394748248159885,0.006200904026627541
1772563489596783600,7.96478369140625,-0.00267807487398386,-0.0037800907157361507,0.0036972665693610907
1772563489606851600,7.9748515625,-0.0018082864116877317,-0.004219246096909046,0.004467452876269817
1772563489616919600,7.98491943359375,-0.0009382316493429244,-0.005029113497585058,0.003338006092235446
1772563489626987800,7.99498779296875,-0.0024562333710491657,-0.00446931691840291,0.002270611235871911
1772563489637056500,8.005056396484376,-0.002379534300416708,-0.005310609471052885,0.0035121769178658724
1772563489647124500,8.01512451171875,-0.003795803524553776,-0.005118861794471741,0.0023252058308571577
1772563489657192700,8.025192626953125,-0.0026905916165560484,-0.0065140919759869576,0.004352936986833811
1772563489667260700,8.0352607421875,-0.0030301446095108986,-0.006471747532486916,0.0033888723701238632
1772563489677328600,8.04532861328125,-0.004195810295641422,-0.007681888062506914,0.0016908409306779504
1772563489687396600,8.055396728515625,0.000006125270374468528,-0.00583658367395401,0.0021947110071778297
1772563489697464800,8.06546484375,-0.004422445315867662,-0.0019837887957692146,0.002008289797231555
1772563489707532500,8.075532470703125,-0.004732437431812286,-0.004544950556010008,0.004992361646145582
1772563489717601500,8.0856015625,-0.001915878034196794,-0.003853327827528119,0.0034024545457214117
1772563489727669800,8.095669677734374,-0.0027169568929821253,-0.00612393906340003,0.001017061178572476
1772563489737737700,8.10573779296875,-0.002030926523730159,-0.004585430957376957,0.003066629869863391
1772563489747805700,8.1158056640625,-0.00461552431806922,-0.004234426189213991,0.0033372072502970695
1772563489757873400,8.125873291015624,-0.003454386256635189,-0.005117530468851328,0.0027134947013109922
1772563489767941600,8.135941650390626,-0.004630970768630505,-0.005652825813740492,0.004878378473222256
1772563489778009600,8.146009521484375,-0.0023515713401138783,-0.002920954953879118,0.003236806020140648
1772563489788078600,8.15607861328125,-0.003266633255407214,-0.006359096150845289,0.0031403994653373957
1772563489798146600,8.166146484375,-0.0034530546981841326,-0.007467237301170826,0.006759102921932936
1772563489808214800,8.17621484375,-0.002615490462630987,-0.004888498689979315,0.0033712955191731453
1772563489818282500,8.186282470703125,-0.004073038697242737,-0.006621683482080698,0.003997404593974352
1772563489828350500,8.1963505859375,-0.0043902210891246796,-0.005242965184152126,0.006244846619665623
1772563489838418400,8.20641845703125,-0.0013646037550643086,-0.0032442628871649504,0.0013025520602241158
1772563489848486700,8.216486572265625,-0.0013736584223806858,-0.004259193316102028,0.004562793765217066
1772563489858554600,8.2265546875,-0.0021494373213499784,-0.004964132327586412,0.002436526119709015
1772563489868623600,8.23662353515625,-0.002867691917344928,-0.00546294217929244,0.0018040252616629004
1772563489878691600,8.246691650390625,-0.004046939779073,-0.005221659783273935,0.0019518306944519281
1772563489888759600,8.256759521484375,-0.0030892668291926384,-0.0038772961124777794,0.0026402578223496675
1772563489898827500,8.26682763671875,-0.004287689458578825,-0.006362558342516422,0.002403236459940672
1772563489908895500,8.2768955078125,-0.00421258807182312,-0.004942027851939201,0.0054879761300981045
1772563489918963700,8.286963623046875,-0.004416320007294416,-0.005657086614519358,0.003064765827730298
1772563489929031700,8.29703173828125,-0.0046874298714101315,-0.0054397727362811565,0.0034967304673045874
1772563489939100400,8.307100341796875,-0.0025015072897076607,-0.0034139060880988836,0.002130795270204544
1772563489949168600,8.317168701171875,-0.003593669505789876,-0.004018976353108883,0.00344479875639081
1772563489959236600,8.327236572265624,-0.003224022686481476,-0.0052083441987633705,0.0019371833186596632
1772563489969304600,8.3373046875,-0.004036553204059601,-0.006124471314251423,0.002995523624122143
1772563489979372500,8.34737255859375,-0.003516437951475382,-0.0033302828669548035,0.0005049353349022567
1772563489989440800,8.357440673828124,-0.004679440520703793,-0.004685831721872091,0.005105546209961176
1772563489999508700,8.3675087890625,-0.0032956618815660477,-0.004712996073067188,-0.00035979304811917245
1772563490009576400,8.377576416015625,-0.004997954238206148,-0.006608900614082813,0.0028703550342470407
1772563490019645700,8.387645751953125,-0.002234392100945115,-0.006418484263122082,0.0025369273498654366
1772563490029713700,8.397713623046876,-0.0017321199411526322,-0.00421471893787384,0.005151618737727404
1772563490039781600,8.40778173828125,-0.005538576282560825,-0.005073055624961853,0.0031302794814109802
1772563490049849600,8.417849609375,-0.0029526466969400644,-0.0027811392210423946,0.001119060325436294
1772563490059917600,8.42791748046875,-0.003299922915175557,-0.0041100564412772655,0.002520682057365775
1772563490069985500,8.437985595703125,-0.004245078656822443,-0.00490314606577158,0.004560130648314953
1772563490080053500,8.448053466796875,-0.0034525219816714525,-0.005769205745309591,0.004048537462949753
1772563490090121500,8.45812158203125,-0.0037611823063343763,-0.004542553797364235,0.003320695599541068
1772563490100190700,8.468190673828126,-0.004314321093261242,-0.007390804588794708,0.004092745948582888
1772563490110258700,8.4782587890625,-0.0018170748371630907,-0.0027438548859208822,0.0026522420812398195
1772563490120326400,8.488326416015624,-0.0051505533047020435,-0.004829110112041235,0.00464694993570447
1772563490130394600,8.49839453125,-0.0037414750549942255,-0.005124454386532307,0.004792890977114439
1772563490140462600,8.508462646484375,-0.0029617014806717634,-0.005113269202411175,0.004519917070865631
1772563490150530600,8.518530517578125,-0.0022474415600299835,-0.005387308541685343,0.00649784691631794
1772563490160598500,8.5285986328125,-0.003424292430281639,-0.005380650516599417,0.002692189533263445
1772563490170667800,8.538667724609375,-0.0030328077264130116,-0.0038783615455031395,0.004400607198476791
1772563490180735500,8.548735595703125,-0.0037670412566512823,-0.00729466462507844,0.004793423693627119
1772563490190803500,8.558803466796874,-0.0010042780777439475,-0.00675351032987237,0.0022509037517011166
1772563490200871700,8.56887158203125,-0.0031617048662155867,-0.005297826137393713,0.0010748518398031592
1772563490210939600,8.578939697265625,-0.0027534421533346176,-0.0048858351074159145,0.00657534459605813
1772563490221007600,8.589007568359374,-0.005795038305222988,-0.004519917070865631,0.004029895178973675
1772563490231075600,8.59907568359375,-0.00199310970492661,-0.0032706281635910273,0.0026114957872778177
1772563490241143800,8.609143798828125,-0.004451207350939512,-0.003460777923464775,0.003884752979502082
1772563490251212500,8.619212646484375,-0.0031963258516043425,-0.004228300880640745,0.005726329050958157
1772563490261280500,8.629280517578126,-0.004326571244746447,-0.005399825517088175,0.0020908478181809187
1772563490271348700,8.6393486328125,-0.0034943337086588144,-0.004436293616890907,0.0036693033762276173
1772563490281416700,8.649416748046875,-0.004203000571578741,-0.005031243897974491,0.0037385455798357725
1772563490291484700,8.659484619140626,-0.003114300547167659,-0.009064069017767906,0.0041065942496061325
1772563490301552600,8.669552734375,-0.0033965955954045057,-0.008382033556699753,0.00014860439114272594
1772563490311620600,8.67962060546875,-0.004037618637084961,-0.005461610853672028,0.001261273049749434
1772563490321688600,8.6896884765625,-0.0028788771014660597,-0.005652293097227812,0.003460777923464775
1772563490331757600,8.699757568359376,-0.0027656927704811096,-0.0068027786910533905,0.004435494542121887
1772563490341825500,8.709825439453125,-0.004733236040920019,-0.006737531162798405,0.004244545940309763
1772563490351893800,8.719893798828124,-0.0017001620726659894,-0.004351338837295771,0.003584614722058177
1772563490361961700,8.729961669921876,-0.0030245520174503326,-0.004859736189246178,0.002755572786554694
1772563490372029400,8.740029541015625,-0.0023164174053817987,-0.006992661859840155,0.005544168874621391
1772563490382097400,8.750097412109374,-0.002407231368124485,-0.005309277679771185,0.004010454285889864
1772563490392165600,8.76016552734375,-0.00410419749096036,-0.00503870053216815,0.0020988371688872576
1772563490402233600,8.770233642578125,-0.005785717628896236,-0.00526586826890707,0.004714594222605228
1772563490412302600,8.780302490234375,-0.0016639430541545153,-0.0038008634001016617,0.003566771512851119
1772563490422370600,8.79037060546875,-0.004523645620793104,-0.003976366017013788,0.0017680726014077663
1772563490432437800,8.800437744140625,-0.002138784620910883,-0.005446963477879763,0.00560941593721509
1772563490442505500,8.81050537109375,-0.0038746329955756664,-0.004721784498542547,0.006898385938256979
1772563490452574500,8.820574462890624,-0.0034416031558066607,-0.00424161646515131,0.0029318740125745535
1772563490462642700,8.830642578125,-0.0020509003661572933,-0.005348959006369114,0.002302036387845874
1772563490472710700,8.840710693359375,-0.002013616031035781,-0.004555603489279747,0.004203799646347761
1772563490482778600,8.850778564453124,-0.003516171593219042,-0.003674895968288183,0.0035595810040831566
1772563490492846600,8.8608466796875,-0.0049026133492589,-0.006589725613594055,0.0016138756182044744
1772563490502914600,8.87091455078125,-0.004551874939352274,-0.004565190523862839,0.0034179009962826967
1772563490512982500,8.880982421875,-0.0021342572290450335,-0.005050951149314642,0.0043713124468922615
1772563490523050000,8.891050048828125,-0.0033896714448928833,-0.004038417246192694,0.00166633992921561
1772563490533119200,8.901119140625,-0.004613926634192467,-0.004437092691659927,0.006572681479156017
1772563490543187200,8.911187255859375,-0.0028429245576262474,-0.0054576159454882145,0.0021811288315802813
1772563490553255200,8.921255126953126,-0.0008756473544053733,-0.00589597225189209,0.0008111988427117467
1772563490563323100,8.9313232421875,-0.0008274441352114081,-0.00797137338668108,0.004430168308317661
1772563490573391000,8.94139111328125,-0.0028639633674174547,-0.0044165863655507565,-0.0008412926108576357
1772563490583459000,8.951458984375,-0.005281314719468355,-0.003608050523325801,0.002600044244900346
1772563490593527000,8.961527099609375,-0.00407596817240119,-0.004691957030445337,0.0031675638165324926
1772563490603595300,8.97159521484375,-0.0034589136485010386,-0.0052046156488358974,0.0033712955191731453
1772563490613664300,8.981664306640624,-0.0009720537927933037,-0.004760400392115116,0.004047472029924393
1772563490623732000,8.99173193359375,-0.00264824740588665,-0.004604339133948088,0.00350392097607255
1772563490633800200,9.00180029296875,0.0005440838285721838,-0.006626211106777191,0.002817091764882207
1772563490643868200,9.0118681640625,-0.002287389012053609,-0.004270378965884447,0.002234924817457795
1772563490653936000,9.02193603515625,-0.0038314899429678917,-0.005530852824449539,0.00247594085521996
1772563490664004000,9.032004150390625,-0.004216849338263273,-0.004375573713332415,0.0018247979460284114
1772563490674072300,9.042072265625,-0.004200870171189308,-0.00526586826890707,0.001924666459672153
1772563490684141000,9.05214111328125,-0.003346261801198125,-0.00458569684997201,0.002576075727120042
1772563490694209000,9.062208984375,-0.005411010701209307,-0.005076784174889326,0.0015121428295969963
1772563490704277200,9.07227734375,-0.002635730430483818,-0.007621966768056154,0.005697300657629967
1772563490714345200,9.08234521484375,-0.003097256412729621,-0.005490372888743877,0.002722017001360655
1772563490724413200,9.0924130859375,-0.003900465788319707,-0.008696019649505615,0.0037470676470547915
1772563490734481200,9.102481201171875,-0.0023995081428438425,-0.0032650355715304613,0.0017150756902992725
1772563490744549400,9.11254931640625,-0.002758502261713147,-0.00637880340218544,0.0018016285030171275
1772563490754617000,9.1226171875,-0.003490072675049305,-0.0046213832683861256,0.00270710326731205
1772563490764686000,9.13268603515625,-0.003064499469473958,-0.006089317612349987,0.004733502399176359
1772563490774754300,9.14275439453125,-0.003023753175511956,-0.005425924435257912,0.0036855486687272787
1772563490784822300,9.152822265625,-0.003403786104172468,-0.003534547286108136,0.0036064526066184044
1772563490794890200,9.16289013671875,-0.004739627707749605,-0.005848035216331482,0.0017038905061781406
1772563490804958200,9.172958251953125,-0.0012061456218361855,-0.005635781679302454,0.0028458540327847004
1772563490815026200,9.183026123046876,-0.002326004905626178,-0.004276770167052746,0.005108742043375969
1772563490825094100,9.19309423828125,-0.0038637141697108746,-0.005752161610871553,0.00021278657368384302
1772563490835162000,9.203162109375,-0.0033127060160040855,-0.005622731987386942,0.0044104610569775105
1772563490845231400,9.2132314453125,-0.0065465825609862804,-0.008912800811231136,0.004233893472701311
1772563490855299300,9.22329931640625,-0.0030921963043510914,-0.0046386937610805035,0.0031108383554965258
1772563490865367300,9.2333671875,-0.0027598338201642036,-0.007554056588560343,0.0038392129354178905
1772563490875435000,9.24343505859375,-0.0037702370900660753,-0.003769171889871359,0.0068120998330414295
1772563490885503200,9.253503173828125,-0.004144144710153341,-0.005405684467405081,0.007107444107532501
1772563490895571200,9.2635712890625,-0.0026732811238616705,-0.0032176312524825335,0.003650128608569503
1772563490905639200,9.27363916015625,-0.003483681008219719,-0.005995574407279491,0.0017622136510908604
1772563490915707100,9.28370703125,-0.003081543603911996,-0.005810751114040613,0.005785717628896236
1772563490925776100,9.293776123046875,-0.0040916805155575275,-0.00358781055547297,0.005032042972743511
1772563490935844000,9.303843994140625,-0.004689293913543224,-0.004945756401866674,0.002883138135075569
1772563490945912000,9.313912109375,-0.0032631712965667248,-0.005852030124515295,0.0029888655990362167
1772563490955980300,9.323980224609375,-0.005803294479846954,-0.004625644534826279,0.003293264890089631
1772563490966048300,9.33404833984375,-0.001130778226070106,-0.0051566786132752895,0.002415220718830824
1772563490976116200,9.3441162109375,-0.00347489258274436,-0.005253085400909185,0.002516687149181962
1772563490986184200,9.35418408203125,-0.002269279444590211,-0.006405967753380537,0.0029318740125745535
1772563490996252400,9.36425244140625,-0.004189684987068176,-0.0048980857245624065,0.0052293832413852215
1772563491006321200,9.374321044921874,-0.003029612125828862,-0.004965996369719505,0.0025829998776316643
1772563491016389000,9.38438916015625,-0.002156627830117941,-0.003173955250531435,0.003291400847956538
1772563491026457000,9.39445703125,-0.0008191883680410683,-0.004718855023384094,0.0017808558186516166
1772563491036525300,9.404525390625,-0.0013291836949065328,-0.004263720940798521,0.0021797972731292248
1772563491046593300,9.41459326171875,-0.004236023873090744,-0.006673349067568779,0.005169994663447142
1772563491056661200,9.4246611328125,-0.0032780850306153297,-0.005844573490321636,0.001924932817928493
1772563491066729000,9.43472900390625,-0.0043803672306239605,-0.004209392238408327,0.0016940367640927434
1772563491076797200,9.444797119140626,-0.0031244205310940742,-0.004089550115168095,0.00355931487865746
1772563491086866200,9.4548662109375,-0.0031968585681170225,-0.004698348697274923,0.00236249016597867
1772563491096934100,9.46493408203125,-0.0031585090328007936,-0.003994475118815899,-0.00020133497309871018
1772563491107002400,9.47500244140625,-0.0034139060880988836,-0.003650128608569503,0.005285841878503561
1772563491117070000,9.485070068359375,-0.004304999951273203,-0.0057249972596764565,0.004206729121506214
1772563491127138000,9.495137939453125,-0.0036360137164592743,-0.005282646510750055,0.003888215171173215
1772563491137206000,9.5052060546875,-0.0014223942998796701,-0.004128965083509684,-0.0010522148804739118
1772563491147274200,9.515274169921875,-0.004336691461503506,-0.005968144163489342,0.005573197267949581
1772563491157342200,9.52534228515625,-0.003823234001174569,-0.006058691535145044,0.0043982104398310184
1772563491167411200,9.5354111328125,-0.0020716730505228043,-0.0054243262857198715,0.0035902075469493866
1772563491177479200,9.545479248046876,-0.0036615801509469748,-0.00563897704705596,0.003936151973903179
1772563491187547100,9.555547119140625,-0.003519367426633835,-0.004673847462981939,0.0016668725293129683
1772563491197615000,9.565614990234375,-0.0027257453184574842,-0.0044136568903923035,0.005227518733590841
1772563491207683000,9.57568310546875,-0.0054642739705741405,-0.007620635442435741,0.004306064918637276
1772563491217751300,9.585751220703125,-0.0020969731267541647,-0.004668521229177713,0.0004247741890139878
1772563491227819300,9.5958193359375,-0.0024058998096734285,-0.0030123014003038406,0.0037356161046773195
1772563491237887200,9.60588720703125,-0.003127083647996187,-0.0051806471310555935,0.0018338527297601104
1772563491247956200,9.615956298828126,-0.0009350358741357923,-0.003853061469271779,0.00307648372836411
1772563491258024200,9.626024169921875,-0.0007582019316032529,-0.003907656297087669,0.0030101709999144077
1772563491268092200,9.636092041015624,-0.0036583843175321817,-0.0043739755637943745,0.0032447953708469868
1772563491278160100,9.64616015625,-0.001978195970878005,-0.006363623309880495,0.004069842863827944
1772563491288228400,9.656228271484375,-0.004748948849737644,-0.004113518632948399,0.00022423815971706063
1772563491298296300,9.66629638671875,-0.00398621940985322,-0.00749067310243845,0.004578506574034691
1772563491308364000,9.676364013671876,-0.0019771307706832886,-0.0032860743813216686,0.002258360618725419
1772563491318432000,9.686431884765625,-0.003954527899622917,-0.006750847212970257,0.003650394966825843
1772563491328501200,9.696501220703125,-0.0012980246683582664,-0.004069576505571604,0.0028786107432097197
1772563491338569200,9.7065693359375,-0.004096740856766701,-0.004516454879194498,0.0013100089272484183
1772563491348637200,9.71663720703125,-0.0030272151343524456,-0.004458930809050798,0.004887965973466635
1772563491358705400,9.726705322265625,-0.00310497940517962,-0.005544701125472784,0.0023483755066990852
1772563491368773000,9.736773193359374,-0.0038216360844671726,-0.0051276502199471,0.00017310546536464244
1772563491378841000,9.746841064453125,-0.0028298748657107353,-0.0027451864443719387,0.004266117699444294
1772563491388909000,9.756908935546875,-0.0028011128306388855,-0.0034349451307207346,0.0020956413354724646
1772563491398977300,9.766977294921874,-0.003626959165558219,-0.004890895448625088,0.0018969696247950196
1772563491409046300,9.77704638671875,-0.004415787290781736,-0.004150270018726587,0.0030133668333292007
1772563491419114200,9.7871142578125,-0.0007044061203487217,-0.0032618397381156683,0.005690109916031361
1772563491429182200,9.79718212890625,-0.0011249192757532,-0.004072239622473717,0.00520647969096899
1772563491439250200,9.807250244140626,-0.004354801028966904,-0.004245078656822443,0.002493251347914338
1772563491449318100,9.817318115234375,-0.0005406216951087117,-0.004102333448827267,0.0043686493299901485
1772563491459386000,9.82738623046875,-0.002017078222706914,-0.004853877238929272,0.004975583869963884
1772563491469454300,9.837454345703126,-0.002855707658454776,-0.005595301277935505,0.004649346694350243
1772563491479522300,9.847522216796875,-0.003093261504545808,-0.0017470336752012372,0.004349474795162678
1772563491489591000,9.857591064453125,-0.0035300198942422867,-0.007170028518885374,0.00612367270514369
1772563491499659300,9.8676591796875,-0.0038807583041489124,-0.005428587552160025,0.003388339886441827
1772563491509727200,9.877727294921876,-0.0025449167005717754,-0.0042706448584795,0.003967577591538429
1772563491519795200,9.887795166015625,-0.004490622319281101,-0.005481318105012178,0.0035169704351574183
1772563491529863700,9.89786376953125,-0.0032642364967614412,-0.005751895252615213,0.003576625371351838
1772563491539931600,9.907931640625,-0.004304733593016863,-0.004339887294918299,0.004973985720425844
1772563491549999600,9.91799951171875,-0.0027574370615184307,-0.004144677426666021,0.005851763766258955
1772563491560068600,9.928068603515625,-0.004737230949103832,-0.006220611743628979,0.0027145601343363523
1772563491570136800,9.93813671875,-0.0031334753148257732,-0.004962534178048372,0.003195793367922306
1772563491580204800,9.948204833984375,-0.0029728866647928953,-0.004020574036985636,0.0023936491925269365
1772563491590272800,9.958272705078125,-0.0031459920573979616,-0.0032234902027994394,0.0038370825350284576
1772563491600340500,9.968340576171874,-0.0016951019642874599,-0.005302087403833866,0.0007715177489444613
1772563491610408700,9.97840869140625,-0.0049034119583666325,-0.004514058120548725,0.002254632068797946
1772563491620476700,9.9884765625,-0.0030546458438038826,-0.005400624126195908,0.0025888588279485703
1772563491630544600,9.998544677734374,-0.0031158984638750553,-0.004088218789547682,0.0014588796766474843
1772563491640614000,10.00861376953125,-0.0031467911321669817,-0.004825914278626442,0.0021909826900810003
1772563491650681900,10.018681884765625,-0.003832288784906268,-0.004462126176804304,0.001996305538341403
1772563491660749600,10.02874951171875,-0.0019230686593800783,-0.004939631093293428,0.002167813014239073
1772563491670817500,10.038817626953126,-0.003028546692803502,-0.00424241553992033,0.0019955066964030266
1772563491680885800,10.0488857421875,-0.0034080471377819777,-0.0068208882585167885,0.004481833893805742
1772563491690953700,10.05895361328125,-0.00014514227223116904,-0.005711948033422232,0.0014194648247212172
1772563491701021700,10.069021728515626,-0.003215766977518797,-0.004388622939586639,0.0043867588974535465
1772563491711089700,10.079089599609375,-0.0020479708909988403,-0.00672368286177516,0.0032796829473227262
1772563491721158000,10.089157958984375,-0.004514590837061405,-0.0047119311057031155,0.001886317040771246
1772563491731226600,10.0992265625,-0.003403253620490432,-0.0036735644098371267,0.005901298485696316
1772563491741294600,10.109294677734376,-0.003665308468043804,-0.004277302883565426,0.0035049861762672663
1772563491751362800,10.11936279296875,-0.0028767467010766268,-0.006541789043694735,0.003070624778047204
1772563491761430800,10.1294306640625,-0.0022277343086898327,-0.0020538298413157463,0.0036543896421790123
1772563491771498800,10.139498779296876,-0.003132942598313093,-0.006007025949656963,-0.001446362817659974
1772563491781566700,10.149566650390625,-0.006079197861254215,-0.0030445256270468235,0.004113784991204739
1772563491791634700,10.159634765625,-0.002380599733442068,-0.00504136411473155,0.004304999951273203
1772563491801703700,10.16970361328125,-0.0032948628067970276,-0.005874666851013899,0.002151035238057375
1772563491811771600,10.179771728515625,-0.0034562505315989256,-0.0037864823825657368,0.0018956380663439631
1772563491821839600,10.189839599609375,-0.0046386937610805035,-0.005345763172954321,0.005307679995894432
1772563491831907800,10.199907958984374,-0.004094077739864588,-0.005434712860733271,-0.0005041363765485585
1772563491841975800,10.209975830078125,-0.004881840664893389,-0.003916711080819368,0.00461552431806922
1772563491852043500,10.22004345703125,-0.005871471017599106,-0.004041080828756094,0.0032003207597881556
1772563491862111500,10.230111572265624,-0.0052232579328119755,-0.004880775231868029,0.004448011517524719
1772563491872179700,10.2401796875,-0.005596366710960865,-0.005673332139849663,0.0019004317000508308
1772563491882247700,10.25024755859375,-0.0039049931801855564,-0.006776413414627314,0.004721518140286207
1772563491892316700,10.260316650390624,-0.0021614215802401304,-0.005291700828820467,0.004111121874302626
1772563491902384600,10.270384521484376,-0.0037436054553836584,-0.0036698358599096537,0.0028655612841248512
1772563491912452600,10.28045263671875,-0.0016402408946305513,-0.004545216914266348,0.004345213528722525
1772563491922520600,10.2905205078125,-0.003805124433711171,-0.004197940696030855,0.0016881778137758374
1772563491932588500,10.300588623046876,-0.003433080855756998,-0.004751878324896097,0.00472391489893198
1772563491942656800,10.31065673828125,-0.002719087526202202,-0.0037771612405776978,0.0018756643403321505
1772563491952724700,10.320724853515625,-0.004011785611510277,-0.006413957104086876,0.0034072482958436012
1772563491962793500,10.33079345703125,-0.0016330503858625889,-0.0062674833461642265,0.0030162963084876537
1772563491972861700,10.34086181640625,-0.0046815709210932255,-0.0043444144539535046,0.005072522908449173
1772563491982929700,10.3509296875,-0.003276220755651593,-0.005652825813740492,0.0014540859265252948
1772563491992997600,10.36099755859375,-0.0011385013349354267,-0.0044291033409535885,0.003829625668004155
1772563492003065600,10.371065673828125,-0.0027622305788099766,-0.005829393398016691,0.003900465788319707
1772563492013133800,10.3811337890625,-0.0017052220646291971,-0.0034442662727087736,0.0007597998483106494
1772563492023201800,10.391201904296874,-0.0018642127979546785,-0.00392709719017148,0.0016764599131420255
1772563492033269800,10.401269775390626,-0.004372910596430302,-0.003043726785108447,0.0024703482631593943
1772563492043337500,10.41133740234375,-0.0031337416730821133,-0.004817924462258816,0.003370230318978429
1772563492053406700,10.42140673828125,-0.003315103007480502,-0.0073260897770524025,0.0030088394414633512
1772563492063474700,10.431474609375,-0.0017158746486529708,-0.006446181330829859,0.00520674604922533
1772563492073542700,10.441542724609375,-0.0006801713607273996,-0.004836300387978554,0.004114584065973759
1772563492083611000,10.45161083984375,-0.00384453940205276,-0.007843275554478168,0.0033132387325167656
1772563492093678600,10.4616787109375,-0.0044200485572218895,-0.005194495897740126,0.0024168186355382204
1772563492103746600,10.47174658203125,-0.0017741979099810123,-0.0030892668291926384,0.003138801548629999
1772563492113814500,10.481814453125,-0.0012295814231038094,-0.005633118096739054,-0.0003424825263209641
1772563492123883800,10.4918837890625,-0.002260757377371192,-0.005832589231431484,0.004003263544291258
1772563492133951700,10.50195166015625,-0.005531918257474899,-0.0068270135670900345,0.0023558323737233877
1772563492144019700,10.512019775390625,-0.0015733955660834908,-0.0037987329997122288,0.004059189930558205
1772563492154087700,10.522087646484374,-0.0010271812789142132,-0.0043771713972091675,0.004522313829511404
1772563492164155600,10.53215576171875,-0.003228017594665289,-0.0031342741567641497,0.003468234557658434
1772563492174223600,10.5422236328125,-0.00446905056014657,-0.00689092930406332,0.0022889869287610054
1772563492184291600,10.55229150390625,-0.0023616913240402937,-0.004114849958568811,0.0011502192355692387
1772563492194359800,10.56235986328125,-0.0018287927377969027,-0.006106095854192972,0.005182777531445026
1772563492204427800,10.572427734375,-0.003820304526016116,-0.00538304727524519,0.0028075044974684715
1772563492214496500,10.58249658203125,-0.004742290824651718,-0.006797718815505505,0.0011725898366421461
1772563492224564700,10.592564697265624,-0.003328951308503747,-0.0054634748958051205,0.0026487798895686865
1772563492234632700,10.6026328125,-0.0036189695820212364,-0.0047031426802277565,0.005003014579415321
1772563492244700700,10.61270068359375,-0.004189152270555496,-0.005922870244830847,0.0010974886827170849
1772563492254768600,10.6227685546875,-0.0015848471084609628,-0.003955326974391937,0.002463157754391432
1772563492264836900,10.6328369140625,-0.0032804817892611027,-0.004080228973180056,0.003715642262250185
1772563492274904800,10.64290478515625,-0.002234658459201455,-0.0036663739010691643,0.004025900736451149
1772563492284972500,10.65297265625,-0.0026229473296552896,-0.004318581894040108,0.0017153420485556126
1772563492295041800,10.663041748046876,-0.003231213428080082,-0.004579039290547371,0.005826730281114578
1772563492305109800,10.67310986328125,-0.0031337416730821133,-0.0018466358305886388,0.005679191090166569
1772563492315177700,10.683177734375,-0.0034788872580975294,-0.004724713973701,-0.0012088088551536202
1772563492325245700,10.69324560546875,-0.00571833923459053,-0.005869074258953333,0.006766825914382935
1772563492335314000,10.70331396484375,-0.003748399205505848,-0.0030474551022052765,0.0034993935842067003
1772563492345381600,10.713381591796875,-0.0025158883072435856,-0.005654423497617245,0.0030887341126799583
1772563492355449600,10.72344970703125,-0.0030067088082432747,-0.003034672001376748,0.002558498876169324
1772563492365517600,10.733517578125,-0.004737230949103832,-0.006189985200762749,0.005504487548023462
1772563492375586800,10.7435869140625,-0.0038123151753097773,-0.007961253635585308,0.006420348770916462
1772563492385654800,10.75365478515625,-0.004227768164128065,-0.0059745353646576405,0.002805640222504735
1772563492395722800,10.76372265625,-0.0026168220210820436,-0.004373443312942982,0.001469798618927598
1772563492405790500,10.77379052734375,-0.005390504375100136,-0.003885818412527442,-0.000182959163794294
1772563492415858700,10.783858642578124,-0.004962534178048372,-0.005485845264047384,0.004363323096185923
1772563492425926700,10.7939267578125,-0.004012318328022957,-0.008016115054488182,0.003689809702336788
1772563492435994600,10.80399462890625,-0.004631503485143185,-0.003745203372091055,0.0057526943273842335
1772563492446062600,10.8140625,-0.0028762139845639467,-0.004004595335572958,0.0025387913919985294
1772563492456131600,10.824131591796874,-0.001975266495719552,-0.004580104257911444,0.0011952266795560718
1772563492466199600,10.834199462890625,-0.004096740856766701,-0.00384400668554008,0.0028447885997593403
1772563492476267500,10.844267578125,-0.00481339730322361,-0.005046423990279436,0.001680987305007875
1772563492486335700,10.854335693359374,-0.003079413203522563,-0.004406199790537357,0.0059630838222801685
1772563492496403700,10.86440380859375,-0.0021342572290450335,-0.0038211036007851362,0.00130947632715106
1772563492506471700,10.8744716796875,-0.0038272286765277386,-0.006485329940915108,0.004598480183631182
1772563492516539600,10.88453955078125,-0.0032176312524825335,-0.004995823837816715,0.0035920715890824795
1772563492526607600,10.894607666015625,-0.004038417246192694,-0.003492203075438738,0.0026493126060813665
1772563492536676600,10.904676513671875,-0.0023209447972476482,-0.0070456587709486485,0.0012974920682609081
1772563492546744600,10.91474462890625,-0.002139050979167223,-0.003968642558902502,0.004337756894528866
1772563492556812500,10.9248125,-0.004592621233314276,-0.00449994346126914,0.0009614011505618691
1772563492566880500,10.934880615234375,-0.004825647920370102,-0.004430967383086681,0.002251702593639493
1772563492576948700,10.94494873046875,-0.002454102970659733,-0.0041670482605695724,0.0019323896849527955
1772563492587016700,10.9550166015625,-0.00446851784363389,-0.0059966398403048515,0.001862348522990942
1772563492597084400,10.96508447265625,-0.0012663330417126417,-0.002442385070025921,0.0036370791494846344
1772563492607152400,10.97515234375,0.000027696874894900247,-0.0051843756809830666,0.0026117621455341578
1772563492617221600,10.9852216796875,-0.0041010016575455666,-0.005132710561156273,0.0021939121652394533
1772563492627289600,10.99528955078125,-0.002900981344282627,-0.0038839541375637054,0.0035625104792416096
1772563492637357600,11.005357666015625,-0.0036666402593255043,-0.007516505662351847,0.003326021833345294
1772563492647425500,11.015425537109374,-0.004452006425708532,-0.004484763368964195,0.0043870252557098866
1772563492657493500,11.025493408203126,-0.003984089009463787,-0.003369963960722089,0.0036213663406670094
1772563492667561500,11.0355615234375,-0.002394714392721653,-0.008450210094451904,0.00044661210267804563
1772563492677629400,11.04562939453125,-0.004550809506326914,-0.004999019671231508,0.003480751533061266
1772563492687697700,11.05569775390625,-0.0037942056078463793,-0.003912982530891895,0.004363323096185923
1772563492697766700,11.0657666015625,-0.0024639565963298082,-0.005826996639370918,0.003123355330899358
1772563492707834400,11.07583447265625,-0.0030154972337186337,-0.004479703027755022,0.0015182681381702423
1772563492717902600,11.085902587890626,-0.004504736978560686,-0.003979561384767294,0.004210990387946367
1772563492727970600,11.095970458984375,-0.003501257859170437,-0.003952131140977144,-0.0009946906939148903
1772563492738038500,11.10603857421875,-0.005750829819589853,-0.005192098673433065,0.0010604707058519125
1772563492748106500,11.1161064453125,-0.0043867588974535465,-0.0036418726667761803,0.005952431354671717
1772563492758174700,11.1261748046875,-0.003912982530891895,-0.004947886802256107,0.0032599754631519318
1772563492768242700,11.13624267578125,-0.003771835006773472,-0.005201419815421104,0.0025390577502548695
1772563492778310700,11.146310546875,-0.0032690302468836308,-0.007107710465788841,-0.0007709851488471031
1772563492788379600,11.156379638671876,-0.003704723436385393,-0.004459729418158531,0.002555835759267211
1772563492798447600,11.166447509765625,-0.004526308737695217,-0.002921487670391798,-0.0011472897604107857
1772563492808515600,11.176515625,-0.0022564963437616825,-0.0027505126781761646,0.0037936728913336992
1772563492818583600,11.18658349609375,-0.0036163064651191235,-0.0046354979276657104,0.004877579398453236
1772563492828651800,11.19665185546875,-0.004534564446657896,-0.004976116586476564,0.004224838688969612
1772563492838719500,11.206719482421875,-0.0024703482631593943,-0.0030690268613398075,-0.0007068029372021556
1772563492848787500,11.216787353515626,-0.0037260286044329405,-0.0048975530080497265,0.0027316042687743902
1772563492858855400,11.22685546875,-0.001942509668879211,-0.006046973634511232,0.0043840957805514336
1772563492868924700,11.236924560546875,-0.00387356779538095,-0.006935137789696455,0.0015749934827908874
1772563492878992600,11.24699267578125,-0.0025901903863996267,-0.005258145276457071,0.003625893732532859
1772563492889060600,11.257060546875,-0.0017097494564950466,-0.0043987431563436985,0.0018788601737469435
1772563492899128600,11.267128662109375,-0.0033657029271125793,-0.003906857222318649,0.0040948763489723206
1772563492909196500,11.277196533203124,-0.0048738508485257626,-0.005486910697072744,0.0006854976527392864
1772563492919264500,11.287264404296875,-0.0026881948579102755,-0.0034501252230256796,0.00005166532355360687
1772563492929332500,11.29733251953125,-0.005506884306669235,-0.004192614462226629,0.002040247665718198
1772563492939400700,11.307400634765624,-0.0018042916199192405,-0.004867991898208857,0.0015606123488396406
1772563492949469400,11.317469482421876,-0.0028881982434540987,-0.004142280668020248,0.0036796897184103727
1772563492959537400,11.327537353515625,-0.003120692213997245,-0.005102350376546383,0.0041558630764484406
1772563492969605400,11.33760546875,-0.003513242118060589,-0.005702626891434193,0.0024684839881956577
1772563492979673600,11.347673583984376,-0.0014884406700730324,-0.006081061903387308,0.0018423747969791293
1772563492989741600,11.357741455078125,-0.0034226945135742426,-0.008981777355074883,0.005486111622303724
1772563492999809500,11.3678095703125,-0.0037859496660530567,-0.005800630897283554,0.0002639192680362612
1772563493009877500,11.37787744140625,-0.0051894355565309525,-0.007813980802893639,0.005316202063113451
1772563493019945700,11.38794580078125,-0.0018905780743807554,-0.005868807900696993,0.004279966000467539
1772563493030014500,11.398014404296875,-0.0037795582320541143,-0.0035750274546444416,0.002302302746102214
1772563493040082400,11.40808251953125,-0.0031217574141919613,-0.004357996862381697,0.0036477316170930862
1772563493050150700,11.418150634765626,-0.0030831415206193924,-0.004205397795885801,0.002071140334010124
1772563493060218600,11.428218505859375,-0.003593403147533536,-0.004425374791026115,0.0007004113867878914
1772563493070286600,11.43828662109375,-0.005139900837093592,-0.006701578386127949,0.004474909510463476
1772563493080354600,11.4483544921875,-0.005253351293504238,-0.005927930120378733,0.0037262949626892805
1772563493090422500,11.458422607421875,-0.0011488876771181822,-0.0070919981226325035,0.0046639940701425076
1772563493100490500,11.468490478515625,-0.0038831550627946854,-0.004168113227933645,0.0017126789316534996
1772563493110559500,11.4785595703125,-0.0035028557758778334,-0.005263737868517637,0.0030120352748781443
1772563493120627700,11.488627685546875,-0.0044996771030128,-0.00373082235455513,0.004825115203857422
1772563493130695700,11.49869580078125,-0.0029055087361484766,-0.004391552414745092,0.0021856562234461308
1772563493140763600,11.508763671875,-0.005175587255507708,-0.0043532028794288635,0.004482366610318422
1772563493150831400,11.518831298828125,-0.003043726785108447,-0.00583818182349205,0.0006016080733388662
1772563493160899600,11.528899658203125,-0.003168096300214529,-0.0049428269267082214,0.0006223807577043772
1772563493170967600,11.538967529296874,-0.004874916281551123,-0.004671450704336166,0.003826696192845702
1772563493181035500,11.549035400390625,-0.0022072279825806618,-0.003997670952230692,0.0034908715169876814
1772563493191103500,11.559103515625,-0.005233910400420427,-0.00660437298938632,0.0057068876922130585
1772563493201172500,11.56917236328125,-0.002688727341592312,-0.005140699911862612,0.003037601476535201
1772563493211240400,11.579240478515626,-0.0029739518649876118,-0.004454935900866985,0.0013222594279795885
1772563493221308400,11.589308349609375,-0.003438939806073904,-0.0057439059019088745,0.001955026527866721
1772563493231376600,11.599376708984375,-0.0032168321777135134,-0.005665342323482037,0.0021909826900810003
1772563493241444600,11.609444580078126,-0.004229099955409765,-0.003978230059146881,0.003353186184540391
1772563493251512600,11.6195126953125,-0.0016708672046661377,-0.0029558425303548574,0.004994226153939962
1772563493261580500,11.62958056640625,-0.0023928501177579165,-0.0029766152147203684,0.0003281014505773783
1772563493271648800,11.639648681640624,-0.004137753508985043,-0.005842442624270916,0.0034469293896108866
1772563493281717500,11.649717529296876,-0.0037976677995175123,-0.004515123087912798,0.006016879808157682
1772563493291785500,11.659785400390625,-0.0032471923623234034,0.03075365163385868,0.03026629239320755
1772563493301853700,11.669853759765624,-0.003704723436385393,0.06787998229265213,0.013827931135892868
1772563493311921700,11.679921630859376,-0.0052115400321781635,0.06398644298315048,0.020832577720284462
1772563493321989600,11.68998974609375,-0.004062652122229338,0.02366058900952339,0.021220333874225616
1772563493332057600,11.7000576171875,-0.003971838392317295,-0.0030272151343524456,-0.0016434367280453444
1772563493342125600,11.71012548828125,-0.002427471335977316,-0.013222861103713512,-0.008749016560614109
1772563493352193500,11.720193603515625,-0.0025957829784601927,-0.02106240764260292,-0.010486463084816933
1772563493362262500,11.730262451171875,-0.0028873991686850786,-0.033433057367801666,-0.010160225443542004
1772563493372330800,11.740330810546874,-0.002767290687188506,-0.07778241485357285,-0.007172691635787487
1772563493382398700,11.750398681640625,-0.00001944107498275116,-0.11306343972682953,-0.01828473061323166
1772563493392466400,11.760466552734375,-0.00045353634050115943,-0.0649728775024414,-0.003820570884272456
