time,seconds_elapsed,z,y,x
1772561425054274000,0.055274169921875,-0.909149169921875,-0.382843017578125,0.1230010986328125
1772561425064340200,0.06534033203125,-0.8382110595703125,-0.1404266357421875,0.20025634765625
1772561425074407200,0.0754072265625,-0.75689697265625,0.0081329345703125,0.1754913330078125
1772561425084473000,0.08547314453125,-0.7486724853515625,-0.1193084716796875,0.133575439453125
1772561425094540000,0.0955400390625,-0.79730224609375,-0.2639312744140625,0.1746673583984375
1772561425104606200,0.105606201171875,-0.954559326171875,-0.4757232666015625,0.253875732421875
1772561425114673200,0.115673095703125,-0.913726806640625,-0.5452423095703125,0.1993408203125
1772561425124739000,0.125739013671875,-0.858673095703125,-0.5047607421875,0.1539154052734375
1772561425134806300,0.13580615234375,-0.9049224853515625,-0.4781036376953125,0.1655731201171875
1772561425144872200,0.1458720703125,-0.9389190673828125,-0.452239990234375,0.183319091796875
1772561425154939100,0.155939208984375,-0.9889984130859375,-0.4463348388671875,0.21917724609375
1772561425165005300,0.16600537109375,-1.027496337890625,-0.4494171142578125,0.2483062744140625
1772561425175072300,0.176072265625,-0.9253387451171875,-0.4136505126953125,0.2468109130859375
1772561425185138200,0.18613818359375,-0.6284942626953125,-0.350921630859375,0.2361297607421875
1772561425195205000,0.196205078125,-0.74609375,-0.3515167236328125,0.1890106201171875
1772561425205272300,0.206272216796875,-0.8682098388671875,-0.3668975830078125,0.10546875
1772561425215338200,0.216338134765625,-0.735992431640625,-0.35418701171875,0.0235748291015625
1772561425225405200,0.2264052734375,-0.5839080810546875,-0.3567657470703125,-0.0175933837890625
1772561425235471400,0.236471435546875,-0.6689605712890625,-0.4087677001953125,0.0311126708984375
1772561425245538300,0.246538330078125,-1.1618499755859375,-0.420135498046875,0.17144775390625
1772561425255604200,0.256604248046875,-1.0637054443359375,-0.356109619140625,0.17205810546875
1772561425265671200,0.266671142578125,-0.9991912841796875,-0.270111083984375,0.2005462646484375
1772561425275737000,0.276737060546875,-0.8235626220703125,-0.2467041015625,0.12164306640625
1772561425285804300,0.28680419921875,-0.7317962646484375,-0.253204345703125,0.0775909423828125
1772561425295870000,0.296869873046875,-0.7928924560546875,-0.3406829833984375,0.113800048828125
1772561425305937200,0.306937255859375,-0.844329833984375,-0.347564697265625,0.14849853515625
1772561425316003000,0.317003173828125,-0.8403778076171875,-0.204376220703125,0.1214752197265625
1772561425326070000,0.327070068359375,-0.9085540771484375,-0.0478057861328125,0.13970947265625
1772561425336136200,0.33713623046875,-1.045806884765625,-0.0325927734375,0.225372314453125
1772561425346203100,0.347203125,-1.1848297119140625,-0.2139434814453125,0.2456207275390625
1772561425356269000,0.35726904296875,-1.1567535400390625,-0.4659881591796875,0.1079559326171875
1772561425366336000,0.3673359375,-0.942901611328125,-0.4942169189453125,-0.07769775390625
1772561425376402200,0.377402099609375,-0.7983245849609375,-0.3852386474609375,-0.1453399658203125
1772561425386469000,0.38746923828125,-0.8404693603515625,-0.3365631103515625,-0.1194915771484375
1772561425396535000,0.39753515625,-0.95465087890625,-0.3292236328125,-0.08953857421875
1772561425406602200,0.407602294921875,-1.0176239013671875,-0.2944488525390625,-0.05938720703125
1772561425416668200,0.417668212890625,-1.01434326171875,-0.2665557861328125,-0.0187835693359375
1772561425426735000,0.427735107421875,-1.02105712890625,-0.298492431640625,0.0008697509765625
1772561425436801300,0.43780126953125,-1.0191497802734375,-0.327880859375,-0.0242462158203125
1772561425446868200,0.4478681640625,-0.9723052978515625,-0.3427276611328125,-0.0672607421875
1772561425456934100,0.45793408203125,-0.9235076904296875,-0.3653717041015625,-0.094970703125
1772561425467001000,0.4680009765625,-0.879791259765625,-0.3962249755859375,-0.107269287109375
1772561425477067300,0.4780673828125,-0.8332672119140625,-0.439544677734375,-0.1295928955078125
1772561425487134200,0.48813427734375,-0.8125152587890625,-0.4901885986328125,-0.165069580078125
1772561425497200000,0.4982001953125,-0.799591064453125,-0.494293212890625,-0.1947021484375
1772561425507267300,0.508267333984375,-0.8482513427734375,-0.41943359375,-0.1776580810546875
1772561425517333200,0.518333251953125,-0.91192626953125,-0.2972869873046875,-0.069671630859375
1772561425527400200,0.528400146484375,-0.9505157470703125,-0.23040771484375,0.0596466064453125
1772561425537466000,0.538466064453125,-0.95208740234375,-0.2408905029296875,0.152923583984375
1772561425547533800,0.548533935546875,-0.932830810546875,-0.2801055908203125,0.1688232421875
1772561425557599700,0.558599853515625,-0.9603424072265625,-0.3092803955078125,0.106689453125
1772561425567666700,0.568666748046875,-0.9791259765625,-0.279266357421875,0.0462493896484375
1772561425577732900,0.57873291015625,-0.8264007568359375,-0.226654052734375,0.023101806640625
1772561425587799800,0.5887998046875,-0.6882781982421875,-0.254974365234375,0.016845703125
1772561425597866800,0.59886669921875,-0.721710205078125,-0.3455657958984375,0.00128173828125
1772561425607933000,0.608932861328125,-0.8620147705078125,-0.3682708740234375,-0.04034423828125
1772561425618000000,0.618999755859375,-1.1242523193359375,-0.233245849609375,-0.06451416015625
1772561425628065800,0.629065673828125,-1.3037567138671875,0.0804443359375,-0.0160675048828125
1772561425638132700,0.6391328125,-1.372650146484375,0.11920166015625,-0.14398193359375
1772561425648199000,0.649198974609375,-1.28369140625,-0.1739654541015625,-0.1580352783203125
1772561425658265900,0.659265869140625,-0.73541259765625,-0.3633880615234375,0.030242919921875
1772561425668331800,0.669331787109375,-0.3851776123046875,-0.4447479248046875,0.1266632080078125
1772561425678398700,0.679398681640625,-0.294952392578125,-0.4782867431640625,0.085205078125
1772561425688464600,0.689464599609375,-0.2835693359375,-0.6816558837890625,-0.00146484375
1772561425698531600,0.699531494140625,-0.4385223388671875,-0.918975830078125,-0.181427001953125
1772561425708597800,0.70959765625,-0.6086273193359375,-0.9564971923828125,-0.37005615234375
1772561425718664700,0.719664794921875,-0.8413543701171875,-0.910430908203125,-0.538421630859375
1772561425728730600,0.729730712890625,-0.932342529296875,-0.7691497802734375,-0.5755767822265625
1772561425738797600,0.739797607421875,-0.9573211669921875,-0.674072265625,-0.5706329345703125
1772561425748863700,0.74986376953125,-0.983612060546875,-0.5791168212890625,-0.4311370849609375
1772561425758930700,0.7599306640625,-0.8553619384765625,-0.55999755859375,-0.207794189453125
1772561425768996600,0.76999658203125,-0.7237548828125,-0.580780029296875,-0.011077880859375
1772561425779063800,0.780063720703125,-0.7070159912109375,-0.601715087890625,0.1000518798828125
1772561425789129700,0.790129638671875,-0.7700653076171875,-0.5963287353515625,0.1355133056640625
1772561425799196700,0.80019677734375,-0.8769073486328125,-0.5502777099609375,0.116729736328125
1772561425809262800,0.810262939453125,-0.9733123779296875,-0.4842071533203125,0.072662353515625
1772561425819329800,0.820329833984375,-1.021087646484375,-0.4508209228515625,0.051483154296875
1772561425829395700,0.830395751953125,-1.039093017578125,-0.42742919921875,0.0814056396484375
1772561425839462700,0.840462646484375,-1.0579376220703125,-0.4074859619140625,0.117095947265625
1772561425849528800,0.85052880859375,-1.0823974609375,-0.3822479248046875,0.1269378662109375
1772561425859595800,0.860595703125,-1.0689544677734375,-0.3668365478515625,0.137420654296875
1772561425869661700,0.87066162109375,-1.0116424560546875,-0.38653564453125,0.1378021240234375
1772561425879729000,0.88072900390625,-0.955810546875,-0.4179840087890625,0.1187896728515625
1772561425889794800,0.890794921875,-0.90814208984375,-0.4816741943359375,0.090301513671875
1772561425899861800,0.90086181640625,-0.83013916015625,-0.5152435302734375,0.0609283447265625
1772561425909928000,0.910927978515625,-0.6883392333984375,-0.5272674560546875,0.09600830078125
1772561425919995000,0.920994873046875,-0.6570587158203125,-0.5167388916015625,0.1320648193359375
1772561425930060800,0.931060791015625,-0.792205810546875,-0.495452880859375,0.1034088134765625
1772561425940127700,0.941127685546875,-0.881622314453125,-0.4846954345703125,0.036712646484375
1772561425950193700,0.951193603515625,-0.876007080078125,-0.5149078369140625,0.016998291015625
1772561425960260600,0.961260498046875,-0.816070556640625,-0.5480194091796875,0.0717620849609375
1772561425970326800,0.971326904296875,-0.7148895263671875,-0.555511474609375,0.095550537109375
1772561425980393700,0.981393798828125,-0.683990478515625,-0.549591064453125,0.1106414794921875
1772561425990460700,0.991460693359375,-0.7735443115234375,-0.500152587890625,0.098419189453125
1772561426000526600,1.001526611328125,-0.84844970703125,-0.4520721435546875,0.0838165283203125
1772561426010593500,1.011593505859375,-0.84503173828125,-0.4311370849609375,0.0775909423828125
1772561426020659700,1.02165966796875,-0.9212799072265625,-0.454559326171875,0.0411376953125
1772561426030726700,1.0317265625,-1.19384765625,-0.5071258544921875,-0.0153045654296875
1772561426040792600,1.04179248046875,-1.2836151123046875,-0.47528076171875,-0.0367431640625
1772561426050859800,1.05185986328125,-1.113128662109375,-0.3772430419921875,-0.0218048095703125
1772561426060925700,1.06192578125,-0.8841552734375,-0.3048095703125,0.02801513671875
1772561426070992600,1.07199267578125,-0.7499542236328125,-0.283233642578125,0.0797271728515625
1772561426081058800,1.082058837890625,-0.776214599609375,-0.3046417236328125,0.0796051025390625
1772561426091125800,1.092125732421875,-0.823028564453125,-0.2852783203125,0.0700225830078125
1772561426101191700,1.102191650390625,-0.847442626953125,-0.223114013671875,0.07769775390625
1772561426111258600,1.112258544921875,-0.9690399169921875,-0.223175048828125,0.1073455810546875
1772561426121324800,1.12232470703125,-1.115966796875,-0.2756500244140625,0.1813201904296875
1772561426131391700,1.132391845703125,-1.2745361328125,-0.3167266845703125,0.1464080810546875
1772561426141458000,1.1424580078125,-1.29730224609375,-0.3141021728515625,0.007049560546875
1772561426151524900,1.15252490234375,-1.212066650390625,-0.300140380859375,-0.1162109375
1772561426161590800,1.1625908203125,-1.136993408203125,-0.3216705322265625,-0.1450347900390625
1772561426171657700,1.17265771484375,-1.1087799072265625,-0.3840789794921875,-0.1276092529296875
1772561426181724000,1.182723876953125,-1.0298614501953125,-0.3858642578125,-0.0783538818359375
1772561426191790800,1.192790771484375,-0.9286346435546875,-0.3358001708984375,-0.0381011962890625
1772561426201856800,1.202856689453125,-0.8242645263671875,-0.2931976318359375,0.0462646484375
1772561426211923700,1.212923828125,-0.8261566162109375,-0.2637481689453125,0.1399688720703125
1772561426221989600,1.22298974609375,-0.8720855712890625,-0.2954864501953125,0.1561737060546875
1772561426232056800,1.233056884765625,-0.905731201171875,-0.33563232421875,0.073150634765625
1772561426242122800,1.243122802734375,-0.81268310546875,-0.2989349365234375,0.1360626220703125
1772561426252189700,1.253189697265625,-0.7604217529296875,-0.3391876220703125,0.162078857421875
1772561426262255600,1.263255615234375,-0.726593017578125,-0.3571319580078125,0.1212310791015625
1772561426272322600,1.273322509765625,-0.7374114990234375,-0.3928985595703125,0.065185546875
1772561426282388700,1.283388671875,-0.7678375244140625,-0.4027862548828125,0.001251220703125
1772561426292455700,1.29345556640625,-0.8118133544921875,-0.382110595703125,-0.059539794921875
1772561426302521600,1.303521484375,-0.8616485595703125,-0.364959716796875,-0.0802764892578125
1772561426312588800,1.3135888671875,-0.9554443359375,-0.319580078125,-0.0233001708984375
1772561426322654700,1.32365478515625,-1.241058349609375,-0.1942901611328125,0.0387725830078125
1772561426332721700,1.3337216796875,-0.7810821533203125,-0.196258544921875,0.08477783203125
1772561426342787800,1.343787841796875,-0.6571807861328125,-0.2537841796875,0.1672821044921875
1772561426352854800,1.353854736328125,-0.478912353515625,-0.2363739013671875,0.1359405517578125
1772561426362921700,1.363921630859375,-0.3524627685546875,-0.2689971923828125,0.0265655517578125
1772561426372987600,1.373987548828125,-0.4040374755859375,-0.289093017578125,-0.004669189453125
1772561426383054800,1.384054931640625,-0.5276641845703125,-0.2816925048828125,0.03350830078125
1772561426393120800,1.394120849609375,-0.6417694091796875,-0.2918243408203125,0.01287841796875
1772561426403187700,1.404187744140625,-0.6742401123046875,-0.2804412841796875,-0.040679931640625
1772561426413254000,1.41425390625,-0.5964508056640625,-0.2302703857421875,-0.0724639892578125
1772561426423320800,1.42432080078125,-0.571075439453125,-0.235748291015625,-0.0894927978515625
1772561426433386800,1.43438671875,-0.659576416015625,-0.2703094482421875,-0.1119537353515625
1772561426443453700,1.44445361328125,-0.7853851318359375,-0.2390594482421875,-0.10906982421875
1772561426453520000,1.454519775390625,-0.9836883544921875,-0.0674591064453125,-0.0802154541015625
1772561426463586800,1.4645869140625,-0.7354583740234375,0.0445404052734375,0.0638427734375
1772561426473652700,1.47465283203125,-0.63238525390625,-0.01141357421875,0.1074066162109375
1772561426483720000,1.484719970703125,-0.67523193359375,-0.1290130615234375,0.0828857421875
1772561426493785900,1.494785888671875,-0.7521514892578125,-0.1732177734375,-0.019439697265625
1772561426503852800,1.504852783203125,-0.834564208984375,-0.1373748779296875,-0.123565673828125
1772561426513918700,1.514918701171875,-0.9185943603515625,-0.1008453369140625,-0.154022216796875
1772561426523986000,1.52498583984375,-0.8710479736328125,-0.1150970458984375,-0.062652587890625
1772561426534051600,1.535051513671875,-0.8784942626953125,-0.154815673828125,0.0522613525390625
1772561426544118500,1.545118408203125,-0.9362335205078125,-0.184722900390625,0.166717529296875
1772561426554184200,1.55518408203125,-0.9268798828125,-0.219757080078125,0.19586181640625
1772561426564251100,1.565251220703125,-0.93914794921875,-0.3036041259765625,0.196868896484375
1772561426574317300,1.5753173828125,-1.0898284912109375,-0.4432830810546875,0.10650634765625
1772561426584384300,1.58538427734375,-1.3236236572265625,-0.59027099609375,-0.0761566162109375
1772561426594450200,1.5954501953125,-1.524017333984375,-0.69580078125,-0.2349700927734375
1772561426604517000,1.60551708984375,-1.7132568359375,-0.7377166748046875,-0.178314208984375
1772561426614583000,1.6155830078125,-1.9058990478515625,-0.918548583984375,-0.0893402099609375
1772561426624650000,1.62564990234375,-2.1964569091796875,-1.0582275390625,-0.1598358154296875
1772561426634716200,1.635716064453125,-2.57269287109375,-1.014404296875,-0.2810211181640625
1772561426644783000,1.645783203125,-2.821197509765625,-0.9564208984375,-0.2073974609375
1772561426654849000,1.65584912109375,-2.9272918701171875,-0.965240478515625,0.04644775390625
1772561426664916000,1.665916015625,-2.9234619140625,-0.990264892578125,0.2851715087890625
1772561426674982100,1.675982177734375,-2.6062469482421875,-1.1188812255859375,0.3258514404296875
1772561426685049000,1.686049072265625,-2.3603515625,-1.2554779052734375,0.135284423828125
1772561426695116000,1.696115966796875,-2.3899383544921875,-1.3056182861328125,-0.1050567626953125
1772561426705182000,1.706181884765625,-2.4632110595703125,-1.32049560546875,-0.2851409912109375
1772561426715249200,1.716249267578125,-2.47314453125,-1.323211669921875,-0.433441162109375
1772561426725315000,1.726315185546875,-2.4824066162109375,-1.2715301513671875,-0.522247314453125
1772561426735382000,1.736382080078125,-2.286407470703125,-1.1114349365234375,-0.548797607421875
1772561426745448200,1.7464482421875,-1.8063201904296875,-0.7651519775390625,-0.681365966796875
1772561426755515100,1.75651513671875,-1.23101806640625,-0.4215850830078125,-0.757171630859375
1772561426765581000,1.7665810546875,-0.8687286376953125,-0.507232666015625,-0.4089813232421875
1772561426775648000,1.77664794921875,-0.7808074951171875,-0.660797119140625,-0.0394134521484375
1772561426785714200,1.786714111328125,-0.71160888671875,-0.5026397705078125,-0.1878662109375
1772561426795781000,1.796781005859375,-0.631805419921875,-0.2617950439453125,-0.45965576171875
1772561426805847000,1.806846923828125,-0.47149658203125,-0.1869049072265625,-0.4496612548828125
1772561426815914200,1.816914306640625,-0.3184661865234375,-0.1193389892578125,-0.353240966796875
1772561426825980200,1.826980224609375,-0.28387451171875,-0.04156494140625,-0.284912109375
1772561426836047000,1.837047119140625,-0.2237091064453125,0.0089263916015625,-0.205413818359375
1772561426846113300,1.84711328125,-0.167877197265625,0.1375732421875,-0.1841583251953125
1772561426856180200,1.85718017578125,-0.3751220703125,0.31231689453125,-0.1848602294921875
1772561426866246100,1.86724609375,-0.6744232177734375,0.4594573974609375,-0.09906005859375
1772561426876313000,1.87731298828125,-0.793426513671875,0.468170166015625,0.047637939453125
1772561426886379000,1.88737890625,-0.575897216796875,0.305450439453125,0.0890960693359375
1772561426896446200,1.8974462890625,-0.091033935546875,0.1792449951171875,-0.127288818359375
1772561426906512100,1.90751220703125,0.3777618408203125,0.146942138671875,-0.46875
1772561426916579000,1.9175791015625,0.5533905029296875,0.098876953125,-0.838348388671875
1772561426926645000,1.92764501953125,0.57952880859375,0.2598724365234375,-0.7001495361328125
1772561426936712000,1.9377119140625,0.5760498046875,0.2740020751953125,-0.4538726806640625
1772561426946778000,1.947778076171875,0.48455810546875,0.3268585205078125,-0.118194580078125
1772561426956845000,1.957844970703125,0.3031768798828125,0.328765869140625,0.2591400146484375
1772561426966911000,1.967910888671875,0.20672607421875,0.1833038330078125,0.3937835693359375
1772561426976978200,1.977978271484375,0.26629638671875,0.1255035400390625,0.19012451171875
1772561426987044000,1.988044189453125,0.357391357421875,0.0446624755859375,-0.08441162109375
1772561426997111000,1.998111083984375,0.4088134765625,-0.0863800048828125,-0.330657958984375
1772561427007177200,2.00817724609375,0.256683349609375,-0.0724334716796875,-0.4831695556640625
1772561427017244200,2.018244140625,0.06768798828125,0.045989990234375,-0.3654022216796875
1772561427027311000,2.02831103515625,0.003814697265625,0.1259002685546875,-0.058990478515625
1772561427037377000,2.038376953125,0.0103759765625,0.204742431640625,0.1941986083984375
1772561427047444200,2.0484443359375,0.0962982177734375,0.29833984375,0.266265869140625
1772561427057510100,2.05851025390625,0.1235809326171875,0.392120361328125,0.2786865234375
1772561427067577000,2.0685771484375,0.058929443359375,0.4540557861328125,0.3141937255859375
1772561427077643300,2.078643310546875,-0.0576629638671875,0.5042572021484375,0.3297576904296875
1772561427087710200,2.088710205078125,-0.16534423828125,0.5463409423828125,0.39031982421875
1772561427097776000,2.098776123046875,-0.2993011474609375,0.4815521240234375,0.6053009033203125
1772561427107843000,2.108843017578125,-0.238922119140625,0.221038818359375,0.8809661865234375
1772561427117909200,2.1189091796875,-0.05694580078125,-0.1688385009765625,1.0935821533203125
1772561427127976200,2.12897607421875,0.0841827392578125,-0.5494384765625,1.114532470703125
1772561427138042000,2.1390419921875,0.206268310546875,-0.5843048095703125,0.976104736328125
1772561427148109300,2.149109375,0.137115478515625,-0.3918609619140625,0.88134765625
1772561427158175200,2.15917529296875,-0.1276092529296875,-0.32330322265625,0.8952484130859375
1772561427168242200,2.1692421875,-0.4062042236328125,-0.327880859375,0.8121490478515625
1772561427178308000,2.17930810546875,-0.73492431640625,-0.3980865478515625,0.52374267578125
1772561427188375300,2.189375244140625,-1.0505523681640625,-0.527435302734375,0.2296905517578125
1772561427198441000,2.19944091796875,-1.1636199951171875,-0.6321868896484375,0.10260009765625
1772561427208508000,2.2095078125,-1.2056121826171875,-0.6446990966796875,0.1700592041015625
1772561427218574000,2.219573974609375,-1.2897186279296875,-0.6850738525390625,0.1734619140625
1772561427228641000,2.22964111328125,-1.4665374755859375,-0.7829742431640625,-0.01080322265625
1772561427238707000,2.23970703125,-1.7601776123046875,-0.86956787109375,-0.2541961669921875
1772561427248774100,2.249774169921875,-2.2674407958984375,-0.8903961181640625,-0.316558837890625
1772561427258840000,2.259840087890625,-2.7852020263671875,-1.029937744140625,-0.171783447265625
1772561427268907000,2.269906982421875,-2.915557861328125,-1.211029052734375,0.0510711669921875
1772561427278973200,2.27997314453125,-2.6636810302734375,-1.2795562744140625,0.135009765625
1772561427289040100,2.2900400390625,-2.6645050048828125,-1.3379669189453125,-0.0167388916015625
1772561427299107000,2.300107177734375,-3.0862579345703125,-1.48065185546875,-0.0517120361328125
1772561427309173000,2.310173095703125,-3.3489837646484375,-1.4227142333984375,0.05712890625
1772561427319240200,2.320240234375,-3.7970123291015625,-0.960662841796875,0.4300079345703125
1772561427329306000,2.33030615234375,-3.993743896484375,-0.7687530517578125,0.6771087646484375
1772561427339373000,2.340373046875,-3.989105224609375,-0.69683837890625,0.3475341796875
1772561427349439200,2.350439208984375,-4.2058868408203125,-0.5933685302734375,-0.29931640625
1772561427359506200,2.360506103515625,-4.420623779296875,-0.5448455810546875,-0.8245391845703125
1772561427369572000,2.370572021484375,-3.9688873291015625,-0.571502685546875,-0.9828033447265625
1772561427379639000,2.38063916015625,-2.9322357177734375,-0.5634307861328125,-0.9307403564453125
1772561427389705200,2.390705322265625,-2.1815185546875,-0.1631011962890625,-1.0173492431640625
1772561427399772200,2.400772216796875,-1.8746795654296875,0.0547637939453125,-0.7323150634765625
1772561427409838000,2.410838134765625,-1.40252685546875,-0.260406494140625,-0.2311859130859375
1772561427419905300,2.4209052734375,-0.7344970703125,-0.3023681640625,-0.15887451171875
1772561427429971200,2.43097119140625,-0.2220916748046875,0.023468017578125,-0.2123565673828125
1772561427440038100,2.4410380859375,0.009124755859375,0.173828125,0.0128326416015625
1772561427450104300,2.451104248046875,0.0703582763671875,0.05560302734375,0.315582275390625
1772561427460171300,2.461171142578125,0.1331787109375,-0.007843017578125,0.3290252685546875
1772561427470237000,2.47123681640625,0.11895751953125,0.060150146484375,0.1268768310546875
1772561427480304000,2.48130419921875,-0.032745361328125,0.093597412109375,-0.0087890625
1772561427490370000,2.4913701171875,-0.1462249755859375,0.1365814208984375,0.000335693359375
1772561427500437000,2.50143701171875,-0.1433563232421875,0.13189697265625,0.09967041015625
1772561427510503200,2.511503173828125,0.090423583984375,-0.049774169921875,0.1592254638671875
1772561427520570000,2.521570068359375,0.455810546875,-0.177978515625,0.09423828125
1772561427530636000,2.531635986328125,0.6222076416015625,-0.148162841796875,0.029510498046875
1772561427540703000,2.541702880859375,0.794281005859375,-0.0633392333984375,0.0675811767578125
1772561427550769000,2.551768798828125,1.0415191650390625,0.0130615234375,0.0671844482421875
1772561427560835800,2.5618359375,0.9911956787109375,0.0783233642578125,0.083160400390625
1772561427570902800,2.57190283203125,0.81158447265625,0.105072021484375,0.128570556640625
1772561427580969000,2.581968994140625,0.54736328125,0.073150634765625,0.17071533203125
1772561427591036000,2.592035888671875,0.3203277587890625,0.0409698486328125,0.180389404296875
1772561427601101800,2.602101806640625,0.153533935546875,0.0233917236328125,0.068328857421875
1772561427611168800,2.612168701171875,-0.03448486328125,-0.0078125,-0.152191162109375
1772561427621235000,2.62223486328125,-0.2857208251953125,-0.0582427978515625,-0.3351898193359375
1772561427631302000,2.632302001953125,-0.33123779296875,0.0050201416015625,-0.45196533203125
1772561427641367800,2.642367919921875,-0.3876953125,0.1219024658203125,-0.4928436279296875
1772561427651435000,2.65243505859375,-0.4839324951171875,0.189208984375,-0.38568115234375
1772561427661501000,2.6625009765625,-0.6046142578125,0.225372314453125,-0.2640533447265625
1772561427671568000,2.67256787109375,-0.8286895751953125,0.3248748779296875,-0.24322509765625
1772561427681634000,2.682634033203125,-1.0194244384765625,0.4637298583984375,-0.242767333984375
1772561427691701000,2.692700927734375,-1.149627685546875,0.5865020751953125,-0.1905670166015625
1772561427701767000,2.702766845703125,-1.158447265625,0.647735595703125,-0.0512847900390625
1772561427711833900,2.712833740234375,-0.8965606689453125,0.5356903076171875,0.09796142578125
1772561427721900000,2.722900146484375,-0.52142333984375,0.39276123046875,0.1868743896484375
1772561427731967000,2.732967041015625,-0.1910858154296875,0.2090301513671875,0.2335968017578125
1772561427742032600,2.74303271484375,0.1086273193359375,-0.046722412109375,0.3241119384765625
1772561427752099800,2.753099853515625,0.302581787109375,-0.3122100830078125,0.4421234130859375
1772561427762165800,2.763165771484375,0.3629302978515625,-0.474517822265625,0.5162200927734375
1772561427772232700,2.773232666015625,0.365875244140625,-0.4035797119140625,0.5718231201171875
1772561427782299000,2.783298828125,0.290679931640625,-0.15869140625,0.6589508056640625
1772561427792365800,2.79336572265625,0.00799560546875,0.017913818359375,0.772552490234375
1772561427802432800,2.803432861328125,-0.3504486083984375,-0.03033447265625,0.796630859375
1772561427812498700,2.813498779296875,-0.6846923828125,-0.2447357177734375,0.555450439453125
1772561427822566000,2.82356591796875,-1.0855865478515625,-0.4686431884765625,0.1986541748046875
1772561427832631800,2.8336318359375,-1.2272186279296875,-0.61968994140625,-0.08099365234375
1772561427842698800,2.84369873046875,-1.172149658203125,-0.5413055419921875,-0.149993896484375
1772561427852765000,2.853764892578125,-1.412841796875,-0.29913330078125,-0.0120849609375
1772561427862831900,2.863831787109375,-1.91595458984375,-0.157623291015625,0.0984954833984375
1772561427872897800,2.873897705078125,-2.3759918212890625,-0.3036956787109375,0.0896759033203125
1772561427882964700,2.88396484375,-2.5247650146484375,-0.6814727783203125,-0.001190185546875
1772561427893031000,2.894031005859375,-2.3440399169921875,-1.147705078125,-0.0065155029296875
1772561427903097900,2.904097900390625,-2.2628936767578125,-1.4253997802734375,0.1395721435546875
1772561427913163800,2.914163818359375,-2.773529052734375,-1.3330841064453125,0.352386474609375
1772561427923231000,2.92423095703125,-3.746124267578125,-0.63592529296875,0.47802734375
1772561427933297000,2.934296875,-3.828399658203125,0.113067626953125,0.0484466552734375
1772561427943363800,2.94436376953125,-2.865509033203125,0.073516845703125,-0.4814453125
1772561427953430000,2.954429931640625,-2.6556854248046875,-1.122650146484375,-0.215728759765625
1772561427963497000,2.9644970703125,-2.99908447265625,-1.3792266845703125,0.03436279296875
1772561427973563000,2.97456298828125,-3.3931121826171875,-0.724700927734375,0.3395843505859375
1772561427983629800,2.9846298828125,-3.20904541015625,-0.803924560546875,0.5613555908203125
1772561427993696000,2.994696044921875,-3.0816192626953125,-0.645294189453125,0.0788726806640625
1772561428003763000,3.004762939453125,-3.1995086669921875,-0.3859100341796875,-0.3200531005859375
1772561428013828900,3.014828857421875,-3.145477294921875,-0.3413543701171875,-0.141021728515625
1772561428023896000,3.02489599609375,-2.2802276611328125,-0.3190460205078125,0.1477813720703125
1772561428033961700,3.034961669921875,-1.019073486328125,-0.1623992919921875,0.3952178955078125
1772561428044028700,3.045028564453125,-0.161285400390625,0.028594970703125,0.53704833984375
1772561428054096000,3.055095947265625,0.173736572265625,0.285614013671875,0.536163330078125
1772561428064161800,3.065161865234375,0.189483642578125,0.62457275390625,0.393951416015625
1772561428074228700,3.075228759765625,-0.0844268798828125,0.91009521484375,0.241119384765625
1772561428084295000,3.085294921875,-0.4631500244140625,0.8584442138671875,0.2478790283203125
1772561428094361900,3.09536181640625,-0.6611785888671875,0.495391845703125,0.3523101806640625
1772561428104427800,3.105427734375,-0.4860687255859375,0.1800994873046875,0.2370147705078125
1772561428114494700,3.11549462890625,-0.0881195068359375,0.054656982421875,-0.130462646484375
1772561428124561000,3.125560791015625,0.303314208984375,-0.0301513671875,-0.5579833984375
1772561428134627800,3.1356279296875,0.488739013671875,-0.034210205078125,-0.8248291015625
1772561428144693800,3.14569384765625,0.6774139404296875,0.122100830078125,-0.84259033203125
1772561428154761000,3.155760986328125,0.8327178955078125,0.31048583984375,-0.658416748046875
1772561428164827000,3.165826904296875,0.6475982666015625,0.3538818359375,-0.2998504638671875
1772561428174893800,3.175893798828125,0.381622314453125,0.2548370361328125,-0.046661376953125
1772561428184960000,3.1859599609375,0.1559906005859375,0.2287445068359375,0.039306640625
1772561428195027000,3.19602685546875,-0.0547637939453125,0.227752685546875,-0.049468994140625
1772561428205092900,3.2060927734375,-0.282562255859375,0.1701507568359375,-0.22998046875
1772561428215159800,3.216159912109375,-0.2829742431640625,0.1133575439453125,-0.459228515625
1772561428225226000,3.22622607421875,-0.171539306640625,0.026397705078125,-0.7338104248046875
1772561428235293000,3.23629296875,-0.241546630859375,-0.0125732421875,-0.8475799560546875
1772561428245358800,3.24635888671875,-0.471221923828125,0.021759033203125,-0.6728057861328125
1772561428255426000,3.256426025390625,-0.5811309814453125,0.1071319580078125,-0.3455657958984375
1772561428265492000,3.266491943359375,-0.5634002685546875,0.1794891357421875,-0.0656890869140625
1772561428275559000,3.276558837890625,-0.558197021484375,0.1689605712890625,0.1253814697265625
1772561428285625900,3.2866259765625,-0.5528564453125,0.0880584716796875,0.2389068603515625
1772561428295692000,3.296692138671875,-0.51141357421875,-0.02130126953125,0.279571533203125
1772561428305759000,3.306759033203125,-0.427215576171875,-0.161407470703125,0.231689453125
1772561428315825000,3.316824951171875,-0.227630615234375,-0.3504486083984375,0.0939788818359375
1772561428325892000,3.32689208984375,0.1287078857421875,-0.5380706787109375,-0.0883331298828125
1772561428335957800,3.336957763671875,0.3160858154296875,-0.5805816650390625,-0.107391357421875
1772561428346024700,3.347024658203125,0.2596282958984375,-0.5020751953125,0.01513671875
1772561428356091000,3.3570908203125,0.239227294921875,-0.438201904296875,0.1951446533203125
1772561428366157800,3.36715771484375,0.136444091796875,-0.4191131591796875,0.34368896484375
1772561428376223700,3.3772236328125,-0.0651092529296875,-0.3831024169921875,0.361083984375
1772561428386290700,3.387290771484375,-0.29290771484375,-0.315673828125,0.2977294921875
1772561428396356900,3.39735693359375,-0.6403350830078125,-0.3160858154296875,0.215301513671875
1772561428406423800,3.407423828125,-1.1166534423828125,-0.3625640869140625,0.0590667724609375
1772561428416489700,3.41748974609375,-1.5322113037109375,-0.3743133544921875,-0.1168212890625
1772561428426557000,3.427556884765625,-1.7371368408203125,-0.3845062255859375,-0.1791534423828125
1772561428436622800,3.437622802734375,-1.892852783203125,-0.4235992431640625,-0.1027984619140625
1772561428446689800,3.447689697265625,-2.0746307373046875,-0.4333953857421875,-0.0455322265625
1772561428456756000,3.457755859375,-2.535675048828125,-0.4070892333984375,-0.0584716796875
1772561428466823000,3.467822998046875,-3.12005615234375,-0.5202484130859375,-0.1009979248046875
1772561428476888800,3.477888916015625,-3.264190673828125,-0.74371337890625,-0.082366943359375
1772561428486955800,3.487955810546875,-3.1166839599609375,-0.95465087890625,0.0033416748046875
1772561428497023000,3.49802294921875,-3.0661468505859375,-0.8556060791015625,-0.0555267333984375
1772561428507089000,3.5080888671875,-3.966064453125,-0.57733154296875,-0.0437469482421875
1772561428517155800,3.51815576171875,-4.6017913818359375,-0.4581756591796875,0.1958465576171875
1772561428527222000,3.528221923828125,-4.295989990234375,0.0661468505859375,0.2445220947265625
1772561428537289000,3.5382890625,-4.1916351318359375,0.384429931640625,0.3442535400390625
1772561428547355400,3.54835546875,-3.9385986328125,0.3224639892578125,0.3813934326171875
1772561428557422300,3.55842236328125,-3.1309967041015625,0.3857269287109375,0.0462646484375
1772561428567488500,3.568488525390625,-2.335235595703125,0.4092559814453125,-0.412689208984375
1772561428577555500,3.578555419921875,-1.8018035888671875,0.15985107421875,-0.537200927734375
1772561428587621400,3.588621337890625,-1.0473175048828125,-0.0721893310546875,-0.297210693359375
1772561428597688300,3.598688232421875,-0.4785614013671875,-0.0852508544921875,0.072235107421875
1772561428607754500,3.60875439453125,-0.6054229736328125,0.0808258056640625,0.131317138671875
1772561428617821400,3.618821533203125,-0.882904052734375,0.196533203125,-0.2711029052734375
1772561428627887400,3.628887451171875,-0.941162109375,0.1259002685546875,-0.739959716796875
1772561428637954600,3.63895458984375,-0.92938232421875,0.0825042724609375,-0.904754638671875
1772561428648020500,3.6490205078125,-0.7899322509765625,0.09906005859375,-0.7727203369140625
1772561428658087400,3.65908740234375,-0.6685791015625,0.11053466796875,-0.5756072998046875
1772561428668153600,3.669153564453125,-0.60650634765625,0.198974609375,-0.40478515625
1772561428678220500,3.679220458984375,-0.6151275634765625,0.3240509033203125,-0.2353973388671875
1772561428688287500,3.68928759765625,-0.6963348388671875,0.36676025390625,-0.015777587890625
1772561428698353400,3.699353515625,-0.614898681640625,0.28985595703125,0.2282867431640625
1772561428708420600,3.709420654296875,-0.1748809814453125,0.1346282958984375,0.3648529052734375
1772561428718486300,3.719486328125,0.403839111328125,-0.0453338623046875,0.3230133056640625
1772561428728553200,3.72955322265625,0.7500457763671875,-0.1821136474609375,0.2328643798828125
1772561428738619400,3.739619384765625,0.8656158447265625,-0.24957275390625,0.1262054443359375
1772561428748686300,3.749686279296875,0.94573974609375,-0.21173095703125,0.0279693603515625
1772561428758752300,3.759752197265625,0.8487091064453125,-0.146728515625,0.033355712890625
1772561428768819500,3.7698193359375,0.5121917724609375,-0.171844482421875,0.0826416015625
1772561428778885400,3.779885498046875,-0.0390625,-0.169769287109375,0.22344970703125
1772561428788952300,3.789952392578125,-0.30596923828125,-0.1216583251953125,0.296539306640625
1772561428799018500,3.8000185546875,-0.180419921875,-0.034149169921875,0.1987457275390625
1772561428809085400,3.81008544921875,-0.164825439453125,-0.1167144775390625,0.11419677734375
1772561428819151400,3.8201513671875,-0.113372802734375,-0.1975555419921875,0.062255859375
1772561428829218300,3.83021826171875,-0.0596923828125,-0.1833648681640625,0.0557403564453125
1772561428839284500,3.840284423828125,-0.1236419677734375,-0.17523193359375,0.1258087158203125
1772561428849351400,3.850351318359375,-0.203369140625,-0.1630096435546875,0.1741790771484375
1772561428859417300,3.860417236328125,-0.2233734130859375,-0.1119384765625,0.1802978515625
1772561428869484500,3.870484619140625,-0.2343292236328125,-0.0789642333984375,0.1471405029296875
1772561428879550500,3.880550537109375,-0.470611572265625,-0.0421142578125,0.0476837158203125
1772561428889617400,3.890617431640625,-0.793701171875,0.0068206787109375,-0.0660552978515625
1772561428899684400,3.900684326171875,-1.01995849609375,-0.0278167724609375,-0.16156005859375
1772561428909750500,3.91075048828125,-1.1040496826171875,-0.079925537109375,-0.199493408203125
1772561428919817500,3.9208173828125,-1.046417236328125,-0.0865325927734375,-0.1652984619140625
1772561428929883400,3.93088330078125,-0.908721923828125,-0.0756378173828125,-0.0437469482421875
1772561428939950600,3.94095068359375,-0.727630615234375,-0.082977294921875,0.0805206298828125
1772561428950016500,3.9510166015625,-0.5200042724609375,-0.09942626953125,0.1345062255859375
1772561428960083500,3.96108349609375,-0.3497772216796875,-0.109222412109375,0.1310882568359375
1772561428970149600,3.971149658203125,-0.243408203125,-0.101837158203125,0.1292724609375
1772561428980216600,3.981216552734375,-0.2235107421875,-0.05474853515625,0.195709228515625
1772561428990282200,3.9912822265625,-0.34033203125,0.0351715087890625,0.295257568359375
1772561429000349400,4.001349365234375,-0.5360565185546875,0.1362457275390625,0.3390960693359375
1772561429010415400,4.011415283203125,-0.681976318359375,0.2129364013671875,0.3428192138671875
1772561429020482300,4.021482421875,-0.78326416015625,0.2200469970703125,0.3512115478515625
1772561429030548200,4.03154833984375,-0.806915283203125,0.16766357421875,0.350372314453125
1772561429040615400,4.041615478515625,-0.763824462890625,0.0816192626953125,0.3173828125
1772561429050681300,4.051681396484375,-0.77685546875,-0.019927978515625,0.2915802001953125
1772561429060748300,4.061748291015625,-0.9563751220703125,-0.078887939453125,0.327392578125
1772561429070815200,4.071815185546875,-1.3109588623046875,-0.1353759765625,0.45361328125
1772561429080881400,4.08188134765625,-1.6463470458984375,-0.38067626953125,0.5517120361328125
1772561429090948400,4.0919482421875,-1.87200927734375,-0.7701416015625,0.546173095703125
1772561429101014300,4.10201416015625,-1.826934814453125,-1.04669189453125,0.352020263671875
1772561429111081500,4.11208154296875,-1.9875946044921875,-1.3151397705078125,0.2788543701171875
1772561429121147400,4.1221474609375,-2.0923004150390625,-1.399261474609375,0.4008331298828125
1772561429131214300,4.13221435546875,-2.3859710693359375,-0.876678466796875,0.582275390625
1772561429141280500,4.142280517578125,-3.2000732421875,-0.076171875,0.834991455078125
1772561429151347500,4.152347412109375,-3.518951416015625,-0.203643798828125,0.9371490478515625
1772561429161413400,4.162413330078125,-3.215789794921875,-0.6316375732421875,0.9138336181640625
1772561429171480300,4.172480224609375,-2.767059326171875,-0.6654815673828125,0.817047119140625
1772561429181546500,4.18254638671875,-2.365936279296875,-0.68536376953125,0.5782623291015625
1772561429191613400,4.192613525390625,-2.42388916015625,-0.7140960693359375,0.2623748779296875
1772561429201679400,4.202679443359375,-2.188934326171875,-0.428619384765625,0.27606201171875
1772561429211746600,4.21274658203125,-1.949798583984375,-0.016357421875,0.6433563232421875
1772561429221812500,4.2228125,-2.2851715087890625,0.2072296142578125,0.893341064453125
1772561429231879400,4.23287939453125,-2.388397216796875,0.20098876953125,0.5391387939453125
1772561429241945600,4.242945556640625,-2.17584228515625,0.08746337890625,-0.095367431640625
1772561429252012500,4.253012451171875,-1.956512451171875,0.1142578125,-0.3661346435546875
1772561429262079500,4.26307958984375,-1.5997467041015625,0.177398681640625,-0.20672607421875
1772561429272145400,4.2731455078125,-1.2040252685546875,0.2275238037109375,0.1156005859375
1772561429282212600,4.283212646484375,-0.8390045166015625,0.2741546630859375,0.3806915283203125
1772561429292278500,4.293278564453125,-0.508331298828125,0.2957611083984375,0.5119781494140625
1772561429302345500,4.303345458984375,-0.130401611328125,0.26123046875,0.52374267578125
1772561429312411400,4.313411376953125,0.369537353515625,0.1390533447265625,0.4609375
1772561429322478300,4.323478271484375,0.8332366943359375,0.0276947021484375,0.368804931640625
1772561429332544300,4.333544189453125,1.0494384765625,0.0116729736328125,0.26763916015625
1772561429342611200,4.343611083984375,1.1788330078125,0.1280059814453125,0.120208740234375
1772561429352677400,4.353677490234375,1.3013153076171875,0.320404052734375,0.085418701171875
1772561429362744300,4.363744384765625,1.1215057373046875,0.3967132568359375,0.16070556640625
1772561429372810200,4.373810302734375,0.828948974609375,0.4706878662109375,0.312225341796875
1772561429382877400,4.38387744140625,0.3988494873046875,0.4855804443359375,0.5175018310546875
1772561429392943400,4.393943359375,0.1673431396484375,0.3649749755859375,0.5043182373046875
1772561429403010300,4.40401025390625,0.17193603515625,0.28857421875,0.223968505859375
1772561429413076500,4.414076416015625,0.09527587890625,0.1227264404296875,-0.098236083984375
1772561429423143400,4.424143310546875,-0.0982666015625,-0.0293426513671875,-0.3475494384765625
1772561429433210400,4.43421044921875,-0.351531982421875,-0.066253662109375,-0.5010986328125
1772561429443276300,4.4442763671875,-0.489227294921875,-0.115142822265625,-0.531707763671875
1772561429453343500,4.454343505859375,-0.502349853515625,-0.1906280517578125,-0.4452362060546875
1772561429463409400,4.464409423828125,-0.4703521728515625,-0.2259674072265625,-0.311187744140625
1772561429473476400,4.474476318359375,-0.506866455078125,-0.212310791015625,-0.239532470703125
1772561429483542500,4.48454248046875,-0.7968292236328125,-0.11248779296875,-0.239410400390625
1772561429493609500,4.494609375,-1.2596435546875,0.0449981689453125,-0.2602386474609375
1772561429503675400,4.50467529296875,-1.0186309814453125,-0.259002685546875,-0.5551605224609375
1772561429513742300,4.514742431640625,-0.3940887451171875,-0.6027679443359375,-0.706390380859375
1772561429523808500,4.52480859375,-0.4818878173828125,-0.6324920654296875,-0.411834716796875
1772561429533875500,4.53487548828125,-0.774261474609375,-0.56854248046875,0.0209197998046875
1772561429543941400,4.54494140625,-0.8187713623046875,-0.6154937744140625,0.23382568359375
1772561429554008000,4.555008056640625,-0.830230712890625,-0.698211669921875,0.2957763671875
1772561429564074000,4.565073974609375,-0.8622589111328125,-0.8084259033203125,0.2297821044921875
1772561429574141000,4.575140869140625,-0.958709716796875,-0.8247222900390625,0.1155853271484375
1772561429584207000,4.58520703125,-1.1414947509765625,-0.71551513671875,0.075469970703125
1772561429594274000,4.595274169921875,-1.3284912109375,-0.5923919677734375,0.0886688232421875
1772561429604340000,4.605340087890625,-1.4219818115234375,-0.4832763671875,0.0927581787109375
1772561429614407200,4.6154072265625,-1.3486328125,-0.345733642578125,0.05645751953125
1772561429624474000,4.62547412109375,-1.1840057373046875,-0.2170867919921875,0.0097198486328125
1772561429634540000,4.6355400390625,-1.1481781005859375,-0.1496429443359375,-0.015472412109375
1772561429644607000,4.64560693359375,-1.1402587890625,-0.0823822021484375,-0.046234130859375
1772561429654673200,4.655673095703125,-1.164337158203125,-0.0472259521484375,-0.051239013671875
1772561429664740000,4.665739990234375,-1.319549560546875,-0.10516357421875,0.011444091796875
1772561429674805800,4.6758056640625,-1.357025146484375,-0.2280731201171875,0.08624267578125
1772561429684873200,4.685873291015625,-1.2232666015625,-0.40704345703125,0.1854095458984375
1772561429694939000,4.69593896484375,-0.9741668701171875,-0.585418701171875,0.2235107421875
1772561429705005800,4.706005859375,-1.0358734130859375,-0.4842681884765625,0.0929412841796875
1772561429715072000,4.716072021484375,-2.0764312744140625,-0.155731201171875,-0.0322265625
1772561429725139000,4.726138916015625,-3.46820068359375,-0.0023651123046875,-0.0169219970703125
1772561429735204900,4.736204833984375,-4.061614990234375,0.4373931884765625,0.259246826171875
1772561429745271800,4.746271728515625,-4.026763916015625,0.8139801025390625,0.84649658203125
1772561429755338000,4.756337890625,-3.9983673095703125,0.846588134765625,1.2101593017578125
1772561429765405000,4.766405029296875,-4.0255126953125,0.875,0.91082763671875
1772561429775470800,4.776470947265625,-3.74542236328125,0.8177947998046875,0.23846435546875
1772561429785538000,4.7865380859375,-3.606719970703125,0.49481201171875,-0.182769775390625
1772561429795605000,4.79660498046875,-3.171417236328125,0.3560791015625,-0.5473785400390625
1772561429805671000,4.8066708984375,-2.5878448486328125,0.3798675537109375,-0.6538543701171875
1772561429815737900,4.81673779296875,-2.2092132568359375,0.30316162109375,-0.2705535888671875
1772561429825804000,4.826803955078125,-2.00970458984375,0.118896484375,0.16436767578125
1772561429835871000,4.83687109375,-1.639312744140625,-0.0289764404296875,0.1836090087890625
1772561429845937000,4.84693701171875,-1.0068817138671875,-0.0234527587890625,-0.0756988525390625
1772561429856004000,4.857004150390625,-0.3925628662109375,-0.063201904296875,-0.231658935546875
1772561429866070000,4.867070068359375,0.003936767578125,-0.0866546630859375,-0.159576416015625
1772561429876137000,4.877136962890625,0.1400909423828125,-0.0132293701171875,-0.03265380859375
1772561429886203100,4.887203125,0.0218505859375,0.134796142578125,0.0706939697265625
1772561429896270000,4.89727001953125,-0.1116790771484375,0.2301177978515625,0.14471435546875
1772561429906336000,4.9073359375,-0.152099609375,0.2635040283203125,0.2088623046875
1772561429916403000,4.91740283203125,-0.04345703125,0.2273101806640625,0.27130126953125
1772561429926469000,4.92746923828125,0.2652130126953125,0.0687713623046875,0.2662506103515625
1772561429936536000,4.9375361328125,0.65966796875,-0.074615478515625,0.1419525146484375
1772561429946602000,4.94760205078125,0.9491424560546875,-0.1422576904296875,-0.0082550048828125
1772561429956669200,4.957669189453125,1.1268157958984375,-0.13385009765625,-0.0949554443359375
1772561429966736100,4.967736083984375,1.317230224609375,-0.0588531494140625,-0.083770751953125
1772561429976802000,4.977802001953125,1.319793701171875,0.0840606689453125,0.0516815185546875
1772561429986869000,4.987868896484375,1.125,0.214508056640625,0.248260498046875
1772561429996935000,4.997934814453125,0.8529052734375,0.243927001953125,0.340789794921875
1772561430007001900,5.008001953125,0.57086181640625,0.2312774658203125,0.308807373046875
1772561430017068000,5.018068115234375,0.1142578125,0.150054931640625,0.2815399169921875
1772561430027135000,5.028135009765625,-0.1963348388671875,0.014739990234375,0.2205810546875
1772561430037201000,5.038200927734375,-0.07855224609375,0.00762939453125,-0.014312744140625
1772561430047267800,5.048267822265625,-0.0324554443359375,0.0259857177734375,-0.151580810546875
1772561430057334000,5.058333984375,-0.143890380859375,0.029571533203125,-0.1203765869140625
1772561430067401000,5.06840087890625,-0.2987518310546875,0.0503082275390625,0.0161285400390625
1772561430077467000,5.078466796875,-0.34466552734375,0.0196075439453125,0.124359130859375
1772561430087533800,5.088533935546875,-0.3664093017578125,0.00933837890625,0.1468353271484375
1772561430097600000,5.09860009765625,-0.4681549072265625,0.0321807861328125,0.109222412109375
1772561430107667000,5.1086669921875,-0.628814697265625,0.054595947265625,0.026397705078125
1772561430117734000,5.11873388671875,-0.7823638916015625,0.04296875,-0.041259765625
1772561430127800000,5.128800048828125,-0.880279541015625,-0.0464935302734375,-0.09326171875
1772561430137867000,5.138866943359375,-0.9858245849609375,-0.1936798095703125,-0.147796630859375
1772561430147933000,5.148932861328125,-1.0838623046875,-0.3566131591796875,-0.234283447265625
1772561430157999900,5.158999755859375,-1.1306915283203125,-0.4780426025390625,-0.274444580078125
1772561430168066000,5.169066162109375,-1.146514892578125,-0.56488037109375,-0.203887939453125
1772561430178133000,5.179133056640625,-1.0956268310546875,-0.5562744140625,-0.0655059814453125
1772561430188199200,5.18919921875,-0.9660797119140625,-0.484832763671875,0.0833282470703125
1772561430198266000,5.19926611328125,-0.82177734375,-0.4207611083984375,0.1651153564453125
1772561430208332000,5.20933203125,-0.71197509765625,-0.3506622314453125,0.206451416015625
1772561430218399000,5.21939892578125,-0.6393890380859375,-0.2935638427734375,0.2593841552734375
1772561430228465200,5.229465087890625,-0.6266021728515625,-0.2686309814453125,0.34356689453125
1772561430238532000,5.239531982421875,-0.683685302734375,-0.3205108642578125,0.3922882080078125
1772561430248598000,5.249597900390625,-0.8278961181640625,-0.3895111083984375,0.356201171875
1772561430258665000,5.2596650390625,-1.1343841552734375,-0.45513916015625,0.30291748046875
1772561430268732200,5.269732177734375,-1.565460205078125,-0.5520477294921875,0.220001220703125
1772561430278798000,5.279798095703125,-2.163482666015625,-0.65911865234375,0.1262969970703125
1772561430288865000,5.289864990234375,-2.7506256103515625,-0.7590789794921875,0.13922119140625
1772561430298931000,5.299930908203125,-2.926666259765625,-0.78338623046875,0.2273406982421875
1772561430308998100,5.309998046875,-3.0086822509765625,-0.6446075439453125,0.3194122314453125
1772561430319063800,5.320063720703125,-3.4125823974609375,-0.3472137451171875,0.5449676513671875
1772561430329131000,5.330131103515625,-3.7775726318359375,0.0207061767578125,0.749176025390625
1772561430339197000,5.340197021484375,-4.155242919921875,0.543212890625,1.01708984375
1772561430349264000,5.350263916015625,-4.5152435302734375,0.767059326171875,1.369384765625
1772561430359330000,5.360330078125,-4.5087890625,0.72930908203125,1.3072357177734375
1772561430369397000,5.37039697265625,-4.1963348388671875,0.6957244873046875,0.7679901123046875
1772561430379463000,5.380462890625,-3.8419952392578125,0.7191314697265625,0.1224822998046875
1772561430389529900,5.39052978515625,-3.6013031005859375,0.726837158203125,-0.4346466064453125
1772561430399596000,5.400595947265625,-3.0055999755859375,0.741790771484375,-0.645721435546875
1772561430409663000,5.4106630859375,-2.1259918212890625,0.74615478515625,-0.26519775390625
1772561430419729000,5.42072900390625,-1.6502227783203125,0.802093505859375,0.4406280517578125
1772561430429796000,5.430796142578125,-1.4195404052734375,0.8139801025390625,0.72540283203125
1772561430439862000,5.440862060546875,-0.96087646484375,0.6189727783203125,0.4286956787109375
1772561430449929000,5.450928955078125,-0.4647979736328125,0.3050079345703125,0.0459136962890625
1772561430459996000,5.460995849609375,-0.145477294921875,0.11480712890625,-0.121429443359375
1772561430470062000,5.47106201171875,-0.0190582275390625,0.1093902587890625,-0.10980224609375
1772561430480129000,5.48112890625,0.0155181884765625,0.15814208984375,-0.0188140869140625
1772561430490195000,5.49119482421875,0.0134124755859375,0.1878509521484375,0.04638671875
1772561430500262100,5.50126220703125,-0.0328521728515625,0.22149658203125,0.0426788330078125
1772561430510328000,5.511328125,-0.0482025146484375,0.250640869140625,0.0573272705078125
1772561430520395000,5.52139501953125,0.1083984375,0.1163177490234375,0.1185150146484375
1772561430530461200,5.531461181640625,0.503753662109375,-0.0278167724609375,0.16943359375
1772561430540528000,5.541528076171875,0.97222900390625,-0.1148529052734375,0.1563720703125
1772561430550594800,5.5515947265625,1.342559814453125,-0.1788482666015625,0.07232666015625
1772561430560661800,5.561661865234375,1.4957122802734375,-0.1256866455078125,-0.0052490234375
1772561430570728000,5.57172802734375,1.421600341796875,0.0147552490234375,-0.0084075927734375
1772561430580795000,5.581794921875,1.181671142578125,0.2148590087890625,0.1000823974609375
1772561430590860800,5.59186083984375,0.7502288818359375,0.313232421875,0.25360107421875
1772561430600927700,5.601927734375,0.4093170166015625,0.2795867919921875,0.2754364013671875
1772561430610994700,5.61199462890625,0.2307281494140625,0.3147735595703125,0.1970062255859375
1772561430621060900,5.622060791015625,0.13671875,0.2704315185546875,0.1072845458984375
1772561430631127800,5.6321279296875,0.1107177734375,0.198883056640625,0.0615997314453125
1772561430641194000,5.642194091796875,0.123046875,0.1138916015625,-0.020111083984375
1772561430651261000,5.652260986328125,0.0989227294921875,0.0977630615234375,-0.10504150390625
1772561430661326800,5.662326904296875,-0.053314208984375,0.114776611328125,-0.1341094970703125
1772561430671393800,5.672393798828125,-0.1867218017578125,0.0934906005859375,-0.115081787109375
1772561430681460000,5.6824599609375,-0.2244720458984375,0.07611083984375,-0.1075897216796875
1772561430691527000,5.69252685546875,-0.3185577392578125,0.1378936767578125,-0.148956298828125
1772561430701592600,5.702592529296875,-0.55108642578125,0.2475128173828125,-0.1785430908203125
1772561430711659800,5.71265966796875,-0.8137969970703125,0.290618896484375,-0.1504058837890625
1772561430721725700,5.7227255859375,-1.0407562255859375,0.267547607421875,-0.12860107421875
1772561430731792600,5.732792724609375,-1.242767333984375,0.2468109130859375,-0.123382568359375
1772561430741858800,5.74285888671875,-1.3464202880859375,0.144927978515625,-0.1349334716796875
1772561430751925800,5.75292578125,-1.29376220703125,-0.04345703125,-0.1921234130859375
1772561430761992700,5.76299267578125,-1.231048583984375,-0.2723846435546875,-0.2479095458984375
1772561430772058600,5.77305859375,-1.2246551513671875,-0.5065155029296875,-0.3497161865234375
1772561430782125800,5.783125732421875,-1.1318817138671875,-0.56396484375,-0.4368438720703125
1772561430792191700,5.793191650390625,-0.958221435546875,-0.5219573974609375,-0.418792724609375
1772561430802258700,5.8032587890625,-0.7930908203125,-0.44342041015625,-0.290985107421875
1772561430812324900,5.813324951171875,-0.6290130615234375,-0.4041748046875,-0.1467742919921875
1772561430822391800,5.823391845703125,-0.48931884765625,-0.4290313720703125,-0.052520751953125
1772561430832457700,5.833457763671875,-0.3695068359375,-0.4809417724609375,-0.0607147216796875
1772561430842524700,5.843524658203125,-0.28594970703125,-0.535614013671875,-0.1726837158203125
1772561430852590800,5.8535908203125,-0.38311767578125,-0.5346527099609375,-0.250457763671875
1772561430862657800,5.86365771484375,-0.6492919921875,-0.5529632568359375,-0.24737548828125
1772561430872723700,5.8737236328125,-1.0795440673828125,-0.5208587646484375,-0.1901092529296875
1772561430882791000,5.883791015625,-1.535308837890625,-0.44830322265625,-0.112762451171875
1772561430892856800,5.89385693359375,-1.817047119140625,-0.496917724609375,0.0012054443359375
1772561430902923800,5.903923828125,-1.7933197021484375,-0.671295166015625,0.23193359375
1772561430912990700,5.91399072265625,-1.4698028564453125,-0.829681396484375,0.506072998046875
1772561430923057000,5.924056884765625,-1.6541290283203125,-0.7777252197265625,0.8380889892578125
1772561430933123800,5.934123779296875,-2.314056396484375,-0.6945037841796875,1.194122314453125
1772561430943189800,5.944189697265625,-2.5031890869140625,-0.4427337646484375,1.1697845458984375
1772561430953257000,5.954257080078125,-2.9276275634765625,0.1069183349609375,1.054534912109375
1772561430963323000,5.964322998046875,-3.6060943603515625,0.5349273681640625,1.125640869140625
1772561430973389800,5.974389892578125,-4.0171051025390625,0.815216064453125,1.18988037109375
1772561430983456000,5.9844560546875,-3.9246368408203125,0.99432373046875,1.023895263671875
1772561430993523000,5.99452294921875,-3.635284423828125,0.9296112060546875,0.7768096923828125
1772561431003588600,6.004588623046875,-3.1873931884765625,0.6757354736328125,0.5326385498046875
1772561431013655800,6.01465576171875,-2.6744384765625,0.4803619384765625,0.398223876953125
1772561431023721700,6.0247216796875,-2.4267730712890625,0.4312744140625,0.43902587890625
1772561431033788700,6.03478857421875,-2.382415771484375,0.451995849609375,0.481719970703125
1772561431043854600,6.0448544921875,-2.196563720703125,0.3625030517578125,0.3485870361328125
1772561431053921800,6.054921875,-1.764129638671875,0.1479034423828125,0.073760986328125
1772561431063987700,6.06498779296875,-1.177978515625,0.025146484375,-0.1551971435546875
1772561431074054700,6.0750546875,-0.6336669921875,0.0041351318359375,-0.1848907470703125
1772561431084121600,6.08512158203125,-0.3917236328125,0.0559539794921875,-0.0267791748046875
1772561431094187800,6.095187744140625,-0.501922607421875,0.169281005859375,0.1686248779296875
1772561431104254700,6.105254638671875,-0.674346923828125,0.20989990234375,0.300811767578125
1772561431114320600,6.115320556640625,-0.72186279296875,0.1705322265625,0.290771484375
1772561431124387800,6.125387939453125,-0.698089599609375,0.1376800537109375,0.1937408447265625
1772561431134453800,6.135453857421875,-0.541290283203125,0.0304412841796875,0.125396728515625
1772561431144520700,6.145520751953125,-0.19921875,-0.1080169677734375,0.0829925537109375
1772561431154587000,6.1555869140625,0.2092132568359375,-0.185943603515625,0.0176544189453125
1772561431164653800,6.16565380859375,0.54736328125,-0.2049560546875,-0.071319580078125
1772561431174719700,6.1757197265625,0.6403350830078125,-0.1141510009765625,-0.120697021484375
1772561431184786700,6.18578662109375,0.640411376953125,0.0620880126953125,-0.1103515625
1772561431194852900,6.195852783203125,0.6413421630859375,0.2144012451171875,-0.0723876953125
1772561431204919800,6.205919921875,0.5051422119140625,0.2883758544921875,-0.005157470703125
1772561431214986800,6.21598681640625,0.2759552001953125,0.26141357421875,0.0901031494140625
1772561431225053000,6.226052978515625,-0.0405731201171875,0.1343231201171875,0.1429290771484375
1772561431235119900,6.236119873046875,-0.155364990234375,0.05047607421875,0.102294921875
1772561431245185800,6.246185791015625,-0.065338134765625,0.0650634765625,-0.105712890625
1772561431255252700,6.256252685546875,0.034881591796875,0.045623779296875,-0.3589630126953125
1772561431265319000,6.26631884765625,0.0976104736328125,-0.0436248779296875,-0.5535888671875
1772561431275385900,6.2763857421875,0.0553436279296875,-0.0440673828125,-0.59356689453125
1772561431285451800,6.28645166015625,-0.1289215087890625,0.0833282470703125,-0.4411773681640625
1772561431295519000,6.29651904296875,-0.3071746826171875,0.18505859375,-0.2216644287109375
1772561431305584600,6.306584716796875,-0.449615478515625,0.2573394775390625,-0.03399658203125
1772561431315651800,6.31665185546875,-0.58270263671875,0.3304595947265625,0.0525970458984375
1772561431325717800,6.3267177734375,-0.73504638671875,0.3198089599609375,0.053863525390625
1772561431335784700,6.33678466796875,-0.840362548828125,0.1883697509765625,0.0341796875
1772561431345850600,6.3468505859375,-0.8009796142578125,0.0023956298828125,0.0055694580078125
1772561431355917600,6.35691748046875,-0.672210693359375,-0.212860107421875,-0.0348663330078125
1772561431365984800,6.36698486328125,-0.4883575439453125,-0.3939666748046875,-0.066558837890625
1772561431376050700,6.37705078125,-0.31256103515625,-0.5478668212890625,-0.0740203857421875
1772561431386117600,6.38711767578125,-0.1756439208984375,-0.6860198974609375,-0.0411224365234375
1772561431396183800,6.397183837890625,-0.0912933349609375,-0.7281951904296875,0.056884765625
1772561431406250800,6.407250732421875,-0.0470123291015625,-0.72283935546875,0.175262451171875
1772561431416316700,6.417316650390625,-0.0005645751953125,-0.7597808837890625,0.224456787109375
1772561431426383600,6.427383544921875,-0.0065155029296875,-0.743377685546875,0.2079010009765625
1772561431436449800,6.43744970703125,-0.131072998046875,-0.688507080078125,0.2058258056640625
1772561431446516700,6.447516845703125,-0.4273834228515625,-0.7425384521484375,0.1631622314453125
1772561431456583000,6.4575830078125,-0.9384002685546875,-0.7455291748046875,0.019012451171875
1772561431466649900,6.46764990234375,-1.7543792724609375,-0.5908966064453125,-0.1620941162109375
1772561431476715800,6.4777158203125,-2.69976806640625,-0.3383026123046875,-0.2046966552734375
1772561431486782700,6.48778271484375,-3.3841400146484375,-0.171539306640625,-0.0535736083984375
1772561431496849000,6.497848876953125,-3.4727325439453125,-0.2019195556640625,0.130859375
1772561431506915800,6.507915771484375,-3.260467529296875,-0.2171478271484375,0.234039306640625
1772561431516982800,6.517982666015625,-3.3827972412109375,-0.0373687744140625,0.4145050048828125
1772561431527048700,6.528048583984375,-4.042694091796875,0.085601806640625,0.7739715576171875
1772561431537116000,6.538115966796875,-4.1956939697265625,0.0977935791015625,0.911407470703125
1772561431547181800,6.548181884765625,-3.8817291259765625,0.3232879638671875,0.999298095703125
1772561431557248000,6.558248046875,-3.754730224609375,0.35662841796875,1.3856201171875
1772561431567314000,6.56831396484375,-3.65594482421875,0.2828216552734375,1.647064208984375
1772561431577380900,6.578380859375,-3.3462982177734375,0.1956939697265625,1.3018951416015625
1772561431587447000,6.588447021484375,-3.0679473876953125,0.1733551025390625,0.5538177490234375
1772561431597514000,6.598513916015625,-3.1720428466796875,0.1552276611328125,-0.0190887451171875
1772561431607580000,6.608579833984375,-2.7866668701171875,0.0516815185546875,-0.2521820068359375
1772561431617646800,6.618646728515625,-1.9537353515625,-0.04803466796875,-0.0442657470703125
1772561431627713000,6.628713134765625,-1.43402099609375,-0.0843505859375,0.24993896484375
1772561431637780000,6.638780029296875,-0.9795684814453125,-0.05810546875,0.2338714599609375
1772561431647847000,6.648846923828125,-0.4281005859375,-0.1240386962890625,0.008819580078125
1772561431657913000,6.6589130859375,-0.00054931640625,-0.160675048828125,-0.148193359375
1772561431667980000,6.66897998046875,0.187225341796875,-0.1571197509765625,-0.273193359375
1772561431678046000,6.6790458984375,0.093536376953125,-0.04376220703125,-0.32281494140625
1772561431688113000,6.68911279296875,-0.002655029296875,0.1455535888671875,-0.173492431640625
1772561431698179000,6.699178955078125,-0.1021728515625,0.2570648193359375,0.07501220703125
1772561431708246000,6.70924609375,-0.1681365966796875,0.331695556640625,0.28271484375
1772561431718312000,6.71931201171875,-0.1912689208984375,0.351318359375,0.3831024169921875
1772561431728379100,6.729379150390625,-0.1597137451171875,0.244049072265625,0.3625946044921875
1772561431738444800,6.73944482421875,0.0828399658203125,0.0717010498046875,0.2085418701171875
1772561431748512000,6.749511962890625,0.4988555908203125,-0.044281005859375,0.0181427001953125
1772561431758578000,6.759577880859375,0.887176513671875,-0.1162567138671875,-0.1094818115234375
1772561431768644900,6.769644775390625,1.0956878662109375,-0.1463623046875,-0.1349639892578125
1772561431778711800,6.7797119140625,1.1608428955078125,-0.0632781982421875,-0.095794677734375
1772561431788777700,6.78977783203125,1.12469482421875,0.1253662109375,-0.0081024169921875
1772561431798845000,6.799844970703125,0.9700469970703125,0.2417755126953125,0.104705810546875
1772561431808910800,6.809910888671875,0.7002716064453125,0.244140625,0.1739501953125
1772561431818977800,6.819977783203125,0.2021484375,0.181671142578125,0.1849517822265625
1772561431829044000,6.8300439453125,-0.1442718505859375,0.1411895751953125,0.088958740234375
1772561431839111000,6.84011083984375,-0.31353759765625,0.1703338623046875,-0.0576934814453125
1772561431849176800,6.8501767578125,-0.3089599609375,0.151763916015625,-0.194549560546875
1772561431859243800,6.860243896484375,-0.124267578125,0.0795135498046875,-0.29278564453125
1772561431869310000,6.87031005859375,-0.0030670166015625,0.002044677734375,-0.3382568359375
1772561431879377000,6.880376953125,-0.09381103515625,-0.0374603271484375,-0.285858154296875
1772561431889442800,6.89044287109375,-0.29437255859375,-0.0451812744140625,-0.1741790771484375
1772561431899510000,6.900510009765625,-0.524078369140625,-0.0150909423828125,-0.0821533203125
1772561431909576000,6.910575927734375,-0.7161865234375,0.03411865234375,-0.0493927001953125
1772561431919643000,6.920642822265625,-0.86761474609375,0.0489654541015625,-0.0547637939453125
1772561431929709800,6.930709716796875,-0.9776611328125,0.0199432373046875,-0.039459228515625
1772561431939776000,6.94077587890625,-1.058990478515625,-0.057952880859375,0.0203857421875
1772561431949843000,6.950843017578125,-1.0670928955078125,-0.1621551513671875,0.105316162109375
1772561431959908900,6.960908935546875,-0.9725799560546875,-0.2396087646484375,0.2376708984375
1772561431969976000,6.97097607421875,-0.7747039794921875,-0.3245697021484375,0.395416259765625
1772561431980042000,6.9810419921875,-0.5671234130859375,-0.4127044677734375,0.52459716796875
1772561431990109000,6.99110888671875,-0.415069580078125,-0.5146942138671875,0.6003875732421875
1772561432000175000,7.001175048828125,-0.3959808349609375,-0.5937347412109375,0.6119537353515625
1772561432010242000,7.011241943359375,-0.53411865234375,-0.5942230224609375,0.5726776123046875
1772561432020308000,7.021307861328125,-0.6881561279296875,-0.5614471435546875,0.4714508056640625
1772561432030375000,7.031375,-0.777862548828125,-0.5500946044921875,0.312469482421875
1772561432040440800,7.04144091796875,-0.7923126220703125,-0.52850341796875,0.1470947265625
1772561432050508000,7.051508056640625,-0.7192535400390625,-0.5107421875,0.0397796630859375
1772561432060575000,7.061574951171875,-0.763580322265625,-0.507171630859375,0.0484161376953125
1772561432070641000,7.071640869140625,-0.8480072021484375,-0.58056640625,0.116912841796875
1772561432080708000,7.0817080078125,-0.876068115234375,-0.7010650634765625,0.1604766845703125
1772561432090773800,7.091773681640625,-1.19073486328125,-0.87158203125,0.191680908203125
1772561432100840700,7.1018408203125,-1.8066864013671875,-1.065704345703125,0.169921875
1772561432110907000,7.111906982421875,-2.27252197265625,-1.1562042236328125,0.1302947998046875
1772561432120973800,7.121973876953125,-2.705657958984375,-1.12908935546875,0.1614837646484375
1772561432131039700,7.132039794921875,-3.240570068359375,-1.0405426025390625,0.3863983154296875
1772561432141107000,7.14210693359375,-3.59405517578125,-0.8913421630859375,0.73394775390625
1772561432151172900,7.1521728515625,-3.9697418212890625,-0.5746002197265625,1.10528564453125
1772561432161239800,7.16223974609375,-4.2571563720703125,-0.39361572265625,1.351409912109375
1772561432171306000,7.172305908203125,-4.3443450927734375,-0.3357696533203125,1.3662261962890625
1772561432181373000,7.182373046875,-4.2842559814453125,-0.204010009765625,1.1876983642578125
1772561432191438800,7.19243896484375,-4.1320953369140625,0.06829833984375,0.8673095703125
1772561432201505800,7.202505859375,-3.98577880859375,0.318572998046875,0.531341552734375
1772561432211573000,7.212572998046875,-3.5606231689453125,0.4161376953125,0.095550537109375
1772561432221639000,7.222638916015625,-2.8658447265625,0.4225311279296875,-0.0774078369140625
1772561432231705900,7.232705810546875,-2.41497802734375,0.36053466796875,0.1878204345703125
1772561432241772000,7.24277197265625,-2.091064453125,0.3611297607421875,0.362060546875
1772561432251839000,7.2528388671875,-1.6252593994140625,0.359161376953125,0.158203125
1772561432261905000,7.26290478515625,-1.043243408203125,0.3008270263671875,-0.115753173828125
1772561432271971800,7.272971923828125,-0.4348602294921875,0.2470703125,-0.177642822265625
1772561432282038000,7.2830380859375,0.1159515380859375,0.208892822265625,-0.0525360107421875
1772561432292105000,7.29310498046875,0.4497222900390625,0.210845947265625,0.154205322265625
1772561432302171000,7.3031708984375,0.5358428955078125,0.3568267822265625,0.372802734375
1772561432312238000,7.313238037109375,0.6227569580078125,0.460784912109375,0.455963134765625
1772561432322304000,7.323303955078125,0.5183868408203125,0.616180419921875,0.397979736328125
1772561432332371000,7.333370849609375,0.1279296875,0.6392974853515625,0.4196319580078125
1772561432342438000,7.34343798828125,-0.0384979248046875,0.3485870361328125,0.3939361572265625
1772561432352504000,7.353504150390625,0.1453857421875,0.2017364501953125,0.3115997314453125
1772561432362571000,7.363571044921875,0.52105712890625,0.17236328125,0.16436767578125
1772561432372636700,7.37363671875,1.018646240234375,0.1004180908203125,-0.0101318359375
1772561432382704000,7.3837041015625,1.3929290771484375,0.0390777587890625,-0.1206207275390625
1772561432392769800,7.393769775390625,1.47418212890625,0.0777435302734375,-0.08062744140625
1772561432402836700,7.403836669921875,1.2689971923828125,0.1524505615234375,0.0454559326171875
1772561432412903000,7.41390283203125,0.848724365234375,0.175201416015625,0.1079559326171875
1772561432422969900,7.423969970703125,0.3953857421875,0.1259765625,0.05572509765625
1772561432433035800,7.434035888671875,0.1063385009765625,0.0693206787109375,-0.038970947265625
1772561432443102700,7.444102783203125,-0.007598876953125,0.0022430419921875,-0.1310882568359375
1772561432453169000,7.4541689453125,-0.142547607421875,-0.092742919921875,-0.1983795166015625
1772561432463235800,7.46423583984375,-0.14422607421875,-0.0974578857421875,-0.26177978515625
1772561432473302800,7.474302734375,-0.1727142333984375,-0.0432891845703125,-0.2823638916015625
1772561432483369000,7.484368896484375,-0.2408905029296875,-0.060302734375,-0.18853759765625
1772561432493436000,7.494435791015625,-0.2242889404296875,-0.1089019775390625,-0.08203125
1772561432503501800,7.504501708984375,-0.16552734375,-0.1023406982421875,-0.0351409912109375
1772561432513568800,7.51456884765625,-0.2801666259765625,-0.0222930908203125,-0.0339813232421875
1772561432523635000,7.524635009765625,-0.593902587890625,0.105255126953125,-0.057708740234375
1772561432533702000,7.534701904296875,-0.899505615234375,0.1844940185546875,-0.0622711181640625
1772561432543767800,7.544767822265625,-1.1032562255859375,0.2158966064453125,-0.07562255859375
1772561432553835000,7.5548349609375,-1.213409423828125,0.256988525390625,-0.093658447265625
1772561432563901000,7.56490087890625,-1.114288330078125,0.2380523681640625,-0.0706329345703125
1772561432573968000,7.5749677734375,-0.7084197998046875,-0.0258331298828125,-0.0205230712890625
1772561432584034000,7.585033935546875,-0.2633514404296875,-0.3597564697265625,0.063323974609375
1772561432594101000,7.59510107421875,-0.014373779296875,-0.555755615234375,0.17413330078125
1772561432604168000,7.60516796875,0.11285400390625,-0.6259613037109375,0.3355712890625
1772561432614233900,7.61523388671875,0.1618194580078125,-0.59368896484375,0.4269866943359375
1772561432624301000,7.625301025390625,0.105194091796875,-0.4816436767578125,0.34454345703125
1772561432634367000,7.635366943359375,-0.0015106201171875,-0.4576568603515625,0.185760498046875
1772561432644434000,7.645433837890625,-0.2439727783203125,-0.5401611328125,0.0408172607421875
1772561432654500000,7.6555,-0.635711669921875,-0.5496063232421875,-0.0747528076171875
1772561432664567000,7.665567138671875,-1.1716156005859375,-0.4643707275390625,-0.1379241943359375
1772561432674633000,7.675633056640625,-1.714813232421875,-0.3538970947265625,-0.1540985107421875
1772561432684700000,7.685699951171875,-2.1378936767578125,-0.2588043212890625,-0.110504150390625
1772561432694765800,7.695765869140625,-2.43701171875,-0.2902679443359375,-0.0191192626953125
1772561432704832800,7.705832763671875,-2.636810302734375,-0.3613739013671875,0.0528106689453125
1772561432714899000,7.71589892578125,-2.7107696533203125,-0.580169677734375,0.0267181396484375
1772561432724966000,7.7259658203125,-2.638458251953125,-0.9039154052734375,0.0771484375
1772561432735032800,7.73603271484375,-2.423370361328125,-1.123046875,0.074005126953125
1772561432745098800,7.7460986328125,-2.63836669921875,-1.2884674072265625,0.012969970703125
1772561432755165700,7.756165771484375,-2.7946319580078125,-1.39910888671875,-0.0464630126953125
1772561432765231900,7.76623193359375,-2.5845947265625,-0.769287109375,-0.169952392578125
1772561432775298800,7.776298828125,-3.0324249267578125,0.1783905029296875,0.039093017578125
1772561432785365000,7.786364990234375,-3.9302520751953125,1.0265350341796875,0.4164886474609375
1772561432795432000,7.796431884765625,-4.0279083251953125,1.4111480712890625,0.16497802734375
1772561432805497900,7.806497802734375,-3.7995758056640625,0.5452117919921875,-0.439788818359375
1772561432815564800,7.816564697265625,-3.33270263671875,0.1451568603515625,-0.6443939208984375
1772561432825631000,7.826630859375,-2.4464263916015625,0.0777130126953125,-0.33758544921875
1772561432835698000,7.836697998046875,-1.8246307373046875,0.1279296875,-0.0467071533203125
1772561432845763800,7.846763916015625,-1.6881103515625,0.3567962646484375,-0.1295166015625
1772561432855830800,7.856830810546875,-1.7474365234375,0.211212158203125,-0.4310760498046875
1772561432865898000,7.86689794921875,-1.375823974609375,-0.2154083251953125,-0.772674560546875
1772561432875964000,7.8769638671875,-0.717071533203125,-0.5128021240234375,-0.9855194091796875
1772561432886030800,7.88703076171875,-0.3704376220703125,-0.4871673583984375,-0.834259033203125
1772561432896097000,7.897096923828125,-0.401519775390625,-0.32373046875,-0.48468017578125
1772561432906164000,7.9071640625,-0.62213134765625,-0.124969482421875,-0.2084197998046875
1772561432916230000,7.91722998046875,-0.7042388916015625,0.0752716064453125,-0.0352630615234375
1772561432926296800,7.927296875,-0.6858367919921875,0.1465301513671875,0.1882476806640625
1772561432936363000,7.937363037109375,-0.4801177978515625,0.0025634765625,0.3588104248046875
1772561432946430000,7.947429931640625,-0.04327392578125,-0.2823638916015625,0.2788238525390625
1772561432956496100,7.95749609375,0.4494171142578125,-0.449066162109375,0.0313873291015625
1772561432966563000,7.96756298828125,0.655548095703125,-0.3621826171875,-0.0503387451171875
1772561432976629000,7.97762890625,0.7120361328125,-0.13482666015625,0.04083251953125
1772561432986696000,7.987696044921875,0.792816162109375,0.135528564453125,0.1439208984375
1772561432996763000,7.997762939453125,0.57464599609375,0.30938720703125,0.3602294921875
1772561433006829000,8.0078291015625,0.318023681640625,0.3036956787109375,0.488983154296875
1772561433016896000,8.01789599609375,-0.106292724609375,0.2568511962890625,0.5332794189453125
1772561433026962000,8.0279619140625,-0.4541778564453125,0.1863861083984375,0.4159393310546875
1772561433037029000,8.038029052734375,-0.2950286865234375,0.132904052734375,0.0428009033203125
1772561433047094800,8.0480947265625,-0.064300537109375,-0.05023193359375,-0.24322509765625
1772561433057161700,8.05816162109375,0.115509033203125,-0.2254180908203125,-0.3734283447265625
1772561433067228000,8.068227783203126,0.1727294921875,-0.297515869140625,-0.3908538818359375
1772561433077294800,8.078294921875,0.080474853515625,-0.26324462890625,-0.365020751953125
1772561433087360800,8.08836083984375,-0.1082305908203125,-0.1090087890625,-0.3047943115234375
1772561433097428000,8.098427978515625,-0.2948760986328125,0.0591278076171875,-0.2243194580078125
1772561433107494000,8.108493896484376,-0.4006500244140625,0.175994873046875,-0.1536712646484375
1772561433117560800,8.118560791015625,-0.440460205078125,0.2546844482421875,-0.1142425537109375
1772561433127627800,8.128627685546874,-0.5209503173828125,0.2606964111328125,-0.1154022216796875
1772561433137694000,8.13869384765625,-0.586273193359375,0.257354736328125,-0.185546875
1772561433147761000,8.148760986328124,-0.6194610595703125,0.2566986083984375,-0.292266845703125
1772561433157826800,8.158826904296875,-0.5482177734375,0.13848876953125,-0.3680877685546875
1772561433167893800,8.168893798828124,-0.2818450927734375,-0.1331024169921875,-0.406402587890625
1772561433177960000,8.1789599609375,-0.080780029296875,-0.3782501220703125,-0.39483642578125
1772561433188027000,8.18902685546875,-0.1143646240234375,-0.5543975830078125,-0.3098907470703125
1772561433198093000,8.199093017578125,-0.2370452880859375,-0.679718017578125,-0.1675872802734375
1772561433208160000,8.209159912109374,-0.40771484375,-0.7194976806640625,-0.0249176025390625
1772561433218226000,8.219225830078125,-0.578765869140625,-0.72991943359375,0.0576629638671875
1772561433228292900,8.22929296875,-0.6354522705078125,-0.776580810546875,0.0411224365234375
1772561433238359000,8.239359130859375,-0.6940765380859375,-0.7969970703125,0.0299835205078125
1772561433248426000,8.249426025390624,-0.8264312744140625,-0.796417236328125,0.0791015625
1772561433258493000,8.259492919921875,-1.0164031982421875,-0.7280731201171875,0.202545166015625
1772561433268559000,8.26955908203125,-1.36468505859375,-0.6234130859375,0.3403472900390625
1772561433278626000,8.2796259765625,-1.8910064697265625,-0.564208984375,0.3402099609375
1772561433288692000,8.28969189453125,-2.4943389892578125,-0.433868408203125,0.31005859375
1772561433298759000,8.299759033203125,-2.937530517578125,-0.3652496337890625,0.3643341064453125
1772561433308825000,8.3098251953125,-3.055267333984375,-0.334259033203125,0.5477447509765625
1772561433318892000,8.31989208984375,-2.9255828857421875,-0.2719879150390625,0.743896484375
1772561433328957700,8.329957763671874,-3.0881195068359375,-0.1235198974609375,0.8752288818359375
1772561433339025000,8.34002490234375,-3.6419219970703125,-0.09246826171875,1.0745697021484375
1772561433349090800,8.3500908203125,-3.6116485595703125,-0.1267852783203125,1.11810302734375
1772561433359157800,8.36015771484375,-3.38995361328125,0.0367584228515625,1.170196533203125
1772561433369225000,8.370224853515625,-3.4229583740234375,-0.0095367431640625,1.4138641357421875
1772561433379291000,8.380290771484376,-3.3736114501953125,0.0058135986328125,1.32257080078125
1772561433389357800,8.39035791015625,-3.228668212890625,0.1651763916015625,0.8511505126953125
1772561433399423700,8.400423828125,-3.081512451171875,0.10296630859375,0.34979248046875
1772561433409491000,8.410490966796875,-2.7599334716796875,-0.046539306640625,-0.08404541015625
1772561433419556900,8.420556884765626,-2.283599853515625,-0.089508056640625,-0.2684783935546875
1772561433429623800,8.430623779296875,-1.7820281982421875,-0.10772705078125,-0.135833740234375
1772561433439690000,8.44068994140625,-1.3424224853515625,-0.0292205810546875,-0.0178070068359375
1772561433449757000,8.4507568359375,-0.9380950927734375,0.0095062255859375,-0.070343017578125
1772561433459822800,8.46082275390625,-0.5379486083984375,-0.0175933837890625,-0.1647186279296875
1772561433469889800,8.470889892578125,-0.2264556884765625,-0.04437255859375,-0.15032958984375
1772561433479956000,8.4809560546875,-0.0439453125,-0.0182037353515625,-0.026763916015625
1772561433490023000,8.49102294921875,0.05078125,0.039154052734375,0.0977783203125
1772561433500089900,8.50108984375,0.060546875,0.1025848388671875,0.158477783203125
1772561433510156000,8.511156005859375,-0.07305908203125,0.1208038330078125,0.091217041015625
1772561433520223000,8.521222900390624,-0.4179229736328125,0.1513671875,-0.0465087890625
1772561433530289000,8.531288818359375,-0.6919097900390625,0.24127197265625,-0.05926513671875
1772561433540355800,8.54135595703125,-0.7496185302734375,0.191802978515625,-0.012298583984375
1772561433550422000,8.551422119140625,-0.72100830078125,0.0417938232421875,0.042877197265625
1772561433560489000,8.561489013671874,-0.5977783203125,-0.0811920166015625,0.0818328857421875
1772561433570555000,8.571554931640625,-0.287078857421875,-0.14886474609375,0.05548095703125
1772561433580622000,8.5816220703125,0.058197021484375,-0.202545166015625,-0.009002685546875
1772561433590688000,8.59168798828125,0.26348876953125,-0.2319183349609375,-0.0497894287109375
1772561433600755000,8.6017548828125,0.3094482421875,-0.186981201171875,-0.004730224609375
1772561433610822000,8.61182177734375,0.3526611328125,-0.05450439453125,0.071746826171875
1772561433620888000,8.62188818359375,0.4298858642578125,0.051971435546875,0.120941162109375
1772561433630955000,8.631955078125,0.3323974609375,0.0657958984375,0.2118377685546875
1772561433641021000,8.64202099609375,0.20025634765625,0.0335845947265625,0.29827880859375
1772561433651088000,8.652087890625,0.1070556640625,-0.0140533447265625,0.309844970703125
1772561433661154000,8.662154052734374,-0.0433807373046875,-0.0451202392578125,0.3104095458984375
1772561433671221000,8.672220947265625,-0.0317840576171875,-0.129974365234375,0.2254791259765625
1772561433681287200,8.682287109375,0.140869140625,-0.2215576171875,0.0103759765625
1772561433691354000,8.69235400390625,0.2228546142578125,-0.251800537109375,-0.1392364501953125
1772561433701420000,8.702419921875,0.13909912109375,-0.2648468017578125,-0.2012939453125
1772561433711487000,8.712487060546875,-0.073760986328125,-0.202850341796875,-0.1839141845703125
1772561433721553200,8.72255322265625,-0.2539215087890625,-0.0933074951171875,-0.1013946533203125
1772561433731620000,8.7326201171875,-0.363189697265625,-0.0203094482421875,-0.0271453857421875
1772561433741687000,8.74268701171875,-0.46466064453125,0.02362060546875,-0.0030975341796875
1772561433751753200,8.752753173828125,-0.5437164306640625,0.0561065673828125,-0.0197906494140625
1772561433761820200,8.762820068359375,-0.6171875,0.056884765625,-0.0377960205078125
1772561433771886000,8.772885986328125,-0.717864990234375,0.0509185791015625,-0.027191162109375
1772561433781953000,8.782953125,-0.79864501953125,0.062957763671875,0.0208740234375
1772561433792019000,8.79301904296875,-0.782196044921875,0.07275390625,0.0850067138671875
1772561433802086000,8.8030859375,-0.7559967041015625,0.062103271484375,0.1226959228515625
1772561433812151800,8.81315185546875,-0.72576904296875,0.028594970703125,0.137939453125
1772561433822219000,8.823218994140625,-0.602447509765625,-0.04766845703125,0.1368560791015625
1772561433832285000,8.833284912109375,-0.474884033203125,-0.11334228515625,0.134033203125
1772561433842351900,8.843351806640625,-0.4019012451171875,-0.1289825439453125,0.170074462890625
1772561433852418800,8.853418701171876,-0.401275634765625,-0.1321868896484375,0.245025634765625
1772561433862485000,8.863485107421875,-0.5016021728515625,-0.1506500244140625,0.26251220703125
1772561433872552000,8.873552001953126,-0.7078857421875,-0.1414642333984375,0.158935546875
1772561433882617900,8.883617919921875,-0.9714508056640625,-0.13922119140625,0.0122528076171875
1772561433892685000,8.89368505859375,-1.2731170654296875,-0.21221923828125,-0.02783203125
1772561433902751000,8.9037509765625,-1.5276947021484375,-0.351104736328125,0.002899169921875
1772561433912818000,8.91381787109375,-1.6851043701171875,-0.5408477783203125,0.0560760498046875
1772561433922884000,8.923884033203125,-1.5486907958984375,-0.8577728271484375,-0.0414886474609375
1772561433932951000,8.933950927734376,-1.4407501220703125,-1.0228424072265625,-0.2605438232421875
1772561433943017000,8.944016845703125,-1.94921875,-0.9033355712890625,-0.187347412109375
1772561433953084000,8.954083984375,-2.667388916015625,-0.77886962890625,0.2575225830078125
1772561433963150000,8.964150146484375,-2.9002227783203125,-0.6188812255859375,0.6757354736328125
1772561433973217000,8.974217041015624,-2.8173828125,-0.4641571044921875,0.736297607421875
1772561433983284000,8.984283935546875,-2.919952392578125,-0.3446044921875,0.6085052490234375
1772561433993350100,8.99435009765625,-3.2062835693359375,-0.3343048095703125,0.44287109375
1772561434003417000,9.0044169921875,-3.3796234130859375,-0.3546142578125,0.227508544921875
1772561434013483000,9.01448291015625,-3.333892822265625,-0.3239593505859375,0.0205535888671875
1772561434023550000,9.024550048828125,-3.0369873046875,-0.2375030517578125,-0.1765594482421875
1772561434033616100,9.0346162109375,-2.6712799072265625,-0.17437744140625,-0.2884674072265625
1772561434043683000,9.04468310546875,-2.3799896240234375,-0.1807861328125,-0.232757568359375
1772561434053749000,9.0547490234375,-2.1640167236328125,-0.2340850830078125,-0.1092071533203125
1772561434063816200,9.064816162109375,-2.0352783203125,-0.2257537841796875,-0.0339202880859375
1772561434073882000,9.074882080078124,-1.8863983154296875,-0.1095123291015625,0.0268402099609375
1772561434083949000,9.084948974609375,-1.5282440185546875,-0.0991668701171875,0.0565338134765625
1772561434094016000,9.09501611328125,-1.0579833984375,-0.1481781005859375,0.0401153564453125
1772561434104082200,9.105082275390625,-0.6827850341796875,-0.1437225341796875,0.0284576416015625
1772561434114149000,9.115149169921875,-0.5019378662109375,-0.1571502685546875,0.0341339111328125
1772561434124214800,9.12521484375,-0.544677734375,-0.1906890869140625,0.0020599365234375
1772561434134282200,9.1352822265625,-0.638946533203125,-0.14447021484375,-0.0589752197265625
1772561434144348000,9.145347900390625,-0.624053955078125,-0.0941925048828125,-0.0986175537109375
1772561434154414800,9.155414794921874,-0.509307861328125,-0.1297149658203125,-0.0898284912109375
1772561434164481000,9.16548095703125,-0.2996978759765625,-0.208953857421875,-0.0678558349609375
1772561434174548000,9.1755478515625,-0.027923583984375,-0.226959228515625,-0.0673370361328125
1772561434184614000,9.18561376953125,0.2626190185546875,-0.196990966796875,-0.0699920654296875
1772561434194680800,9.195680908203125,0.5468597412109375,-0.2059326171875,-0.0653839111328125
1772561434204747000,9.2057470703125,0.6636199951171875,-0.21112060546875,-0.0277862548828125
1772561434214814000,9.21581396484375,0.58709716796875,-0.1220245361328125,0.0191802978515625
1772561434224881000,9.225880859375,0.3732147216796875,0.0008544921875,0.075347900390625
1772561434234947000,9.235947021484375,-0.00970458984375,0.019805908203125,0.20196533203125
1772561434245014000,9.246013916015626,-0.302581787109375,-0.0237579345703125,0.30743408203125
1772561434255080000,9.256079833984375,-0.41876220703125,-0.0305328369140625,0.2774658203125
1772561434265147000,9.26614697265625,-0.361236572265625,-0.0431671142578125,0.1831512451171875
1772561434275213000,9.276213134765625,-0.1359710693359375,-0.130340576171875,0.0985260009765625
1772561434285280000,9.286280029296876,0.0963287353515625,-0.2246856689453125,0.024322509765625
1772561434295346000,9.296345947265625,0.2351226806640625,-0.2805328369140625,-0.0634307861328125
1772561434305413000,9.3064130859375,0.2873077392578125,-0.288818359375,-0.1209259033203125
1772561434315479000,9.31647900390625,0.2208404541015625,-0.2425689697265625,-0.116790771484375
1772561434325546000,9.3265458984375,0.0287017822265625,-0.18658447265625,-0.093048095703125
1772561434335613000,9.336613037109375,-0.240936279296875,-0.140869140625,-0.0723114013671875
1772561434345679000,9.34667919921875,-0.47607421875,-0.1006011962890625,-0.078521728515625
1772561434355746000,9.35674609375,-0.640899658203125,-0.06756591796875,-0.1008453369140625
1772561434365812000,9.36681201171875,-0.64398193359375,-0.07281494140625,-0.1259765625
1772561434375879200,9.376879150390625,-0.5616607666015625,-0.1030426025390625,-0.1280364990234375
1772561434385945000,9.386945068359376,-0.5395355224609375,-0.1180419921875,-0.1030731201171875
1772561434396012000,9.397011962890625,-0.5257568359375,-0.1247711181640625,-0.10748291015625
1772561434406078200,9.407078125,-0.54144287109375,-0.124725341796875,-0.1394195556640625
1772561434416145200,9.417145263671875,-0.615692138671875,-0.0967864990234375,-0.190643310546875
1772561434426210800,9.4272109375,-0.657135009765625,-0.071197509765625,-0.211578369140625
1772561434436278000,9.437278076171875,-0.5975341796875,-0.0642547607421875,-0.16485595703125
1772561434446345200,9.44734521484375,-0.5355072021484375,-0.089263916015625,-0.1066436767578125
1772561434456411000,9.457410888671875,-0.54791259765625,-0.130401611328125,-0.031585693359375
1772561434466478000,9.46747802734375,-0.6656494140625,-0.266693115234375,0.0125732421875
1772561434476544000,9.4775439453125,-0.944305419921875,-0.4218902587890625,0.0235137939453125
1772561434486611000,9.48761083984375,-1.17559814453125,-0.6052398681640625,-0.002166748046875
1772561434496676900,9.4976767578125,-1.4057769775390625,-0.8573760986328125,-0.0263214111328125
1772561434506743800,9.507743896484374,-1.670745849609375,-1.187347412109375,0.0091705322265625
1772561434516810000,9.51781005859375,-1.7486114501953125,-1.4631500244140625,-0.0011749267578125
1772561434526877000,9.527876953125,-2.2139129638671875,-1.3725738525390625,-0.0212554931640625
1772561434536942800,9.53794287109375,-3.5625152587890625,-1.0465545654296875,0.3138885498046875
1772561434547010000,9.548010009765624,-4.3512725830078125,-0.9360809326171875,0.7481689453125
1772561434557077000,9.558076904296875,-4.118194580078125,-0.8368988037109375,0.875885009765625
1772561434567143000,9.568142822265624,-4.06707763671875,-0.770782470703125,1.049285888671875
1772561434577209900,9.5782099609375,-4.0728912353515625,-0.735748291015625,1.0827484130859375
1772561434587276000,9.588276123046874,-3.92633056640625,-0.519805908203125,0.7728118896484375
1772561434597343000,9.598343017578125,-3.525115966796875,-0.4111328125,0.2804718017578125
1772561434607408600,9.60840869140625,-2.920745849609375,-0.404876708984375,-0.0497894287109375
1772561434617476000,9.61847607421875,-2.3016510009765625,-0.54217529296875,0.19049072265625
1772561434627541800,9.628541748046874,-1.561614990234375,-0.7291412353515625,0.7178802490234375
1772561434637608700,9.638608642578125,-1.00445556640625,-0.6062774658203125,0.8395843505859375
1772561434647675000,9.6486748046875,-0.835906982421875,-0.29254150390625,0.6190643310546875
1772561434657741800,9.658741943359376,-0.7816925048828125,-0.1271209716796875,0.347564697265625
1772561434667807700,9.668807861328125,-0.68646240234375,-0.05560302734375,0.139404296875
1772561434677874700,9.678874755859376,-0.4930419921875,0.0731964111328125,0.1386566162109375
1772561434687942000,9.68894189453125,-0.3646697998046875,0.194183349609375,0.3000335693359375
1772561434698007800,9.6990078125,-0.3470611572265625,0.28240966796875,0.491302490234375
1772561434708074800,9.70907470703125,-0.3798828125,0.31536865234375,0.5419921875
1772561434718141000,9.719140869140626,-0.397308349609375,0.29693603515625,0.37451171875
1772561434728208000,9.729207763671875,-0.3814544677734375,0.2824859619140625,0.1448974609375
1772561434738273800,9.739273681640626,-0.351043701171875,0.2107391357421875,0.065673828125
1772561434748340700,9.7493408203125,-0.0455169677734375,0.0355987548828125,0.08270263671875
1772561434758407000,9.759406982421876,0.42608642578125,-0.1027069091796875,0.039581298828125
1772561434768473900,9.769473876953125,0.737884521484375,-0.2049407958984375,-0.0971832275390625
1772561434778539800,9.779539794921876,0.861572265625,-0.2320098876953125,-0.1979217529296875
1772561434788607000,9.78960693359375,1.0213165283203125,-0.177825927734375,-0.4012451171875
1772561434798674000,9.799673828125,1.0401458740234375,-0.1068572998046875,-0.4418487548828125
1772561434808739800,9.80973974609375,0.8857269287109375,-0.1032867431640625,-0.255828857421875
1772561434818806800,9.819806884765624,0.7208709716796875,-0.1490478515625,-0.0294189453125
1772561434828873000,9.829873046875,0.400238037109375,-0.115997314453125,0.115753173828125
1772561434838940000,9.83993994140625,0.1443939208984375,-0.124755859375,0.1371917724609375
1772561434849005800,9.850005859375,0.1393585205078125,-0.14306640625,0.068695068359375
1772561434859073000,9.860072998046874,0.1711578369140625,-0.149932861328125,0.04791259765625
1772561434869139000,9.870138916015625,0.265655517578125,-0.258453369140625,-0.022125244140625
1772561434879206000,9.880205810546874,0.2926788330078125,-0.36041259765625,-0.159393310546875
1772561434889272000,9.89027197265625,0.208404541015625,-0.33868408203125,-0.2484893798828125
1772561434899339000,9.900339111328124,0.0181121826171875,-0.2418975830078125,-0.2947845458984375
1772561434909406000,9.910406005859375,-0.2223052978515625,-0.105499267578125,-0.3207855224609375
1772561434919471900,9.920471923828124,-0.464508056640625,-0.0113067626953125,-0.3332061767578125
1772561434929539000,9.9305390625,-0.698272705078125,-0.0024871826171875,-0.381744384765625
1772561434939604700,9.940604736328124,-0.877044677734375,-0.0070343017578125,-0.384796142578125
1772561434949672000,9.950671875,-0.922637939453125,-0.0374603271484375,-0.290069580078125
1772561434959737900,9.96073779296875,-0.8732757568359375,-0.07598876953125,-0.1631317138671875
1772561434969804800,9.9708046875,-0.8009033203125,-0.0671539306640625,-0.055084228515625
1772561434979870700,9.98087060546875,-0.67059326171875,-0.0846710205078125,-0.027587890625
1772561434989937700,9.990937744140625,-0.54083251953125,-0.1377105712890625,-0.062713623046875
1772561435000003800,10.00100390625,-0.4689483642578125,-0.1425018310546875,-0.090057373046875
1772561435010070800,10.01107080078125,-0.4486846923828125,-0.1014404296875,-0.05413818359375
1772561435020137700,10.0211376953125,-0.51593017578125,-0.055999755859375,0.0402679443359375
1772561435030204000,10.031203857421875,-0.6690826416015625,0.0107879638671875,0.1572723388671875
1772561435040270800,10.041270751953125,-0.8017425537109375,0.0268096923828125,0.2255401611328125
1772561435050336800,10.051336669921875,-0.8939971923828125,-0.0353546142578125,0.2138519287109375
1772561435060403700,10.06140380859375,-0.9623260498046875,-0.1269073486328125,0.17803955078125
1772561435070470000,10.071469970703125,-1.056793212890625,-0.2734222412109375,0.1673736572265625
1772561435080536800,10.081536865234375,-1.27056884765625,-0.4617767333984375,0.1815338134765625
1772561435090602800,10.091602783203125,-1.57220458984375,-0.6855010986328125,0.156646728515625
1772561435100670000,10.101669921875,-1.76800537109375,-0.8739166259765625,0.071197509765625
1772561435110736000,10.11173583984375,-1.8137664794921875,-1.0389251708984375,0.0728759765625
1772561435120802800,10.121802734375,-1.7180938720703125,-1.200836181640625,0.037139892578125
1772561435130869800,10.131869873046876,-2.015380859375,-1.229156494140625,-0.0562744140625
1772561435140936000,10.14193603515625,-2.5989532470703125,-1.190673828125,-0.2301177978515625
1772561435151003000,10.1520029296875,-3.185211181640625,-1.005828857421875,-0.06591796875
1772561435161068800,10.16206884765625,-3.47882080078125,-0.694091796875,0.5787353515625
1772561435171136000,10.172135986328126,-3.386016845703125,-0.5240631103515625,1.1273193359375
1772561435181202000,10.182201904296875,-3.4026031494140625,-0.57611083984375,1.266845703125
1772561435191268900,10.192268798828126,-3.4577484130859375,-0.6217498779296875,0.878814697265625
1772561435201335000,10.2023349609375,-3.37139892578125,-0.6519317626953125,0.4246673583984375
1772561435211402000,10.212402099609376,-3.1145782470703125,-0.8165740966796875,0.1940765380859375
1772561435221468000,10.222468017578125,-2.4487152099609375,-0.9061431884765625,-0.04400634765625
1772561435231534800,10.232534912109376,-1.7636566162109375,-0.9040069580078125,-0.053955078125
1772561435241602000,10.24260205078125,-1.44891357421875,-0.863616943359375,0.267242431640625
1772561435251668000,10.25266796875,-1.5474700927734375,-0.67999267578125,0.5428466796875
1772561435261735000,10.26273486328125,-1.6575469970703125,-0.5363616943359375,0.39349365234375
1772561435271800800,10.27280078125,-1.4858856201171875,-0.50439453125,-0.0226593017578125
1772561435281868000,10.282867919921875,-1.1566314697265625,-0.4694061279296875,-0.2900238037109375
1772561435291933700,10.29293359375,-0.7506256103515625,-0.4071502685546875,-0.3052215576171875
1772561435302000600,10.303000732421875,-0.3382568359375,-0.3431854248046875,-0.1398773193359375
1772561435312066800,10.31306689453125,-0.0650787353515625,-0.251708984375,0.0446929931640625
1772561435322133800,10.3231337890625,0.0800628662109375,-0.13543701171875,0.12835693359375
1772561435332200000,10.333199951171874,0.132171630859375,-0.03106689453125,0.152923583984375
1772561435342267000,10.343266845703125,0.095611572265625,-0.0051727294921875,0.1116180419921875
1772561435352333800,10.353333740234374,0.05596923828125,-0.0230255126953125,0.0086212158203125
1772561435362399700,10.363399658203125,0.078399658203125,-0.0198822021484375,-0.1248626708984375
1772561435372466700,10.373466796875,0.0735321044921875,-0.0067138671875,-0.2412872314453125
1772561435382532900,10.383532958984375,0.0768585205078125,0.0487213134765625,-0.21484375
1772561435392599800,10.393599853515624,0.225830078125,0.0475616455078125,-0.0558929443359375
1772561435402665700,10.403665771484375,0.41131591796875,-0.0092315673828125,0.1240997314453125
1772561435412733000,10.41373291015625,0.515960693359375,-0.0020294189453125,0.197113037109375
1772561435422798800,10.423798828125,0.537506103515625,0.0518341064453125,0.1762847900390625
1772561435432865800,10.43386572265625,0.5359954833984375,0.0720367431640625,0.1481475830078125
1772561435442932700,10.4439326171875,0.49639892578125,0.0454254150390625,0.1358795166015625
1772561435452999000,10.4539990234375,0.4361419677734375,0.0530853271484375,0.1354217529296875
1772561435463065900,10.46406591796875,0.3042449951171875,0.0890045166015625,0.1310272216796875
1772561435473131800,10.4741318359375,0.141265869140625,0.1109771728515625,0.142669677734375
1772561435483199000,10.484198974609376,0.009613037109375,0.1486358642578125,0.180938720703125
1772561435493265000,10.494264892578125,-0.10491943359375,0.168426513671875,0.2281646728515625
1772561435503331800,10.504331787109376,-0.15765380859375,0.1477508544921875,0.262969970703125
1772561435513398000,10.51439794921875,-0.19427490234375,0.1040496826171875,0.252349853515625
1772561435523465000,10.52446484375,-0.2401123046875,0.0422515869140625,0.18316650390625
1772561435533531000,10.53453076171875,-0.2872772216796875,-0.040435791015625,0.053680419921875
1772561435543597800,10.544597900390626,-0.2928009033203125,-0.08782958984375,-0.0602264404296875
1772561435553665300,10.554665283203125,-0.3141021728515625,-0.1124267578125,-0.128753662109375
1772561435563731200,10.564731201171876,-0.32867431640625,-0.1226806640625,-0.17071533203125
1772561435573798100,10.574798095703125,-0.3579864501953125,-0.137664794921875,-0.198577880859375
1772561435583864300,10.5848642578125,-0.448577880859375,-0.1462554931640625,-0.2234954833984375
1772561435593931300,10.59493115234375,-0.56854248046875,-0.1660919189453125,-0.2472686767578125
1772561435603997200,10.6049970703125,-0.6026763916015625,-0.206085205078125,-0.2755584716796875
1772561435614064000,10.615064208984375,-0.5853118896484375,-0.2665557861328125,-0.3154296875
1772561435624130300,10.62513037109375,-0.4562225341796875,-0.307891845703125,-0.32147216796875
1772561435634197200,10.635197265625,-0.327423095703125,-0.3762054443359375,-0.2593841552734375
1772561435644263200,10.64526318359375,-0.438232421875,-0.52398681640625,-0.2239532470703125
1772561435654330400,10.655330322265625,-0.6947174072265625,-0.6516571044921875,-0.254852294921875
1772561435664397300,10.665397216796874,-0.86376953125,-0.662841796875,-0.3225860595703125
1772561435674463200,10.675463134765625,-1.1883392333984375,-0.6388397216796875,-0.5128326416015625
1772561435684530200,10.6855302734375,-1.6342620849609375,-0.6801300048828125,-0.87615966796875
1772561435694596000,10.69559619140625,-1.7866973876953125,-0.6419219970703125,-0.9194793701171875
1772561435704663300,10.705663330078124,-1.905853271484375,-0.516937255859375,-0.7149200439453125
1772561435714729000,10.71572900390625,-2.0550994873046875,-0.4954376220703125,-0.4554901123046875
1772561435724796200,10.725796142578124,-1.9981231689453125,-0.6500244140625,-0.2796173095703125
1772561435734862000,10.735862060546875,-1.81011962890625,-0.584075927734375,-0.201324462890625
1772561435744929000,10.745928955078124,-2.322021484375,-0.245208740234375,-0.3395843505859375
1772561435754995200,10.7559951171875,-2.5605010986328125,0.0371246337890625,-0.3498077392578125
1772561435765062100,10.766062255859374,-2.585906982421875,0.5428924560546875,0.1494903564453125
1772561435775129000,10.776129150390625,-2.5751953125,0.894439697265625,0.6585845947265625
1772561435785195000,10.786195068359374,-2.5577850341796875,0.89080810546875,0.9960479736328125
1772561435795262200,10.79626220703125,-2.4937286376953125,0.8262786865234375,1.0122222900390625
1772561435805328100,10.806328125,-2.230682373046875,0.7055816650390625,0.9279632568359375
1772561435815395000,10.81639501953125,-1.935394287109375,0.51409912109375,0.78497314453125
1772561435825461200,10.826461181640624,-1.758941650390625,0.3429107666015625,0.606109619140625
1772561435835528200,10.836528076171875,-1.5220489501953125,0.1815185546875,0.3986663818359375
1772561435845594000,10.846593994140624,-1.3403472900390625,0.03955078125,0.2398529052734375
1772561435855661000,10.8566611328125,-1.245513916015625,-0.0800628662109375,0.0236968994140625
1772561435865727200,10.866727294921875,-1.165618896484375,-0.1601715087890625,-0.162689208984375
1772561435875794200,10.876794189453125,-1.146484375,-0.216033935546875,-0.2621002197265625
1772561435885861000,10.886861083984375,-1.220062255859375,-0.2807769775390625,-0.257110595703125
1772561435895927300,10.89692724609375,-1.4285888671875,-0.444183349609375,-0.3165740966796875
1772561435905994200,10.906994140625,-1.345916748046875,-0.4657135009765625,-0.2350616455078125
1772561435916060200,10.91706005859375,-1.2482757568359375,-0.298736572265625,-0.0150604248046875
1772561435926127000,10.927127197265625,-1.1972198486328125,-0.1127777099609375,0.075897216796875
1772561435936193300,10.937193359375,-1.1569061279296875,-0.061065673828125,0.05078125
1772561435946260200,10.94726025390625,-1.01165771484375,-0.0705718994140625,-0.0094757080078125
1772561435956326100,10.957326171875,-0.749298095703125,-0.0433197021484375,-0.045318603515625
1772561435966393300,10.967393310546875,-0.43438720703125,0.0034637451171875,-0.066436767578125
1772561435976459300,10.977459228515626,-0.3123931884765625,0.0722808837890625,-0.0484466552734375
1772561435986526200,10.987526123046875,-0.3193511962890625,0.0680694580078125,-0.080596923828125
1772561435996593200,10.99759326171875,-0.3156585693359375,0.041778564453125,-0.1450042724609375
1772561436006659300,11.007659423828125,-0.3185272216796875,0.0215606689453125,-0.1707916259765625
1772561436016726300,11.017726318359376,-0.4169464111328125,0.000152587890625,-0.1454010009765625
1772561436026792000,11.0277919921875,-0.5741119384765625,-0.016815185546875,-0.0886993408203125
1772561436036859400,11.037859375,-0.7091522216796875,-0.0452117919921875,-0.0654144287109375
1772561436046925000,11.047925048828125,-0.8106231689453125,-0.04730224609375,-0.0695343017578125
1772561436056992000,11.057991943359376,-0.8799896240234375,-0.0316162109375,-0.12628173828125
1772561436067058200,11.06805810546875,-0.904876708984375,-0.0374755859375,-0.2274017333984375
1772561436077125000,11.078125,-0.8957366943359375,-0.007415771484375,-0.2216033935546875
1772561436087191000,11.08819091796875,-0.911102294921875,0.03045654296875,-0.11309814453125
1772561436097258000,11.098258056640624,-0.966827392578125,-0.0097503662109375,-0.0272369384765625
1772561436107325200,11.1083251953125,-0.9725799560546875,-0.116943359375,0.0116729736328125
1772561436117391000,11.11839111328125,-0.9167327880859375,-0.218017578125,0.0368804931640625
1772561436127458000,11.1284580078125,-0.8612060546875,-0.2889556884765625,0.045440673828125
1772561436137524200,11.138524169921874,-0.84368896484375,-0.3621978759765625,0.03570556640625
1772561436147591200,11.148591064453125,-0.869293212890625,-0.42333984375,-0.0054931640625
1772561436157657000,11.158656982421874,-0.876922607421875,-0.4282684326171875,-0.0666656494140625
1772561436167724000,11.16872412109375,-0.837432861328125,-0.356170654296875,-0.1090240478515625
1772561436177790200,11.178790283203124,-0.7832489013671875,-0.2663726806640625,-0.132171630859375
1772561436187857200,11.188857177734375,-0.7685089111328125,-0.238006591796875,-0.12164306640625
1772561436197923000,11.198923095703124,-0.7937774658203125,-0.225433349609375,-0.0128173828125
1772561436207990300,11.208990234375,-0.8838348388671875,-0.1866302490234375,0.170440673828125
1772561436218057200,11.21905712890625,-1.0363922119140625,-0.1240234375,0.3275299072265625
1772561436228123100,11.229123046875,-1.20343017578125,-0.0577392578125,0.3810882568359375
1772561436238190000,11.239190185546875,-1.3217620849609375,0.0059051513671875,0.36383056640625
1772561436248256300,11.24925634765625,-1.3722076416015625,0.0355987548828125,0.323883056640625
1772561436258323200,11.2593232421875,-1.36370849609375,0.026123046875,0.2731475830078125
1772561436268389000,11.26938916015625,-1.308502197265625,-0.0201416015625,0.1956329345703125
1772561436278456300,11.279456298828125,-1.221435546875,-0.0851593017578125,0.1118621826171875
1772561436288522200,11.289522216796875,-1.1119232177734375,-0.1203155517578125,0.0257415771484375
1772561436298589200,11.299589111328125,-1.0557403564453125,-0.1529388427734375,-0.052154541015625
1772561436308655400,11.3096552734375,-0.911407470703125,-0.204620361328125,-0.079071044921875
1772561436318722300,11.319722412109375,-0.7212066650390625,-0.2281036376953125,-0.0181121826171875
1772561436328789200,11.329789306640626,-0.6219482421875,-0.2492828369140625,0.0647735595703125
1772561436338855200,11.339855224609375,-0.6653594970703125,-0.308563232421875,0.0928192138671875
1772561436348922400,11.34992236328125,-0.69183349609375,-0.3089752197265625,0.0550537109375
1772561436358988000,11.359988037109375,-0.6885833740234375,-0.2811431884765625,0.01727294921875
1772561436369055200,11.37005517578125,-0.7115631103515625,-0.253082275390625,-0.00616455078125
