time,seconds_elapsed,z,y,x
1772561425054274000,0.055274169921875,-1.3984676599502563,-0.8796751499176025,0.4227201044559479
1772561425064340200,0.06534033203125,-1.0728917121887207,-1.3018314838409424,0.08894478529691696
1772561425074407200,0.0754072265625,-0.795659065246582,-1.8132960796356201,-0.28882354497909546
1772561425084473000,0.08547314453125,-0.46364861726760864,-2.131080150604248,-0.39445650577545166
1772561425094540000,0.0955400390625,-0.19460010528564453,-1.9166197776794434,-0.18528011441230774
1772561425104606200,0.105606201171875,-0.15253201127052307,-1.403282642364502,-0.11229272186756134
1772561425114673200,0.115673095703125,-0.2689917981624603,-0.8466519117355347,-0.21616478264331818
1772561425124739000,0.125739013671875,-0.41442009806632996,-0.24075455963611603,-0.3061463534832001
1772561425134806300,0.13580615234375,-0.5009413957595825,0.38421398401260376,-0.2947285771369934
1772561425144872200,0.1458720703125,-0.47427356243133545,1.0178515911102295,-0.22273054718971252
1772561425154939100,0.155939208984375,-0.33707043528556824,1.6568821668624878,-0.17086148262023926
1772561425165005300,0.16600537109375,-0.13707716763019562,2.1776723861694336,-0.1522396057844162
1772561425175072300,0.176072265625,0.06834124028682709,1.455269455909729,-0.3458079993724823
1772561425185138200,0.18613818359375,0.2238813042640686,0.2233409434556961,-0.36410924792289734
1772561425195205000,0.196205078125,0.22296597063541412,-0.2406962364912033,-0.07214502990245819
1772561425205272300,0.206272216796875,0.06746426224708557,-0.5793299674987793,0.09265509992837906
1772561425215338200,0.216338134765625,-0.15758056938648224,-1.2029125690460205,0.08097367733716965
1772561425225405200,0.2264052734375,-0.3702521026134491,-1.9903712272644043,-0.034383807331323624
1772561425235471400,0.236471435546875,-0.48718589544296265,-0.9818657040596008,-0.36898496747016907
1772561425245538300,0.246538330078125,-0.4090157449245453,-0.25982969999313354,-0.4177892506122589
1772561425255604200,0.256604248046875,-0.12344257533550262,0.1597108393907547,-0.40102413296699524
1772561425265671200,0.266671142578125,0.0963321253657341,0.019083412364125252,-0.4654920697212219
1772561425275737000,0.276737060546875,0.1601632982492447,-0.20987573266029358,-0.579506516456604
1772561425285804300,0.28680419921875,0.219072163105011,-0.4172201454639435,-0.6853243112564087
1772561425295870000,0.296869873046875,0.3974355161190033,-0.638748824596405,-0.707494854927063
1772561425305937200,0.306937255859375,0.7226106524467468,-0.9604954123497009,-0.735964298248291
1772561425316003000,0.317003173828125,1.216776728630066,-1.098331332206726,-0.7676327228546143
1772561425326070000,0.327070068359375,1.7210358381271362,-0.8404930830001831,-0.7725907564163208
1772561425336136200,0.33713623046875,2.0376126766204834,-0.29957231879234314,-0.7071081399917603
1772561425346203100,0.347203125,1.8734803199768066,0.31287509202957153,-0.5607288479804993
1772561425356269000,0.35726904296875,1.3431740999221802,0.5920710563659668,-0.4594413638114929
1772561425366336000,0.3673359375,0.8186165690422058,0.33709999918937683,-0.42563945055007935
1772561425376402200,0.377402099609375,0.4937801659107208,-0.1388215273618698,-0.3994360864162445
1772561425386469000,0.38746923828125,0.29790571331977844,-0.5508977770805359,-0.30705633759498596
1772561425396535000,0.39753515625,0.14124394953250885,-0.82099848985672,-0.13851739466190338
1772561425406602200,0.407602294921875,0.02334660105407238,-0.991946816444397,0.04990604147315025
1772561425416668200,0.417668212890625,-0.05005064979195595,-1.0291250944137573,0.19738204777240753
1772561425426735000,0.427735107421875,-0.08655060082674026,-0.8871996402740479,0.28076669573783875
1772561425436801300,0.43780126953125,-0.12001988291740417,-0.6678501963615417,0.29875633120536804
1772561425446868200,0.4478681640625,-0.1959034651517868,-0.4984859526157379,0.2955451011657715
1772561425456934100,0.45793408203125,-0.3192533552646637,-0.40802502632141113,0.2735380530357361
1772561425467001000,0.4680009765625,-0.47469407320022583,-0.3916018605232239,0.2596267759799957
1772561425477067300,0.4780673828125,-0.6836563348770142,-0.4499669075012207,0.27423980832099915
1772561425487134200,0.48813427734375,-0.9536047577857971,-0.5358415842056274,0.3286553919315338
1772561425497200000,0.4982001953125,-1.2512340545654297,-0.5269530415534973,0.4044489562511444
1772561425507267300,0.508267333984375,-1.4798378944396973,-0.3364296853542328,0.5447887182235718
1772561425517333200,0.518333251953125,-1.5625277757644653,-0.11882918328046799,0.7694772481918335
1772561425527400200,0.528400146484375,-1.4508342742919922,-0.12901976704597473,1.0338002443313599
1772561425537466000,0.538466064453125,-1.2070317268371582,-0.4822513461112976,1.2540284395217896
1772561425547533800,0.548533935546875,-0.9866777658462524,-0.94031822681427,1.4559749364852905
1772561425557599700,0.558599853515625,-0.9175796508789062,-1.0081758499145508,1.7479093074798584
1772561425567666700,0.568666748046875,-0.930147647857666,-1.0451726913452148,2.081998586654663
1772561425577732900,0.57873291015625,-0.9487303495407104,-1.4149487018585205,2.302051305770874
1772561425587799800,0.5887998046875,-1.017279028892517,-1.9180279970169067,2.381328821182251
1772561425597866800,0.59886669921875,-1.1562124490737915,-2.374610185623169,2.479757308959961
1772561425607933000,0.608932861328125,-1.2157468795776367,-2.462362289428711,2.6130595207214355
1772561425618000000,0.618999755859375,-0.8907685279846191,-1.7682210206985474,2.653503894805908
1772561425628065800,0.629065673828125,-0.32927536964416504,-0.6424610018730164,2.8144607543945312
1772561425638132700,0.6391328125,0.06409935653209686,0.47305917739868164,3.153148889541626
1772561425648199000,0.649198974609375,0.5784739851951599,0.8127432465553284,3.1185591220855713
1772561425658265900,0.659265869140625,1.207424521446228,0.21911796927452087,2.471219778060913
1772561425668331800,0.669331787109375,1.554337739944458,-0.16566886007785797,1.871738076210022
1772561425678398700,0.679398681640625,1.7020877599716187,-0.45144975185394287,1.2946417331695557
1772561425688464600,0.689464599609375,1.580045223236084,-0.6322882175445557,0.7168851494789124
1772561425698531600,0.699531494140625,1.3118928670883179,-0.5580041408538818,0.23778539896011353
1772561425708597800,0.70959765625,1.0379496812820435,0.16431890428066254,-0.41863933205604553
1772561425718664700,0.719664794921875,0.654901385307312,1.2209889888763428,-0.8437623977661133
1772561425728730600,0.729730712890625,0.23006702959537506,2.34004282951355,-1.366650104522705
1772561425738797600,0.739797607421875,-0.0943765714764595,3.456338405609131,-1.7035585641860962
1772561425748863700,0.74986376953125,-0.22613540291786194,4.145562171936035,-1.9787853956222534
1772561425758930700,0.7599306640625,-0.1903446465730667,4.169890403747559,-2.27609920501709
1772561425768996600,0.76999658203125,-0.09952126443386078,3.76785945892334,-2.490537643432617
1772561425779063800,0.780063720703125,-0.035782232880592346,3.207158088684082,-2.52826189994812
1772561425789129700,0.790129638671875,-0.001306014135479927,2.5921669006347656,-2.3622782230377197
1772561425799196700,0.80019677734375,0.0164966844022274,2.0318236351013184,-2.029147148132324
1772561425809262800,0.810262939453125,0.021644575521349907,1.5391532182693481,-1.5999057292938232
1772561425819329800,0.820329833984375,0.028149612247943878,1.1096241474151611,-1.1509721279144287
1772561425829395700,0.830395751953125,0.07640502601861954,0.7385856509208679,-0.6997596621513367
1772561425839462700,0.840462646484375,0.16751229763031006,0.49738821387290955,-0.2850301265716553
1772561425849528800,0.85052880859375,0.2885785400867462,0.46509337425231934,0.04283721372485161
1772561425859595800,0.860595703125,0.40838003158569336,0.5038338303565979,0.232312873005867
1772561425869661700,0.87066162109375,0.49795597791671753,0.6064954996109009,0.29461005330085754
1772561425879729000,0.88072900390625,0.519880473613739,0.7192913293838501,0.26795127987861633
1772561425889794800,0.890794921875,0.4636555314064026,0.8009118437767029,0.1839437335729599
1772561425899861800,0.90086181640625,0.34972232580184937,0.7186992764472961,0.03750210255384445
1772561425909928000,0.910927978515625,0.2816982567310333,0.3295440673828125,-0.17102794349193573
1772561425919995000,0.920994873046875,0.2879934310913086,0.08856528252363205,-0.3027590811252594
1772561425930060800,0.931060791015625,0.2583511173725128,0.04109124466776848,-0.35330691933631897
1772561425940127700,0.941127685546875,0.12213949114084244,0.04766765236854553,-0.3727690577507019
1772561425950193700,0.951193603515625,-0.05414073169231415,-0.10841862112283707,-0.390026330947876
1772561425960260600,0.961260498046875,-0.19368770718574524,-0.424428790807724,-0.4791106581687927
1772561425970326800,0.971326904296875,-0.308286190032959,-0.8214027881622314,-0.6317007541656494
1772561425980393700,0.981393798828125,-0.4203171133995056,-1.1816391944885254,-0.7638771533966064
1772561425990460700,0.991460693359375,-0.5049675703048706,-1.2905137538909912,-0.8547215461730957
1772561426000526600,1.001526611328125,-0.5161219239234924,-1.3137816190719604,-0.9465614557266235
1772561426010593500,1.011593505859375,-0.4934901297092438,-1.4585329294204712,-1.0886470079421997
1772561426020659700,1.02165966796875,-0.47787415981292725,-1.3447474241256714,-1.1173771619796753
1772561426030726700,1.0317265625,-0.4376247525215149,-0.8050075173377991,-0.9846335053443909
1772561426040792600,1.04179248046875,-0.39840731024742126,-0.35543400049209595,-0.8759554624557495
1772561426050859800,1.05185986328125,-0.4041176438331604,-0.29448357224464417,-0.9343953728675842
1772561426060925700,1.06192578125,-0.37913134694099426,-0.4418695569038391,-1.090563416481018
1772561426070992600,1.07199267578125,-0.2802068889141083,-0.5861971974372864,-1.284984827041626
1772561426081058800,1.082058837890625,-0.19419051706790924,-0.6313348412513733,-1.4330363273620605
1772561426091125800,1.092125732421875,-0.16490159928798676,-0.6624256372451782,-1.5111939907073975
1772561426101191700,1.102191650390625,-0.13972540199756622,-0.704663097858429,-1.4926234483718872
1772561426111258600,1.112258544921875,-0.016999224200844765,-0.6299028396606445,-1.32168710231781
1772561426121324800,1.12232470703125,0.1871459186077118,-0.4676833152770996,-0.9939777255058289
1772561426131391700,1.132391845703125,0.3356853127479553,-0.27081844210624695,-0.5247244834899902
1772561426141458000,1.1424580078125,0.27610480785369873,-0.26411473751068115,-0.046780288219451904
1772561426151524900,1.15252490234375,0.04246276989579201,-0.4165436923503876,0.37601518630981445
1772561426161590800,1.1625908203125,-0.21863007545471191,-0.5014016032218933,0.6974381804466248
1772561426171657700,1.17265771484375,-0.4118328392505646,-0.536241888999939,0.8729402422904968
1772561426181724000,1.182723876953125,-0.5139581561088562,-0.5508567690849304,1.001354694366455
1772561426191790800,1.192790771484375,-0.5064954161643982,-0.652137815952301,1.0153429508209229
1772561426201856800,1.202856689453125,-0.35263341665267944,-0.6141984462738037,0.8849276900291443
1772561426211923700,1.212923828125,-0.08327198773622513,-0.25434574484825134,0.6283467411994934
1772561426221989600,1.22298974609375,0.12799018621444702,0.4326467514038086,0.3314945697784424
1772561426232056800,1.233056884765625,0.29486384987831116,0.8164535164833069,0.019415508955717087
1772561426242122800,1.243122802734375,0.6088971495628357,0.9028387665748596,-0.32711607217788696
1772561426252189700,1.253189697265625,0.8666157722473145,0.8684219121932983,-0.6165228486061096
1772561426262255600,1.263255615234375,0.9133920669555664,0.8609579205513,-0.8695953488349915
1772561426272322600,1.273322509765625,0.8211936950683594,0.8697811961174011,-1.0589791536331177
1772561426282388700,1.283388671875,0.6945961117744446,0.8949475288391113,-1.1580731868743896
1772561426292455700,1.29345556640625,0.5399617552757263,0.9889296889305115,-1.147818684577942
1772561426302521600,1.303521484375,0.4258767366409302,1.0413838624954224,-0.9861429929733276
1772561426312588800,1.3135888671875,0.43048959970474243,2.36482572555542,-0.8928534984588623
1772561426322654700,1.32365478515625,0.5158020853996277,2.5364749431610107,-0.711606502532959
1772561426332721700,1.3337216796875,0.6366771459579468,2.3310606479644775,-0.551634669303894
1772561426342787800,1.343787841796875,0.7488643527030945,1.6307624578475952,-0.4817269444465637
1772561426352854800,1.353854736328125,0.9229927659034729,0.44053876399993896,-0.43168243765830994
1772561426362921700,1.363921630859375,1.1335777044296265,-0.8244291543960571,-0.292293906211853
1772561426372987600,1.373987548828125,1.2309225797653198,-1.6863330602645874,-0.07425691932439804
1772561426383054800,1.384054931640625,1.0162550210952759,-2.0022504329681396,0.09257600456476212
1772561426393120800,1.394120849609375,0.5130478739738464,-1.8582571744918823,0.18093515932559967
1772561426403187700,1.404187744140625,-0.025194834917783737,-1.5789240598678589,0.16427789628505707
1772561426413254000,1.41425390625,-0.366304486989975,-1.5080863237380981,0.0867370218038559
1772561426423320800,1.42432080078125,-0.49957147240638733,-1.451385498046875,0.06627649068832397
1772561426433386800,1.43438671875,-0.5785499215126038,-1.2243843078613281,0.1297345608472824
1772561426443453700,1.44445361328125,-0.5749226808547974,-0.21168960630893707,0.017730260267853737
1772561426453520000,1.454519775390625,-0.4252668619155884,0.4623013138771057,-0.160345196723938
1772561426463586800,1.4645869140625,-0.20025719702243805,0.4496228098869324,-0.12053839862346649
1772561426473652700,1.47465283203125,0.001802960061468184,0.07025818526744843,0.10720102488994598
1772561426483720000,1.484719970703125,0.13409948348999023,-0.3453406095504761,0.43800345063209534
1772561426493785900,1.494785888671875,0.13158279657363892,-0.7246277332305908,0.8260326981544495
1772561426503852800,1.504852783203125,0.12591399252414703,-0.24246510863304138,0.8316457867622375
1772561426513918700,1.514918701171875,0.018088189885020256,-0.25492337346076965,1.093556523323059
1772561426523986000,1.52498583984375,0.024173779413104057,-0.4051421582698822,1.3779512643814087
1772561426534051600,1.535051513671875,0.22296756505966187,-0.47214701771736145,1.60239839553833
1772561426544118500,1.545118408203125,0.4574708938598633,-0.44769176840782166,1.7035807371139526
1772561426554184200,1.55518408203125,0.6713560223579407,-0.5263484716415405,1.67732572555542
1772561426564251100,1.565251220703125,0.8166636824607849,-0.612087070941925,1.5397387742996216
1772561426574317300,1.5753173828125,0.82808917760849,-0.6547413468360901,1.4846936464309692
1772561426584384300,1.58538427734375,0.6336349844932556,-0.5942979454994202,1.4072566032409668
1772561426594450200,1.5954501953125,0.44851386547088623,-0.5337081551551819,1.298757553100586
1772561426604517000,1.60551708984375,0.39364689588546753,-0.562549352645874,1.1393940448760986
1772561426614583000,1.6155830078125,0.3956035077571869,-0.5757394433021545,0.9364728927612305
1772561426624650000,1.62564990234375,0.38457855582237244,-0.2338407188653946,0.8202813267707825
1772561426634716200,1.635716064453125,0.41585978865623474,0.4488835334777832,0.8562864661216736
1772561426644783000,1.645783203125,0.6162056922912598,1.0446443557739258,1.026638150215149
1772561426654849000,1.65584912109375,1.0777701139450073,1.4504948854446411,1.3517545461654663
1772561426664916000,1.665916015625,1.604637861251831,1.3550394773483276,1.5881707668304443
1772561426674982100,1.675982177734375,1.9618455171585083,0.6421621441841125,1.580357551574707
1772561426685049000,1.686049072265625,2.063769817352295,-0.17375022172927856,1.518532633781433
1772561426695116000,1.696115966796875,2.000105857849121,-0.7661203145980835,1.5336875915527344
1772561426705182000,1.706181884765625,1.8073369264602661,-1.0730682611465454,1.534313440322876
1772561426715249200,1.716249267578125,1.5298752784729004,-0.9340643286705017,1.5395771265029907
1772561426725315000,1.726315185546875,1.2788419723510742,-0.37328410148620605,1.4968101978302002
1772561426735382000,1.736382080078125,1.0274693965911865,0.29443803429603577,1.1821982860565186
1772561426745448200,1.7464482421875,0.6766207814216614,0.8703500628471375,0.6066086888313293
1772561426755515100,1.75651513671875,0.3106396198272705,1.2655389308929443,-0.24045628309249878
1772561426765581000,1.7665810546875,0.2593727111816406,1.3622896671295166,-1.028253197669983
1772561426775648000,1.77664794921875,0.23611372709274292,1.269227385520935,-1.5641088485717773
1772561426785714200,1.786714111328125,-0.1529674381017685,1.184592366218567,-1.8030556440353394
1772561426795781000,1.796781005859375,-0.7031261920928955,1.032141923904419,-1.824151635169983
1772561426805847000,1.806846923828125,-1.1642760038375854,0.6514339447021484,-1.7855274677276611
1772561426815914200,1.816914306640625,-1.5397529602050781,0.2825121283531189,-1.7038589715957642
1772561426825980200,1.826980224609375,-1.8302198648452759,-0.01997077837586403,-1.606731653213501
1772561426836047000,1.837047119140625,-2.029224157333374,-0.346541166305542,-1.6559841632843018
1772561426846113300,1.84711328125,-2.137277364730835,-0.36754313111305237,-1.6714683771133423
1772561426856180200,1.85718017578125,-2.0638933181762695,0.13673147559165955,-1.430620789527893
1772561426866246100,1.86724609375,-1.7747619152069092,0.844310998916626,-0.8079341053962708
1772561426876313000,1.87731298828125,-1.3533278703689575,1.1897534132003784,0.09883390367031097
1772561426886379000,1.88737890625,-1.0609709024429321,0.9364516139030457,0.9673517346382141
1772561426896446200,1.8974462890625,-1.1093858480453491,0.24689607322216034,1.4930373430252075
1772561426906512100,1.90751220703125,-1.567057728767395,-0.5151746869087219,1.6689138412475586
1772561426916579000,1.9175791015625,-2.1604959964752197,-0.7469660639762878,1.581551194190979
1772561426926645000,1.92764501953125,-2.4493021965026855,-0.6323204636573792,1.0522726774215698
1772561426936712000,1.9377119140625,-2.4137113094329834,-0.15764528512954712,0.46993395686149597
1772561426946778000,1.947778076171875,-2.056878089904785,0.4671618640422821,-0.1285736858844757
1772561426956845000,1.957844970703125,-1.3784151077270508,0.9926144480705261,-0.45690444111824036
1772561426966911000,1.967910888671875,-0.8784196972846985,0.9827181696891785,-0.5956005454063416
1772561426976978200,1.977978271484375,-0.7448863983154297,0.6541128158569336,-0.6540060639381409
1772561426987044000,1.988044189453125,-0.9617865085601807,0.05850166082382202,-0.7643921971321106
1772561426997111000,1.998111083984375,-1.4840190410614014,-0.49652427434921265,-0.9520473480224609
1772561427007177200,2.00817724609375,-2.023470878601074,-0.780569314956665,-1.034598708152771
1772561427017244200,2.018244140625,-2.341627597808838,-1.0112733840942383,-1.0616451501846313
1772561427027311000,2.02831103515625,-2.3582708835601807,-1.0898072719573975,-1.1638290882110596
1772561427037377000,2.038376953125,-2.2377374172210693,-0.9656177163124084,-1.4715019464492798
1772561427047444200,2.0484443359375,-2.1577298641204834,-0.7347525358200073,-1.938976526260376
1772561427057510100,2.05851025390625,-2.084458112716675,-0.4349093735218048,-2.388946771621704
1772561427067577000,2.0685771484375,-2.0015997886657715,-0.13280998170375824,-2.6856865882873535
1772561427077643300,2.078643310546875,-1.929111361503601,0.11005007475614548,-2.7256669998168945
1772561427087710200,2.088710205078125,-1.704370379447937,0.24166402220726013,-2.370504379272461
1772561427097776000,2.098776123046875,-1.2459737062454224,0.0182301364839077,-1.6340690851211548
1772561427107843000,2.108843017578125,-0.6420822739601135,-0.641517162322998,-0.9576279520988464
1772561427117909200,2.1189091796875,-0.08380674570798874,-1.1960453987121582,-0.7085158824920654
1772561427127976200,2.12897607421875,0.31439176201820374,-1.4890867471694946,-0.9212947487831116
1772561427138042000,2.1390419921875,0.6172536015510559,-1.5484247207641602,-1.2676912546157837
1772561427148109300,2.149109375,1.0235044956207275,-1.4803016185760498,-1.4354195594787598
1772561427158175200,2.15917529296875,1.593862533569336,-1.360519528388977,-1.363966464996338
1772561427168242200,2.1692421875,2.0857973098754883,-1.072330117225647,-1.1955868005752563
1772561427178308000,2.17930810546875,2.2819607257843018,-0.4710466265678406,-0.8485225439071655
1772561427188375300,2.189375244140625,2.1773006916046143,0.08468718826770782,-0.36720916628837585
1772561427198441000,2.19944091796875,2.0424578189849854,0.3581717312335968,0.08953601121902466
1772561427208508000,2.2095078125,2.024202346801758,0.38058674335479736,0.4438621401786804
1772561427218574000,2.219573974609375,1.9388744831085205,0.19802147150039673,0.7968832850456238
1772561427228641000,2.22964111328125,1.6338080167770386,-0.04405640810728073,1.145257830619812
1772561427238707000,2.23970703125,1.1994014978408813,-0.11373082548379898,1.5660401582717896
1772561427248774100,2.249774169921875,0.8349183201789856,0.16921672224998474,2.1750340461730957
1772561427258840000,2.259840087890625,0.6673804521560669,0.5243260860443115,2.7734017372131348
1772561427268907000,2.269906982421875,0.7158406376838684,0.4719454348087311,2.892462730407715
1772561427278973200,2.27997314453125,0.7794768810272217,0.18227526545524597,2.378938913345337
1772561427289040100,2.2900400390625,0.7294747233390808,0.5991070866584778,1.745710849761963
1772561427299107000,2.300107177734375,0.6616107225418091,1.0079889297485352,1.0190356969833374
1772561427309173000,2.310173095703125,0.93336421251297,1.4219757318496704,0.460522323846817
1772561427319240200,2.320240234375,1.792781949043274,1.5237520933151245,0.34820857644081116
1772561427329306000,2.33030615234375,2.653778314590454,0.63083416223526,0.5290441513061523
1772561427339373000,2.340373046875,3.0032541751861572,-0.6547562479972839,0.9886106848716736
1772561427349439200,2.350439208984375,2.8185477256774902,-1.2054319381713867,1.8244458436965942
1772561427359506200,2.360506103515625,2.2191946506500244,-1.3189688920974731,2.786701202392578
1772561427369572000,2.370572021484375,1.6106544733047485,-1.8464151620864868,3.183314085006714
1772561427379639000,2.38063916015625,0.9742919206619263,-2.553072929382324,2.8763420581817627
1772561427389705200,2.390705322265625,0.43535199761390686,-2.2535500526428223,2.4313316345214844
1772561427399772200,2.400772216796875,0.2762235999107361,-1.4483071565628052,1.899159550666809
1772561427409838000,2.410838134765625,0.1911609023809433,-0.976919412612915,1.1820241212844849
1772561427419905300,2.4209052734375,-0.1580900400876999,-0.6894146203994751,0.36830371618270874
1772561427429971200,2.43097119140625,-0.5140699744224548,-0.4168299734592438,-0.4040856957435608
1772561427440038100,2.4410380859375,-0.60005784034729,-0.19037207961082458,-0.9405174255371094
1772561427450104300,2.451104248046875,-0.5530139207839966,-0.16802868247032166,-1.2212039232254028
1772561427460171300,2.461171142578125,-0.6466519832611084,-0.2688271999359131,-1.3177800178527832
1772561427470237000,2.47123681640625,-0.8660919666290283,-0.2404264509677887,-1.1624804735183716
1772561427480304000,2.48130419921875,-1.062696933746338,0.0034085798542946577,-0.7866492867469788
1772561427490370000,2.4913701171875,-1.1007121801376343,0.5051960349082947,-0.25098055601119995
1772561427500437000,2.50143701171875,-1.0180628299713135,1.0967925786972046,0.27504247426986694
1772561427510503200,2.511503173828125,-0.9713794589042664,1.446747899055481,0.5489134788513184
1772561427520570000,2.521570068359375,-0.9946286082267761,1.5621223449707031,0.6190621852874756
1772561427530636000,2.531635986328125,-1.0290632247924805,1.5539907217025757,0.5973339676856995
1772561427540703000,2.541702880859375,-1.0467932224273682,1.1375242471694946,0.26047927141189575
1772561427550769000,2.551768798828125,-1.1067277193069458,0.6924168467521667,-0.23779897391796112
1772561427560835800,2.5618359375,-1.105073094367981,0.45626339316368103,-0.8013100028038025
1772561427570902800,2.57190283203125,-1.027134656906128,0.41640999913215637,-1.2958869934082031
1772561427580969000,2.581968994140625,-0.8217865228652954,0.4905036687850952,-1.6133311986923218
1772561427591036000,2.592035888671875,-0.5776814222335815,0.5230171084403992,-1.835147500038147
1772561427601101800,2.602101806640625,-0.44500941038131714,0.5299288630485535,-1.980225920677185
1772561427611168800,2.612168701171875,-0.5279279947280884,0.5565513968467712,-1.9776852130889893
1772561427621235000,2.62223486328125,-0.7080416083335876,0.4727262556552887,-1.887734055519104
1772561427631302000,2.632302001953125,-1.013028621673584,0.16761429607868195,-1.9352920055389404
1772561427641367800,2.642367919921875,-1.2385879755020142,-0.21095804870128632,-2.018543004989624
1772561427651435000,2.65243505859375,-1.3075447082519531,-0.6663045287132263,-2.151750087738037
1772561427661501000,2.6625009765625,-1.2822571992874146,-0.900203287601471,-2.2419650554656982
1772561427671568000,2.67256787109375,-1.2257611751556396,-0.7328491806983948,-2.255040407180786
1772561427681634000,2.682634033203125,-1.146227478981018,-0.2278936207294464,-2.1978063583374023
1772561427691701000,2.692700927734375,-1.026326060295105,0.4314129054546356,-1.928247094154358
1772561427701767000,2.702766845703125,-0.8523513674736023,0.7765128016471863,-1.449009656906128
1772561427711833900,2.712833740234375,-0.6898793578147888,0.6056315898895264,-0.9296088814735413
1772561427721900000,2.722900146484375,-0.5528796911239624,0.08861002326011658,-0.4037168323993683
1772561427731967000,2.732967041015625,-0.45727646350860596,-0.5902382731437683,-0.04911534860730171
1772561427742032600,2.74303271484375,-0.38258305191993713,-1.1445720195770264,-0.06464184075593948
1772561427752099800,2.753099853515625,-0.3683127760887146,-1.2643094062805176,-0.4735225439071655
1772561427762165800,2.763165771484375,-0.38049009442329407,-0.8992911577224731,-1.187268614768982
1772561427772232700,2.773232666015625,-0.2859979271888733,-0.2795301675796509,-1.9893032312393188
1772561427782299000,2.783298828125,-0.0007837683078832924,0.4128301739692688,-2.610978603363037
1772561427792365800,2.79336572265625,0.501577615737915,0.9653702974319458,-2.8254101276397705
1772561427802432800,2.803432861328125,0.9739736914634705,1.0885024070739746,-2.6731314659118652
1772561427812498700,2.813498779296875,1.0924733877182007,1.1137707233428955,-2.113976001739502
1772561427822566000,2.82356591796875,0.8328753709793091,1.0970964431762695,-1.2316927909851074
1772561427832631800,2.8336318359375,0.3566204309463501,0.626216471195221,-0.4242468774318695
1772561427842698800,2.84369873046875,0.09211980551481247,-0.08010522276163101,0.23787274956703186
1772561427852765000,2.853764892578125,0.16714371740818024,-0.492689847946167,0.963855504989624
1772561427862831900,2.863831787109375,0.41518068313598633,-0.40962132811546326,1.8054314851760864
1772561427872897800,2.873897705078125,0.517720639705658,0.06400454789400101,2.5149099826812744
1772561427882964700,2.88396484375,0.2880171537399292,0.38054999709129333,2.6974539756774902
1772561427893031000,2.894031005859375,-0.06874630600214005,0.17732205986976624,2.114011764526367
1772561427903097900,2.904097900390625,-0.27271223068237305,0.052129779011011124,1.1259407997131348
1772561427913163800,2.914163818359375,0.11839482188224792,0.7525619268417358,0.5793773531913757
1772561427923231000,2.92423095703125,1.0235981941223145,1.48894464969635,1.6810964345932007
1772561427933297000,2.934296875,0.9398058652877808,-0.7225059866905212,3.1253502368927
1772561427943363800,2.94436376953125,0.47234252095222473,-3.2771313190460205,3.562950849533081
1772561427953430000,2.954429931640625,0.012569587677717209,-3.466156244277954,1.7201464176177979
1772561427963497000,2.9644970703125,0.13896161317825317,-1.4945611953735352,-0.01654142513871193
1772561427973563000,2.97456298828125,0.7541648745536804,-0.3863216042518616,-1.2463256120681763
1772561427983629800,2.9846298828125,1.1382853984832764,-0.33017659187316895,-2.0134074687957764
1772561427993696000,2.994696044921875,0.7843416929244995,-0.39551857113838196,-2.2271745204925537
1772561428003763000,3.004762939453125,0.24036972224712372,-0.2805483043193817,-1.524176836013794
1772561428013828900,3.014828857421875,-0.2811238169670105,-0.6314586400985718,-0.2735985219478607
1772561428023896000,3.02489599609375,-0.7594877481460571,-1.8188657760620117,0.6232854127883911
1772561428033961700,3.034961669921875,-1.024025321006775,-3.127094030380249,0.7286264896392822
1772561428044028700,3.045028564453125,-0.9772999286651611,-3.572237491607666,0.14396142959594727
1772561428054096000,3.055095947265625,-0.6249597668647766,-2.962026596069336,-0.867918074131012
1772561428064161800,3.065161865234375,-0.11159736663103104,-1.4658161401748657,-1.8792308568954468
1772561428074228700,3.075228759765625,0.4580136239528656,0.35841915011405945,-2.362748622894287
1772561428084295000,3.085294921875,1.0239558219909668,1.754360556602478,-2.021742820739746
1772561428094361900,3.09536181640625,1.4531410932540894,2.171110153198242,-1.0473829507827759
1772561428104427800,3.105427734375,1.5238248109817505,1.6807196140289307,0.11444029211997986
1772561428114494700,3.11549462890625,1.1507707834243774,0.694808840751648,1.076401710510254
1772561428124561000,3.125560791015625,0.4088689982891083,-0.3744279146194458,1.7332773208618164
1772561428134627800,3.1356279296875,-0.35655173659324646,-1.1302298307418823,1.963958740234375
1772561428144693800,3.14569384765625,-0.931270956993103,-1.5954550504684448,1.4944446086883545
1772561428154761000,3.155760986328125,-1.0728662014007568,-1.4228031635284424,0.6234593391418457
1772561428164827000,3.165826904296875,-0.7511581778526306,-0.6523021459579468,-0.3147755265235901
1772561428174893800,3.175893798828125,-0.18703460693359375,0.44057366251945496,-1.1779683828353882
1772561428184960000,3.1859599609375,0.3976173996925354,1.5078333616256714,-1.8697444200515747
1772561428195027000,3.19602685546875,0.7880655527114868,2.2246108055114746,-2.1807303428649902
1772561428205092900,3.2060927734375,0.9011548757553101,2.3131775856018066,-2.136683464050293
1772561428215159800,3.216159912109375,0.5753183960914612,1.6605626344680786,-1.9286223649978638
1772561428225226000,3.22622607421875,-0.1033913716673851,0.6206294298171997,-1.6533024311065674
1772561428235293000,3.23629296875,-0.7556421160697937,-0.13624705374240875,-1.3274720907211304
1772561428245358800,3.24635888671875,-1.043972134590149,-0.42370733618736267,-1.0197374820709229
1772561428255426000,3.256426025390625,-0.9740216135978699,-0.455664724111557,-0.8260204195976257
1772561428265492000,3.266491943359375,-0.6846888661384583,-0.2804921269416809,-0.7655088901519775
1772561428275559000,3.276558837890625,-0.3482373356819153,0.01625060848891735,-0.7558812499046326
1772561428285625900,3.2866259765625,-0.06533053517341614,0.28058531880378723,-0.6844675540924072
1772561428295692000,3.296692138671875,0.09694358706474304,0.2439546138048172,-0.3684470057487488
1772561428305759000,3.306759033203125,0.11772184073925018,-0.36063915491104126,0.3350435197353363
1772561428315825000,3.316824951171875,-0.1529535949230194,-1.5805882215499878,1.0780411958694458
1772561428325892000,3.32689208984375,-0.5791720151901245,-2.654170274734497,1.251225471496582
1772561428335957800,3.336957763671875,-0.8272705078125,-2.834134340286255,0.8854941129684448
1772561428346024700,3.347024658203125,-0.7931525111198425,-2.4125866889953613,0.2277900129556656
1772561428356091000,3.3570908203125,-0.5139360427856445,-1.7377352714538574,-0.5751211047172546
1772561428366157800,3.36715771484375,-0.13147440552711487,-0.8708824515342712,-1.3463504314422607
1772561428376223700,3.3772236328125,0.18249817192554474,-0.10149173438549042,-1.9091477394104004
1772561428386290700,3.387290771484375,0.43376821279525757,0.33977648615837097,-2.092376470565796
1772561428396356900,3.39735693359375,0.5493736267089844,0.5256667137145996,-1.7940046787261963
1772561428406423800,3.407423828125,0.49510908126831055,0.7426695823669434,-1.0223287343978882
1772561428416489700,3.41748974609375,0.26476719975471497,0.9309508204460144,-0.013395434245467186
1772561428426557000,3.427556884765625,0.029273733496665955,0.7865257263183594,0.9778810739517212
1772561428436622800,3.437622802734375,-0.09673133492469788,0.4044598639011383,1.7584394216537476
1772561428446689800,3.447689697265625,-0.11415719985961914,0.11550235748291016,2.221552848815918
1772561428456756000,3.457755859375,-0.08531143516302109,0.6547455787658691,2.688004732131958
1772561428466823000,3.467822998046875,-0.12571212649345398,1.455634355545044,3.0286145210266113
1772561428476888800,3.477888916015625,-0.2836325168609619,1.925848126411438,2.8851852416992188
1772561428486955800,3.487955810546875,-0.4098013639450073,1.7380948066711426,2.0389842987060547
1772561428497023000,3.49802294921875,-0.5111396908760071,2.0055854320526123,1.094750165939331
1772561428507089000,3.5080888671875,-0.3101871609687805,3.2326762676239014,1.131900429725647
1772561428517155800,3.51815576171875,0.03736921027302742,3.248755931854248,1.6289384365081787
1772561428527222000,3.528221923828125,0.3995892107486725,2.6048126220703125,2.441702365875244
1772561428537289000,3.5382890625,0.8559407591819763,1.7134373188018799,3.5979864597320557
1772561428547355400,3.54835546875,1.1283690929412842,0.5647512674331665,4.547431468963623
1772561428557422300,3.55842236328125,1.0514730215072632,-0.6201809644699097,4.840543746948242
1772561428567488500,3.568488525390625,0.6211168169975281,-0.9511541128158569,4.621220588684082
1772561428577555500,3.578555419921875,0.13357031345367432,-1.0266557931900024,3.795414924621582
1772561428587621400,3.588621337890625,0.05295136570930481,-1.403565764427185,2.2320468425750732
1772561428597688300,3.598688232421875,0.5082134008407593,-1.5898544788360596,0.5426467657089233
1772561428607754500,3.60875439453125,1.0113540887832642,-1.2085096836090088,-0.6183739900588989
1772561428617821400,3.618821533203125,0.9979919195175171,-0.7290957570075989,-1.2629410028457642
1772561428627887400,3.628887451171875,0.5064901113510132,-0.45848020911216736,-1.4841312170028687
1772561428637954600,3.63895458984375,-0.07607559114694595,-0.5583839416503906,-1.4166120290756226
1772561428648020500,3.6490205078125,-0.5486934781074524,-0.9148182272911072,-1.2436972856521606
1772561428658087400,3.65908740234375,-0.870911717414856,-1.1506139039993286,-1.0099843740463257
1772561428668153600,3.669153564453125,-1.0419950485229492,-1.1900553703308105,-0.6766461133956909
1772561428678220500,3.679220458984375,-1.0331720113754272,-0.8789209127426147,-0.1711387187242508
1772561428688287500,3.68928759765625,-0.8305978775024414,-0.12289050221443176,0.4204271137714386
1772561428698353400,3.699353515625,-0.4876524806022644,0.563739001750946,0.9622799754142761
1772561428708420600,3.709420654296875,-0.21743804216384888,0.604546070098877,1.2852662801742554
1772561428718486300,3.719486328125,-0.1480744183063507,0.23729990422725677,1.3018418550491333
1772561428728553200,3.72955322265625,-0.21916377544403076,-0.18466252088546753,1.0911061763763428
1772561428738619400,3.739619384765625,-0.42233261466026306,-0.6483084559440613,0.6380622386932373
1772561428748686300,3.749686279296875,-0.6231527924537659,-0.8772308826446533,-0.08754076808691025
1772561428758752300,3.759752197265625,-0.7187418937683105,-0.5932090282440186,-0.8503665328025818
1772561428768819500,3.7698193359375,-0.6236696839332581,0.24023950099945068,-1.383819818496704
1772561428778885400,3.779885498046875,-0.2715905010700226,1.3315107822418213,-1.3997145891189575
1772561428788952300,3.789952392578125,-0.004019775427877903,1.7048428058624268,-1.265919804573059
1772561428799018500,3.8000185546875,0.09374646842479706,1.601353406906128,-1.031683325767517
1772561428809085400,3.81008544921875,0.08910270780324936,1.2682909965515137,-0.7798571586608887
1772561428819151400,3.8201513671875,0.0029433255549520254,0.8163933753967285,-0.6735206246376038
1772561428829218300,3.83021826171875,-0.031731296330690384,0.4347016513347626,-0.6588455438613892
1772561428839284500,3.840284423828125,0.022172946482896805,0.18930600583553314,-0.719001829624176
1772561428849351400,3.850351318359375,0.13369707763195038,0.010400709696114063,-0.8281509280204773
1772561428859417300,3.860417236328125,0.2919005751609802,-0.27688780426979065,-1.0671387910842896
1772561428869484500,3.870484619140625,0.4493445158004761,-0.30587950348854065,-1.434355616569519
1772561428879550500,3.880550537109375,0.5779866576194763,0.20622506737709045,-1.74485445022583
1772561428889617400,3.890617431640625,0.5818839073181152,1.038811206817627,-1.8764292001724243
1772561428899684400,3.900684326171875,0.44165968894958496,1.8523675203323364,-1.7782506942749023
1772561428909750500,3.91075048828125,0.21277032792568207,2.3920352458953857,-1.469241738319397
1772561428919817500,3.9208173828125,0.007534615229815245,2.5365469455718994,-1.0327192544937134
1772561428929883400,3.93088330078125,-0.09888104349374771,2.282919406890869,-0.5423769950866699
1772561428939950600,3.94095068359375,-0.13624651730060577,1.7608314752578735,-0.11358968168497086
1772561428950016500,3.9510166015625,-0.19841322302818298,1.2294472455978394,0.12822002172470093
1772561428960083500,3.96108349609375,-0.303393691778183,0.8169840574264526,0.16070179641246796
1772561428970149600,3.971149658203125,-0.39508020877838135,0.6388116478919983,-0.055320512503385544
1772561428980216600,3.981216552734375,-0.34875717759132385,0.7529289126396179,-0.42019274830818176
1772561428990282200,3.9912822265625,-0.16550560295581818,1.1612823009490967,-0.7201043963432312
1772561429000349400,4.001349365234375,0.08226131647825241,1.693979263305664,-0.8463954925537109
1772561429010415400,4.011415283203125,0.3597342073917389,2.1636910438537598,-0.8093253374099731
1772561429020482300,4.021482421875,0.6081336140632629,2.3897550106048584,-0.6381799578666687
1772561429030548200,4.03154833984375,0.7551233172416687,2.2530171871185303,-0.44218701124191284
1772561429040615400,4.041615478515625,0.7389238476753235,1.8227044343948364,-0.28870663046836853
1772561429050681300,4.051681396484375,0.6759984493255615,1.292676329612732,-0.17877426743507385
1772561429060748300,4.061748291015625,0.7182326912879944,1.040220022201538,0.005047755315899849
1772561429070815200,4.071815185546875,0.9426367878913879,0.8944644331932068,0.331779807806015
1772561429080881400,4.08188134765625,1.135849118232727,0.7887300252914429,0.707506537437439
1772561429090948400,4.0919482421875,1.1026203632354736,0.38563451170921326,0.8292343020439148
1772561429101014300,4.10201416015625,0.6312245726585388,0.1222074031829834,0.5565716624259949
1772561429111081500,4.11208154296875,0.06577128916978836,-0.03829119727015495,0.11398755759000778
1772561429121147400,4.1221474609375,-0.3261541426181793,-0.3351050317287445,-0.5436574220657349
1772561429131214300,4.13221435546875,-0.06803976744413376,-0.12755583226680756,-0.5532445311546326
1772561429141280500,4.142280517578125,0.572269082069397,-0.2166217863559723,0.3798075020313263
1772561429151347500,4.152347412109375,0.8045753240585327,-0.06015574932098389,0.7121034264564514
1772561429161413400,4.162413330078125,0.843928337097168,-0.07847536355257034,0.6115613579750061
1772561429171480300,4.172480224609375,0.8217407464981079,-1.055019736289978,0.39704057574272156
1772561429181546500,4.18254638671875,0.25994688272476196,-2.0358364582061768,0.2602161467075348
1772561429191613400,4.192613525390625,-0.49139317870140076,-2.2833118438720703,-0.03885232284665108
1772561429201679400,4.202679443359375,-0.7625522017478943,-2.6441023349761963,-0.7219363451004028
1772561429211746600,4.21274658203125,-0.23187211155891418,-2.7675602436065674,-1.1336839199066162
1772561429221812500,4.2228125,0.5372365713119507,-2.6522724628448486,-0.9926162958145142
1772561429231879400,4.23287939453125,0.6346035599708557,-2.2984602451324463,-0.8446681499481201
1772561429241945600,4.242945556640625,0.14517690241336823,-1.5165066719055176,-0.7000515460968018
1772561429252012500,4.253012451171875,-0.39576250314712524,-0.6622858047485352,-0.513679027557373
1772561429262079500,4.26307958984375,-0.6979482173919678,-0.17578060925006866,-0.21479380130767822
1772561429272145400,4.2731455078125,-0.7380018830299377,-0.032580845057964325,0.23476271331310272
1772561429282212600,4.283212646484375,-0.5900726318359375,0.04640451818704605,0.7776909470558167
1772561429292278500,4.293278564453125,-0.3612476885318756,0.29841679334640503,1.2856292724609375
1772561429302345500,4.303345458984375,-0.17590604722499847,0.5792329907417297,1.5864980220794678
1772561429312411400,4.313411376953125,-0.09286069869995117,0.6114622950553894,1.5741699934005737
1772561429322478300,4.323478271484375,-0.10101716220378876,0.5085388422012329,1.2594650983810425
1772561429332544300,4.333544189453125,-0.19865956902503967,0.4298062324523926,0.733210563659668
1772561429342611200,4.343611083984375,-0.386294960975647,0.35362038016319275,-0.13775600492954254
1772561429352677400,4.353677490234375,-0.5050477385520935,0.5689132809638977,-1.2532154321670532
1772561429362744300,4.363744384765625,-0.3702707290649414,1.1163697242736816,-2.177436590194702
1772561429372810200,4.373810302734375,-0.008798285387456417,1.7715907096862793,-2.77592134475708
1772561429382877400,4.38387744140625,0.5761144161224365,2.187309741973877,-2.8490071296691895
1772561429392943400,4.393943359375,0.9752293229103088,1.7951735258102417,-2.69925594329834
1772561429403010300,4.40401025390625,1.0642542839050293,0.9212297797203064,-2.461064338684082
1772561429413076500,4.414076416015625,0.9303920865058899,-0.05319824069738388,-2.207233190536499
1772561429423143400,4.424143310546875,0.6876502633094788,-0.6408396363258362,-1.9424779415130615
1772561429433210400,4.43421044921875,0.4259728789329529,-0.7919532656669617,-1.7314722537994385
1772561429443276300,4.4442763671875,0.20316269993782043,-0.7702093720436096,-1.6538395881652832
1772561429453343500,4.454343505859375,0.11425147205591202,-0.7521904110908508,-1.754157304763794
1772561429463409400,4.464409423828125,0.1428341120481491,-0.7892943620681763,-2.020887851715088
1772561429473476400,4.474476318359375,0.2474747747182846,-0.815771758556366,-2.255258560180664
1772561429483542500,4.48454248046875,0.6156312227249146,-0.48021215200424194,-1.7623143196105957
1772561429493609500,4.494609375,0.8018503785133362,-0.6650283336639404,-0.44587841629981995
1772561429503675400,4.50467529296875,0.21103021502494812,-1.7475641965866089,0.199049711227417
1772561429513742300,4.514742431640625,-0.48319780826568604,-2.5548689365386963,0.086504265666008
1772561429523808500,4.52480859375,-0.5724930763244629,-2.4068105220794678,-0.08687551319599152
1772561429533875500,4.53487548828125,-0.3319838047027588,-1.7984230518341064,-0.3569972813129425
1772561429543941400,4.54494140625,-0.038308773189783096,-1.16610586643219,-0.6597640514373779
1772561429554008000,4.555008056640625,0.1282016485929489,-0.7652856707572937,-0.8197705149650574
1772561429564074000,4.565073974609375,0.09346816688776016,-0.5996943116188049,-0.7680583000183105
1772561429574141000,4.575140869140625,-0.03781049698591232,-0.487601101398468,-0.46879756450653076
1772561429584207000,4.58520703125,-0.15920190513134003,-0.48287051916122437,0.1411515325307846
1772561429594274000,4.595274169921875,-0.23141510784626007,-0.6274780035018921,1.0763895511627197
1772561429604340000,4.605340087890625,-0.2983075976371765,-0.8466609716415405,2.091691255569458
1772561429614407200,4.6154072265625,-0.3639920651912689,-1.0933458805084229,2.8621528148651123
1772561429624474000,4.62547412109375,-0.41437003016471863,-1.1890270709991455,3.310727596282959
1772561429634540000,4.6355400390625,-0.42244258522987366,-0.9885361194610596,3.5334951877593994
1772561429644607000,4.64560693359375,-0.4682401716709137,-0.6405304670333862,3.4862911701202393
1772561429654673200,4.655673095703125,-0.4551299512386322,-0.1372595876455307,3.3987786769866943
1772561429664740000,4.665739990234375,-0.3707956373691559,0.42716944217681885,3.2642693519592285
1772561429674805800,4.6758056640625,-0.2860245704650879,0.7675789594650269,2.8803417682647705
1772561429684873200,4.685873291015625,-0.21957044303417206,0.5171326398849487,2.0261757373809814
1772561429694939000,4.69593896484375,-0.19464963674545288,-0.40787509083747864,0.5181073546409607
1772561429705005800,4.706005859375,-0.1323963850736618,-0.6956802606582642,-1.2246421575546265
1772561429715072000,4.716072021484375,-0.026264360174536705,0.815010666847229,-2.3159525394439697
1772561429725139000,4.726138916015625,0.1262892335653305,2.745699405670166,-2.5920474529266357
1772561429735204900,4.736204833984375,0.6274815201759338,3.7183942794799805,-2.3785078525543213
1772561429745271800,4.746271728515625,1.591693639755249,3.3626811504364014,-2.000274658203125
1772561429755338000,4.756337890625,2.445204973220825,2.5306766033172607,-1.2073131799697876
1772561429765405000,4.766405029296875,2.682973861694336,1.3719905614852905,-0.16886357963085175
1772561429775470800,4.776470947265625,2.229663372039795,0.33761584758758545,0.9094188809394836
1772561429785538000,4.7865380859375,1.4570492506027222,-0.6356456875801086,2.0637054443359375
1772561429795605000,4.79660498046875,0.3839239776134491,-1.5986117124557495,2.8140182495117188
1772561429805671000,4.8066708984375,-0.43758106231689453,-2.3360958099365234,3.1239006519317627
1772561429815737900,4.81673779296875,-0.6121046543121338,-2.6384637355804443,3.2820754051208496
1772561429825804000,4.826803955078125,-0.4306235611438751,-2.413994073867798,3.332470417022705
1772561429835871000,4.83687109375,-0.3742218017578125,-1.932620882987976,3.0592222213745117
1772561429845937000,4.84693701171875,-0.6210235953330994,-1.5501320362091064,2.470973491668701
1772561429856004000,4.857004150390625,-0.9435979127883911,-1.2877949476242065,1.7109014987945557
1772561429866070000,4.867070068359375,-1.1385905742645264,-0.9878889322280884,0.8672008514404297
1772561429876137000,4.877136962890625,-1.1708321571350098,-0.37774142622947693,0.14723046123981476
1772561429886203100,4.887203125,-1.052323579788208,0.44107726216316223,-0.23156239092350006
1772561429896270000,4.89727001953125,-0.8375617861747742,1.3556523323059082,-0.27935415506362915
1772561429906336000,4.9073359375,-0.563219428062439,2.1351847648620605,-0.0534946508705616
1772561429916403000,4.91740283203125,-0.30815595388412476,2.3770525455474854,0.4144773483276367
1772561429926469000,4.92746923828125,-0.20679739117622375,1.9237314462661743,0.8683252930641174
1772561429936536000,4.9375361328125,-0.34660881757736206,1.0373244285583496,1.1758484840393066
1772561429946602000,4.94760205078125,-0.6867861151695251,0.0498620979487896,1.241645336151123
1772561429956669200,4.957669189453125,-1.059845209121704,-0.7961708903312683,0.8717767000198364
1772561429966736100,4.967736083984375,-1.3113889694213867,-1.2228188514709473,-0.07774539291858673
1772561429976802000,4.977802001953125,-1.2254717350006104,-0.9082175493240356,-1.360899567604065
1772561429986869000,4.987868896484375,-0.8830650448799133,-0.03207297995686531,-2.711862802505493
1772561429996935000,4.997934814453125,-0.5150225758552551,0.9482744336128235,-3.8388478755950928
1772561430007001900,5.008001953125,-0.2764025628566742,1.8142670392990112,-4.544394493103027
1772561430017068000,5.018068115234375,-0.09191660583019257,2.4562582969665527,-4.475415229797363
1772561430027135000,5.028135009765625,-0.1237533688545227,2.1826424598693848,-4.014228820800781
1772561430037201000,5.038200927734375,-0.4608144760131836,1.2786080837249756,-3.518587112426758
1772561430047267800,5.048267822265625,-0.8466582894325256,0.1887049376964569,-3.012247085571289
1772561430057334000,5.058333984375,-1.0410832166671753,-0.7348185777664185,-2.5052378177642822
1772561430067401000,5.06840087890625,-1.0307104587554932,-1.4731667041778564,-2.062084913253784
1772561430077467000,5.078466796875,-0.8818809986114502,-2.069272756576538,-1.8092550039291382
1772561430087533800,5.088533935546875,-0.6262156963348389,-2.226247549057007,-1.8062160015106201
1772561430097600000,5.09860009765625,-0.33892080187797546,-1.8909485340118408,-1.9743605852127075
1772561430107667000,5.1086669921875,-0.08467067778110504,-1.3072922229766846,-2.1166529655456543
1772561430117734000,5.11873388671875,0.14076296985149384,-0.9249195456504822,-2.07108736038208
1772561430127800000,5.128800048828125,0.2989952266216278,-0.8520541787147522,-1.8059872388839722
1772561430137867000,5.138866943359375,0.33097925782203674,-0.9238167405128479,-1.3631136417388916
1772561430147933000,5.148932861328125,0.2119697779417038,-0.9870356917381287,-0.8676741123199463
1772561430157999900,5.158999755859375,0.048714809119701385,-0.9142203330993652,-0.39456674456596375
1772561430168066000,5.169066162109375,-0.0705636516213417,-0.7103633284568787,0.0360589362680912
1772561430178133000,5.179133056640625,-0.08376893401145935,-0.4625000059604645,0.3945752680301666
1772561430188199200,5.18919921875,-0.04412192106246948,-0.29523298144340515,0.6816744208335876
1772561430198266000,5.19926611328125,-0.015445268712937832,-0.21324943006038666,0.929866373538971
1772561430208332000,5.20933203125,-0.0015699334908276796,-0.18709851801395416,1.1356302499771118
1772561430218399000,5.21939892578125,0.0526064857840538,-0.09046465158462524,1.2232173681259155
1772561430228465200,5.229465087890625,0.20085640251636505,0.19811095297336578,1.166048288345337
1772561430238532000,5.239531982421875,0.33935171365737915,0.49221742153167725,0.9688143134117126
1772561430248598000,5.249597900390625,0.3751339316368103,0.559116005897522,0.8233972191810608
1772561430258665000,5.2596650390625,0.3008298873901367,0.380459725856781,0.8285008668899536
1772561430268732200,5.269732177734375,0.07072370499372482,0.3384041488170624,0.9337921738624573
1772561430278798000,5.279798095703125,-0.23203696310520172,0.8607466816902161,1.1032475233078003
1772561430288865000,5.289864990234375,-0.4404008090496063,1.6058765649795532,1.1567384004592896
1772561430298931000,5.299930908203125,-0.6226856708526611,2.0667386054992676,0.6945899724960327
1772561430308998100,5.309998046875,-0.6738636493682861,2.490854024887085,0.15473578870296478
1772561430319063800,5.320063720703125,-0.5754438638687134,2.645559549331665,-0.1504472941160202
1772561430329131000,5.330131103515625,-0.2773687541484833,2.5140748023986816,-0.16583611071109772
1772561430339197000,5.340197021484375,0.4202795624732971,2.4651196002960205,0.2505626976490021
1772561430349264000,5.350263916015625,1.3291066884994507,2.067845344543457,1.002175211906433
1772561430359330000,5.360330078125,1.809135913848877,1.2280278205871582,1.8395450115203857
1772561430369397000,5.37039697265625,1.7382241487503052,0.05077449604868889,2.6560988426208496
1772561430379463000,5.380462890625,1.1393730640411377,-0.980066180229187,3.528531312942505
1772561430389529900,5.39052978515625,0.16130979359149933,-1.5985264778137207,4.361182689666748
1772561430399596000,5.400595947265625,-0.8357049822807312,-2.1614596843719482,4.546156406402588
1772561430409663000,5.4106630859375,-1.0654999017715454,-2.3584060668945312,3.9560654163360596
1772561430419729000,5.42072900390625,-0.4045964777469635,-1.7734657526016235,3.1782102584838867
1772561430429796000,5.430796142578125,0.2824774980545044,-1.0727177858352661,2.518563747406006
1772561430439862000,5.440862060546875,0.4354609251022339,-0.8447751998901367,1.9751273393630981
1772561430449929000,5.450928955078125,0.16978397965431213,-0.9639167785644531,1.4786865711212158
1772561430459996000,5.460995849609375,-0.1531171202659607,-1.070253610610962,1.0458768606185913
1772561430470062000,5.47106201171875,-0.34089234471321106,-1.0230480432510376,0.7387363910675049
1772561430480129000,5.48112890625,-0.34432142972946167,-0.829670786857605,0.5666261315345764
1772561430490195000,5.49119482421875,-0.2750251889228821,-0.4496001899242401,0.5522458553314209
1772561430500262100,5.50126220703125,-0.160941481590271,0.15014715492725372,0.730884313583374
1772561430510328000,5.511328125,-0.020476778969168663,0.8398987054824829,1.0747582912445068
1772561430520395000,5.52139501953125,0.10875631123781204,1.2111369371414185,1.4103267192840576
1772561430530461200,5.531461181640625,0.17586743831634521,1.0425729751586914,1.5378985404968262
1772561430540528000,5.541528076171875,0.08774423599243164,0.3193710744380951,1.3900352716445923
1772561430550594800,5.5515947265625,-0.16663052141666412,-0.5927584171295166,0.9098974466323853
1772561430560661800,5.561661865234375,-0.4365096688270569,-1.1687308549880981,0.11413269490003586
1772561430570728000,5.57172802734375,-0.561117947101593,-1.148317813873291,-0.8904963731765747
1772561430580795000,5.581794921875,-0.4370308518409729,-0.4016970992088318,-1.9218027591705322
1772561430590860800,5.59186083984375,-0.14618170261383057,0.6363252997398376,-2.6555256843566895
1772561430600927700,5.601927734375,0.06774921715259552,1.3595266342163086,-3.053643226623535
1772561430610994700,5.61199462890625,0.1288732886314392,1.5388628244400024,-3.0872867107391357
1772561430621060900,5.622060791015625,0.1172238290309906,1.124936580657959,-2.853057384490967
1772561430631127800,5.6321279296875,0.04448331147432327,0.22212201356887817,-2.4811489582061768
1772561430641194000,5.642194091796875,-0.09294432401657104,-0.8261602520942688,-2.191704034805298
1772561430651261000,5.652260986328125,-0.22367995977401733,-1.5230239629745483,-2.1019434928894043
1772561430661326800,5.662326904296875,-0.2833784520626068,-1.694120168685913,-2.170377016067505
1772561430671393800,5.672393798828125,-0.2921309173107147,-1.590720772743225,-2.4373185634613037
1772561430681460000,5.6824599609375,-0.27559348940849304,-1.2909090518951416,-2.935120105743408
1772561430691527000,5.69252685546875,-0.25759825110435486,-0.6934647560119629,-3.5186073780059814
1772561430701592600,5.702592529296875,-0.1807442158460617,0.003680754918605089,-3.9191057682037354
1772561430711659800,5.71265966796875,-0.08597056567668915,0.4694196879863739,-3.9698240756988525
1772561430721725700,5.7227255859375,0.021090904250741005,0.617765486240387,-3.6117849349975586
1772561430731792600,5.732792724609375,0.17120876908302307,0.4594743847846985,-2.8412020206451416
1772561430741858800,5.74285888671875,0.29621729254722595,-0.06090356409549713,-1.863207459449768
1772561430751925800,5.75292578125,0.3744218051433563,-0.7843587398529053,-0.9414764642715454
1772561430761992700,5.76299267578125,0.34775876998901367,-1.329817295074463,-0.12270940840244293
1772561430772058600,5.77305859375,0.16465552151203156,-1.469252347946167,0.5538637042045593
1772561430782125800,5.783125732421875,-0.09439361095428467,-1.3184574842453003,1.04193115234375
1772561430792191700,5.793191650390625,-0.2751340866088867,-0.9217671751976013,1.3274377584457397
1772561430802258700,5.8032587890625,-0.32232213020324707,-0.32494932413101196,1.3911412954330444
1772561430812324900,5.813324951171875,-0.28276726603507996,0.28512468934059143,1.3233697414398193
1772561430822391800,5.823391845703125,-0.21771875023841858,0.7499794363975525,1.2390649318695068
1772561430832457700,5.833457763671875,-0.2875833213329315,0.9444637298583984,1.0743521451950073
1772561430842524700,5.843524658203125,-0.5357472896575928,0.8983124494552612,0.883237361907959
1772561430852590800,5.8535908203125,-0.8450103402137756,0.723716676235199,0.7877598404884338
1772561430862657800,5.86365771484375,-1.1229759454727173,0.6554446816444397,0.8236209154129028
1772561430872723700,5.8737236328125,-1.2699171304702759,0.8319994807243347,1.1521422863006592
1772561430882791000,5.883791015625,-1.3667491674423218,1.2305012941360474,1.6537209749221802
1772561430892856800,5.89385693359375,-1.5122480392456055,1.6195616722106934,2.081165313720703
1772561430902923800,5.903923828125,-1.745556116104126,1.2329882383346558,2.0618629455566406
1772561430912990700,5.91399072265625,-1.9418665170669556,0.3679114282131195,1.2862650156021118
1772561430923057000,5.924056884765625,-1.7210768461227417,0.4227651059627533,0.4668164551258087
1772561430933123800,5.934123779296875,-1.327196717262268,0.5853478908538818,-0.4552934765815735
1772561430943189800,5.944189697265625,-1.017796516418457,0.5534858107566833,-1.4507205486297607
1772561430953257000,5.954257080078125,-0.5648111701011658,0.9157324433326721,-2.0809736251831055
1772561430963323000,5.964322998046875,0.053212087601423264,1.3199435472488403,-2.036008834838867
1772561430973389800,5.974389892578125,0.6405935883522034,1.180897831916809,-1.5047022104263306
1772561430983456000,5.9844560546875,0.8593363165855408,0.5120169520378113,-0.8951027989387512
1772561430993523000,5.99452294921875,0.6823881268501282,-0.5713574886322021,-0.22704912722110748
1772561431003588600,6.004588623046875,0.2041616588830948,-1.8283578157424927,0.10087015479803085
1772561431013655800,6.01465576171875,-0.17424583435058594,-2.7433767318725586,-0.007932491600513458
1772561431023721700,6.0247216796875,-0.1381184607744217,-2.9591586589813232,-0.16498975455760956
1772561431033788700,6.03478857421875,0.15869483351707458,-2.5692009925842285,-0.0768207460641861
1772561431043854600,6.0448544921875,0.30020830035209656,-1.9375144243240356,0.15061533451080322
1772561431053921800,6.054921875,0.15265744924545288,-1.4335052967071533,0.2808220684528351
1772561431063987700,6.06498779296875,-0.16932165622711182,-1.1463768482208252,0.10288004577159882
1772561431074054700,6.0750546875,-0.39776548743247986,-0.9593459963798523,-0.3867863416671753
1772561431084121600,6.08512158203125,-0.3736675977706909,-0.5923274755477905,-0.8350021839141846
1772561431094187800,6.095187744140625,-0.10592057555913925,-0.10522202402353287,-0.9063072800636292
1772561431104254700,6.105254638671875,0.22070229053497314,0.24726518988609314,-0.6291334629058838
1772561431114320600,6.115320556640625,0.46729421615600586,0.49991899728775024,-0.10688889771699905
1772561431124387800,6.125387939453125,0.6379016637802124,0.7943453192710876,0.5259852409362793
1772561431134453800,6.135453857421875,0.7408541440963745,0.8900723457336426,1.0805610418319702
1772561431144520700,6.145520751953125,0.7651453614234924,0.5996229648590088,1.491891622543335
1772561431154587000,6.1555869140625,0.6655673384666443,-0.03061836212873459,1.643996238708496
1772561431164653800,6.16565380859375,0.4777010679244995,-0.593252956867218,1.48284113407135
1772561431174719700,6.1757197265625,0.34707513451576233,-0.6957260370254517,1.0574406385421753
1772561431184786700,6.18578662109375,0.31875908374786377,-0.40090349316596985,0.3431858420372009
1772561431194852900,6.195852783203125,0.3493604063987732,0.10735122114419937,-0.5214844942092896
1772561431204919800,6.205919921875,0.49631547927856445,0.6623963117599487,-1.1717935800552368
1772561431214986800,6.21598681640625,0.6850270628929138,1.1720905303955078,-1.4900543689727783
1772561431225053000,6.226052978515625,0.9121121764183044,1.41365385055542,-1.3688302040100098
1772561431235119900,6.236119873046875,0.9977468848228455,1.1495106220245361,-1.0227036476135254
1772561431245185800,6.246185791015625,0.7865771651268005,0.49588537216186523,-0.7318220138549805
1772561431255252700,6.256252685546875,0.2949877083301544,-0.27638792991638184,-0.5641533732414246
1772561431265319000,6.26631884765625,-0.3331848978996277,-0.9311673641204834,-0.6658480763435364
1772561431275385900,6.2763857421875,-0.8144418001174927,-1.0903517007827759,-0.9474285840988159
1772561431285451800,6.28645166015625,-0.9734607338905334,-0.8191651701927185,-1.288647174835205
1772561431295519000,6.29651904296875,-0.8511103391647339,-0.30497482419013977,-1.6398475170135498
1772561431305584600,6.306584716796875,-0.5443003177642822,0.3092617094516754,-1.9178962707519531
1772561431315651800,6.31665185546875,-0.21738770604133606,0.8734273314476013,-1.977673053741455
1772561431325717800,6.3267177734375,0.062135543674230576,1.220194935798645,-1.6644951105117798
1772561431335784700,6.33678466796875,0.2864599823951721,1.1188243627548218,-1.010725498199463
1772561431345850600,6.3468505859375,0.41976213455200195,0.5706629753112793,-0.16913017630577087
1772561431355917600,6.35691748046875,0.42452892661094666,-0.2591990828514099,0.702562153339386
1772561431365984800,6.36698486328125,0.3466002941131592,-1.1495596170425415,1.4700957536697388
1772561431376050700,6.37705078125,0.21542975306510925,-1.7809500694274902,1.9716657400131226
1772561431386117600,6.38711767578125,0.11317741870880127,-2.0111584663391113,2.181204319000244
1772561431396183800,6.397183837890625,0.11700917780399323,-1.7926751375198364,2.1549911499023438
1772561431406250800,6.407250732421875,0.21911130845546722,-1.2345149517059326,1.8922404050827026
1772561431416316700,6.417316650390625,0.30563873052597046,-0.47123411297798157,1.3588882684707642
1772561431426383600,6.427383544921875,0.3893008828163147,0.23913055658340454,0.6935598254203796
1772561431436449800,6.43744970703125,0.4503477215766907,0.6623667478561401,0.06061887368559837
1772561431446516700,6.447516845703125,0.3980714678764343,0.7017333507537842,-0.42597925662994385
1772561431456583000,6.4575830078125,0.17328576743602753,0.6235762238502502,-0.6049977540969849
1772561431466649900,6.46764990234375,-0.12873826920986176,0.9980912208557129,-0.3168637156486511
1772561431476715800,6.4777158203125,-0.32098519802093506,1.9326735734939575,0.4137151539325714
1772561431486782700,6.48778271484375,-0.3176352083683014,2.719078302383423,1.2231688499450684
1772561431496849000,6.497848876953125,-0.3495076596736908,2.89335298538208,1.5316976308822632
1772561431506915800,6.507915771484375,-0.3633861839771271,2.7466862201690674,1.2952091693878174
1772561431516982800,6.517982666015625,-0.07078468799591064,3.0731544494628906,1.1635947227478027
1772561431527048700,6.528048583984375,0.3824954330921173,3.5259716510772705,1.4644099473953247
1772561431537116000,6.538115966796875,0.6481031775474548,3.3247005939483643,1.6344796419143677
1772561431547181800,6.548181884765625,0.9920544028282166,2.782883405685425,1.6763195991516113
1772561431557248000,6.558248046875,1.7188957929611206,1.9778205156326294,1.8928334712982178
1772561431567314000,6.56831396484375,2.4521243572235107,0.8246896266937256,2.1885383129119873
1772561431577380900,6.578380859375,2.6141321659088135,-0.7190697193145752,2.396064281463623
1772561431587447000,6.588447021484375,2.2098374366760254,-1.6712312698364258,2.7863523960113525
1772561431597514000,6.598513916015625,1.4325886964797974,-2.105466842651367,3.4875311851501465
1772561431607580000,6.608579833984375,0.6941798329353333,-2.7675843238830566,3.7469635009765625
1772561431617646800,6.618646728515625,0.48573288321495056,-3.236032485961914,3.4267585277557373
1772561431627713000,6.628713134765625,0.6575520634651184,-3.090413808822632,2.8549840450286865
1772561431637780000,6.638780029296875,0.6988227963447571,-2.7125723361968994,2.043335437774658
1772561431647847000,6.648846923828125,0.4924057126045227,-2.282698631286621,1.0911674499511719
1772561431657913000,6.6589130859375,0.13621243834495544,-1.8390847444534302,0.05836503952741623
1772561431667980000,6.66897998046875,-0.33796820044517517,-1.1413275003433228,-0.844683825969696
1772561431678046000,6.6790458984375,-0.6902737617492676,-0.2425958663225174,-1.4905986785888672
1772561431688113000,6.68911279296875,-0.787375271320343,0.6025779843330383,-1.829455018043518
1772561431698179000,6.699178955078125,-0.6165963411331177,1.2421116828918457,-1.7812409400939941
1772561431708246000,6.70924609375,-0.2864256501197815,1.5277217626571655,-1.3654780387878418
1772561431718312000,6.71931201171875,0.10831741988658905,1.5236150026321411,-0.6164780855178833
1772561431728379100,6.729379150390625,0.3900282084941864,1.2458044290542603,0.28693723678588867
1772561431738444800,6.73944482421875,0.45169660449028015,0.5712366104125977,1.0526725053787231
1772561431748512000,6.749511962890625,0.2938002049922943,-0.23652519285678864,1.4277534484863281
1772561431758578000,6.759577880859375,0.03732713311910629,-0.8620181083679199,1.3228414058685303
1772561431768644900,6.769644775390625,-0.19015662372112274,-1.1084874868392944,0.8044278025627136
1772561431778711800,6.7797119140625,-0.2892336845397949,-0.9232686758041382,-0.0777222216129303
1772561431788777700,6.78977783203125,-0.20163963735103607,-0.3751983940601349,-1.1373953819274902
1772561431798845000,6.799844970703125,0.02755013480782509,0.30198168754577637,-2.143124580383301
1772561431808910800,6.809910888671875,0.29469022154808044,1.1154708862304688,-2.830437660217285
1772561431818977800,6.819977783203125,0.5155048966407776,1.6692759990692139,-2.917797088623047
1772561431829044000,6.8300439453125,0.5587181448936462,1.702048897743225,-2.586409568786621
1772561431839111000,6.84011083984375,0.44132015109062195,1.2999083995819092,-1.9848682880401611
1772561431849176800,6.8501767578125,0.1786336600780487,0.445087730884552,-1.4086284637451172
1772561431859243800,6.860243896484375,-0.17002631723880768,-0.5977838039398193,-1.1186331510543823
1772561431869310000,6.87031005859375,-0.47997939586639404,-1.294555425643921,-1.169707179069519
1772561431879377000,6.880376953125,-0.6213498115539551,-1.4349596500396729,-1.4257701635360718
1772561431889442800,6.89044287109375,-0.6052209138870239,-1.0567529201507568,-1.7831261157989502
1772561431899510000,6.900510009765625,-0.5043795108795166,-0.34321463108062744,-2.148052453994751
1772561431909576000,6.910575927734375,-0.4227278232574463,0.4770507216453552,-2.414543867111206
1772561431919643000,6.920642822265625,-0.4243760406970978,1.1618458032608032,-2.468686580657959
1772561431929709800,6.930709716796875,-0.47345542907714844,1.6054922342300415,-2.244093418121338
1772561431939776000,6.94077587890625,-0.542524516582489,1.7895268201828003,-1.775295615196228
1772561431949843000,6.950843017578125,-0.5909311771392822,1.716470718383789,-1.1652648448944092
1772561431959908900,6.960908935546875,-0.553196907043457,1.3814929723739624,-0.5659568905830383
1772561431969976000,6.97097607421875,-0.41256600618362427,0.8293560147285461,-0.0944570004940033
1772561431980042000,6.9810419921875,-0.19841189682483673,0.18395651876926422,0.22756817936897278
1772561431990109000,6.99110888671875,0.05113056302070618,-0.3863335847854614,0.4071613848209381
1772561432000175000,7.001175048828125,0.34536299109458923,-0.621568500995636,0.5283855199813843
1772561432010242000,7.011241943359375,0.6612780690193176,-0.5485475063323975,0.7135796546936035
1772561432020308000,7.021307861328125,0.9034177660942078,-0.3236582279205322,0.9770435094833374
1772561432030375000,7.031375,1.0232032537460327,0.000024234765078290366,1.2609292268753052
1772561432040440800,7.04144091796875,1.0013210773468018,0.21561111509799957,1.4549520015716553
1772561432050508000,7.051508056640625,0.9295750260353088,0.3078606128692627,1.5662492513656616
1772561432060575000,7.061574951171875,0.9275379776954651,0.3696257174015045,1.6756001710891724
1772561432070641000,7.071640869140625,0.9262517094612122,0.07038095593452454,1.665459156036377
1772561432080708000,7.0817080078125,0.8790705800056458,-0.47930002212524414,1.4796112775802612
1772561432090773800,7.091773681640625,0.753606379032135,-0.6214747428894043,1.2479923963546753
1772561432100840700,7.1018408203125,0.5499422550201416,-0.2593404948711395,0.91529381275177
1772561432110907000,7.111906982421875,0.2523384988307953,0.20546500384807587,0.3642647862434387
1772561432120973800,7.121973876953125,0.034218691289424896,0.9160773158073425,-0.07008081674575806
1772561432131039700,7.132039794921875,-0.0663561224937439,1.403916835784912,-0.3526240885257721
1772561432141107000,7.14210693359375,0.13976775109767914,1.6474463939666748,-0.44969525933265686
1772561432151172900,7.1521728515625,0.6451259851455688,1.8140661716461182,-0.34501996636390686
1772561432161239800,7.16223974609375,1.15743887424469,1.5578360557556152,-0.042632680386304855
1772561432171306000,7.172305908203125,1.4981313943862915,0.952351450920105,0.44311296939849854
1772561432181373000,7.182373046875,1.6024519205093384,0.10865404456853867,1.0054341554641724
1772561432191438800,7.19243896484375,1.591113805770874,-0.7849398255348206,1.7764592170715332
1772561432201505800,7.202505859375,1.2955727577209473,-1.7353272438049316,2.8368735313415527
1772561432211573000,7.212572998046875,0.5340982675552368,-2.972262144088745,3.72588849067688
1772561432221639000,7.222638916015625,-0.10922475904226303,-4.10109806060791,4.180050373077393
1772561432231705900,7.232705810546875,-0.15450595319271088,-4.593249797821045,4.420029163360596
1772561432241772000,7.24277197265625,0.003918841481208801,-4.391820430755615,4.481019496917725
1772561432251839000,7.2528388671875,-0.06745893508195877,-3.699275016784668,4.265972137451172
1772561432261905000,7.26290478515625,-0.36491885781288147,-2.7743113040924072,3.6937503814697266
1772561432271971800,7.272971923828125,-0.6969795823097229,-1.8595119714736938,2.7783966064453125
1772561432282038000,7.2830380859375,-0.9270746111869812,-1.004207730293274,1.6310596466064453
1772561432292105000,7.29310498046875,-0.9136837124824524,-0.14611247181892395,0.5206605195999146
1772561432302171000,7.3031708984375,-0.6982323527336121,0.5525768995285034,-0.38729873299598694
1772561432312238000,7.313238037109375,-0.5107338428497314,0.7842125296592712,-1.0528367757797241
1772561432322304000,7.323303955078125,-0.23913082480430603,1.2466979026794434,-1.1174639463424683
1772561432332371000,7.333370849609375,0.08592609316110611,1.7701094150543213,-0.5066405534744263
1772561432342438000,7.34343798828125,0.35804256796836853,1.9065638780593872,0.46169599890708923
1772561432352504000,7.353504150390625,0.5000569820404053,1.5825741291046143,1.3315397500991821
1772561432362571000,7.363571044921875,0.4185727536678314,0.7336255311965942,1.8693857192993164
1772561432372636700,7.37363671875,0.06144365295767784,-0.5344468951225281,1.8174651861190796
1772561432382704000,7.3837041015625,-0.3300279676914215,-1.5838940143585205,1.1357202529907227
1772561432392769800,7.393769775390625,-0.47192147374153137,-1.914638638496399,-0.047138750553131104
1772561432402836700,7.403836669921875,-0.324951708316803,-1.3894885778427124,-1.4123706817626953
1772561432412903000,7.41390283203125,-0.07177458703517914,-0.21233196556568146,-2.580399513244629
1772561432422969900,7.423969970703125,0.07664284855127335,1.12384033203125,-3.3869571685791016
1772561432433035800,7.434035888671875,0.057562895119190216,2.0029985904693604,-3.7738025188446045
1772561432443102700,7.444102783203125,-0.1337231695652008,2.1864521503448486,-3.715625524520874
1772561432453169000,7.4541689453125,-0.3794213533401489,1.665602207183838,-3.2957875728607178
1772561432463235800,7.46423583984375,-0.7298635244369507,0.7845525741577148,-2.871481418609619
1772561432473302800,7.474302734375,-0.9955066442489624,0.10939360409975052,-2.539121389389038
1772561432483369000,7.484368896484375,-1.1165857315063477,-0.30758604407310486,-2.4051265716552734
1772561432493436000,7.494435791015625,-1.1366475820541382,-0.6256215572357178,-2.543630838394165
1772561432503501800,7.504501708984375,-1.1219409704208374,-0.8427793979644775,-2.898427963256836
1772561432513568800,7.51456884765625,-1.0676612854003906,-0.791034996509552,-3.186420440673828
1772561432523635000,7.524635009765625,-0.9771257638931274,-0.538337230682373,-3.1885740756988525
1772561432533702000,7.534701904296875,-0.8809065818786621,-0.31353262066841125,-2.863314628601074
1772561432543767800,7.544767822265625,-0.8021190762519836,-0.17699767649173737,-2.2243850231170654
1772561432553835000,7.5548349609375,-0.646904468536377,-0.22006791830062866,-1.218407154083252
1772561432563901000,7.56490087890625,-0.5242424607276917,-0.7720062136650085,-0.08413378894329071
1772561432573968000,7.5749677734375,-0.4958888590335846,-1.637290596961975,0.5710922479629517
1772561432584034000,7.585033935546875,-0.5438179969787598,-2.2821078300476074,0.6772525310516357
1772561432594101000,7.59510107421875,-0.5079412460327148,-2.447758197784424,0.4284954369068146
1772561432604168000,7.60516796875,-0.27960261702537537,-2.3034608364105225,-0.03900332376360893
1772561432614233900,7.61523388671875,0.03762247785925865,-1.9677367210388184,-0.5265167951583862
1772561432624301000,7.625301025390625,0.279924601316452,-1.5990103483200073,-0.972144365310669
1772561432634367000,7.635366943359375,0.3710837960243225,-1.3160990476608276,-1.3981574773788452
1772561432644434000,7.645433837890625,0.2949589490890503,-1.0713396072387695,-1.713787317276001
1772561432654500000,7.6555,0.12160952389240265,-0.8560411930084229,-1.729326605796814
1772561432664567000,7.665567138671875,-0.06148013845086098,-0.5682485103607178,-1.3080406188964844
1772561432674633000,7.675633056640625,-0.15590517222881317,-0.2160918116569519,-0.5379750728607178
1772561432684700000,7.685699951171875,-0.15613500773906708,0.0332903116941452,0.4307801425457001
1772561432694765800,7.695765869140625,-0.03210840001702309,0.1868244707584381,1.4551496505737305
1772561432704832800,7.705832763671875,0.029110746458172798,0.1872021108865738,2.338230848312378
1772561432714899000,7.71589892578125,-0.046660713851451874,-0.016593623906373978,2.919126033782959
1772561432724966000,7.7259658203125,-0.1621582806110382,-0.5658141374588013,2.9442403316497803
1772561432735032800,7.73603271484375,-0.3158580958843231,-0.7969738245010376,2.315598726272583
1772561432745098800,7.7460986328125,-0.44384801387786865,-0.15931828320026398,1.5084141492843628
1772561432755165700,7.756165771484375,-0.6516539454460144,0.22548185288906097,0.10835044085979462
1772561432765231900,7.76623193359375,-0.597368061542511,0.8524237871170044,-1.550175428390503
1772561432775298800,7.776298828125,0.2509579360485077,1.8448196649551392,-2.509981155395508
1772561432785365000,7.786364990234375,1.7514715194702148,1.4497332572937012,-1.3422765731811523
1772561432795432000,7.796431884765625,2.105687141418457,0.4062764048576355,-0.12547403573989868
1772561432805497900,7.806497802734375,1.497947096824646,-0.059592489153146744,0.7331733107566833
1772561432815564800,7.816564697265625,0.850501537322998,-0.9476003646850586,1.2182148694992065
1772561432825631000,7.826630859375,0.7370239496231079,-2.3992762565612793,1.238072156906128
1772561432835698000,7.836697998046875,1.089840292930603,-3.360555648803711,0.9298211336135864
1772561432845763800,7.846763916015625,1.4342834949493408,-3.125962495803833,0.7500367164611816
1772561432855830800,7.856830810546875,1.4113270044326782,-2.129368543624878,0.6613758206367493
1772561432865898000,7.86689794921875,0.792823076248169,-1.1010019779205322,0.036075979471206665
1772561432875964000,7.8769638671875,-0.08411354571580887,-0.05433567613363266,-1.0675244331359863
1772561432886030800,7.88703076171875,-0.7043434977531433,1.0479410886764526,-2.1521782875061035
1772561432896097000,7.897096923828125,-0.9428857564926147,2.066563606262207,-2.6841156482696533
1772561432906164000,7.9071640625,-0.9708729386329651,2.8590176105499268,-2.589582681655884
1772561432916230000,7.91722998046875,-0.815832257270813,3.3145833015441895,-1.9679380655288696
1772561432926296800,7.927296875,-0.41775888204574585,3.2708849906921387,-0.9099113345146179
1772561432936363000,7.937363037109375,-0.015915583819150925,2.5885794162750244,0.1736098676919937
1772561432946430000,7.947429931640625,0.00833622645586729,1.4970403909683228,0.8722965717315674
1772561432956496100,7.95749609375,-0.2592669725418091,0.40064141154289246,1.1024208068847656
1772561432966563000,7.96756298828125,-0.4685818552970886,-0.19624966382980347,0.9403693675994873
1772561432976629000,7.97762890625,-0.49666330218315125,-0.5724571347236633,0.3133062422275543
1772561432986696000,7.987696044921875,-0.32007333636283875,-0.3101173937320709,-0.574579119682312
1772561432996763000,7.997762939453125,0.10484252870082855,0.36684271693229675,-1.3763437271118164
1772561433006829000,8.0078291015625,0.5938678979873657,1.0725904703140259,-1.8820273876190186
1772561433016896000,8.01789599609375,1.1197631359100342,1.8061891794204712,-1.6840120553970337
1772561433026962000,8.0279619140625,1.3311089277267456,1.7540963888168335,-1.1380031108856201
1772561433037029000,8.038029052734375,1.0977253913879395,1.0337005853652954,-0.6096833348274231
1772561433047094800,8.0480947265625,0.6064555644989014,-0.03527729585766792,-0.276193767786026
1772561433057161700,8.05816162109375,0.06733643263578415,-1.0354140996932983,-0.1980036348104477
1772561433067228000,8.068227783203126,-0.38985827565193176,-1.6026713848114014,-0.3990560472011566
1772561433077294800,8.078294921875,-0.6967311501502991,-1.6175116300582886,-0.7738634943962097
1772561433087360800,8.08836083984375,-0.8109317421913147,-1.0545114278793335,-1.2102820873260498
1772561433097428000,8.098427978515625,-0.7667259573936462,-0.07572592049837112,-1.6848262548446655
1772561433107494000,8.108493896484376,-0.6435794830322266,0.81015944480896,-2.0737462043762207
1772561433117560800,8.118560791015625,-0.508141279220581,1.2673317193984985,-2.170457601547241
1772561433127627800,8.128627685546874,-0.37133732438087463,1.2323637008666992,-1.9219415187835693
1772561433137694000,8.13869384765625,-0.26604872941970825,0.7944286465644836,-1.3405487537384033
1772561433147761000,8.148760986328124,-0.16252553462982178,0.155618354678154,-0.5123607516288757
1772561433157826800,8.158826904296875,-0.1511588990688324,-0.6389951109886169,0.20485220849514008
1772561433167893800,8.168893798828124,-0.27981141209602356,-1.304365634918213,0.41819217801094055
1772561433177960000,8.1789599609375,-0.4493093490600586,-1.4601161479949951,0.3167015016078949
1772561433188027000,8.18902685546875,-0.5598553419113159,-1.0908366441726685,0.09404686838388443
1772561433198093000,8.199093017578125,-0.591543972492218,-0.4347325563430786,-0.09125854074954987
1772561433208160000,8.209159912109374,-0.5345901846885681,0.38807183504104614,-0.11674153059720993
1772561433218226000,8.219225830078125,-0.526461124420166,1.1048930883407593,-0.020966533571481705
1772561433228292900,8.22929296875,-0.6348446011543274,1.5327458381652832,0.144709512591362
1772561433238359000,8.239359130859375,-0.7959330677986145,1.6968200206756592,0.4088876247406006
1772561433248426000,8.249426025390624,-0.9498654007911682,1.4929041862487793,0.7312664985656738
1772561433258493000,8.259492919921875,-0.9892077445983887,1.0051674842834473,1.1218360662460327
1772561433268559000,8.26955908203125,-0.9535075426101685,0.6421576142311096,1.5416823625564575
1772561433278626000,8.2796259765625,-0.9351370334625244,0.8597615957260132,2.0061070919036865
1772561433288692000,8.28969189453125,-0.8996139168739319,1.684887170791626,2.5189945697784424
1772561433298759000,8.299759033203125,-0.7932454347610474,2.627805709838867,2.8973612785339355
1772561433308825000,8.3098251953125,-0.5779123306274414,3.00981068611145,2.9056577682495117
1772561433318892000,8.31989208984375,-0.31170064210891724,2.886518716812134,2.4283394813537598
1772561433328957700,8.329957763671874,0.12294349819421768,3.2769994735717773,2.146045446395874
1772561433339025000,8.34002490234375,0.5884891152381897,3.4992809295654297,2.1577465534210205
1772561433349090800,8.3500908203125,0.8299981355667114,2.9467203617095947,2.03246808052063
1772561433359157800,8.36015771484375,1.2550245523452759,2.134918212890625,1.9708014726638794
1772561433369225000,8.370224853515625,1.8235007524490356,1.0728645324707031,2.045074939727783
1772561433379291000,8.380290771484376,2.2164571285247803,-0.04264892637729645,2.2377102375030518
1772561433389357800,8.39035791015625,2.1768410205841064,-1.0740180015563965,2.558443784713745
1772561433399423700,8.400423828125,1.7068796157836914,-1.973642349243164,2.9832963943481445
1772561433409491000,8.410490966796875,0.9080125093460083,-2.5482540130615234,3.1742794513702393
1772561433419556900,8.420556884765626,0.27096837759017944,-2.6006784439086914,2.8545854091644287
1772561433429623800,8.430623779296875,0.03695588558912277,-2.1647984981536865,2.091118812561035
1772561433439690000,8.44068994140625,0.0005110605852678418,-1.3934154510498047,1.1368523836135864
1772561433449757000,8.4507568359375,-0.1419030725955963,-0.6737403273582458,0.13074655830860138
1772561433459822800,8.46082275390625,-0.41971153020858765,-0.29518771171569824,-0.8289672136306763
1772561433469889800,8.470889892578125,-0.6721796989440918,-0.2420049011707306,-1.6592724323272705
1772561433479956000,8.4809560546875,-0.7970236539840698,-0.432312548160553,-2.3394758701324463
1772561433490023000,8.49102294921875,-0.7841461896896362,-0.7593234181404114,-2.827164649963379
1772561433500089900,8.50108984375,-0.6657154560089111,-1.044161319732666,-3.131754159927368
1772561433510156000,8.511156005859375,-0.5716938376426697,-0.8357800841331482,-3.2524709701538086
1772561433520223000,8.521222900390624,-0.4472203850746155,-0.05427655577659607,-3.051623821258545
1772561433530289000,8.531288818359375,-0.26347318291664124,0.8748310804367065,-2.6061818599700928
1772561433540355800,8.54135595703125,-0.05302247032523155,1.6063181161880493,-2.005664110183716
1772561433550422000,8.551422119140625,0.1732383668422699,2.0071158409118652,-1.2156381607055664
1772561433560489000,8.561489013671874,0.34036582708358765,1.907755732536316,-0.3555229604244232
1772561433570555000,8.571554931640625,0.3291190266609192,1.284981608390808,0.33330926299095154
1772561433580622000,8.5816220703125,0.1542564183473587,0.3778623342514038,0.8263330459594727
1772561433590688000,8.59168798828125,-0.05926651880145073,-0.43917471170425415,1.128312349319458
1772561433600755000,8.6017548828125,-0.1534540057182312,-0.9345777630805969,1.2385696172714233
1772561433610822000,8.61182177734375,-0.16278918087482452,-1.2863928079605103,1.0811152458190918
1772561433620888000,8.62188818359375,-0.08820921927690506,-1.334471344947815,0.7294054627418518
1772561433630955000,8.631955078125,0.15773344039916992,-0.993153989315033,0.36833328008651733
1772561433641021000,8.64202099609375,0.46674907207489014,-0.445837140083313,0.009410812519490719
1772561433651088000,8.652087890625,0.765637218952179,0.19019071757793427,-0.2806982398033142
1772561433661154000,8.662154052734374,1.0600193738937378,0.6885416507720947,-0.40360206365585327
1772561433671221000,8.672220947265625,1.101935625076294,0.6311513185501099,-0.506140410900116
1772561433681287200,8.682287109375,0.862978458404541,0.14765150845050812,-0.668650209903717
1772561433691354000,8.69235400390625,0.5224807858467102,-0.39444026350975037,-0.8666051030158997
1772561433701420000,8.702419921875,0.2105974555015564,-0.6713858246803284,-1.0422989130020142
1772561433711487000,8.712487060546875,0.07525933533906937,-0.6495508551597595,-1.1590479612350464
1772561433721553200,8.72255322265625,0.09718301147222519,-0.45489534735679626,-1.2670553922653198
1772561433731620000,8.7326201171875,0.20886586606502533,-0.15389475226402283,-1.3906196355819702
1772561433741687000,8.74268701171875,0.3050571084022522,0.20038050413131714,-1.4727197885513306
1772561433751753200,8.752753173828125,0.3241434395313263,0.46046799421310425,-1.4656707048416138
1772561433761820200,8.762820068359375,0.298938512802124,0.5988532900810242,-1.3024338483810425
1772561433771886000,8.772885986328125,0.277838796377182,0.6397190093994141,-0.9363226890563965
1772561433781953000,8.782953125,0.3056477904319763,0.48727723956108093,-0.4156792163848877
1772561433792019000,8.79301904296875,0.36294037103652954,0.10760342329740524,0.1549709439277649
1772561433802086000,8.8030859375,0.43962451815605164,-0.26851320266723633,0.7573438882827759
1772561433812151800,8.81315185546875,0.4971725046634674,-0.5337321162223816,1.204728603363037
1772561433822219000,8.823218994140625,0.5124710202217102,-0.6707003116607666,1.401315450668335
1772561433832285000,8.833284912109375,0.5325056910514832,-0.6577563285827637,1.3688570261001587
1772561433842351900,8.843351806640625,0.64974045753479,-0.578910768032074,1.1931999921798706
1772561433852418800,8.853418701171876,0.8963329195976257,-0.42736226320266724,0.9770150184631348
1772561433862485000,8.863485107421875,1.1790248155593872,-0.2202085256576538,0.7791610360145569
1772561433872552000,8.873552001953126,1.3807427883148193,0.00996261928230524,0.7006627917289734
1772561433882617900,8.883617919921875,1.4827815294265747,0.18030905723571777,0.7970178127288818
1772561433892685000,8.89368505859375,1.5347421169281006,0.17245565354824066,1.1196038722991943
1772561433902751000,8.9037509765625,1.5458287000656128,-0.016268718987703323,1.5682461261749268
1772561433912818000,8.91381787109375,1.4739052057266235,-0.33720386028289795,1.8147178888320923
1772561433922884000,8.923884033203125,1.0691105127334595,-0.9822755455970764,1.3340466022491455
1772561433932951000,8.933950927734376,0.5111356973648071,-1.2356526851654053,0.46221956610679626
1772561433943017000,8.944016845703125,0.2607964277267456,-0.7217850685119629,-0.03470365330576897
1772561433953084000,8.954083984375,0.530860960483551,-0.21236392855644226,-0.18380364775657654
1772561433963150000,8.964150146484375,1.0149732828140259,-0.2550269663333893,-0.42100101709365845
1772561433973217000,8.974217041015624,1.382644534111023,-0.4080559313297272,-0.9034550189971924
1772561433983284000,8.984283935546875,1.6262001991271973,-0.2623482644557953,-1.2747739553451538
1772561433993350100,8.99435009765625,1.6686387062072754,-0.00019920444174204022,-1.3845332860946655
1772561434003417000,9.0044169921875,1.475301742553711,0.1388028860092163,-1.2347439527511597
1772561434013483000,9.01448291015625,1.0682439804077148,-0.13010872900485992,-0.9260596632957458
1772561434023550000,9.024550048828125,0.5265596508979797,-0.7247739434242249,-0.6691024303436279
1772561434033616100,9.0346162109375,0.011447065509855747,-1.2054177522659302,-0.5893093347549438
1772561434043683000,9.04468310546875,-0.29692861437797546,-1.3630750179290771,-0.5961073040962219
1772561434053749000,9.0547490234375,-0.4397211968898773,-1.1774985790252686,-0.592877984046936
1772561434063816200,9.064816162109375,-0.45222845673561096,-0.741496741771698,-0.4207727909088135
1772561434073882000,9.074882080078124,-0.43392401933670044,-0.4733651578426361,-0.045102763921022415
1772561434083949000,9.084948974609375,-0.47969308495521545,-0.6198552846908569,0.30555886030197144
1772561434094016000,9.09501611328125,-0.5783616304397583,-1.094010829925537,0.5064581632614136
1772561434104082200,9.105082275390625,-0.6398550868034363,-1.6549562215805054,0.573818027973175
1772561434114149000,9.115149169921875,-0.6161409616470337,-1.897831678390503,0.5987561345100403
1772561434124214800,9.12521484375,-0.5142393708229065,-1.5392974615097046,0.6498560309410095
1772561434134282200,9.1352822265625,-0.39121490716934204,-0.763241708278656,0.7455530166625977
1772561434144348000,9.145347900390625,-0.2808154225349426,0.039674174040555954,0.9269065260887146
1772561434154414800,9.155414794921874,-0.18590275943279266,0.6797494888305664,1.1536637544631958
1772561434164481000,9.16548095703125,-0.12762293219566345,1.1712169647216797,1.2511639595031738
1772561434174548000,9.1755478515625,-0.11577959358692169,1.470880389213562,1.153997778892517
1772561434184614000,9.18561376953125,-0.1869935840368271,1.3462625741958618,0.8776015639305115
1772561434194680800,9.195680908203125,-0.32196739315986633,0.9044268131256104,0.42386844754219055
1772561434204747000,9.2057470703125,-0.40693366527557373,0.48463112115859985,-0.11382456868886948
1772561434214814000,9.21581396484375,-0.4135516285896301,0.29071465134620667,-0.662900447845459
1772561434224881000,9.225880859375,-0.30062562227249146,0.4301263391971588,-1.0055832862854004
1772561434234947000,9.235947021484375,-0.01732173189520836,0.7476052641868591,-0.9639505743980408
1772561434245014000,9.246013916015626,0.3093770146369934,0.9800773859024048,-0.6387248039245605
1772561434255080000,9.256079833984375,0.5317712426185608,1.0788873434066772,-0.16377481818199158
1772561434265147000,9.26614697265625,0.5943307280540466,0.8753035664558411,0.26505935192108154
1772561434275213000,9.276213134765625,0.5357958078384399,0.3196493685245514,0.49641162157058716
1772561434285280000,9.286280029296876,0.37942802906036377,-0.3833135664463043,0.5255346298217773
1772561434295346000,9.296345947265625,0.15193280577659607,-0.9861680269241333,0.3311068117618561
1772561434305413000,9.3064130859375,-0.05040911212563515,-1.343947172164917,-0.020732441917061806
1772561434315479000,9.31647900390625,-0.1546630859375,-1.3759351968765259,-0.4366510808467865
1772561434325546000,9.3265458984375,-0.15805408358573914,-1.0345683097839355,-0.7910589575767517
1772561434335613000,9.336613037109375,-0.10375222563743591,-0.4359560012817383,-1.0168225765228271
1772561434345679000,9.34667919921875,-0.05138835683465004,0.28005003929138184,-1.0954744815826416
1772561434355746000,9.35674609375,-0.04968286678195,0.9138098955154419,-1.0423415899276733
1772561434365812000,9.36681201171875,-0.10867854207754135,1.1895238161087036,-0.9350089430809021
1772561434375879200,9.376879150390625,-0.1801665723323822,1.1727365255355835,-0.7471615672111511
1772561434385945000,9.386945068359376,-0.2465762197971344,0.9259797930717468,-0.45821312069892883
1772561434396012000,9.397011962890625,-0.33911094069480896,0.5528727769851685,-0.12495684623718262
1772561434406078200,9.407078125,-0.4586695730686188,0.2263239473104477,0.2564259171485901
1772561434416145200,9.417145263671875,-0.5993766188621521,0.07105047255754471,0.6542260050773621
1772561434426210800,9.4272109375,-0.7024763822555542,0.004805674310773611,0.9724221229553223
1772561434436278000,9.437278076171875,-0.7334057688713074,-0.06961529701948166,1.1676709651947021
1772561434446345200,9.44734521484375,-0.6850760579109192,-0.1090758889913559,1.2646678686141968
1772561434456411000,9.457410888671875,-0.5488079786300659,-0.06696891039609909,1.2733124494552612
1772561434466478000,9.46747802734375,-0.39382052421569824,0.15032558143138885,1.3352059125900269
1772561434476544000,9.4775439453125,-0.23035331070423126,0.418940007686615,1.521857500076294
1772561434486611000,9.48761083984375,-0.18975181877613068,0.5980564951896667,1.6295661926269531
1772561434496676900,9.4976767578125,-0.26111602783203125,0.8366914391517639,1.6460233926773071
1772561434506743800,9.507743896484374,-0.4491160213947296,0.8071737885475159,1.3576358556747437
1772561434516810000,9.51781005859375,-0.8128870129585266,0.49170634150505066,0.39528635144233704
1772561434526877000,9.527876953125,-0.9294893145561218,1.3051878213882446,-0.4250650107860565
1772561434536942800,9.53794287109375,-0.4356854259967804,3.2064409255981445,-0.44971922039985657
1772561434547010000,9.548010009765624,0.17996950447559357,4.141845226287842,-0.4053693413734436
1772561434557077000,9.558076904296875,0.6238979697227478,4.039477825164795,-0.3729325532913208
1772561434567143000,9.568142822265624,1.077420711517334,3.246417284011841,-0.05922337621450424
1772561434577209900,9.5782099609375,1.3213512897491455,1.9756865501403809,0.5934646725654602
1772561434587276000,9.588276123046874,1.142802357673645,0.5180026888847351,1.6035971641540527
1772561434597343000,9.598343017578125,0.3811926245689392,-0.9132629036903381,2.5664265155792236
1772561434607408600,9.60840869140625,-0.6348618865013123,-1.9478775262832642,3.3195531368255615
1772561434617476000,9.61847607421875,-1.1646431684494019,-2.789860963821411,3.450286388397217
1772561434627541800,9.628541748046874,-1.1092212200164795,-3.352306365966797,2.7131922245025635
1772561434637608700,9.638608642578125,-0.8365926146507263,-3.036465883255005,1.4935071468353271
1772561434647675000,9.6486748046875,-0.5609709024429321,-1.985068917274475,0.25191718339920044
1772561434657741800,9.658741943359376,-0.49826839566230774,-0.7223853468894958,-0.7149778008460999
1772561434667807700,9.668807861328125,-0.5989172458648682,0.27548402547836304,-1.3284987211227417
1772561434677874700,9.678874755859376,-0.6571842432022095,0.7585207223892212,-1.6440026760101318
1772561434687942000,9.68894189453125,-0.5090253949165344,0.7828801274299622,-1.6061617136001587
1772561434698007800,9.6990078125,-0.12345802038908005,0.5045166611671448,-1.2422980070114136
1772561434708074800,9.70907470703125,0.2893713712692261,0.15428811311721802,-0.6480996608734131
1772561434718141000,9.719140869140626,0.5268188118934631,-0.09956813603639603,0.020930049940943718
1772561434728208000,9.729207763671875,0.6724755764007568,-0.07307261228561401,0.7952696681022644
1772561434738273800,9.739273681640626,0.8552166819572449,-0.02798795886337757,1.5794076919555664
1772561434748340700,9.7493408203125,1.0404072999954224,-0.3022743761539459,2.0686087608337402
1772561434758407000,9.759406982421876,1.112227201461792,-0.6953843832015991,2.205840826034546
1772561434768473900,9.769473876953125,1.0436054468154907,-0.8893138766288757,2.0584442615509033
1772561434778539800,9.779539794921876,0.8181931376457214,-1.0179762840270996,1.6093125343322754
1772561434788607000,9.78960693359375,0.3892284333705902,-1.0740001201629639,0.8921619057655334
1772561434798674000,9.799673828125,0.044144291430711746,-0.794839084148407,0.06009555980563164
1772561434808739800,9.80973974609375,-0.009523996151983738,-0.42428603768348694,-0.6751171946525574
1772561434818806800,9.819806884765624,0.1469380408525467,0.07098416239023209,-1.2668473720550537
1772561434828873000,9.829873046875,0.4141673445701599,0.6754908561706543,-1.477100133895874
1772561434838940000,9.83993994140625,0.5669054985046387,0.7982481718063354,-1.4393959045410156
1772561434849005800,9.850005859375,0.6258846521377563,0.5388858318328857,-1.2830979824066162
1772561434859073000,9.860072998046874,0.6011462807655334,-0.09983818233013153,-1.1435859203338623
1772561434869139000,9.870138916015625,0.41675302386283875,-0.9201894998550415,-1.0953909158706665
1772561434879206000,9.880205810546874,0.16726675629615784,-1.618836760520935,-1.1648623943328857
1772561434889272000,9.89027197265625,-0.009256082586944103,-1.9166538715362549,-1.360297679901123
1772561434899339000,9.900339111328124,-0.08732318878173828,-1.7561070919036865,-1.6359020471572876
1772561434909406000,9.910406005859375,-0.07433868199586868,-1.241277813911438,-1.9167100191116333
1772561434919471900,9.920471923828124,-0.06648422032594681,-0.5178346037864685,-2.1050524711608887
1772561434929539000,9.9305390625,-0.15652889013290405,0.28312811255455017,-2.1248958110809326
1772561434939604700,9.940604736328124,-0.27600255608558655,0.8888102769851685,-1.9388172626495361
1772561434949672000,9.950671875,-0.3805246949195862,1.0609487295150757,-1.5694879293441772
1772561434959737900,9.96073779296875,-0.4268075227737427,0.8485925793647766,-1.06704843044281
1772561434969804800,9.9708046875,-0.43468087911605835,0.3599701523780823,-0.5176346302032471
1772561434979870700,9.98087060546875,-0.4983237683773041,-0.26621463894844055,-0.052393700927495956
1772561434989937700,9.990937744140625,-0.6255573630332947,-0.742920994758606,0.24435408413410187
1772561435000003800,10.00100390625,-0.7568461298942566,-0.9312539100646973,0.3357657492160797
1772561435010070800,10.01107080078125,-0.7862895131111145,-0.8406603336334229,0.2874855697154999
1772561435020137700,10.0211376953125,-0.6483479142189026,-0.4370545446872711,0.21307232975959778
1772561435030204000,10.031203857421875,-0.376756876707077,0.11480008810758591,0.19319289922714233
1772561435040270800,10.041270751953125,-0.10189467668533325,0.580108106136322,0.28498831391334534
1772561435050336800,10.051336669921875,0.12364550679922104,0.7635999321937561,0.4980308413505554
1772561435060403700,10.06140380859375,0.24920077621936798,0.6412561535835266,0.7932600975036621
1772561435070470000,10.071469970703125,0.3210611045360565,0.3549101650714874,1.0970393419265747
1772561435080536800,10.081536865234375,0.36473214626312256,0.1314277946949005,1.4534553289413452
1772561435090602800,10.091602783203125,0.28487542271614075,-0.018332134932279587,1.7837213277816772
1772561435100670000,10.101669921875,0.10787453502416611,-0.07685776054859161,1.9649993181228638
1772561435110736000,10.11173583984375,-0.05849286913871765,-0.35339561104774475,1.7577022314071655
1772561435120802800,10.121802734375,-0.23597364127635956,-0.538414716720581,1.1255730390548706
1772561435130869800,10.131869873046876,-0.42505940794944763,-0.046362970024347305,0.44981348514556885
1772561435140936000,10.14193603515625,-0.8748888969421387,0.9327836036682129,-0.05191779136657715
1772561435151003000,10.1520029296875,-0.8574555516242981,1.895443320274353,-0.022585736587643623
1772561435161068800,10.16206884765625,-0.2257084995508194,2.1183812618255615,0.19225412607192993
1772561435171136000,10.172135986328126,0.7449141144752502,1.7463247776031494,0.43474718928337097
1772561435181202000,10.182201904296875,1.5343011617660522,1.2405675649642944,0.8750039339065552
1772561435191268900,10.192268798828126,1.7785998582839966,0.7861536741256714,1.4322082996368408
1772561435201335000,10.2023349609375,1.691089391708374,0.3760974705219269,2.1155450344085693
1772561435211402000,10.212402099609376,1.2864066362380981,-0.40969857573509216,2.6583704948425293
1772561435221468000,10.222468017578125,0.5545231103897095,-1.3956122398376465,2.6955316066741943
1772561435231534800,10.232534912109376,0.06395554542541504,-2.1849205493927,2.17695951461792
1772561435241602000,10.24260205078125,0.2536943256855011,-2.369284152984619,1.4598280191421509
1772561435251668000,10.25266796875,0.833251953125,-1.7535245418548584,0.9223333597183228
1772561435261735000,10.26273486328125,1.1147658824920654,-0.9136868715286255,0.5822626352310181
1772561435271800800,10.27280078125,0.9436477422714233,-0.2659912109375,0.3939358592033386
1772561435281868000,10.282867919921875,0.5492609739303589,0.10860423743724823,0.25986698269844055
1772561435291933700,10.29293359375,0.17189905047416687,0.1572631299495697,0.05330902710556984
1772561435302000600,10.303000732421875,-0.004245611373335123,0.04072985425591469,-0.25130361318588257
1772561435312066800,10.31306689453125,-0.013559484854340553,-0.050461310893297195,-0.5802807211875916
1772561435322133800,10.3231337890625,0.08381900191307068,-0.06444503366947174,-0.8870049715042114
1772561435332200000,10.333199951171874,0.2268027812242508,0.011489941738545895,-1.0956090688705444
1772561435342267000,10.343266845703125,0.32885271310806274,0.16307760775089264,-1.1494908332824707
1772561435352333800,10.353333740234374,0.32452109456062317,0.33143386244773865,-1.1155809164047241
1772561435362399700,10.363399658203125,0.1846926212310791,0.4797772467136383,-1.0399452447891235
1772561435372466700,10.373466796875,0.02099662832915783,0.7520939707756042,-0.8620337843894958
1772561435382532900,10.383532958984375,-0.04303907975554466,0.984928548336029,-0.6811649799346924
1772561435392599800,10.393599853515624,0.056836649775505066,0.9469407200813293,-0.5528895258903503
1772561435402665700,10.403665771484375,0.27177107334136963,0.7150425314903259,-0.513530433177948
1772561435412733000,10.41373291015625,0.4801149368286133,0.45322102308273315,-0.5420880317687988
1772561435422798800,10.423798828125,0.647203803062439,0.20950475335121155,-0.610741376876831
1772561435432865800,10.43386572265625,0.7761135697364807,0.02924869954586029,-0.7515211701393127
1772561435442932700,10.4439326171875,0.8717485070228577,-0.09636647999286652,-0.9269459843635559
1772561435452999000,10.4539990234375,0.9712061285972595,-0.10645826905965805,-1.1254348754882812
1772561435463065900,10.46406591796875,1.077350378036499,0.04403723403811455,-1.2574166059494019
1772561435473131800,10.4741318359375,1.2071880102157593,0.23298078775405884,-1.3396469354629517
1772561435483199000,10.484198974609376,1.3769570589065552,0.34094586968421936,-1.3190090656280518
1772561435493265000,10.494264892578125,1.5830016136169434,0.2498345971107483,-1.1842576265335083
1772561435503331800,10.504331787109376,1.7817586660385132,0.0031254857312887907,-1.0030399560928345
1772561435513398000,10.51439794921875,1.93682861328125,-0.2834751307964325,-0.8390432596206665
1772561435523465000,10.52446484375,1.9795664548873901,-0.48451128602027893,-0.6966046094894409
1772561435533531000,10.53453076171875,1.878528356552124,-0.6549932956695557,-0.6093016862869263
1772561435543597800,10.544597900390626,1.7076910734176636,-0.8156663179397583,-0.5505228042602539
1772561435553665300,10.554665283203125,1.5056202411651611,-0.9894916415214539,-0.5045529007911682
1772561435563731200,10.564731201171876,1.2887749671936035,-1.2536526918411255,-0.4264490604400635
1772561435573798100,10.574798095703125,1.0970224142074585,-1.5783005952835083,-0.29025793075561523
1772561435583864300,10.5848642578125,0.9633913040161133,-1.7235901355743408,-0.0652192160487175
1772561435593931300,10.59493115234375,0.8686491250991821,-1.591339349746704,0.12769244611263275
1772561435603997200,10.6049970703125,0.7741164565086365,-1.2377972602844238,0.19702652096748352
1772561435614064000,10.615064208984375,0.6140900254249573,-0.8316018581390381,0.04573419690132141
1772561435624130300,10.62513037109375,0.5509952306747437,-0.8929946422576904,-0.17770715057849884
1772561435634197200,10.635197265625,0.5859098434448242,-1.1207362413406372,-0.3927004039287567
1772561435644263200,10.64526318359375,0.6548436284065247,-0.9344789981842041,-0.6973229050636292
1772561435654330400,10.655330322265625,0.753311038017273,-0.34958648681640625,-1.1387088298797607
1772561435664397300,10.665397216796874,0.8442028760910034,0.4411742091178894,-1.7493082284927368
1772561435674463200,10.675463134765625,0.8012881875038147,2.055788993835449,-2.5116498470306396
1772561435684530200,10.6855302734375,0.3623853921890259,3.6053409576416016,-3.2560300827026367
1772561435694596000,10.69559619140625,-0.34813082218170166,4.775503635406494,-3.851346015930176
1772561435704663300,10.705663330078124,-0.7287527322769165,5.380935192108154,-3.842951536178589
1772561435714729000,10.71572900390625,-0.8549602031707764,5.66806697845459,-3.5927700996398926
1772561435724796200,10.725796142578124,-1.0788393020629883,5.2811198234558105,-3.5713093280792236
1772561435734862000,10.735862060546875,-1.5836758613586426,4.537668228149414,-3.665026903152466
1772561435744929000,10.745928955078124,-2.3001554012298584,3.709596872329712,-3.254023790359497
1772561435754995200,10.7559951171875,-2.7128331661224365,2.365983486175537,-2.6493630409240723
1772561435765062100,10.766062255859374,-2.6973888874053955,0.6855410933494568,-1.898783564567566
1772561435775129000,10.776129150390625,-2.1901659965515137,-0.5101056098937988,-0.9077968001365662
1772561435785195000,10.786195068359374,-1.428505778312683,-1.1609667539596558,-0.055269114673137665
1772561435795262200,10.79626220703125,-0.6855815649032593,-1.6295331716537476,0.5191595554351807
1772561435805328100,10.806328125,-0.09669298678636551,-1.9496113061904907,0.7561028599739075
1772561435815395000,10.81639501953125,0.30673089623451233,-2.100027322769165,0.7427987456321716
1772561435825461200,10.826461181640624,0.5422965884208679,-2.0447723865509033,0.5288012623786926
1772561435835528200,10.836528076171875,0.6835346221923828,-2.077643632888794,0.15675552189350128
1772561435845594000,10.846593994140624,0.6949952840805054,-2.065396785736084,-0.2459290772676468
1772561435855661000,10.8566611328125,0.5478183627128601,-1.9816893339157104,-0.628903865814209
1772561435865727200,10.866727294921875,0.2864570617675781,-1.8519566059112549,-0.9748578071594238
1772561435875794200,10.876794189453125,0.029918218031525612,-1.6322463750839233,-1.1709517240524292
1772561435885861000,10.886861083984375,-0.13100647926330566,-1.135176658630371,-1.0353600978851318
1772561435895927300,10.89692724609375,-0.3364033102989197,-0.687401294708252,-0.5885745882987976
1772561435905994200,10.906994140625,-0.4739358723163605,-0.3283776044845581,0.02081952802836895
1772561435916060200,10.91706005859375,-0.4904368221759796,0.07130027562379837,0.6839320063591003
1772561435926127000,10.927127197265625,-0.46849265694618225,0.5125548839569092,1.3345739841461182
1772561435936193300,10.937193359375,-0.45623889565467834,0.9828145503997803,1.9074257612228394
1772561435946260200,10.94726025390625,-0.4344174861907959,1.3448721170425415,2.2445645332336426
1772561435956326100,10.957326171875,-0.45240476727485657,1.2996479272842407,2.2033379077911377
1772561435966393300,10.967393310546875,-0.334324449300766,0.7212692499160767,2.0286428928375244
1772561435976459300,10.977459228515626,-0.13687609136104584,-0.02490907721221447,1.7403794527053833
1772561435986526200,10.987526123046875,0.0009494169498793781,-0.6700646281242371,1.3524216413497925
1772561435996593200,10.99759326171875,0.06463970988988876,-1.1299004554748535,0.9533501267433167
1772561436006659300,11.007659423828125,0.11346104741096497,-1.225898265838623,0.6246369481086731
1772561436016726300,11.017726318359376,0.16354338824748993,-0.9447305798530579,0.45423194766044617
1772561436026792000,11.0277919921875,0.16805744171142578,-0.5319272875785828,0.4768376648426056
1772561436036859400,11.037859375,0.09367509186267853,-0.13541588187217712,0.65819251537323
1772561436046925000,11.047925048828125,-0.06156402826309204,0.17714734375476837,0.949801504611969
1772561436056992000,11.057991943359376,-0.34289076924324036,0.3113320469856262,1.2876205444335938
1772561436067058200,11.06805810546875,-0.649207592010498,0.23790471255779266,1.6153994798660278
1772561436077125000,11.078125,-0.8103488087654114,0.09483543038368225,1.9136921167373657
1772561436087191000,11.08819091796875,-0.7826641798019409,0.12704317271709442,2.1558585166931152
1772561436097258000,11.098258056640624,-0.6201727390289307,0.36273425817489624,2.2857460975646973
1772561436107325200,11.1083251953125,-0.38756370544433594,0.5308830738067627,2.222411870956421
1772561436117391000,11.11839111328125,-0.1780027598142624,0.4667501449584961,2.027944803237915
1772561436127458000,11.1284580078125,-0.05687287077307701,0.19522595405578613,1.8011435270309448
1772561436137524200,11.138524169921874,-0.018012821674346924,-0.030074546113610268,1.630273461341858
1772561436147591200,11.148591064453125,-0.05714557692408562,0.019650932401418686,1.4927263259887695
1772561436157657000,11.158656982421874,-0.15126967430114746,0.36092036962509155,1.291398525238037
1772561436167724000,11.16872412109375,-0.2292931079864502,0.7746900916099548,0.9414535164833069
1772561436177790200,11.178790283203124,-0.35927215218544006,1.0811562538146973,0.4256114959716797
1772561436187857200,11.188857177734375,-0.567400336265564,1.1704654693603516,-0.22912506759166718
1772561436197923000,11.198923095703124,-0.6917944550514221,0.9779348373413086,-0.8984234929084778
1772561436207990300,11.208990234375,-0.6362033486366272,0.6191005110740662,-1.4100143909454346
1772561436218057200,11.21905712890625,-0.4735332131385803,0.2531624734401703,-1.622175931930542
1772561436228123100,11.229123046875,-0.2463112473487854,-0.11372177302837372,-1.5363123416900635
1772561436238190000,11.239190185546875,0.0019475696608424187,-0.4387163817882538,-1.2129292488098145
1772561436248256300,11.24925634765625,0.23139408230781555,-0.6366425156593323,-0.7399478554725647
1772561436258323200,11.2593232421875,0.4341184198856354,-0.6782985925674438,-0.2220359891653061
1772561436268389000,11.26938916015625,0.5747567415237427,-0.593102216720581,0.2573907971382141
1772561436278456300,11.279456298828125,0.6336680054664612,-0.40202653408050537,0.6412508487701416
1772561436288522200,11.289522216796875,0.5938699841499329,-0.027764786034822464,1.0202964544296265
1772561436298589200,11.299589111328125,0.3855178654193878,0.37436240911483765,1.3397023677825928
1772561436308655400,11.3096552734375,0.2039957344532013,0.4485767185688019,1.3023555278778076
1772561436318722300,11.319722412109375,0.16256441175937653,0.20367296040058136,1.0234533548355103
1772561436328789200,11.329789306640626,0.17615771293640137,0.03519047796726227,0.7383866906166077
1772561436338855200,11.339855224609375,0.18262919783592224,0.04698854684829712,0.5226861238479614
1772561436348922400,11.34992236328125,0.15050694346427917,0.041126396507024765,0.36987659335136414
1772561436358988000,11.359988037109375,0.09448176622390747,-0.009824400767683983,0.33995357155799866
1772561436369055200,11.37005517578125,0.038170553743839264,-0.07174395769834518,0.3705194890499115
