time,seconds_elapsed,z,y,x
1772561950452708000,0.0537080078125,-0.8301239013671875,-0.437835693359375,-0.00372314453125
1772561950462775300,0.063775390625,-0.89581298828125,-0.419891357421875,0.02142333984375
1772561950472842200,0.07384228515625,-0.8424835205078125,-0.3870086669921875,0.0195770263671875
1772561950482910200,0.08391015625,-0.7266387939453125,-0.3594512939453125,-0.004302978515625
1772561950492977200,0.09397705078125,-0.7080535888671875,-0.393035888671875,0.0170745849609375
1772561950503044000,0.104044189453125,-0.72412109375,-0.448883056640625,0.07305908203125
1772561950513111000,0.114111083984375,-0.71466064453125,-0.4755401611328125,0.0884857177734375
1772561950523178000,0.124177978515625,-0.7732391357421875,-0.458892822265625,0.0783233642578125
1772561950533245200,0.1342451171875,-0.8069305419921875,-0.3416748046875,0.125701904296875
1772561950543313200,0.144313232421875,-0.8597564697265625,-0.1348876953125,0.2598876953125
1772561950553380000,0.154380126953125,-1.0215301513671875,-0.186279296875,0.2591094970703125
1772561950563447800,0.16444775390625,-1.1078033447265625,-0.100738525390625,0.1707763671875
1772561950573514800,0.1745146484375,-1.0184478759765625,-0.0869903564453125,0.122528076171875
1772561950583581700,0.184581787109375,-0.9656982421875,-0.292724609375,0.1178741455078125
1772561950593648600,0.194648681640625,-0.8109893798828125,-0.4470977783203125,0.0478668212890625
1772561950603716900,0.204716796875,-0.6761627197265625,-0.5195159912109375,-0.02886962890625
1772561950613783800,0.21478369140625,-0.8080902099609375,-0.5529327392578125,-0.123138427734375
1772561950623850800,0.224850830078125,-1.0083465576171875,-0.5445404052734375,-0.2579498291015625
1772561950633917700,0.234917724609375,-1.0976715087890625,-0.50909423828125,-0.346588134765625
1772561950643985000,0.24498486328125,-1.106292724609375,-0.4575347900390625,-0.371917724609375
1772561950654051800,0.2550517578125,-1.0444793701171875,-0.3878173828125,-0.31951904296875
1772561950664119800,0.265119873046875,-1.01654052734375,-0.31866455078125,-0.235382080078125
1772561950674186800,0.275186767578125,-1.024810791015625,-0.2593536376953125,-0.17376708984375
1772561950684253700,0.285253662109375,-1.061187744140625,-0.253875732421875,-0.1466522216796875
1772561950694320600,0.295320556640625,-1.090240478515625,-0.26580810546875,-0.127777099609375
1772561950704387800,0.305387939453125,-0.978668212890625,-0.20513916015625,-0.0218658447265625
1772561950714454800,0.315454833984375,-0.9584197998046875,-0.210235595703125,0.040283203125
1772561950724522800,0.325522705078125,-0.9387054443359375,-0.28863525390625,0.0366363525390625
1772561950734589700,0.335589599609375,-0.9101715087890625,-0.3224945068359375,0.127655029296875
1772561950744657000,0.345656982421875,-0.994110107421875,-0.4480133056640625,0.16485595703125
1772561950754723800,0.355723876953125,-0.985198974609375,-0.5070953369140625,0.12091064453125
1772561950764790800,0.365790771484375,-0.8669586181640625,-0.5007781982421875,0.0554351806640625
1772561950774857700,0.375857666015625,-0.7594757080078125,-0.4911956787109375,0.0286865234375
1772561950784925700,0.38592578125,-0.7505645751953125,-0.509368896484375,0.0106964111328125
1772561950794992600,0.39599267578125,-0.81500244140625,-0.49884033203125,-0.0061798095703125
1772561950805059600,0.4060595703125,-0.856201171875,-0.4670562744140625,0.0001220703125
1772561950815126800,0.416126708984375,-0.8352203369140625,-0.42645263671875,0.0330657958984375
1772561950825194000,0.426194091796875,-0.7893829345703125,-0.39849853515625,0.0635986328125
1772561950835261000,0.436260986328125,-0.739776611328125,-0.398223876953125,0.0770263671875
1772561950845329000,0.446328857421875,-0.7407379150390625,-0.41632080078125,0.084075927734375
1772561950855395800,0.456395751953125,-0.7738189697265625,-0.4382171630859375,0.0745391845703125
1772561950865462800,0.466462890625,-0.9200897216796875,-0.44970703125,0.026824951171875
1772561950875529700,0.47652978515625,-0.9877166748046875,-0.4237213134765625,-0.03912353515625
1772561950885596700,0.4865966796875,-1.00244140625,-0.385345458984375,-0.096343994140625
1772561950895663600,0.49666357421875,-1.0757904052734375,-0.348602294921875,-0.143951416015625
1772561950905731600,0.506731689453125,-0.99041748046875,-0.309051513671875,-0.146575927734375
1772561950915798800,0.516798828125,-0.9375152587890625,-0.336639404296875,-0.1035919189453125
1772561950925866000,0.526865966796875,-0.9729461669921875,-0.4055938720703125,-0.0430908203125
1772561950935933000,0.536932861328125,-0.9793853759765625,-0.4296875,0.02630615234375
1772561950946000000,0.546999755859375,-0.91961669921875,-0.4182281494140625,0.0853118896484375
1772561950956066800,0.55706689453125,-0.8544921875,-0.4006805419921875,0.127655029296875
1772561950966134800,0.567134765625,-0.8533172607421875,-0.3853912353515625,0.1328887939453125
1772561950976201700,0.57720166015625,-0.8463134765625,-0.370697021484375,0.1389923095703125
1772561950986268700,0.5872685546875,-0.857086181640625,-0.3521728515625,0.167694091796875
1772561950996335900,0.5973359375,-0.8842315673828125,-0.3383026123046875,0.1915740966796875
1772561951006402800,0.60740283203125,-0.91455078125,-0.3225860595703125,0.2061614990234375
1772561951016469800,0.6174697265625,-0.93890380859375,-0.3062591552734375,0.19537353515625
1772561951026538000,0.6275380859375,-0.925018310546875,-0.2943878173828125,0.1759490966796875
1772561951036605000,0.63760498046875,-0.9028472900390625,-0.2874298095703125,0.1841888427734375
1772561951046672000,0.647671875,-0.88763427734375,-0.2939605712890625,0.205718994140625
1772561951056738800,0.65773876953125,-0.8415069580078125,-0.31890869140625,0.2468719482421875
1772561951066805800,0.6678056640625,-0.778045654296875,-0.32574462890625,0.300537109375
1772561951076872700,0.677872802734375,-0.7973175048828125,-0.2760009765625,0.2950592041015625
1772561951086940700,0.687940673828125,-0.8470306396484375,-0.272125244140625,0.2444915771484375
1772561951097007900,0.6980078125,-0.921722412109375,-0.3050994873046875,0.196197509765625
1772561951107074800,0.70807470703125,-0.9818572998046875,-0.3182220458984375,0.1739349365234375
1772561951117141800,0.718141845703125,-1.0087890625,-0.3033905029296875,0.186248779296875
1772561951127208700,0.728208740234375,-0.9795379638671875,-0.287689208984375,0.217132568359375
1772561951137275600,0.738275634765625,-0.9191436767578125,-0.29620361328125,0.2564239501953125
1772561951147342600,0.748342529296875,-0.8779144287109375,-0.29705810546875,0.2755279541015625
1772561951157410800,0.758410888671875,-0.8430633544921875,-0.2980804443359375,0.2656707763671875
1772561951167477800,0.768477783203125,-0.8051300048828125,-0.3147430419921875,0.2612152099609375
1772561951177545000,0.778544921875,-0.7929840087890625,-0.3279876708984375,0.267822265625
1772561951187612000,0.78861181640625,-0.8082275390625,-0.32440185546875,0.279876708984375
1772561951197678800,0.798678955078125,-0.9000701904296875,-0.313873291015625,0.259552001953125
1772561951207745800,0.808745849609375,-1.021942138671875,-0.2945709228515625,0.219024658203125
1772561951217813800,0.818813720703125,-1.0554962158203125,-0.267547607421875,0.18988037109375
1772561951227880700,0.828880615234375,-0.98046875,-0.2395782470703125,0.1627655029296875
1772561951237947600,0.83894775390625,-0.9018096923828125,-0.204498291015625,0.1666412353515625
1772561951248014600,0.8490146484375,-0.9118194580078125,-0.274627685546875,0.17633056640625
1772561951258081800,0.859081787109375,-0.971923828125,-0.3458709716796875,0.1298828125
1772561951268149000,0.86914892578125,-0.927490234375,-0.366790771484375,0.0942535400390625
1772561951278217000,0.879217041015625,-0.860504150390625,-0.3606414794921875,0.0865631103515625
1772561951288284000,0.889283935546875,-0.7911834716796875,-0.346588134765625,0.068603515625
1772561951298350800,0.899350830078125,-0.7103424072265625,-0.33648681640625,0.0547027587890625
1772561951308417800,0.909417724609375,-0.7165679931640625,-0.35498046875,0.0503082275390625
1772561951318484700,0.919484619140625,-0.7594757080078125,-0.3692169189453125,0.06182861328125
1772561951328551700,0.9295517578125,-0.78729248046875,-0.3528289794921875,0.07342529296875
1772561951338619600,0.93961962890625,-0.8314971923828125,-0.3263397216796875,0.068572998046875
1772561951348686600,0.9496865234375,-0.840576171875,-0.2895355224609375,0.0701904296875
1772561951358753800,0.95975390625,-0.7719573974609375,-0.2436981201171875,0.0854949951171875
1772561951368820700,0.96982080078125,-0.6947784423828125,-0.214263916015625,0.089324951171875
1772561951378888000,0.979887939453125,-0.6923980712890625,-0.2262725830078125,0.099395751953125
1772561951388955000,0.989954833984375,-0.8050994873046875,-0.22064208984375,0.127471923828125
1772561951399022800,1.00002294921875,-0.837982177734375,-0.1999053955078125,0.1384124755859375
1772561951409089800,1.01008984375,-0.7627716064453125,-0.215728759765625,0.1072845458984375
1772561951419156700,1.02015673828125,-0.6826934814453125,-0.2751617431640625,0.0545196533203125
1772561951429223700,1.0302236328125,-0.6334228515625,-0.2890777587890625,0.0023956298828125
1772561951439291000,1.040290771484375,-0.707305908203125,-0.27642822265625,-0.046112060546875
1772561951449357800,1.05035791015625,-0.81304931640625,-0.261962890625,-0.060333251953125
1772561951459425800,1.06042578125,-0.840911865234375,-0.2402496337890625,-0.052978515625
1772561951469492700,1.07049267578125,-0.8286895751953125,-0.23492431640625,-0.0104522705078125
1772561951479560000,1.080559814453125,-0.775177001953125,-0.2335662841796875,0.007049560546875
1772561951489627000,1.090626953125,-0.7845001220703125,-0.2428741455078125,0.0017852783203125
1772561951499693800,1.10069384765625,-0.8565673828125,-0.2542266845703125,0.0289459228515625
1772561951509760800,1.1107607421875,-0.9515838623046875,-0.26434326171875,0.0618743896484375
1772561951519828000,1.120827880859375,-1.00347900390625,-0.248687744140625,0.0601959228515625
1772561951529895700,1.130895751953125,-1.0546112060546875,-0.29498291015625,0.0477447509765625
1772561951539963000,1.140962890625,-1.218414306640625,-0.43634033203125,-0.048858642578125
1772561951550029800,1.15102978515625,-1.6741943359375,-0.6038055419921875,-0.28656005859375
1772561951560096800,1.1610966796875,-1.620758056640625,-0.75018310546875,-0.4638824462890625
1772561951570164200,1.171164306640625,-1.5951080322265625,-0.905487060546875,-0.461517333984375
1772561951580231200,1.181231201171875,-1.7451324462890625,-0.9879913330078125,-0.192535400390625
1772561951590299100,1.191299072265625,-2.0713653564453125,-1.110260009765625,0.0531005859375
1772561951600366000,1.201365966796875,-2.4344940185546875,-1.19146728515625,0.2719879150390625
1772561951610433000,1.21143310546875,-2.6704254150390625,-1.2417449951171875,0.4625396728515625
1772561951620500000,1.2215,-2.82940673828125,-1.3300933837890625,0.6557159423828125
1772561951630567200,1.231567138671875,-2.93414306640625,-1.4190673828125,0.79669189453125
1772561951640634000,1.241634033203125,-3.0739898681640625,-1.47955322265625,0.776336669921875
1772561951650702000,1.2517021484375,-3.1026763916015625,-1.5114898681640625,0.528717041015625
1772561951660769300,1.261769287109375,-2.94195556640625,-1.5078887939453125,0.2596893310546875
1772561951670836200,1.271836181640625,-2.6977081298828125,-1.4283905029296875,0.128143310546875
1772561951680903200,1.281903076171875,-2.4836883544921875,-1.1921234130859375,0.2074737548828125
1772561951690970000,1.29197021484375,-2.43035888671875,-0.9577178955078125,0.3673248291015625
1772561951701037000,1.302037109375,-2.5419158935546875,-0.6364288330078125,0.3060150146484375
1772561951711105000,1.31210498046875,-2.6248626708984375,0.141754150390625,-0.096466064453125
1772561951721172000,1.322171875,-2.207427978515625,0.7555999755859375,-0.3265533447265625
1772561951731239200,1.3322392578125,-1.3305206298828125,0.448974609375,0.264251708984375
1772561951741306000,1.34230615234375,-0.921905517578125,0.3940277099609375,0.613433837890625
1772561951751373000,1.352373046875,-0.74053955078125,0.7873382568359375,0.3809814453125
1772561951761440000,1.36243994140625,-0.2876434326171875,0.9138336181640625,0.4071807861328125
1772561951771508200,1.37250830078125,0.239013671875,0.805328369140625,0.5178070068359375
1772561951781575200,1.3825751953125,0.5143585205078125,0.633056640625,0.350189208984375
1772561951791642000,1.39264208984375,0.556732177734375,0.451446533203125,0.199188232421875
1772561951801709000,1.402708984375,0.59442138671875,0.3791046142578125,0.1985626220703125
1772561951811776300,1.4127763671875,0.57720947265625,0.391357421875,0.1337432861328125
1772561951821843200,1.42284326171875,0.42999267578125,0.42657470703125,0.0648345947265625
1772561951831911200,1.4329111328125,-0.005035400390625,0.4633026123046875,0.0671234130859375
1772561951841978000,1.44297802734375,-0.4330291748046875,0.3875732421875,0.04443359375
1772561951852045000,1.453045166015625,-0.41015625,0.1853179931640625,-0.0970306396484375
1772561951862112000,1.463112060546875,-0.099212646484375,0.0360870361328125,-0.3202972412109375
1772561951872179000,1.473178955078125,0.2858734130859375,-0.0791168212890625,-0.5054473876953125
1772561951882246100,1.48324609375,0.6253509521484375,-0.2140350341796875,-0.5912933349609375
1772561951892313000,1.49331298828125,0.72735595703125,-0.21563720703125,-0.537109375
1772561951902381000,1.503381103515625,0.7998504638671875,-0.147674560546875,-0.3332366943359375
1772561951912448300,1.5134482421875,0.77337646484375,-0.089752197265625,-0.1247100830078125
1772561951922515200,1.52351513671875,0.6239166259765625,-0.0464935302734375,-0.046661376953125
1772561951932582100,1.53358203125,0.3261260986328125,0.0338134765625,-0.098175048828125
1772561951942649000,1.543649169921875,0.0399932861328125,0.0762939453125,-0.1249847412109375
1772561951952716000,1.553716064453125,-0.04705810546875,0.0675201416015625,-0.0948028564453125
1772561951962784000,1.563783935546875,-0.023590087890625,0.02349853515625,0.0153045654296875
1772561951972851000,1.573850830078125,0.0401153564453125,-0.0062103271484375,0.1026763916015625
1772561951982918100,1.583918212890625,0.0789337158203125,-0.0066680908203125,0.109405517578125
1772561951992985000,1.593985107421875,0.15087890625,-0.025299072265625,0.049560546875
1772561952003052300,1.60405224609375,0.2909393310546875,-0.077972412109375,-0.080810546875
1772561952013119200,1.614119140625,0.359710693359375,-0.0664825439453125,-0.220489501953125
1772561952023187200,1.624187255859375,0.12939453125,0.005096435546875,-0.34161376953125
1772561952033254100,1.634254150390625,-0.3004608154296875,0.1721038818359375,-0.362762451171875
1772561952043321000,1.644321044921875,-0.662445068359375,0.37213134765625,-0.283599853515625
1772561952053388000,1.654387939453125,-0.98358154296875,0.4960784912109375,-0.21502685546875
1772561952063455200,1.664455322265625,-1.175445556640625,0.5075836181640625,-0.2697601318359375
1772561952073522200,1.674522216796875,-1.018463134765625,0.4107666015625,-0.366790771484375
1772561952083590100,1.684590087890625,-0.7060089111328125,0.1396484375,-0.4129791259765625
1772561952093657000,1.694656982421875,-0.4178314208984375,-0.1178131103515625,-0.4241485595703125
1772561952103724000,1.70472412109375,-0.194244384765625,-0.2250213623046875,-0.4394989013671875
1772561952113791200,1.714791259765625,-0.1504669189453125,-0.318634033203125,-0.3335113525390625
1772561952123858200,1.724858154296875,-0.2469024658203125,-0.420623779296875,-0.0862274169921875
1772561952133925000,1.734925048828125,-0.42498779296875,-0.4698028564453125,0.1986846923828125
1772561952143993000,1.7449931640625,-0.5415496826171875,-0.5045928955078125,0.43206787109375
1772561952154060000,1.75506005859375,-0.611968994140625,-0.5800323486328125,0.50640869140625
1772561952164127200,1.765127197265625,-0.759246826171875,-0.71514892578125,0.43609619140625
1772561952174194200,1.775194091796875,-0.8483123779296875,-0.9015045166015625,0.4024658203125
1772561952184261000,1.78526123046875,-0.8218994140625,-1.1167144775390625,0.441009521484375
1772561952194328000,1.795328125,-1.0433502197265625,-1.203338623046875,0.5765228271484375
1772561952204396000,1.80539599609375,-1.56536865234375,-1.227569580078125,0.787872314453125
1772561952214463200,1.815463134765625,-2.2300567626953125,-1.2503662109375,0.94140625
1772561952224530200,1.8255302734375,-3.009002685546875,-1.3745880126953125,0.9930267333984375
1772561952234597000,1.83559716796875,-3.6175994873046875,-1.7229461669921875,0.985504150390625
1772561952244664300,1.845664306640625,-3.79071044921875,-2.2524871826171875,0.63330078125
1772561952254731300,1.855731201171875,-4.13543701171875,-2.32049560546875,-0.0778961181640625
1772561952264798200,1.865798095703125,-5.1354522705078125,-1.8335113525390625,-0.810791015625
1772561952274866200,1.8758662109375,-6.1902618408203125,-1.654449462890625,-0.5507659912109375
1772561952284933000,1.88593310546875,-5.739837646484375,-0.9797515869140625,0.497344970703125
1772561952295000000,1.896,-5.07440185546875,-0.4312896728515625,1.3953704833984375
1772561952305067000,1.90606689453125,-5.428741455078125,-0.1362762451171875,1.0036773681640625
1772561952315134000,1.916134033203125,-5.729644775390625,0.2362060546875,-0.3752288818359375
1772561952325201200,1.926201171875,-5.3162078857421875,0.2518463134765625,-1.419525146484375
1772561952335269000,1.93626904296875,-4.39532470703125,0.0311126708984375,-1.5971832275390625
1772561952345336300,1.94633642578125,-2.672607421875,-0.1024017333984375,-1.512664794921875
1772561952355403300,1.9564033203125,-1.0925750732421875,-0.157562255859375,-1.519256591796875
1772561952365470200,1.96647021484375,-0.2491455078125,-0.0128173828125,-1.2424163818359375
1772561952375537200,1.976537109375,0.2180023193359375,0.008209228515625,-0.5079803466796875
1772561952385604000,1.98660400390625,0.749603271484375,-0.007659912109375,0.2005767822265625
1772561952395672000,1.996672119140625,1.23431396484375,0.235198974609375,0.3394012451171875
1772561952405739000,2.006739013671875,1.4713287353515625,0.6168365478515625,0.30621337890625
1772561952415806000,2.016805908203125,1.5391387939453125,0.6832275390625,0.2392425537109375
1772561952425873200,2.026873046875,1.388916015625,0.740692138671875,0.1000823974609375
1772561952435940000,2.036940185546875,1.099822998046875,0.8431243896484375,-0.0285491943359375
1772561952446007000,2.047007080078125,0.860504150390625,0.8914337158203125,-0.0885009765625
1772561952456074000,2.057073974609375,0.6206512451171875,0.873504638671875,0.01776123046875
1772561952466142200,2.06714208984375,0.4425506591796875,0.54962158203125,0.2814483642578125
1772561952476209200,2.077209228515625,0.614990234375,0.2698516845703125,0.433258056640625
1772561952486276000,2.087276123046875,0.964996337890625,0.2158050537109375,0.2899322509765625
1772561952496343000,2.097343017578125,1.1647186279296875,0.05462646484375,-0.087493896484375
1772561952506410200,2.10741015625,1.2730865478515625,-0.1513214111328125,-0.5523529052734375
1772561952516477200,2.117477294921875,1.2883758544921875,-0.23382568359375,-0.83642578125
1772561952526545200,2.127545166015625,1.166290283203125,-0.1908721923828125,-0.7402496337890625
1772561952536612000,2.137612060546875,0.9253082275390625,-0.0598907470703125,-0.4513397216796875
1772561952546679000,2.147678955078125,0.54595947265625,0.1289520263671875,-0.2450714111328125
1772561952556746000,2.15774609375,0.241546630859375,0.31500244140625,-0.046783447265625
1772561952566812200,2.167812255859375,0.041534423828125,0.39117431640625,0.04229736328125
1772561952576879400,2.17787939453125,-0.2739410400390625,0.3918609619140625,0.00506591796875
1772561952586947300,2.187947265625,-0.599609375,0.2686920166015625,-0.02105712890625
1772561952597014500,2.1980146484375,-0.422119140625,0.2067718505859375,-0.194488525390625
1772561952607081500,2.20808154296875,-0.1495208740234375,0.1111907958984375,-0.2393646240234375
1772561952617148400,2.2181484375,0.06341552734375,0.032867431640625,-0.2288360595703125
1772561952627215400,2.22821533203125,0.045989990234375,0.1300048828125,-0.355133056640625
1772561952637282300,2.2382822265625,-0.3230743408203125,0.3690032958984375,-0.5341796875
1772561952647350300,2.248350341796875,-0.880828857421875,0.672760009765625,-0.6849517822265625
1772561952657417200,2.258417236328125,-1.43084716796875,0.9395599365234375,-0.7237548828125
1772561952667484200,2.268484130859375,-1.7435150146484375,1.011871337890625,-0.586151123046875
1772561952677551400,2.27855126953125,-1.5931396484375,0.839141845703125,-0.349517822265625
1772561952687618300,2.288618408203125,-1.1478271484375,0.4479827880859375,-0.18975830078125
1772561952697685500,2.298685546875,-0.5879364013671875,-0.003387451171875,-0.2175445556640625
1772561952707753500,2.30875341796875,0.007965087890625,-0.3136749267578125,-0.2973785400390625
1772561952717820400,2.3188203125,0.497589111328125,-0.4388427734375,-0.3169708251953125
1772561952727887400,2.328887451171875,0.76507568359375,-0.4362945556640625,-0.1910247802734375
1772561952737954300,2.338954345703125,0.79156494140625,-0.357452392578125,0.0235443115234375
1772561952748021200,2.349021240234375,0.44268798828125,-0.2736053466796875,0.2361297607421875
1772561952758088400,2.35908837890625,0.106842041015625,-0.2559661865234375,0.44580078125
1772561952768155400,2.3691552734375,0.1710357666015625,-0.33807373046875,0.607269287109375
1772561952778223400,2.379223388671875,0.2536468505859375,-0.526763916015625,0.732666015625
1772561952788290300,2.389290283203125,0.2272186279296875,-0.66143798828125,0.7718963623046875
1772561952798357500,2.399357421875,0.2731475830078125,-0.708404541015625,0.634918212890625
1772561952808424400,2.409424560546875,0.341888427734375,-0.85906982421875,0.3159332275390625
1772561952818491400,2.419491455078125,-0.1710968017578125,-1.0916290283203125,-0.0836029052734375
1772561952828558300,2.429558349609375,-1.284515380859375,-1.2374420166015625,-0.4311065673828125
1772561952838626300,2.439626220703125,-2.5833282470703125,-1.26898193359375,-0.7830810546875
1772561952848693200,2.449693359375,-4.000732421875,-1.2618408203125,-1.004638671875
1772561952858760400,2.459760498046875,-5.0292816162109375,-1.3423309326171875,-0.957183837890625
1772561952868827400,2.469827392578125,-5.39349365234375,-1.500335693359375,-0.804656982421875
1772561952878894300,2.479894287109375,-5.3091278076171875,-1.457611083984375,-1.089324951171875
1772561952888961300,2.489961181640625,-5.7653045654296875,-0.946014404296875,-1.9007568359375
1772561952899029200,2.500029296875,-7.0655670166015625,-0.7449798583984375,-2.0252227783203125
1772561952909096400,2.510096435546875,-7.0130462646484375,-0.5931243896484375,-1.3507843017578125
1772561952919163400,2.520163330078125,-5.94085693359375,0.3113555908203125,-0.7205047607421875
1772561952929230300,2.530230224609375,-5.50360107421875,0.4376678466796875,-0.314056396484375
1772561952939297500,2.540297607421875,-5.4676361083984375,0.49884033203125,-0.9544677734375
1772561952949364500,2.550364501953125,-5.31732177734375,0.6433868408203125,-1.76873779296875
1772561952959432400,2.560432373046875,-4.5307464599609375,0.445068359375,-2.1215972900390625
1772561952969499400,2.57049951171875,-2.9748992919921875,0.3817138671875,-2.3498992919921875
1772561952979566300,2.58056640625,-1.70513916015625,0.262725830078125,-2.16961669921875
1772561952989633300,2.59063330078125,-1.021453857421875,0.149078369140625,-1.752044677734375
1772561952999700200,2.6007001953125,-0.3853302001953125,0.11004638671875,-1.3575897216796875
1772561953009767200,2.61076708984375,0.1710052490234375,0.1806182861328125,-0.9339752197265625
1772561953019834400,2.62083447265625,0.4613800048828125,0.26055908203125,-0.5209197998046875
1772561953029902300,2.63090234375,0.6091156005859375,0.2448577880859375,-0.25616455078125
1772561953039969500,2.640969482421875,0.6662445068359375,0.1761932373046875,-0.2126922607421875
1772561953050036500,2.651036376953125,0.5947418212890625,0.072509765625,-0.3868408203125
1772561953060103400,2.661103515625,0.638336181640625,0.0685882568359375,-0.5854034423828125
1772561953070170400,2.67117041015625,0.6928863525390625,-0.06988525390625,-0.7268829345703125
1772561953080237300,2.6812373046875,0.726104736328125,0.0130615234375,-0.6359405517578125
1772561953090305300,2.69130517578125,0.593048095703125,0.2442626953125,-0.3726043701171875
1772561953100372200,2.701372314453125,0.436187744140625,0.3042755126953125,0.0103607177734375
1772561953110439400,2.711439453125,0.527862548828125,0.2503509521484375,0.3914031982421875
1772561953120506400,2.72150634765625,0.8706817626953125,0.2343597412109375,0.5788421630859375
1772561953130573300,2.7315732421875,1.2615966796875,0.2566375732421875,0.5146636962890625
1772561953140640300,2.74164013671875,1.4690093994140625,0.2266845703125,0.3570556640625
1772561953150708500,2.75170849609375,1.43157958984375,0.149871826171875,0.20526123046875
1772561953160775400,2.761775390625,1.1184234619140625,0.1537628173828125,0.066314697265625
1772561953170842400,2.77184228515625,0.69677734375,0.2015380859375,0.0434112548828125
1772561953180909300,2.781909423828125,0.162872314453125,0.2572479248046875,0.2438507080078125
1772561953190976300,2.791976318359375,-0.079559326171875,0.28369140625,0.4031219482421875
1772561953201043500,2.80204345703125,-0.0306396484375,0.2872772216796875,0.3007049560546875
1772561953211111400,2.812111328125,0.0324249267578125,0.1474151611328125,0.1090850830078125
1772561953221178400,2.822178466796875,0.2444610595703125,-0.00946044921875,-0.15325927734375
1772561953231245300,2.832245361328125,0.450103759765625,-0.095184326171875,-0.3347930908203125
1772561953241312300,2.842312255859375,0.54998779296875,-0.078460693359375,-0.3214111328125
1772561953251379200,2.852379150390625,0.5457916259765625,0.02972412109375,-0.2460479736328125
1772561953261446400,2.8624462890625,0.2776336669921875,0.157318115234375,-0.2395172119140625
1772561953271514400,2.872514404296875,-0.18426513671875,0.2765655517578125,-0.33056640625
1772561953281581300,2.882581298828125,-0.6025238037109375,0.3353729248046875,-0.4341278076171875
1772561953291648500,2.8926484375,-0.897369384765625,0.3272705078125,-0.4437408447265625
1772561953301715500,2.902715576171875,-0.9680328369140625,0.265380859375,-0.3238983154296875
1772561953311782400,2.912782470703125,-0.82098388671875,0.1614532470703125,-0.1622314453125
1772561953321849300,2.922849365234375,-0.6666107177734375,0.0895843505859375,-0.0711669921875
1772561953331916300,2.932916259765625,-0.54925537109375,0.02294921875,-0.0709686279296875
1772561953341984300,2.942984375,-0.4121856689453125,-0.006439208984375,-0.060516357421875
1772561953352051200,2.95305126953125,-0.3234710693359375,-0.0215911865234375,0.002685546875
1772561953362118400,2.963118408203125,-0.3428192138671875,0.011505126953125,0.130279541015625
1772561953372185300,2.973185302734375,-0.364288330078125,-0.0043487548828125,0.31317138671875
1772561953382252500,2.98325244140625,-0.4236297607421875,-0.0507049560546875,0.388519287109375
1772561953392320500,2.993320556640625,-0.6583099365234375,-0.0838623046875,0.35528564453125
1772561953402387500,3.003387451171875,-0.907989501953125,-0.1608428955078125,0.3288116455078125
1772561953412454400,3.013454345703125,-1.1273193359375,-0.2918853759765625,0.3071746826171875
1772561953422521300,3.023521240234375,-1.41021728515625,-0.3892822265625,0.2735748291015625
1772561953432588300,3.03358837890625,-1.787322998046875,-0.4207000732421875,0.283233642578125
1772561953442655200,3.0436552734375,-2.1420440673828125,-0.446136474609375,0.352142333984375
1772561953452722400,3.053722412109375,-2.460296630859375,-0.4408721923828125,0.409210205078125
1772561953462790100,3.0637900390625,-2.91046142578125,-0.3844451904296875,0.42352294921875
1772561953472857600,3.073857666015625,-3.3540191650390625,-0.447052001953125,0.427490234375
1772561953482924500,3.083924560546875,-3.4718017578125,-0.6758575439453125,0.46240234375
1772561953492991500,3.093991455078125,-3.2342071533203125,-0.91851806640625,0.5522003173828125
1772561953503058400,3.104058349609375,-2.7886505126953125,-1.1640167236328125,0.60382080078125
1772561953513125400,3.11412548828125,-2.6107330322265625,-1.252777099609375,0.51800537109375
1772561953523193300,3.124193359375,-3.0389862060546875,-1.3644256591796875,0.654296875
1772561953533260300,3.13426025390625,-2.9997711181640625,-1.4175262451171875,1.001953125
1772561953543327200,3.1443271484375,-2.6172332763671875,-1.0436248779296875,1.20123291015625
1772561953553394400,3.15439453125,-2.490814208984375,-0.689056396484375,1.2863922119140625
1772561953563461400,3.16446142578125,-2.7283782958984375,-0.6460113525390625,1.0504913330078125
1772561953573528300,3.1745283203125,-2.90594482421875,-0.5468902587890625,0.3185577392578125
1772561953583596500,3.184596435546875,-2.6698150634765625,-0.685546875,-0.258880615234375
1772561953593663500,3.19466357421875,-2.0525665283203125,-0.855316162109375,-0.2396087646484375
1772561953603730400,3.20473046875,-1.1838531494140625,-0.7821044921875,0.2551116943359375
1772561953613797400,3.21479736328125,-0.698760986328125,-0.5207061767578125,0.6275482177734375
1772561953623864300,3.2248642578125,-0.77813720703125,-0.335540771484375,0.494110107421875
1772561953633931500,3.234931640625,-0.910888671875,-0.2841949462890625,0.0589447021484375
1772561953643999200,3.244999267578125,-0.8589019775390625,-0.1884613037109375,-0.1772003173828125
1772561953654066400,3.25506640625,-0.5661468505859375,-0.1044158935546875,-0.043548583984375
1772561953664133400,3.26513330078125,-0.0767059326171875,-0.1577301025390625,0.090484619140625
1772561953674200300,3.275200439453125,0.2547607421875,-0.2225494384765625,-0.0348358154296875
1772561953684267300,3.285267333984375,0.224578857421875,-0.1724395751953125,-0.28448486328125
1772561953694334200,3.295334228515625,0.0515289306640625,-0.0070343017578125,-0.426666259765625
1772561953704402400,3.30540234375,-0.0254364013671875,0.1347198486328125,-0.286773681640625
1772561953714469400,3.315469482421875,0.180572509765625,0.0627288818359375,0.0039825439453125
1772561953724536300,3.325536376953125,0.7190093994140625,0.02777099609375,0.126800537109375
1772561953734603500,3.335603515625,1.2692108154296875,0.0468597412109375,0.0733642578125
1772561953744670500,3.34567041015625,1.4916229248046875,0.0894775390625,-0.1044769287109375
1772561953754737400,3.3557373046875,1.43890380859375,0.2630615234375,-0.281341552734375
1772561953764804400,3.365804443359375,1.1516876220703125,0.36956787109375,-0.201416015625
1772561953774872300,3.375872314453125,0.6641845703125,0.3233489990234375,0.0958709716796875
1772561953784939300,3.385939208984375,0.2682037353515625,0.2784881591796875,0.162750244140625
1772561953795006200,3.396006103515625,0.0452728271484375,0.343505859375,-0.0540618896484375
1772561953805073200,3.4060732421875,-0.04327392578125,0.2302093505859375,-0.1584014892578125
1772561953815140600,3.416140625,0.0245361328125,0.077728271484375,-0.2451629638671875
1772561953825207600,3.42620751953125,0.0150146484375,0.02679443359375,-0.3885955810546875
1772561953835275500,3.436275634765625,-0.1605987548828125,-0.0130462646484375,-0.52081298828125
1772561953845342500,3.446342529296875,-0.5027008056640625,0.025665283203125,-0.622528076171875
1772561953855409400,3.456409423828125,-0.828125,0.09283447265625,-0.6377716064453125
1772561953865476400,3.466476318359375,-0.971893310546875,0.0581817626953125,-0.637481689453125
1772561953875543300,3.476543212890625,-1.077484130859375,0.04412841796875,-0.730194091796875
1772561953885610200,3.4866103515625,-1.37554931640625,0.10418701171875,-0.814453125
1772561953895678200,3.49667822265625,-1.7908477783203125,0.22845458984375,-0.6812591552734375
1772561953905745200,3.5067451171875,-2.03515625,0.3178863525390625,-0.3693695068359375
1772561953915812400,3.516812255859375,-1.343048095703125,0.10198974609375,-0.2869110107421875
1772561953925879600,3.526879638671875,-0.3031158447265625,-0.1989898681640625,-0.3584136962890625
1772561953935946500,3.536946533203125,-0.0300445556640625,-0.286712646484375,-0.2155609130859375
1772561953946013400,3.547013427734375,-0.0399627685546875,-0.242156982421875,-0.0045623779296875
1772561953956081400,3.557081298828125,0.0799560546875,-0.16650390625,0.2331390380859375
1772561953966148400,3.5671484375,0.1536407470703125,-0.0862884521484375,0.46319580078125
1772561953976215300,3.57721533203125,0.0727996826171875,-0.0245819091796875,0.6033782958984375
1772561953986282200,3.5872822265625,-0.1642913818359375,0.0287322998046875,0.6771392822265625
1772561953996349400,3.597349365234375,-0.4588623046875,-0.005340576171875,0.7465667724609375
1772561954006416400,3.60741650390625,-0.70819091796875,-0.083282470703125,0.7745361328125
1772561954016484400,3.617484375,-0.871307373046875,-0.1353607177734375,0.70550537109375
1772561954026551600,3.627551513671875,-0.890777587890625,-0.199737548828125,0.48309326171875
1772561954036618500,3.637618408203125,-0.9384918212890625,-0.2636871337890625,0.1696319580078125
1772561954046685400,3.647685546875,-1.0894622802734375,-0.3389434814453125,-0.0896759033203125
1772561954056752400,3.65775244140625,-1.2362060546875,-0.382171630859375,-0.251190185546875
1772561954066819300,3.6678193359375,-1.4472503662109375,-0.3811798095703125,-0.327880859375
1772561954076887300,3.67788720703125,-1.7468109130859375,-0.35504150390625,-0.352325439453125
1772561954086954200,3.687954345703125,-2.1012115478515625,-0.316192626953125,-0.3382720947265625
1772561954097021400,3.698021484375,-2.36865234375,-0.3533477783203125,-0.2090606689453125
1772561954107088400,3.70808837890625,-2.0340728759765625,-0.5472412109375,0.0252532958984375
1772561954117155300,3.7181552734375,-1.1236724853515625,-0.9297332763671875,-0.0115966796875
1772561954127222300,3.72822216796875,-1.449005126953125,-1.21148681640625,-0.3896026611328125
1772561954137290500,3.73829052734375,-3.07196044921875,-1.24365234375,-0.61688232421875
1772561954147357400,3.748357421875,-4.12786865234375,-0.7408599853515625,-0.57110595703125
1772561954157424400,3.75842431640625,-4.90350341796875,0.003997802734375,-0.041717529296875
1772561954167491300,3.7684912109375,-5.45599365234375,0.47479248046875,0.347503662109375
1772561954177558500,3.77855859375,-5.9021759033203125,0.86358642578125,0.045989990234375
1772561954187625500,3.78862548828125,-5.7335662841796875,0.971954345703125,-0.5277862548828125
1772561954197692400,3.7986923828125,-5.010955810546875,0.787994384765625,-0.8315277099609375
1772561954207760400,3.808760498046875,-3.9066619873046875,0.8382415771484375,-1.0123138427734375
1772561954217827300,3.818827392578125,-3.0812225341796875,0.9020538330078125,-0.7862548828125
1772561954227894300,3.828894287109375,-2.6519927978515625,0.749114990234375,-0.260467529296875
1772561954237961200,3.838961181640625,-2.172271728515625,0.5792388916015625,-0.159149169921875
1772561954248028200,3.849028076171875,-1.3712310791015625,0.618194580078125,-0.28369140625
1772561954258095400,3.859095458984375,-0.3932037353515625,0.5686798095703125,-0.0883941650390625
1772561954268163300,3.869163330078125,0.269439697265625,0.4458160400390625,0.28857421875
1772561954278230500,3.87923046875,0.5956268310546875,0.458038330078125,0.4857940673828125
1772561954288297500,3.88929736328125,0.7284393310546875,0.4220123291015625,0.55340576171875
1772561954298364400,3.899364501953125,0.5547332763671875,0.3274383544921875,0.5788421630859375
1772561954308431400,3.909431396484375,0.29852294921875,0.3625335693359375,0.5445098876953125
1772561954318498300,3.919498291015625,-0.015350341796875,0.41925048828125,0.5883331298828125
1772561954328566300,3.929566162109375,-0.1630859375,0.322540283203125,0.760528564453125
1772561954338633200,3.93963330078125,0.1978912353515625,0.150604248046875,0.831756591796875
1772561954348700200,3.9497001953125,0.8355865478515625,-0.011627197265625,0.7154693603515625
1772561954358767400,3.959767333984375,1.271026611328125,-0.0438385009765625,0.52789306640625
1772561954368834300,3.969834228515625,1.338775634765625,-0.051544189453125,0.480377197265625
1772561954378901500,3.979901611328125,1.6529083251953125,-0.1384429931640625,0.298919677734375
1772561954388969500,3.989969482421875,1.701446533203125,-0.019012451171875,0.2626800537109375
1772561954399036400,4.000036376953125,1.43927001953125,0.029876708984375,0.27008056640625
1772561954409103400,4.010103271484375,1.0170440673828125,0.168975830078125,0.33404541015625
1772561954419170300,4.02017041015625,0.5520782470703125,0.22247314453125,0.4183807373046875
1772561954429237200,4.0302373046875,-0.022369384765625,0.2017059326171875,0.468414306640625
1772561954439304400,4.040304443359375,-0.1793212890625,0.216766357421875,0.2120361328125
1772561954449372400,4.050372314453125,-0.1149139404296875,0.1627960205078125,-0.1389312744140625
1772561954459439400,4.060439453125,-0.0314483642578125,0.076812744140625,-0.459686279296875
1772561954469506300,4.07050634765625,-0.2088165283203125,0.181182861328125,-0.663604736328125
1772561954479573200,4.0805732421875,-0.50152587890625,0.3255462646484375,-0.6044921875
1772561954489640400,4.090640380859375,-0.6124420166015625,0.459503173828125,-0.4333343505859375
1772561954499707400,4.100707275390625,-0.8152008056640625,0.5393524169921875,-0.39654541015625
1772561954509775400,4.110775390625,-1.141754150390625,0.533966064453125,-0.5098419189453125
1772561954519842300,4.12084228515625,-1.3797149658203125,0.490997314453125,-0.6449432373046875
1772561954529909200,4.1309091796875,-1.5486602783203125,0.4558563232421875,-0.6151580810546875
1772561954539976400,4.1409765625,-1.549652099609375,0.3935699462890625,-0.3955078125
1772561954550043400,4.15104345703125,-1.4125213623046875,0.2668304443359375,-0.20556640625
1772561954560110300,4.1611103515625,-1.1708221435546875,0.0866546630859375,-0.1324615478515625
1772561954570178800,4.1711787109375,-0.8242034912109375,-0.1519622802734375,-0.1337890625
1772561954580245800,4.181245849609375,-0.48480224609375,-0.3707275390625,-0.1029052734375
1772561954590312700,4.191312744140625,-0.2237396240234375,-0.532501220703125,0.029510498046875
1772561954600379600,4.201379638671875,-0.052734375,-0.66278076171875,0.2328643798828125
1772561954610446600,4.211446533203125,-0.04833984375,-0.712249755859375,0.444610595703125
1772561954620513800,4.221513671875,-0.1397247314453125,-0.6982421875,0.59576416015625
1772561954630581800,4.231581787109375,-0.306488037109375,-0.739013671875,0.671539306640625
1772561954640649000,4.24164892578125,-0.4980926513671875,-0.8416900634765625,0.604156494140625
1772561954650716000,4.2517158203125,-0.7699127197265625,-0.892333984375,0.4613037109375
1772561954660782800,4.261782958984375,-1.1617279052734375,-0.913238525390625,0.32635498046875
1772561954670849800,4.271849853515625,-1.4665679931640625,-0.9508209228515625,0.2363739013671875
1772561954680916700,4.281916748046875,-1.6134185791015625,-0.9683837890625,0.1565093994140625
1772561954690984700,4.291984619140625,-1.878875732421875,-0.92236328125,0.12799072265625
1772561954701051600,4.3020517578125,-2.2740478515625,-0.8073883056640625,0.2430877685546875
1772561954711118600,4.31211865234375,-2.6164093017578125,-0.679962158203125,0.399444580078125
1772561954721185800,4.322185791015625,-3.0292205810546875,-0.5918426513671875,0.50933837890625
1772561954731252700,4.332252685546875,-3.46453857421875,-0.4393310546875,0.4640960693359375
1772561954741319700,4.342319580078125,-4.29473876953125,-0.103240966796875,0.204010009765625
1772561954751388000,4.352387939453125,-5.6107177734375,0.1290435791015625,0.16302490234375
1772561954761454800,4.362454833984375,-6.1701812744140625,0.3203125,0.3377532958984375
1772561954771521800,4.372521728515625,-5.9525604248046875,0.906219482421875,0.4308929443359375
1772561954781588700,4.382588623046875,-5.783172607421875,1.2156219482421875,0.5682525634765625
1772561954791655700,4.39265576171875,-5.2881317138671875,1.3958587646484375,0.0453948974609375
1772561954801723000,4.402722900390625,-4.589874267578125,1.4044647216796875,-0.6884613037109375
1772561954811789800,4.412789794921875,-4.0733489990234375,1.4007720947265625,-1.1550445556640625
1772561954821857800,4.42285791015625,-3.2586517333984375,1.5169677734375,-1.3146209716796875
1772561954831924700,4.4329248046875,-2.1003875732421875,1.4211273193359375,-0.865447998046875
1772561954841991700,4.44299169921875,-0.9683074951171875,1.0158233642578125,-0.31524658203125
1772561954852058600,4.45305859375,-0.233734130859375,0.6661529541015625,-0.157867431640625
1772561954862125600,4.46312548828125,0.1929779052734375,0.624481201171875,-0.1881561279296875
1772561954872192800,4.47319287109375,0.5412139892578125,0.5788421630859375,0.0569610595703125
1772561954882260700,4.4832607421875,0.7105560302734375,0.48577880859375,0.4923095703125
1772561954892327700,4.49332763671875,0.845428466796875,0.405517578125,0.6099090576171875
1772561954902395000,4.503394775390625,0.9150238037109375,0.2905120849609375,0.386566162109375
1772561954912461800,4.5134619140625,0.807647705078125,0.236328125,-0.0064849853515625
1772561954922528800,4.52352880859375,0.6130218505859375,0.2812652587890625,-0.188629150390625
1772561954932595700,4.533595703125,0.52874755859375,0.2823486328125,-0.0458831787109375
1772561954942663700,4.54366357421875,0.724517822265625,0.2098388671875,0.1956787109375
1772561954952730600,4.553730712890625,1.002471923828125,0.16192626953125,0.369140625
1772561954962797600,4.563797607421875,1.3423309326171875,0.173126220703125,0.34442138671875
1772561954972864500,4.573864501953125,1.584320068359375,0.14007568359375,0.0838470458984375
1772561954982932000,4.583931884765625,1.624176025390625,0.0466766357421875,-0.2714691162109375
1772561954992999000,4.5939990234375,1.3903045654296875,0.006622314453125,-0.4918212890625
1772561955003067000,4.60406689453125,1.0131072998046875,0.0682525634765625,-0.493560791015625
1772561955013133800,4.6141337890625,0.62353515625,0.2520904541015625,-0.369140625
1772561955023200800,4.62420068359375,0.2787628173828125,0.3713226318359375,-0.16729736328125
1772561955033267700,4.634267822265625,0.075439453125,0.42584228515625,0.0186309814453125
1772561955043334700,4.644334716796875,0.0548095703125,0.385162353515625,0.02581787109375
1772561955053402600,4.654402587890625,0.312835693359375,0.3175201416015625,-0.275909423828125
1772561955063469600,4.664469482421875,0.4933013916015625,0.180755615234375,-0.5875091552734375
1772561955073536500,4.67453662109375,0.4555511474609375,0.1166534423828125,-0.7641143798828125
1772561955083604000,4.68460400390625,0.23040771484375,0.2125244140625,-0.7622222900390625
1772561955093671000,4.6946708984375,-0.0166168212890625,0.3748931884765625,-0.6287384033203125
1772561955103737900,4.70473779296875,-0.3147125244140625,0.5006256103515625,-0.5059661865234375
1772561955113805800,4.714805908203125,-0.5829925537109375,0.5953216552734375,-0.4703826904296875
1772561955123872800,4.724872802734375,-0.7600860595703125,0.628692626953125,-0.48406982421875
1772561955133939700,4.734939697265625,-0.9998321533203125,0.5869598388671875,-0.402587890625
1772561955144006000,4.745005859375,-1.142059326171875,0.47314453125,-0.2382049560546875
1772561955154072800,4.75507275390625,-1.0860443115234375,0.3769378662109375,-0.0600128173828125
1772561955164139800,4.765139892578125,-1.028228759765625,0.2577056884765625,0.10968017578125
1772561955174206700,4.775206787109375,-1.03851318359375,0.09991455078125,0.2308807373046875
1772561955184274700,4.785274658203125,-1.2343902587890625,-0.110015869140625,0.249237060546875
1772561955194341600,4.795341552734375,-1.4229736328125,-0.3455047607421875,0.277252197265625
1772561955204408600,4.80540869140625,-1.434478759765625,-0.564239501953125,0.4408416748046875
1772561955214475500,4.8154755859375,-1.3539886474609375,-0.7984771728515625,0.6631927490234375
1772561955224543000,4.82554296875,-1.3091278076171875,-0.942657470703125,0.7855682373046875
1772561955234610000,4.83560986328125,-1.4974365234375,-0.97412109375,0.8043670654296875
1772561955244678000,4.845677978515625,-1.8294677734375,-0.9098052978515625,0.8421630859375
1772561955254744800,4.855744873046875,-2.0457763671875,-0.8061065673828125,0.92999267578125
1772561955264811800,4.865811767578125,-2.1079254150390625,-0.7416229248046875,0.934295654296875
1772561955274878700,4.875878662109375,-2.2010650634765625,-0.69696044921875,0.760406494140625
1772561955284945700,4.885945556640625,-2.344024658203125,-0.634124755859375,0.494476318359375
1772561955295012600,4.8960126953125,-2.4486541748046875,-0.631561279296875,0.2387542724609375
1772561955305080600,4.90608056640625,-2.50396728515625,-0.62640380859375,0.0928802490234375
1772561955315147500,4.9161474609375,-2.4659881591796875,-0.6559906005859375,0.096343994140625
1772561955325214700,4.926214599609375,-2.2787322998046875,-0.7152557373046875,0.0498199462890625
1772561955335282000,4.936281982421875,-2.4420013427734375,-0.63671875,-0.0524444580078125
1772561955345348900,4.946348876953125,-3.2813720703125,-0.4001617431640625,-0.0993499755859375
1772561955355415800,4.956415771484375,-4.2155609130859375,-0.411773681640625,0.1303863525390625
1772561955365483800,4.96648388671875,-4.44537353515625,-0.2219085693359375,0.3832855224609375
1772561955375550700,4.97655078125,-4.3317718505859375,0.14605712890625,0.4603729248046875
1772561955385617700,4.98661767578125,-4.52288818359375,0.3625640869140625,0.0703887939453125
1772561955395684600,4.9966845703125,-4.9010467529296875,0.8860321044921875,-0.6544647216796875
1772561955405751800,5.006751708984375,-4.9407501220703125,1.2460479736328125,-0.896148681640625
1772561955415818800,5.01681884765625,-4.26910400390625,1.1374664306640625,-0.7728729248046875
1772561955425886700,5.02688671875,-3.017730712890625,0.8404388427734375,-0.5267333984375
1772561955435954000,5.036953857421875,-1.8283843994140625,0.4796295166015625,-0.27825927734375
1772561955446020900,5.047020751953125,-1.05999755859375,0.26611328125,-0.269500732421875
1772561955456087800,5.057087890625,-0.612884521484375,0.1261138916015625,-0.3420257568359375
1772561955466154800,5.06715478515625,-0.2384796142578125,-0.0364227294921875,-0.318603515625
1772561955476221700,5.0772216796875,0.1788482666015625,-0.12518310546875,-0.2207794189453125
1772561955486289700,5.08728955078125,0.547882080078125,-0.0591278076171875,-0.066375732421875
1772561955496356600,5.097356689453125,0.6734619140625,0.01483154296875,0.0662384033203125
1772561955506423800,5.107423828125,0.4449005126953125,0.0606689453125,0.0072021484375
1772561955516490800,5.11749072265625,0.1555633544921875,0.084716796875,-0.2430419921875
1772561955526557700,5.1275576171875,-0.011199951171875,0.1087188720703125,-0.5000457763671875
1772561955536624600,5.137624755859375,0.0201568603515625,0.1879730224609375,-0.5633544921875
1772561955546692900,5.14769287109375,0.2442474365234375,0.2102813720703125,-0.3908843994140625
1772561955556759800,5.157759765625,0.6560211181640625,0.1640625,-0.162994384765625
1772561955566826800,5.16782666015625,1.07373046875,0.12799072265625,-0.0506439208984375
1772561955576894000,5.17789404296875,1.299774169921875,0.1503143310546875,-0.0304107666015625
1772561955586961200,5.187961181640625,1.5448760986328125,0.2783966064453125,-0.10296630859375
1772561955597028000,5.198028076171875,1.657562255859375,0.3338165283203125,-0.1791534423828125
1772561955607096300,5.208096435546875,1.459869384765625,0.3657379150390625,-0.1880950927734375
1772561955617163300,5.218163330078125,1.124359130859375,0.4502410888671875,-0.1695556640625
1772561955627230200,5.228230224609375,0.7403717041015625,0.5168914794921875,-0.130615234375
1772561955637297200,5.238297119140625,0.2266998291015625,0.468963623046875,-0.068603515625
1772561955647364000,5.248364013671875,0.1766815185546875,0.3856964111328125,-0.24847412109375
1772561955657431000,5.25843115234375,0.283477783203125,0.253997802734375,-0.5276031494140625
1772561955667499000,5.2684990234375,0.2917022705078125,0.0808563232421875,-0.7305755615234375
1772561955677566000,5.27856591796875,0.2674560546875,0.0536346435546875,-0.8174591064453125
1772561955687633200,5.288633056640625,0.2184600830078125,0.0972137451171875,-0.7494354248046875
1772561955697700000,5.2987001953125,0.1999053955078125,0.1027069091796875,-0.60943603515625
1772561955707767000,5.30876708984375,0.169281005859375,0.1357421875,-0.5147247314453125
1772561955717834200,5.318834228515625,0.0957183837890625,0.2318115234375,-0.50543212890625
1772561955727902200,5.328902099609375,-0.1299591064453125,0.3077392578125,-0.594482421875
1772561955737969200,5.33896923828125,-0.4819183349609375,0.38629150390625,-0.6693878173828125
1772561955748036000,5.3490361328125,-0.90167236328125,0.376708984375,-0.6230316162109375
1772561955758103000,5.35910302734375,-1.2583465576171875,0.2130889892578125,-0.5372161865234375
1772561955768170200,5.369170166015625,-1.3739013671875,-0.049957275390625,-0.5262603759765625
1772561955778237200,5.3792373046875,-1.1649322509765625,-0.3282470703125,-0.5299224853515625
1772561955788305200,5.38930517578125,-0.7338104248046875,-0.589111328125,-0.4369659423828125
1772561955798372000,5.3993720703125,-0.3411102294921875,-0.77703857421875,-0.222442626953125
1772561955808439000,5.40943896484375,-0.024627685546875,-0.8838348388671875,0.079559326171875
1772561955818506000,5.419506103515625,0.0047149658203125,-0.8905181884765625,0.3643951416015625
1772561955828573200,5.4295732421875,-0.3476715087890625,-0.65869140625,0.605712890625
1772561955838640000,5.43964013671875,-0.84735107421875,-0.399169921875,0.849822998046875
1772561955848708000,5.4497080078125,-1.219390869140625,-0.27215576171875,1.1024017333984375
1772561955858775000,5.459775146484375,-1.4830169677734375,-0.19384765625,1.2496337890625
1772561955868842200,5.46984228515625,-1.759246826171875,-0.1612091064453125,1.225860595703125
1772561955878909200,5.4799091796875,-2.1138153076171875,-0.19024658203125,1.1845703125
1772561955888976100,5.48997607421875,-2.4260406494140625,-0.0955047607421875,1.2514190673828125
1772561955899044000,5.500044189453125,-2.7801361083984375,0.054534912109375,1.3717193603515625
1772561955909111000,5.510111083984375,-3.30902099609375,0.10247802734375,1.5352020263671875
1772561955919178000,5.520177978515625,-3.711395263671875,0.000640869140625,1.5475311279296875
1772561955929245200,5.5302451171875,-4.020538330078125,-0.1752777099609375,1.3465118408203125
1772561955939312000,5.54031201171875,-4.269073486328125,-0.2127532958984375,0.810821533203125
1772561955949379300,5.55037939453125,-4.9679412841796875,-0.021240234375,0.1691131591796875
1772561955959447000,5.560447021484375,-6.1600341796875,0.1439666748046875,0.1942138671875
1772561955969514200,5.57051416015625,-6.3741455078125,0.546966552734375,0.3366851806640625
1772561955979581200,5.580581298828125,-6.3517303466796875,1.2388153076171875,0.45977783203125
1772561955989648100,5.590648193359375,-6.4157562255859375,1.5945892333984375,0.6051177978515625
1772561955999715000,5.600715087890625,-5.9581756591796875,1.8022613525390625,0.2126007080078125
1772561956009782000,5.610781982421875,-5.1562957763671875,1.7799530029296875,-0.5414886474609375
1772561956019850000,5.62085009765625,-4.5869903564453125,1.672760009765625,-1.07720947265625
1772561956029917000,5.6309169921875,-4.0721435546875,1.52825927734375,-1.3548583984375
1772561956039984000,5.640984130859375,-3.0715789794921875,1.2361907958984375,-1.646514892578125
1772561956050051300,5.65105126953125,-2.187408447265625,0.9466094970703125,-1.9684295654296875
1772561956060118300,5.6611181640625,-1.841766357421875,0.990142822265625,-1.9235992431640625
1772561956070185200,5.671185302734375,-1.4939422607421875,1.061859130859375,-1.4133148193359375
1772561956080253200,5.681253173828125,-0.9091644287109375,1.0362091064453125,-0.9458770751953125
1772561956090320100,5.691320068359375,-0.2752838134765625,1.0503082275390625,-0.7831573486328125
1772561956100387000,5.701386962890625,0.2264404296875,1.055572509765625,-0.7268218994140625
1772561956110454000,5.7114541015625,0.4160308837890625,0.8870086669921875,-0.652435302734375
1772561956120521000,5.72152099609375,0.6270904541015625,0.6223602294921875,-0.7277984619140625
1772561956130588200,5.731588134765625,0.9555511474609375,0.449554443359375,-0.901947021484375
1772561956140656000,5.74165625,1.1261749267578125,0.40576171875,-0.9668426513671875
1772561956150723300,5.751723388671875,1.2360992431640625,0.49810791015625,-0.833892822265625
1772561956160790300,5.761790283203125,1.367401123046875,0.6988067626953125,-0.566436767578125
1772561956170857200,5.771857177734375,1.41192626953125,0.752838134765625,-0.19146728515625
1772561956180924200,5.781924072265625,1.49993896484375,0.509490966796875,0.1004180908203125
1772561956190991000,5.7919912109375,1.63983154296875,0.383392333984375,0.0948486328125
1772561956201059000,5.80205908203125,1.70562744140625,0.3921661376953125,-0.067047119140625
1772561956211126000,5.8121259765625,1.77020263671875,0.3091278076171875,-0.2109527587890625
1772561956221193000,5.82219287109375,1.7963714599609375,0.2288818359375,-0.3001861572265625
1772561956231260200,5.83226025390625,1.784271240234375,0.25048828125,-0.2856597900390625
1772561956241327000,5.8423271484375,1.6636962890625,0.3251953125,-0.137481689453125
1772561956251394000,5.85239404296875,1.3974151611328125,0.364166259765625,0.0674591064453125
1772561956261462300,5.862462158203125,1.0738677978515625,0.3690185546875,0.1988067626953125
1772561956271529200,5.872529296875,0.6642303466796875,0.3465423583984375,0.2535552978515625
1772561956281596200,5.88259619140625,0.1238250732421875,0.268646240234375,0.291717529296875
1772561956291663000,5.8926630859375,-0.0186309814453125,0.2656402587890625,0.050872802734375
1772561956301730000,5.90272998046875,-0.15460205078125,0.1913299560546875,-0.1794281005859375
1772561956311797200,5.91279736328125,-0.1247711181640625,0.00921630859375,-0.2837066650390625
1772561956321865000,5.922864990234375,-0.0527801513671875,-0.0596160888671875,-0.23779296875
1772561956331932200,5.93293212890625,-0.1577911376953125,-0.0338592529296875,0.004241943359375
1772561956341999000,5.9429990234375,-0.3505706787109375,0.04498291015625,0.14349365234375
1772561956352066000,5.953066162109375,-0.6538543701171875,0.20263671875,-0.053466796875
1772561956362133000,5.963133056640625,-1.071502685546875,0.352783203125,-0.3717803955078125
1772561956372201200,5.973201171875,-1.52252197265625,0.471923828125,-0.56982421875
1772561956382268200,5.98326806640625,-1.90576171875,0.59442138671875,-0.5964202880859375
1772561956392335000,5.993335205078125,-2.0338897705078125,0.6100616455078125,-0.43768310546875
1772561956402402000,6.003402099609375,-1.8577728271484375,0.4258575439453125,-0.1698455810546875
1772561956412469200,6.01346923828125,-1.3856353759765625,0.2097320556640625,0.07464599609375
1772561956422536200,6.0235361328125,-0.8655853271484375,-0.0056915283203125,0.26348876953125
1772561956432604200,6.033604248046875,-0.370269775390625,-0.224365234375,0.481292724609375
1772561956442671000,6.043671142578125,-0.00286865234375,-0.4087982177734375,0.740478515625
1772561956452738000,6.053738037109375,0.143035888671875,-0.54656982421875,0.836639404296875
1772561956462805000,6.063804931640625,0.01446533203125,-0.609893798828125,0.68798828125
1772561956472872000,6.073871826171875,-0.2049102783203125,-0.72088623046875,0.5048675537109375
1772561956482939000,6.08393896484375,-0.188140869140625,-0.9137420654296875,0.416717529296875
1772561956493007000,6.094007080078125,0.006988525390625,-1.12005615234375,0.4518585205078125
1772561956503074000,6.104073974609375,0.1150360107421875,-1.2167205810546875,0.5736541748046875
1772561956513141200,6.114141357421875,-0.1561279296875,-1.19122314453125,0.7515716552734375
1772561956523208200,6.124208251953125,-0.72760009765625,-1.2172088623046875,0.8500213623046875
1772561956533275100,6.134275146484375,-1.52099609375,-1.26544189453125,0.839691162109375
1772561956543342000,6.144342041015625,-2.358489990234375,-1.2954559326171875,0.9176025390625
1772561956553410000,6.15441015625,-3.0103759765625,-1.4496002197265625,1.13299560546875
1772561956563477000,6.16447705078125,-3.2010345458984375,-1.71539306640625,1.1343994140625
1772561956573543400,6.17454345703125,-3.3724212646484375,-1.66107177734375,0.7055511474609375
1772561956583611000,6.18461083984375,-4.1107940673828125,-1.4445953369140625,0.199615478515625
1772561956593677800,6.194677734375,-4.95416259765625,-1.3879852294921875,-0.01837158203125
1772561956603744800,6.204744873046875,-5.3824462890625,-0.94146728515625,0.159942626953125
1772561956613812700,6.214812744140625,-5.4302978515625,-0.3957672119140625,0.73541259765625
1772561956623879700,6.224879638671875,-5.2071380615234375,-0.1790771484375,0.98944091796875
1772561956633946600,6.234946533203125,-4.9930877685546875,-0.0098114013671875,0.5286407470703125
1772561956644013600,6.245013671875,-4.644805908203125,-0.0036163330078125,-0.0868072509765625
1772561956654080500,6.25508056640625,-4.1248016357421875,-0.119049072265625,-0.453369140625
1772561956664147700,6.265147705078125,-3.0779266357421875,-0.1915435791015625,-0.8384857177734375
1772561956674215700,6.275215576171875,-2.0723876953125,-0.16241455078125,-1.09912109375
1772561956684282600,6.28528271484375,-1.59320068359375,0.07159423828125,-0.933380126953125
1772561956694349800,6.295349853515625,-1.2516021728515625,0.134857177734375,-0.520355224609375
1772561956704416800,6.305416748046875,-0.7907257080078125,0.07672119140625,-0.3874053955078125
1772561956714483700,6.315483642578125,-0.274932861328125,0.087310791015625,-0.4472503662109375
1772561956724551700,6.3255517578125,0.107513427734375,0.127593994140625,-0.3834991455078125
1772561956734618600,6.33561865234375,0.4075927734375,0.1623382568359375,-0.1861419677734375
1772561956744685600,6.345685546875,0.6154937744140625,0.189453125,-0.0076751708984375
1772561956754752500,6.35575244140625,0.586944580078125,0.200347900390625,-0.0174560546875
1772561956764819700,6.36581982421875,0.39453125,0.1898956298828125,-0.1505584716796875
1772561956774886700,6.37588671875,0.312652587890625,0.14892578125,-0.224395751953125
1772561956784954600,6.38595458984375,0.3326263427734375,0.1295013427734375,-0.239715576171875
1772561956795021800,6.396021728515625,0.32464599609375,0.18463134765625,-0.2416229248046875
1772561956805088800,6.4060888671875,0.3389434814453125,0.156951904296875,-0.181060791015625
1772561956815155700,6.41615576171875,0.5099945068359375,0.0343475341796875,-0.1063995361328125
1772561956825222700,6.42622265625,0.7310333251953125,-0.01312255859375,-0.1024169921875
1772561956835289600,6.43628955078125,0.9459381103515625,-0.01873779296875,-0.1555633544921875
1772561956845357600,6.446357666015625,1.105712890625,0.00714111328125,-0.2864532470703125
1772561956855424800,6.4564248046875,0.9550323486328125,0.077606201171875,-0.3426666259765625
1772561956865491700,6.46649169921875,0.59613037109375,0.186309814453125,-0.276947021484375
1772561956875558700,6.47655859375,0.1822967529296875,0.354400634765625,-0.1002349853515625
1772561956885625600,6.48662548828125,-0.33734130859375,0.453277587890625,0.17047119140625
1772561956895692500,6.496692626953125,-0.4314727783203125,0.5083160400390625,0.2109375
1772561956905760800,6.5067607421875,-0.3935699462890625,0.5577850341796875,0.183929443359375
1772561956915827700,6.51682763671875,-0.3190460205078125,0.4849700927734375,0.133148193359375
1772561956925894700,6.526894775390625,-0.218109130859375,0.404510498046875,-0.0651092529296875
1772561956935961600,6.536961669921875,-0.24310302734375,0.43304443359375,-0.2808074951171875
1772561956946028800,6.54702880859375,-0.3243408203125,0.5174407958984375,-0.3404388427734375
1772561956956095700,6.557095703125,-0.280029296875,0.5309600830078125,-0.271484375
1772561956966163700,6.567163818359375,-0.150787353515625,0.49658203125,-0.1702880859375
1772561956976230700,6.577230712890625,0.0375518798828125,0.46026611328125,-0.1303863525390625
1772561956986297600,6.587297607421875,0.14215087890625,0.434295654296875,-0.1660919189453125
1772561956996364500,6.597364501953125,0.1036834716796875,0.4407806396484375,-0.269989013671875
1772561957006431500,6.607431396484375,-0.0934906005859375,0.4450836181640625,-0.4125823974609375
1772561957016498700,6.617498779296875,-0.368927001953125,0.443084716796875,-0.505950927734375
1772561957026566700,6.627566650390625,-0.4945220947265625,0.407073974609375,-0.4513702392578125
1772561957036633900,6.6376337890625,-0.4753265380859375,0.2924957275390625,-0.2762603759765625
1772561957046700800,6.64770068359375,-0.42205810546875,0.135040283203125,-0.0751495361328125
1772561957056767700,6.657767822265625,-0.3214874267578125,-0.044281005859375,0.1031341552734375
1772561957066834700,6.667834716796875,-0.2226715087890625,-0.28472900390625,0.3039093017578125
1772561957076902700,6.677902587890625,-0.1047515869140625,-0.61962890625,0.49700927734375
1772561957086969600,6.687969482421875,-0.015655517578125,-0.972869873046875,0.6488494873046875
1772561957097036500,6.69803662109375,-0.0248870849609375,-1.18963623046875,0.800201416015625
1772561957107103500,6.708103515625,-0.1891937255859375,-1.178131103515625,1.0072479248046875
1772561957117170700,6.718170654296875,-0.675811767578125,-1.1030426025390625,1.2392120361328125
1772561957127237600,6.728237548828125,-1.3365020751953125,-1.1589202880859375,1.385711669921875
1772561957137305900,6.738305908203125,-2.058837890625,-1.2519989013671875,1.3133392333984375
1772561957147372800,6.748372802734375,-2.926361083984375,-1.237335205078125,1.1201324462890625
1772561957157439700,6.758439697265625,-3.6708984375,-1.1940155029296875,0.9399566650390625
1772561957167506700,6.768506591796875,-4.0123443603515625,-1.2315216064453125,0.77825927734375
1772561957177573600,6.77857373046875,-4.0455474853515625,-1.2331390380859375,0.82147216796875
1772561957187640600,6.788640625,-3.906036376953125,-1.1616973876953125,1.0748138427734375
1772561957197708500,6.79870849609375,-3.8581695556640625,-1.08343505859375,1.3131561279296875
1772561957207775500,6.808775390625,-4.0408172607421875,-0.9712677001953125,0.9726104736328125
1772561957217842700,6.8188427734375,-4.8984375,-0.5911407470703125,0.201446533203125
1772561957227909600,6.82890966796875,-6.1080169677734375,-0.0436553955078125,-0.0061187744140625
1772561957237976600,6.8389765625,-6.4492034912109375,0.5749664306640625,0.1348876953125
1772561957248043800,6.849043701171875,-6.3393096923828125,0.790252685546875,0.0420684814453125
1772561957258111700,6.85911181640625,-6.1337127685546875,0.9769439697265625,-0.478271484375
1772561957268178700,6.8691787109375,-5.466156005859375,1.04052734375,-1.0780792236328125
1772561957278245600,6.87924560546875,-4.58538818359375,0.9814910888671875,-1.57763671875
1772561957288312600,6.8893125,-3.42962646484375,0.8582611083984375,-1.7991943359375
1772561957298379800,6.8993798828125,-2.167083740234375,0.6660308837890625,-1.3595733642578125
1772561957308446700,6.90944677734375,-1.179901123046875,0.5822296142578125,-0.6566162109375
1772561957318514700,6.9195146484375,-0.610809326171875,0.62957763671875,-0.51190185546875
1772561957328581600,6.92958154296875,-0.2488250732421875,0.8286895751953125,-0.7266845703125
1772561957338648600,6.939648681640625,-0.0351715087890625,0.956939697265625,-0.6399993896484375
1772561957348715500,6.949715576171875,0.2919769287109375,0.8737030029296875,-0.230804443359375
1772561957358782700,6.95978271484375,0.763763427734375,0.740814208984375,0.13885498046875
1772561957368850700,6.9698505859375,1.085174560546875,0.66131591796875,0.27728271484375
1772561957378917600,6.979917724609375,1.11474609375,0.585693359375,0.1841278076171875
1772561957388984600,6.989984619140625,1.037689208984375,0.537567138671875,0.004058837890625
1772561957399051800,7.0000517578125,0.9243621826171875,0.532470703125,-0.1343231201171875
1772561957409118700,7.01011865234375,0.7532196044921875,0.51934814453125,-0.0590362548828125
1772561957419185700,7.020185546875,0.7255096435546875,0.2871551513671875,0.1819915771484375
1772561957429253600,7.030253662109375,0.924072265625,-0.0010986328125,0.314239501953125
1772561957439320600,7.040320556640625,1.2549591064453125,-0.219940185546875,0.2369232177734375
1772561957449387500,7.050387451171875,1.39862060546875,-0.3528900146484375,0.0926055908203125
1772561957459454700,7.060454833984375,1.4010162353515625,-0.3582611083984375,-0.019287109375
1772561957469521700,7.070521728515625,1.51312255859375,-0.465179443359375,-0.28802490234375
1772561957479588900,7.0805888671875,1.578369140625,-0.5304107666015625,-0.511474609375
1772561957489656600,7.090656494140625,1.4524383544921875,-0.464447021484375,-0.5387115478515625
1772561957499723800,7.100723876953125,1.2332305908203125,-0.267303466796875,-0.3647003173828125
1772561957509790700,7.110790771484375,0.975250244140625,-0.043975830078125,-0.0888671875
1772561957519857700,7.120857666015625,0.627197265625,0.1586151123046875,0.16168212890625
1772561957529924600,7.130924560546875,0.2124481201171875,0.2676544189453125,0.29632568359375
1772561957539991600,7.140991455078125,0.2029876708984375,0.386260986328125,0.2154083251953125
1772561957550059500,7.1510595703125,0.2325897216796875,0.4121856689453125,0.1381988525390625
1772561957560126500,7.16112646484375,0.093505859375,0.38372802734375,0.03216552734375
1772561957570193700,7.171193603515625,-0.0138397216796875,0.30963134765625,-0.197845458984375
1772561957580261000,7.18126123046875,-0.07330322265625,0.2749481201171875,-0.4424591064453125
1772561957590328000,7.191328125,-0.2008056640625,0.411773681640625,-0.450347900390625
1772561957600395000,7.20139501953125,-0.3971405029296875,0.513153076171875,-0.22198486328125
1772561957610463000,7.211462890625,-0.5890045166015625,0.5903778076171875,-0.0199737548828125
1772561957620530000,7.221530029296875,-0.762451171875,0.68011474609375,0.0312652587890625
1772561957630596900,7.231596923828125,-0.9298095703125,0.6685791015625,0.027191162109375
1772561957640664000,7.2416640625,-1.1129150390625,0.618682861328125,0.045562744140625
1772561957650731000,7.25173095703125,-1.2239990234375,0.5489349365234375,0.0714874267578125
1772561957660798000,7.2617978515625,-1.107147216796875,0.39044189453125,0.084320068359375
1772561957670866000,7.271865966796875,-0.8038330078125,0.0653076171875,0.0108795166015625
1772561957680933000,7.28193310546875,-0.6158294677734375,-0.1862640380859375,-0.130035400390625
1772561957691000000,7.292,-0.6201171875,-0.275970458984375,-0.163116455078125
1772561957701067000,7.30206689453125,-0.6925811767578125,-0.32562255859375,-0.0265350341796875
1772561957711134000,7.312134033203125,-0.762939453125,-0.4380645751953125,0.184539794921875
1772561957721202000,7.322201904296875,-0.7296905517578125,-0.6473236083984375,0.340423583984375
1772561957731268900,7.332268798828125,-0.6217498779296875,-0.831878662109375,0.359466552734375
1772561957741336000,7.342336181640625,-0.5911712646484375,-0.900177001953125,0.27337646484375
1772561957751403000,7.352403076171875,-0.7884979248046875,-0.91229248046875,0.1531219482421875
1772561957761470000,7.362469970703125,-1.1966400146484375,-0.9121856689453125,0.0859222412109375
1772561957771537200,7.372537109375,-1.775421142578125,-0.922760009765625,0.0817108154296875
1772561957781605000,7.382605224609375,-2.343658447265625,-0.9783782958984375,-0.022491455078125
1772561957791672000,7.392672119140625,-2.8672027587890625,-1.07135009765625,-0.0858306884765625
1772561957801739000,7.402739013671875,-3.2682952880859375,-1.2219696044921875,0.0474700927734375
1772561957811806000,7.412805908203125,-3.34014892578125,-1.3862762451171875,0.188201904296875
1772561957821873000,7.422872802734375,-3.05194091796875,-1.2493133544921875,0.0823211669921875
1772561957831939800,7.43293994140625,-3.354034423828125,-0.76849365234375,-0.151214599609375
1772561957842007800,7.4430078125,-4.445709228515625,-0.3082427978515625,0.0628204345703125
1772561957852075000,7.453074951171875,-4.7137451171875,0.166107177734375,0.3966064453125
1772561957862142200,7.46314208984375,-4.32568359375,0.5588531494140625,0.587554931640625
1772561957872209200,7.473209228515625,-3.9901275634765625,0.544342041015625,0.61981201171875
1772561957882276000,7.483276123046875,-3.73095703125,0.59918212890625,0.4330902099609375
1772561957892343000,7.493343017578125,-3.3550872802734375,0.66693115234375,0.1341400146484375
1772561957902411000,7.503410888671875,-2.7249908447265625,0.5279998779296875,-0.1644439697265625
1772561957912478000,7.51347802734375,-1.997833251953125,0.3114166259765625,-0.3498077392578125
1772561957922545000,7.523544921875,-1.469635009765625,0.1186676025390625,-0.398590087890625
1772561957932611800,7.53361181640625,-1.1646881103515625,-0.0139007568359375,-0.39434814453125
1772561957942679000,7.543678955078125,-1.079437255859375,-0.0730743408203125,-0.39404296875
1772561957952746000,7.55374609375,-1.1408233642578125,-0.035888671875,-0.376983642578125
1772561957962814200,7.563814208984375,-1.1645660400390625,0.00262451171875,-0.42938232421875
1772561957972881200,7.573881103515625,-1.162994384765625,0.05426025390625,-0.508270263671875
1772561957982948000,7.583947998046875,-1.2121124267578125,0.1429901123046875,-0.5223388671875
1772561957993015000,7.59401513671875,-1.2620086669921875,0.2607421875,-0.382537841796875
1772561958003082000,7.60408203125,-1.1409454345703125,0.2818756103515625,-0.182037353515625
1772561958013149000,7.61414892578125,-0.9776153564453125,0.231353759765625,-0.0630340576171875
1772561958023217000,7.624216796875,-0.7841949462890625,0.1288299560546875,-0.0833587646484375
1772561958033283800,7.634283935546875,-0.550537109375,-0.0387420654296875,-0.1750640869140625
1772561958043351000,7.64435107421875,-0.329315185546875,-0.161590576171875,-0.22357177734375
1772561958053418000,7.65441796875,-0.169219970703125,-0.2129364013671875,-0.19561767578125
1772561958063485000,7.66448486328125,-0.04193115234375,-0.1960296630859375,-0.0818023681640625
1772561958073552000,7.6745517578125,0.104583740234375,-0.1722412109375,0.0429534912109375
1772561958083620000,7.6846201171875,0.1862335205078125,-0.1682281494140625,0.13232421875
1772561958093687000,7.69468701171875,0.164886474609375,-0.1985321044921875,0.142303466796875
1772561958103754000,7.70475390625,0.0721435546875,-0.229644775390625,0.0784149169921875
1772561958113821000,7.714821044921875,-0.0469207763671875,-0.20330810546875,0.00927734375
1772561958123888000,7.72488818359375,-0.1388397216796875,-0.1198883056640625,-0.0223541259765625
1772561958133955800,7.734955810546875,-0.174346923828125,-0.0303497314453125,-0.0239410400390625
1772561958144023000,7.74502294921875,-0.116302490234375,-0.0008544921875,-0.0107879638671875
1772561958154090000,7.755090087890625,-0.00921630859375,0.007965087890625,-0.0049896240234375
1772561958164157000,7.765156982421875,0.0947723388671875,0.0277557373046875,-0.0146484375
1772561958174224000,7.775223876953125,0.2025146484375,-0.0124969482421875,-0.06463623046875
1772561958184290800,7.785290771484375,0.22308349609375,-0.01434326171875,-0.1369171142578125
1772561958194359000,7.795359130859375,0.1289215087890625,0.060577392578125,-0.1253662109375
1772561958204426000,7.805426025390625,0.0686798095703125,0.1434326171875,0.038604736328125
1772561958214493000,7.815492919921875,0.0654296875,0.1505889892578125,0.1802825927734375
1772561958224560000,7.82556005859375,-0.0016326904296875,0.1140594482421875,0.1652679443359375
1772561958234627000,7.835626953125,-0.050628662109375,0.0429840087890625,0.051300048828125
1772561958244694000,7.845694091796875,-0.0452117919921875,-0.05535888671875,-0.0312957763671875
1772561958254762000,7.855761962890625,-0.010223388671875,-0.1635589599609375,-0.0544891357421875
1772561958264829000,7.865828857421875,0.056915283203125,-0.2501983642578125,-0.0695037841796875
1772561958274896000,7.875895751953125,0.1385040283203125,-0.3198699951171875,-0.066253662109375
1772561958284962800,7.885962890625,0.207550048828125,-0.3997344970703125,-0.0331268310546875
1772561958295029800,7.89602978515625,0.289581298828125,-0.499786376953125,-0.0277099609375
1772561958305097200,7.90609716796875,0.2966461181640625,-0.603363037109375,-0.076446533203125
1772561958315165000,7.9161650390625,0.2316436767578125,-0.7225799560546875,-0.14984130859375
1772561958325232000,7.926232177734375,0.2107086181640625,-0.84765625,-0.189544677734375
1772561958335299000,7.936299072265625,0.1717529296875,-1.0069427490234375,-0.2089996337890625
1772561958345366000,7.946365966796875,0.0375213623046875,-1.1039886474609375,-0.19952392578125
1772561958355433000,7.956432861328125,-0.067230224609375,-1.1663818359375,-0.1170501708984375
1772561958365500000,7.9665,-0.202117919921875,-1.26824951171875,-0.0366363525390625
1772561958375568000,7.97656787109375,-0.4459381103515625,-1.389984130859375,-0.0589599609375
1772561958385634800,7.986634765625,-0.9443817138671875,-1.47412109375,-0.0787200927734375
1772561958395701800,7.99670166015625,-1.531036376953125,-1.586639404296875,-0.0174407958984375
1772561958405769200,8.006769287109375,-1.9965057373046875,-1.730682373046875,-0.08331298828125
1772561958415836200,8.016836181640626,-2.4335784912109375,-1.74359130859375,-0.433990478515625
1772561958425903000,8.026903076171875,-3.317535400390625,-1.6527862548828125,-0.757049560546875
1772561958435971000,8.03697119140625,-4.2981719970703125,-1.5251922607421875,-0.8213348388671875
1772561958446038000,8.0470380859375,-5.1956329345703125,-1.3559417724609375,-0.6402435302734375
1772561958456105000,8.05710498046875,-5.52081298828125,-1.1957550048828125,-0.3246307373046875
1772561958466172000,8.067171875,-5.3609466552734375,-1.1032257080078125,-0.0676727294921875
1772561958476238800,8.07723876953125,-5.2767486572265625,-0.92266845703125,0.193939208984375
1772561958486306000,8.08730615234375,-5.1769256591796875,-0.6415863037109375,0.4026641845703125
1772561958496374000,8.0973740234375,-5.0478515625,-0.3949127197265625,0.429901123046875
1772561958506441000,8.10744091796875,-4.6945343017578125,-0.2659454345703125,0.2151947021484375
1772561958516508200,8.117508056640625,-4.1838531494140625,-0.2422332763671875,0.0139923095703125
1772561958526575000,8.1275751953125,-3.5611419677734375,-0.2445220947265625,-0.041168212890625
1772561958536642000,8.13764208984375,-2.807281494140625,-0.2552032470703125,-0.0761871337890625
1772561958546709000,8.147708984375,-1.818450927734375,-0.1427154541015625,-0.10540771484375
1772561958556777000,8.15777685546875,-0.741363525390625,-0.0195465087890625,-0.013427734375
1772561958566844000,8.167843994140625,0.038299560546875,0.1054840087890625,0.185638427734375
1772561958576910000,8.17791015625,0.4253082275390625,0.2896270751953125,0.4306640625
1772561958586977000,8.18797705078125,0.574249267578125,0.4939727783203125,0.6318817138671875
1772561958597044200,8.198044189453125,0.6920166015625,0.597015380859375,0.59991455078125
1772561958607111200,8.208111083984376,0.79534912109375,0.6519775390625,0.4012298583984375
1772561958617179100,8.21817919921875,0.7931365966796875,0.668670654296875,0.2541351318359375
1772561958627246000,8.22824609375,0.78851318359375,0.548248291015625,0.119415283203125
1772561958637313000,8.23831298828125,0.8032989501953125,0.433868408203125,-0.058929443359375
1772561958647380200,8.248380126953125,0.8091278076171875,0.3198394775390625,-0.237091064453125
1772561958657447200,8.258447265625,0.8294525146484375,0.22607421875,-0.3688201904296875
1772561958667515100,8.26851513671875,0.8249053955078125,0.3006744384765625,-0.4083404541015625
1772561958677582000,8.27858203125,0.9365081787109375,0.3743743896484375,-0.3523406982421875
1772561958687649000,8.28864892578125,1.040313720703125,0.4151611328125,-0.1688690185546875
1772561958697716200,8.29871630859375,1.01934814453125,0.343505859375,0.01922607421875
1772561958707783200,8.308783203125,1.0305023193359375,0.265411376953125,0.070892333984375
1772561958717850000,8.31885009765625,1.0699462890625,0.19183349609375,0.060516357421875
1772561958727918000,8.32891796875,1.16009521484375,0.0160064697265625,0.008514404296875
1772561958737985000,8.338985107421875,1.288238525390625,-0.0528411865234375,0.0245361328125
1772561958748052200,8.34905224609375,1.342803955078125,0.00628662109375,0.1463165283203125
1772561958758119200,8.359119140625,1.2636260986328125,0.089141845703125,0.351226806640625
1772561958768186000,8.36918603515625,1.1179656982421875,0.191741943359375,0.5223388671875
1772561958778253000,8.379253173828126,0.925933837890625,0.2834625244140625,0.6071014404296875
1772561958788321000,8.389321044921875,0.758270263671875,0.2903594970703125,0.5914306640625
1772561958798388000,8.399387939453124,0.6152801513671875,0.29974365234375,0.41973876953125
1772561958808455200,8.409455078125,0.3584747314453125,0.3315277099609375,0.1721954345703125
1772561958818522000,8.419522216796874,0.0225372314453125,0.2964935302734375,-0.0559844970703125
1772561958828589300,8.42958935546875,-0.1522064208984375,0.3042755126953125,-0.3103179931640625
1772561958838656300,8.43965625,-0.4377899169921875,0.47662353515625,-0.449249267578125
1772561958848724200,8.44972412109375,-0.881866455078125,0.6534576416015625,-0.44482421875
1772561958858791200,8.459791259765625,-1.2489166259765625,0.727386474609375,-0.429962158203125
1772561958868858000,8.469858154296874,-1.4344940185546875,0.6732635498046875,-0.4575653076171875
1772561958878925000,8.479925048828125,-1.3699493408203125,0.5348052978515625,-0.471038818359375
1772561958888992000,8.489991943359374,-1.1412353515625,0.371002197265625,-0.4202117919921875
1772561958899059000,8.500058837890625,-1.0336151123046875,0.246368408203125,-0.277191162109375
1772561958909127200,8.510127197265625,-1.085845947265625,0.143310546875,-0.1156463623046875
1772561958919194000,8.520194091796874,-1.1176910400390625,-0.086700439453125,0.0183258056640625
1772561958929261300,8.53026123046875,-0.9704132080078125,-0.4310302734375,0.099151611328125
1772561958939328300,8.540328369140624,-0.6986236572265625,-0.73406982421875,0.1429595947265625
1772561958949395200,8.550395263671875,-0.54052734375,-0.9368438720703125,0.18878173828125
1772561958959462100,8.560462158203125,-0.534088134765625,-1.099945068359375,0.21142578125
1772561958969530000,8.570530029296876,-0.6396636962890625,-1.2927398681640625,0.1266937255859375
1772561958979597000,8.58059716796875,-1.086181640625,-1.4805145263671875,-0.05010986328125
1772561958989664000,8.5906640625,-2.14044189453125,-1.5206451416015625,-0.2342071533203125
1772561958999731000,8.60073095703125,-3.4594268798828125,-1.4779815673828125,-0.3957061767578125
1772561959009798100,8.610798095703124,-4.4459686279296875,-1.417449951171875,-0.485595703125
1772561959019865000,8.620864990234375,-4.8025665283203125,-1.3101959228515625,-0.3880157470703125
1772561959029933300,8.630933349609375,-4.8427276611328125,-1.1737060546875,-0.087188720703125
1772561959040000300,8.641000244140624,-4.5702056884765625,-1.1134185791015625,0.193878173828125
1772561959050067200,8.651067138671875,-3.985595703125,-0.862457275390625,-0.0295562744140625
1772561959060134100,8.661134033203124,-5.1380462646484375,-0.454803466796875,0.160858154296875
1772561959070201000,8.671201171875,-6.224945068359375,0.02923583984375,0.6220245361328125
1772561959080268000,8.68126806640625,-6.0845489501953125,0.7801361083984375,0.6907958984375
1772561959090336000,8.6913359375,-6.2545013427734375,1.1826629638671875,0.4529876708984375
1772561959100403000,8.70140283203125,-6.089874267578125,1.3612518310546875,-0.4013519287109375
1772561959110470100,8.71147021484375,-5.351531982421875,1.632354736328125,-1.3941650390625
1772561959120537000,8.721537109375,-4.4193115234375,1.87353515625,-1.7978668212890625
1772561959130604000,8.73160400390625,-3.293182373046875,1.93426513671875,-1.303070068359375
1772561959140671000,8.7416708984375,-2.0082855224609375,1.6468048095703125,-0.3262939453125
1772561959150739200,8.7517392578125,-0.757110595703125,1.352081298828125,0.127288818359375
1772561959160806100,8.76180615234375,0.2621002197265625,1.1170196533203125,-0.037994384765625
1772561959170873000,8.771873046875,0.67584228515625,0.941650390625,-0.26898193359375
1772561959180940000,8.78193994140625,0.65020751953125,0.8153839111328125,-0.3685760498046875
1772561959191007200,8.79200732421875,0.641845703125,0.5904388427734375,-0.396026611328125
1772561959201074200,8.80207421875,0.71484375,0.3959808349609375,-0.4673004150390625
1772561959211142100,8.81214208984375,0.707427978515625,0.3758544921875,-0.527557373046875
1772561959221209000,8.822208984375,0.6920013427734375,0.3607177734375,-0.459320068359375
1772561959231276000,8.832276123046874,0.6916961669921875,0.2847137451171875,-0.3043060302734375
1772561959241343000,8.842343017578125,0.5910491943359375,0.246734619140625,-0.229217529296875
1772561959251410000,8.852409912109374,0.29949951171875,0.269927978515625,-0.2308349609375
1772561959261478100,8.86247802734375,0.1227569580078125,0.197296142578125,-0.1889801025390625
1772561959271545000,8.872545166015625,0.3414459228515625,0.1020660400390625,-0.108123779296875
1772561959281612000,8.882612060546874,0.747772216796875,0.0666046142578125,-0.034515380859375
1772561959291679200,8.89267919921875,1.0435638427734375,-0.00445556640625,-0.006378173828125
1772561959301746200,8.90274609375,1.1867218017578125,-0.1042938232421875,-0.063385009765625
1772561959311813000,8.912813232421875,1.1905364990234375,-0.167999267578125,-0.112335205078125
1772561959321880000,8.922880126953125,1.053741455078125,-0.157562255859375,-0.11474609375
1772561959331948000,8.932947998046876,0.797943115234375,-0.0821075439453125,-0.0576171875
1772561959342015000,8.943014892578125,0.5211639404296875,-0.0454254150390625,0.025054931640625
1772561959352082000,8.95308203125,0.3652496337890625,-0.02520751953125,0.023345947265625
1772561959362149000,8.963149169921875,0.368072509765625,0.0442657470703125,-0.0774993896484375
1772561959372216300,8.97321630859375,0.3902740478515625,0.0866546630859375,-0.145263671875
1772561959382284300,8.9832841796875,0.3777313232421875,0.1103515625,-0.208038330078125
1772561959392351200,8.993351318359375,0.2356719970703125,0.2055816650390625,-0.277191162109375
1772561959402418200,9.003418212890624,0.012237548828125,0.25640869140625,-0.3030853271484375
1772561959412485000,9.013485107421875,-0.1181640625,0.344573974609375,-0.2803497314453125
1772561959422552000,9.023552001953124,-0.1121978759765625,0.4336395263671875,-0.244598388671875
1772561959432619000,9.033618896484375,-0.063446044921875,0.4739227294921875,-0.17742919921875
1772561959442687000,9.04368701171875,-0.002044677734375,0.4565887451171875,-0.124053955078125
1772561959452754000,9.05375390625,0.025238037109375,0.3702545166015625,-0.149200439453125
1772561959462821000,9.063821044921875,-0.0333709716796875,0.3059844970703125,-0.206573486328125
1772561959472888300,9.073888427734374,-0.16986083984375,0.2684783935546875,-0.2090911865234375
1772561959482955300,9.083955322265625,-0.320770263671875,0.1968994140625,-0.1734771728515625
1772561959493022200,9.094022216796875,-0.49053955078125,0.082794189453125,-0.0823516845703125
1772561959503090200,9.104090087890626,-0.5731201171875,-0.054779052734375,0.051971435546875
1772561959513157000,9.1141572265625,-0.5246734619140625,-0.22174072265625,0.1706390380859375
1772561959523224000,9.12422412109375,-0.4434356689453125,-0.424102783203125,0.2674102783203125
1772561959533291000,9.134291015625,-0.3819732666015625,-0.6731719970703125,0.3203887939453125
1772561959543359000,9.14435888671875,-0.35101318359375,-0.9467926025390625,0.35565185546875
1772561959553426000,9.154426025390626,-0.34912109375,-1.1597747802734375,0.450531005859375
1772561959563493000,9.1644931640625,-0.41766357421875,-1.2687530517578125,0.6020355224609375
1772561959573560600,9.174560546875,-0.7140655517578125,-1.327911376953125,0.73455810546875
1772561959583627500,9.18462744140625,-1.23516845703125,-1.392578125,0.746551513671875
1772561959593694500,9.194694580078124,-1.7912139892578125,-1.4661102294921875,0.648773193359375
1772561959603762400,9.204762451171876,-2.120391845703125,-1.6803436279296875,0.5115509033203125
1772561959613829400,9.214829345703125,-2.26531982421875,-1.81524658203125,0.243682861328125
1772561959623896600,9.224896484375,-2.5520782470703125,-1.6728057861328125,-0.1289215087890625
1772561959633963500,9.234963623046875,-3.25604248046875,-1.3307342529296875,-0.3240509033203125
1772561959644030500,9.245030517578124,-4.2829132080078125,-0.965972900390625,-0.1596527099609375
1772561959654097700,9.25509765625,-5.0218963623046875,-0.5740814208984375,0.4096221923828125
1772561959664165400,9.265165283203125,-4.76251220703125,-0.2610626220703125,0.95257568359375
1772561959674232600,9.275232666015626,-4.364837646484375,-0.101593017578125,0.973358154296875
1772561959684299500,9.285299560546875,-4.535003662109375,0.08642578125,0.5532684326171875
1772561959694366500,9.295366455078126,-4.3658599853515625,0.1280975341796875,-0.0345306396484375
1772561959704433400,9.305433349609375,-3.558074951171875,0.0578155517578125,-0.524383544921875
1772561959714500400,9.315500244140624,-2.7114105224609375,0.0015411376953125,-0.4547271728515625
1772561959724568600,9.325568603515626,-1.8986053466796875,-0.226470947265625,0.1422271728515625
1772561959734635500,9.335635498046875,-1.2489776611328125,-0.304046630859375,0.4283905029296875
1772561959744702500,9.345702392578126,-1.118865966796875,-0.1699066162109375,0.2248382568359375
1772561959754769700,9.355769775390625,-1.2886810302734375,-0.1164703369140625,-0.0318145751953125
1772561959764836600,9.365836669921874,-1.2603759765625,-0.1202545166015625,-0.0725860595703125
1772561959774904600,9.375904541015625,-0.929107666015625,-0.0834197998046875,0.138519287109375
1772561959784971500,9.385971435546875,-0.5455169677734375,-0.03436279296875,0.425262451171875
1772561959795038500,9.39603857421875,-0.357147216796875,0.00921630859375,0.5330047607421875
1772561959805105400,9.40610546875,-0.389984130859375,0.0366058349609375,0.45416259765625
1772561959815172400,9.41617236328125,-0.525604248046875,0.00018310546875,0.2873382568359375
1772561959825239300,9.4262392578125,-0.558990478515625,0.0089569091796875,0.1907958984375
1772561959835307500,9.4363076171875,-0.3966064453125,0.0087127685546875,0.200439453125
1772561959845374500,9.44637451171875,-0.1169281005859375,-0.0528411865234375,0.2231597900390625
1772561959855441700,9.456441650390625,0.1740875244140625,-0.0931396484375,0.1421356201171875
1772561959865508600,9.466508544921876,0.394195556640625,-0.127685546875,0.0133514404296875
1772561959875575600,9.476575439453125,0.5469818115234375,-0.1598663330078125,-0.035369873046875
1772561959885642500,9.486642578125,0.6844482421875,-0.133392333984375,-0.0685272216796875
1772561959895710500,9.49671044921875,0.83502197265625,-0.1241912841796875,-0.1212615966796875
1772561959905777400,9.50677734375,0.9073486328125,-0.2120819091796875,-0.1224365234375
1772561959915844400,9.51684423828125,0.890594482421875,-0.2748870849609375,-0.1503143310546875
1772561959925911600,9.52691162109375,0.816009521484375,-0.268280029296875,-0.2325439453125
1772561959935978500,9.536978515625,0.694061279296875,-0.216094970703125,-0.25372314453125
1772561959946045400,9.54704541015625,0.5700836181640625,-0.1912841796875,-0.2068634033203125
1772561959956113700,9.55711376953125,0.4243011474609375,-0.1629791259765625,-0.180999755859375
1772561959966180600,9.5671806640625,0.1374969482421875,-0.106231689453125,-0.18255615234375
1772561959976247600,9.57724755859375,-0.0504913330078125,-0.061767578125,-0.19659423828125
1772561959986314500,9.587314453125,-0.1618499755859375,-0.003509521484375,-0.15087890625
1772561959996381400,9.59738134765625,-0.187042236328125,0.0135498046875,-0.0962677001953125
1772561960006448400,9.607448486328124,-0.1386260986328125,0.01068115234375,-0.0423126220703125
1772561960016516400,9.617516357421875,-0.0531158447265625,0.03448486328125,0.01739501953125
1772561960026583600,9.62758349609375,-0.036529541015625,0.0754547119140625,0.0879058837890625
1772561960036650500,9.637650390625,-0.1397857666015625,0.1393280029296875,0.1817169189453125
1772561960046717400,9.647717529296875,-0.2969512939453125,0.1650238037109375,0.243408203125
1772561960056784400,9.657784423828126,-0.4678802490234375,0.1656494140625,0.2489013671875
1772561960066851300,9.667851318359375,-0.5552825927734375,0.16748046875,0.238616943359375
1772561960076919600,9.67791943359375,-0.5089263916015625,0.134490966796875,0.17449951171875
1772561960086986500,9.687986572265626,-0.45123291015625,0.0261077880859375,0.020751953125
1772561960097053400,9.698053466796875,-0.4213104248046875,-0.0723724365234375,-0.08258056640625
1772561960107120600,9.70812060546875,-0.432342529296875,-0.164520263671875,-0.11102294921875
1772561960117187600,9.7181875,-0.5377655029296875,-0.2175140380859375,-0.058807373046875
1772561960127254500,9.728254638671874,-0.8077392578125,-0.2636566162109375,0.0303497314453125
1772561960137322500,9.738322509765625,-1.2399444580078125,-0.371429443359375,0.0474090576171875
1772561960147389400,9.748389404296875,-1.6980743408203125,-0.441192626953125,-0.1348724365234375
1772561960157456400,9.758456298828126,-2.3898162841796875,-0.6041259765625,-0.6024017333984375
1772561960167523300,9.7685234375,-2.6121673583984375,-1.0637969970703125,-1.019500732421875
1772561960177590500,9.778590576171876,-1.6848297119140625,-1.3619232177734375,-0.6342620849609375
1772561960187657500,9.788657470703125,-1.1899261474609375,-1.0723419189453125,-0.37554931640625
1772561960197725400,9.798725341796874,-1.0693817138671875,-0.6943511962890625,-0.3111114501953125
1772561960207792600,9.808792724609376,-1.351104736328125,-0.339019775390625,-0.1337432861328125
1772561960217859600,9.818859619140625,-1.68023681640625,-0.1274566650390625,0.088592529296875
1772561960227926500,9.828926513671876,-2.054718017578125,-0.029693603515625,0.2229156494140625
1772561960237993500,9.838993408203125,-2.420013427734375,0.164215087890625,0.272796630859375
1772561960248060400,9.849060302734374,-2.5304412841796875,0.2822113037109375,0.298126220703125
1772561960258128400,9.85912841796875,-2.4232025146484375,0.3016815185546875,0.1845703125
1772561960268195300,9.8691953125,-2.525146484375,0.374542236328125,0.0096435546875
1772561960278262300,9.87926220703125,-2.7188568115234375,0.300994873046875,-0.00732421875
1772561960288329700,9.889329833984375,-2.3361053466796875,0.1458587646484375,-0.0386810302734375
1772561960298396700,9.899396728515624,-1.92120361328125,0.000885009765625,-0.0025787353515625
1772561960308463600,9.909463623046875,-1.6085052490234375,-0.0700531005859375,0.0438385009765625
1772561960318531600,9.919531494140625,-1.355865478515625,-0.0686492919921875,0.0496368408203125
1772561960328598500,9.9295986328125,-1.1103973388671875,-0.130706787109375,0.086517333984375
1772561960338665500,9.93966552734375,-0.98565673828125,-0.174591064453125,0.1067352294921875
1772561960348732400,9.949732421875,-1.0123291015625,-0.1588897705078125,0.024017333984375
1772561960358799400,9.95979931640625,-1.0273590087890625,-0.1306304931640625,0.058135986328125
1772561960368867300,9.969867431640624,-1.0560455322265625,-0.0672607421875,0.000152587890625
1772561960378934300,9.979934326171875,-1.105865478515625,-0.01800537109375,0.0019989013671875
1772561960389001700,9.990001708984375,-1.13848876953125,-0.0032806396484375,0.0377197265625
1772561960399068700,10.000068603515626,-1.1139068603515625,-0.0060272216796875,0.026275634765625
1772561960409135600,10.010135498046875,-1.0438385009765625,-0.009674072265625,0.0041961669921875
1772561960419202600,10.02020263671875,-0.921661376953125,-0.0040740966796875,0.0171966552734375
1772561960429269500,10.03026953125,-0.7929840087890625,0.0014801025390625,0.050323486328125
1772561960439337500,10.04033740234375,-0.7029876708984375,-0.0119171142578125,0.05926513671875
1772561960449404400,10.050404296875,-0.638824462890625,-0.0186920166015625,0.0173797607421875
1772561960459471400,10.060471435546875,-0.6103515625,0.006561279296875,-0.027496337890625
1772561960469538600,10.07053857421875,-0.6541748046875,0.048614501953125,-0.0345916748046875
1772561960479605500,10.08060546875,-0.7320404052734375,0.071807861328125,-0.00982666015625
1772561960489673500,10.090673583984374,-0.8139190673828125,0.05096435546875,0.0235748291015625
1772561960499740700,10.10074072265625,-0.9430694580078125,0.0396575927734375,0.0381927490234375
1772561960509807600,10.1108076171875,-0.9476776123046875,0.0485992431640625,0.0897674560546875
1772561960519874600,10.12087451171875,-0.8170928955078125,0.0056915283203125,0.140106201171875
1772561960529941500,10.13094140625,-0.9055633544921875,-0.058349609375,0.13116455078125
1772561960540008400,10.141008544921876,-1.003509521484375,-0.1103973388671875,0.127166748046875
1772561960550076400,10.151076416015625,-0.9962158203125,-0.1498870849609375,0.1177825927734375
1772561960560143400,10.161143310546874,-1.0136871337890625,-0.1392822265625,0.1219024658203125
1772561960570210600,10.17121044921875,-1.0913238525390625,-0.075531005859375,0.152679443359375
1772561960580277500,10.181277587890625,-1.034423828125,0.03570556640625,0.2054595947265625
1772561960590344400,10.191344482421876,-0.846099853515625,0.026397705078125,0.2280426025390625
1772561960600411400,10.201411376953125,-0.628662109375,-0.06842041015625,0.2363739013671875
1772561960610479400,10.211479248046874,-0.60736083984375,-0.109375,0.3369140625
1772561960620546300,10.22154638671875,-0.7725372314453125,-0.0942840576171875,0.43780517578125
1772561960630613200,10.23161328125,-0.9295806884765625,-0.0483245849609375,0.444061279296875
1772561960640680200,10.24168017578125,-1.0257568359375,0.0044708251953125,0.3765106201171875
1772561960650747400,10.251747314453125,-1.068511962890625,0.018218994140625,0.306488037109375
1772561960660814600,10.261814697265624,-1.1072235107421875,0.0052947998046875,0.2486419677734375
1772561960670882600,10.271882568359375,-1.136474609375,0.0120697021484375,0.2086639404296875
1772561960680949500,10.281949462890625,-1.1568603515625,-0.008514404296875,0.15081787109375
1772561960691016400,10.292016357421875,-1.178253173828125,-0.0373687744140625,0.079498291015625
1772561960701083400,10.30208349609375,-1.19720458984375,-0.0364990234375,0.0199127197265625
1772561960711150300,10.312150390625,-1.198760986328125,-0.0421295166015625,-0.0373382568359375
1772561960721217300,10.32221728515625,-1.18658447265625,-0.0388336181640625,-0.0874481201171875
1772561960731285200,10.33228515625,-1.1910552978515625,-0.0125274658203125,-0.099365234375
1772561960741352200,10.342352294921875,-1.1881561279296875,0.012603759765625,-0.0683746337890625
1772561960751419400,10.35241943359375,-1.1536102294921875,0.0159454345703125,-0.030975341796875
1772561960761486300,10.362486328125,-1.133636474609375,-0.002105712890625,0.0022735595703125
1772561960771553500,10.372553466796875,-1.1088104248046875,-0.0316009521484375,0.0277862548828125
1772561960781620500,10.382620361328126,-1.07861328125,-0.0601654052734375,0.0275115966796875
1772561960791688400,10.3926884765625,-1.0490570068359375,-0.0762481689453125,0.02154541015625
1772561960801755400,10.40275537109375,-1.00592041015625,-0.09210205078125,0.00579833984375
1772561960811822300,10.412822265625,-0.9520263671875,-0.1231842041015625,-0.0233612060546875
1772561960821889300,10.42288916015625,-0.908477783203125,-0.1497344970703125,-0.047027587890625
1772561960831956500,10.43295654296875,-0.86572265625,-0.1609344482421875,-0.0539093017578125
1772561960842023400,10.4430234375,-0.8109588623046875,-0.1696929931640625,-0.0520477294921875
1772561960852091400,10.45309130859375,-0.7659912109375,-0.1829681396484375,-0.0588836669921875
1772561960862158300,10.463158447265625,-0.7494049072265625,-0.2010040283203125,-0.07147216796875
1772561960872225500,10.4732255859375,-0.7563018798828125,-0.2015838623046875,-0.0664520263671875
1772561960882292500,10.48329248046875,-0.7871246337890625,-0.1911163330078125,-0.0532989501953125
1772561960892359400,10.493359375,-0.8288726806640625,-0.185516357421875,-0.03656005859375
1772561960902426400,10.50342626953125,-0.8681488037109375,-0.184722900390625,-0.0270843505859375
1772561960912494300,10.513494384765625,-0.90496826171875,-0.1943511962890625,-0.0173492431640625
1772561960922561300,10.523561279296874,-0.9375152587890625,-0.198577880859375,0.003631591796875
1772561960932628500,10.53362841796875,-0.969024658203125,-0.19390869140625,0.02569580078125
1772561960942695400,10.5436953125,-1.0009765625,-0.201019287109375,0.0338287353515625
1772561960952762400,10.553762451171876,-1.029144287109375,-0.2159881591796875,0.037384033203125
1772561960962830300,10.563830322265625,-1.0341644287109375,-0.2197265625,0.0488128662109375
1772561960972897300,10.573897216796874,-1.0203704833984375,-0.22637939453125,0.0697174072265625
1772561960982964500,10.583964599609375,-1.0101165771484375,-0.2358245849609375,0.1065826416015625
1772561960993031400,10.594031494140625,-1.0039825439453125,-0.2393341064453125,0.1535186767578125
1772561961003098400,10.604098388671876,-1.0003662109375,-0.2344970703125,0.194732666015625
1772561961013165600,10.61416552734375,-0.996337890625,-0.23492431640625,0.2115325927734375
1772561961023233500,10.624233642578124,-0.9852142333984375,-0.2318878173828125,0.2149658203125
1772561961033300500,10.634300537109375,-0.962005615234375,-0.2169036865234375,0.2111053466796875
1772561961043367400,10.644367431640624,-0.936920166015625,-0.194183349609375,0.2035675048828125
1772561961053434400,10.654434326171875,-0.91339111328125,-0.171875,0.1973876953125
1772561961063501300,10.664501220703125,-0.887054443359375,-0.1588287353515625,0.2010498046875
1772561961073568300,10.674568359375,-0.8689422607421875,-0.1576080322265625,0.21343994140625
1772561961083636500,10.684636474609375,-0.8509063720703125,-0.170013427734375,0.217987060546875
1772561961093703400,10.694703369140624,-0.844085693359375,-0.1916656494140625,0.2209930419921875
1772561961103770400,10.704770263671875,-0.8385009765625,-0.21044921875,0.227203369140625
1772561961113837600,10.714837646484375,-0.8224334716796875,-0.224273681640625,0.235443115234375
1772561961123904500,10.724904541015626,-0.795257568359375,-0.2414398193359375,0.246368408203125
1772561961133971500,10.734971435546875,-0.772308349609375,-0.2689056396484375,0.2511749267578125
1772561961144039400,10.745039306640624,-0.7378387451171875,-0.299224853515625,0.24664306640625
1772561961154106400,10.7551064453125,-0.7145843505859375,-0.322174072265625,0.2252655029296875
1772561961164173300,10.76517333984375,-0.7274627685546875,-0.339202880859375,0.1976776123046875
1772561961174240300,10.775240234375,-0.7593536376953125,-0.34869384765625,0.1583251953125
1772561961184307500,10.785307373046875,-0.786590576171875,-0.34759521484375,0.1123809814453125
1772561961194374400,10.79537451171875,-0.8085784912109375,-0.334320068359375,0.0779876708984375
1772561961204442600,10.805442626953125,-0.8184051513671875,-0.3252105712890625,0.0552520751953125
1772561961214509600,10.815509521484374,-0.825042724609375,-0.327850341796875,0.028411865234375
1772561961224576500,10.825576416015625,-0.83734130859375,-0.3359832763671875,0.006744384765625
1772561961234643500,10.8356435546875,-0.8560943603515625,-0.352447509765625,-0.0117950439453125
1772561961244710400,10.84571044921875,-0.873016357421875,-0.3864898681640625,-0.0305328369140625
1772561961254777300,10.85577734375,-0.8774566650390625,-0.4197235107421875,-0.0326385498046875
1772561961264845300,10.86584521484375,-0.860748291015625,-0.4443511962890625,-0.013275146484375
1772561961274912300,10.875912353515625,-0.828094482421875,-0.4595794677734375,0.0045318603515625
1772561961284979500,10.8859794921875,-0.8019561767578125,-0.4604644775390625,-0.00616455078125
1772561961295046400,10.89604638671875,-0.78155517578125,-0.448883056640625,-0.044769287109375
1772561961305113300,10.90611328125,-0.76025390625,-0.4421844482421875,-0.0808868408203125
1772561961315180300,10.91618017578125,-0.764373779296875,-0.4496307373046875,-0.1012420654296875
1772561961325248500,10.92624853515625,-0.7960357666015625,-0.4599456787109375,-0.094573974609375
1772561961335315500,10.9363154296875,-0.807830810546875,-0.45111083984375,-0.0707244873046875
1772561961345382400,10.94638232421875,-0.8514862060546875,-0.4453277587890625,-0.0592803955078125
1772561961355449300,10.956449462890625,-0.920074462890625,-0.4442596435546875,-0.0729522705078125
1772561961365516500,10.9665166015625,-0.974212646484375,-0.4432830810546875,-0.096771240234375
1772561961375583500,10.97658349609375,-1.008544921875,-0.42633056640625,-0.1094970703125
1772561961385651500,10.9866513671875,-1.0276641845703125,-0.4189910888671875,-0.1140899658203125
