time,seconds_elapsed,z,y,x
1772561950452708000,0.0537080078125,-1.084511637687683,-0.46236950159072876,-0.010928814299404621
1772561950462775300,0.063775390625,-1.0590730905532837,-0.4830545485019684,-0.008106395602226257
1772561950472842200,0.07384228515625,-1.0676192045211792,-0.6785284280776978,-0.09820885956287384
1772561950482910200,0.08391015625,-1.1158416271209717,-0.9172192811965942,-0.23369450867176056
1772561950492977200,0.09397705078125,-1.1564137935638428,-1.0890408754348755,-0.32623031735420227
1772561950503044000,0.104044189453125,-1.0860234498977661,-1.4182621240615845,-0.3713195025920868
1772561950513111000,0.114111083984375,-0.962369441986084,-1.7144501209259033,-0.34516510367393494
1772561950523178000,0.124177978515625,-0.7922888398170471,-1.8573652505874634,-0.36351534724235535
1772561950533245200,0.1342451171875,-0.2602209448814392,-1.6645268201828003,-0.5478561520576477
1772561950543313200,0.144313232421875,0.4234705865383148,-1.095663070678711,-0.8433634638786316
1772561950553380000,0.154380126953125,0.9293206930160522,-0.15939445793628693,-0.9917095303535461
1772561950563447800,0.16444775390625,1.4555612802505493,0.5706421732902527,-0.9538170099258423
1772561950573514800,0.1745146484375,1.828100323677063,0.805683970451355,-0.8281775712966919
1772561950583581700,0.184581787109375,1.8906158208847046,0.5715495347976685,-0.6354424953460693
1772561950593648600,0.194648681640625,1.6924207210540771,-0.1492973417043686,-0.49374714493751526
1772561950603716900,0.204716796875,1.3228116035461426,-0.8570308089256287,-0.4313732385635376
1772561950613783800,0.21478369140625,0.8958724737167358,-1.0524051189422607,-0.3194727897644043
1772561950623850800,0.224850830078125,0.44567573070526123,-0.8966400027275085,-0.18606281280517578
1772561950633917700,0.234917724609375,-0.0062427157536149025,-0.6114764213562012,-0.05631014332175255
1772561950643985000,0.24498486328125,-0.4076647162437439,-0.43702152371406555,0.058277953416109085
1772561950654051800,0.2550517578125,-0.6949843764305115,-0.38331517577171326,0.17138905823230743
1772561950664119800,0.265119873046875,-0.8554270267486572,-0.3891112804412842,0.32046589255332947
1772561950674186800,0.275186767578125,-0.8845082521438599,-0.16115693747997284,0.3639286756515503
1772561950684253700,0.285253662109375,-0.8809462785720825,0.24191755056381226,0.3857535421848297
1772561950694320600,0.295320556640625,-0.8012825846672058,0.5505520701408386,0.33620065450668335
1772561950704387800,0.305387939453125,-0.6342424750328064,0.6459489464759827,0.2983033359050751
1772561950714454800,0.315454833984375,-0.4808600842952728,0.78123539686203,0.24506115913391113
1772561950724522800,0.325522705078125,-0.3040642738342285,0.6895901560783386,0.25684723258018494
1772561950734589700,0.335589599609375,-0.08560092002153397,0.58063143491745,0.37828871607780457
1772561950744657000,0.345656982421875,0.11830107867717743,0.5128377079963684,0.567935049533844
1772561950754723800,0.355723876953125,0.2612907290458679,0.43173331022262573,0.7152203917503357
1772561950764790800,0.365790771484375,0.332306832075119,0.2630089819431305,0.7239704728126526
1772561950774857700,0.375857666015625,0.32717040181159973,0.055147409439086914,0.6533908843994141
1772561950784925700,0.38592578125,0.27853283286094666,0.004563592839986086,0.5728046894073486
1772561950794992600,0.39599267578125,0.2524884343147278,0.12047315388917923,0.5210621356964111
1772561950805059600,0.4060595703125,0.28026068210601807,0.24764814972877502,0.4711073338985443
1772561950815126800,0.416126708984375,0.34835371375083923,0.30399638414382935,0.42642882466316223
1772561950825194000,0.426194091796875,0.4252500832080841,0.23553769290447235,0.3603171706199646
1772561950835261000,0.436260986328125,0.47715243697166443,0.07988684624433517,0.30207836627960205
1772561950845329000,0.446328857421875,0.48854145407676697,-0.09837610274553299,0.2736368775367737
1772561950855395800,0.456395751953125,0.4895593225955963,-0.1282232105731964,0.2511901557445526
1772561950865462800,0.466462890625,0.47452205419540405,0.24704600870609283,0.21783113479614258
1772561950875529700,0.47652978515625,0.4488355815410614,0.5346607565879822,0.17306552827358246
1772561950885596700,0.4865966796875,0.3775467574596405,1.1479742527008057,0.14359179139137268
1772561950895663600,0.49666357421875,0.29868629574775696,1.7009631395339966,0.046606648713350296
1772561950905731600,0.506731689453125,0.21767160296440125,2.0609047412872314,-0.1259949505329132
1772561950915798800,0.516798828125,0.13994751870632172,2.311765193939209,-0.2989526093006134
1772561950925866000,0.526865966796875,0.10332772135734558,2.5479867458343506,-0.4311327636241913
1772561950935933000,0.536932861328125,0.10353012382984161,2.6745264530181885,-0.5554898381233215
1772561950946000000,0.546999755859375,0.0956793874502182,2.605445146560669,-0.6598759293556213
1772561950956066800,0.55706689453125,0.07628411799669266,2.495358467102051,-0.6968278288841248
1772561950966134800,0.567134765625,0.04674886167049408,2.2925565242767334,-0.6931052207946777
1772561950976201700,0.57720166015625,0.016048207879066467,2.0334739685058594,-0.6378254890441895
1772561950986268700,0.5872685546875,-0.001782187377102673,1.74404776096344,-0.5376242995262146
1772561950996335900,0.5973359375,0.0007608651067130268,1.462281584739685,-0.3923448920249939
1772561951006402800,0.60740283203125,0.009676862508058548,1.2559763193130493,-0.2266421914100647
1772561951016469800,0.6174697265625,-0.002293247962370515,1.1016807556152344,-0.08023278415203094
1772561951026538000,0.6275380859375,-0.035228028893470764,0.9859057068824768,0.021741248667240143
1772561951036605000,0.63760498046875,-0.060320597141981125,0.9198068380355835,0.06723203510046005
1772561951046672000,0.647671875,-0.06095869094133377,0.891827404499054,0.07271788269281387
1772561951056738800,0.65773876953125,-0.0273812897503376,0.6999716758728027,0.03482376039028168
1772561951066805800,0.6678056640625,0.09261702001094818,0.400259792804718,-0.04387984052300453
1772561951076872700,0.677872802734375,0.17178134620189667,0.22421152889728546,-0.09755957871675491
1772561951086940700,0.687940673828125,0.1679929941892624,0.14740782976150513,-0.13039742410182953
1772561951097007900,0.6980078125,0.11414121836423874,0.1337231695652008,-0.1180717796087265
1772561951107074800,0.70807470703125,0.05607658624649048,0.13666650652885437,-0.07985781133174896
1772561951117141800,0.718141845703125,0.022960176691412926,0.13207387924194336,-0.04222388565540314
1772561951127208700,0.728208740234375,0.02502891980111599,0.08040402829647064,-0.048415470868349075
1772561951137275600,0.738275634765625,0.05853495001792908,-0.026975424960255623,-0.11957859247922897
1772561951147342600,0.748342529296875,0.09760458767414093,-0.1639425903558731,-0.19729097187519073
1772561951157410800,0.758410888671875,0.09081912040710449,-0.30482274293899536,-0.30704063177108765
1772561951167477800,0.768477783203125,0.061165884137153625,-0.40441539883613586,-0.43601194024086
1772561951177545000,0.778544921875,0.044443897902965546,-0.514362633228302,-0.5663459897041321
1772561951187612000,0.78861181640625,0.04700346291065216,-0.6938858032226562,-0.6254034042358398
1772561951197678800,0.798678955078125,0.035288482904434204,-0.788640558719635,-0.5408917665481567
1772561951207745800,0.808745849609375,0.004062119405716658,-0.7799288034439087,-0.34433606266975403
1772561951217813800,0.818813720703125,-0.0318807028234005,-0.865009605884552,-0.1526063233613968
1772561951227880700,0.828880615234375,0.021705562248826027,-1.065856695175171,-0.051717255264520645
1772561951237947600,0.83894775390625,0.04675339162349701,-1.1824275255203247,-0.06669381260871887
1772561951248014600,0.8490146484375,0.010642523877322674,-1.0424855947494507,-0.04556482285261154
1772561951258081800,0.859081787109375,-0.10154154151678085,-0.8432345390319824,-0.05017155781388283
1772561951268149000,0.86914892578125,-0.26052772998809814,-0.8017094731330872,-0.11922892183065414
1772561951278217000,0.879217041015625,-0.4207451045513153,-0.8496139049530029,-0.21736933290958405
1772561951288284000,0.889283935546875,-0.5547958612442017,-1.0226093530654907,-0.3524893522262573
1772561951298350800,0.899350830078125,-0.6660991907119751,-1.2262115478515625,-0.5019797682762146
1772561951308417800,0.909417724609375,-0.7554146647453308,-1.2996324300765991,-0.5949360728263855
1772561951318484700,0.919484619140625,-0.8024138808250427,-1.3155614137649536,-0.6263158321380615
1772561951328551700,0.9295517578125,-0.8236786723136902,-1.3132723569869995,-0.5948401689529419
1772561951338619600,0.93961962890625,-0.8460034728050232,-1.2553366422653198,-0.4876551628112793
1772561951348686600,0.9496865234375,-0.8809875249862671,-1.2715028524398804,-0.3574715852737427
1772561951358753800,0.95975390625,-0.8883218765258789,-1.484417200088501,-0.2773013710975647
1772561951368820700,0.96982080078125,-0.8461999893188477,-1.7239000797271729,-0.2233542650938034
1772561951378888000,0.979887939453125,-0.7319636940956116,-1.7440499067306519,-0.1643279641866684
1772561951388955000,0.989954833984375,-0.513312041759491,-1.2548469305038452,-0.22144930064678192
1772561951399022800,1.00002294921875,-0.2652343213558197,-1.043187141418457,-0.14476516842842102
1772561951409089800,1.01008984375,-0.14207512140274048,-1.0585911273956299,-0.021077321842312813
1772561951419156700,1.02015673828125,-0.1573542058467865,-1.3297120332717896,0.10404837131500244
1772561951429223700,1.0302236328125,-0.1778663992881775,-1.439294695854187,0.20127053558826447
1772561951439291000,1.040290771484375,-0.1254601925611496,-1.274823784828186,0.3281842768192291
1772561951449357800,1.05035791015625,-0.04399009421467781,-0.9717888236045837,0.49288082122802734
1772561951459425800,1.06042578125,0.03771355748176575,-0.6706968545913696,0.6538984775543213
1772561951469492700,1.07049267578125,0.16213564574718475,-0.44179871678352356,0.7398650050163269
1772561951479560000,1.080559814453125,0.3799166977405548,-0.24786412715911865,0.7407302856445312
1772561951489627000,1.090626953125,0.6893589496612549,-0.0012948289513587952,0.6858925819396973
1772561951499693800,1.10069384765625,1.0296063423156738,0.264872670173645,0.6167052984237671
1772561951509760800,1.1107607421875,1.350360631942749,0.5107133388519287,0.5236924886703491
1772561951519828000,1.120827880859375,1.6543903350830078,0.5545526742935181,0.4575004577636719
1772561951529895700,1.130895751953125,1.7236747741699219,0.6781220436096191,0.5198913812637329
1772561951539963000,1.140962890625,1.4690300226211548,1.351500153541565,0.6941049695014954
1772561951550029800,1.15102978515625,0.8154215812683105,2.364798069000244,0.7838377952575684
1772561951560096800,1.1610966796875,0.10379590094089508,2.4173176288604736,0.804326593875885
1772561951570164200,1.171164306640625,-0.4570029675960541,1.7623660564422607,0.7493985891342163
1772561951580231200,1.181231201171875,-0.7811086177825928,0.8981244564056396,0.8083428740501404
1772561951590299100,1.191299072265625,-0.8984251022338867,0.1534864902496338,1.0109024047851562
1772561951600366000,1.201365966796875,-0.7546780705451965,-0.2819792330265045,1.240391731262207
1772561951610433000,1.21143310546875,-0.3888494670391083,-0.268197625875473,1.267215609550476
1772561951620500000,1.2215,0.19909605383872986,0.07048748433589935,1.052457332611084
1772561951630567200,1.231567138671875,0.969394862651825,0.6768311858177185,0.7081896662712097
1772561951640634000,1.241634033203125,1.6050094366073608,1.4713914394378662,0.3299510180950165
1772561951650702000,1.2517021484375,1.8500444889068604,2.1025772094726562,-0.08280912786722183
1772561951660769300,1.261769287109375,1.745379090309143,2.5033535957336426,-0.5850567817687988
1772561951670836200,1.271836181640625,1.535590410232544,2.6077375411987305,-1.1061750650405884
1772561951680903200,1.281903076171875,1.4459201097488403,2.4197018146514893,-1.4616501331329346
1772561951690970000,1.29197021484375,1.3243322372436523,2.205216646194458,-1.478962779045105
1772561951701037000,1.302037109375,1.045218586921692,1.906402826309204,-0.8254163861274719
1772561951711105000,1.31210498046875,0.49106425046920776,1.3447072505950928,0.7202284932136536
1772561951721172000,1.322171875,-0.13719087839126587,-0.40889614820480347,2.235703706741333
1772561951731239200,1.3322392578125,-0.38508883118629456,-2.770658493041992,3.2343051433563232
1772561951741306000,1.34230615234375,-0.6146700978279114,-4.125481128692627,3.958723783493042
1772561951751373000,1.352373046875,-0.8045963644981384,-4.70637321472168,4.2768120765686035
1772561951761440000,1.36243994140625,-0.68044114112854,-4.938114166259766,4.014945983886719
1772561951771508200,1.37250830078125,-0.4654262661933899,-4.525973320007324,3.054232597351074
1772561951781575200,1.3825751953125,-0.38490399718284607,-3.234546184539795,1.6658421754837036
1772561951791642000,1.39264208984375,-0.30349409580230713,-1.6776952743530273,0.16688965260982513
1772561951801709000,1.402708984375,-0.2152571827173233,-0.3728121817111969,-1.1714808940887451
1772561951811776300,1.4127763671875,-0.23477043211460114,0.5001810789108276,-2.1237525939941406
1772561951821843200,1.42284326171875,-0.20280984044075012,1.0298912525177002,-2.457516670227051
1772561951831911200,1.4329111328125,-0.005899700801819563,1.4431265592575073,-1.9678115844726562
1772561951841978000,1.44297802734375,0.1874585747718811,1.5119266510009766,-0.9208481311798096
1772561951852045000,1.453045166015625,0.20482638478279114,1.0928877592086792,0.1899086833000183
1772561951862112000,1.463112060546875,0.00817936658859253,0.43889400362968445,1.046509861946106
1772561951872179000,1.473178955078125,-0.3777550160884857,-0.20765945315361023,1.4301252365112305
1772561951882246100,1.48324609375,-0.8134180903434753,-0.44715672731399536,1.3290654420852661
1772561951892313000,1.49331298828125,-1.0587178468704224,-0.197738915681839,0.8324729800224304
1772561951902381000,1.503381103515625,-1.0475437641143799,0.2787701189517975,0.03942650184035301
1772561951912448300,1.5134482421875,-0.831456184387207,0.837435781955719,-0.7395864725112915
1772561951922515200,1.52351513671875,-0.625313937664032,1.369803547859192,-1.3739162683486938
1772561951932582100,1.53358203125,-0.44465869665145874,1.9474149942398071,-1.6589021682739258
1772561951942649000,1.543649169921875,-0.3517995774745941,2.260695219039917,-1.6523034572601318
1772561951952716000,1.553716064453125,-0.2627149820327759,2.107050657272339,-1.3989795446395874
1772561951962784000,1.563783935546875,-0.15860135853290558,1.341629981994629,-1.0096526145935059
1772561951972851000,1.573850830078125,-0.06339281797409058,0.17629726231098175,-0.538200855255127
1772561951982918100,1.583918212890625,-0.004309527110308409,-1.0720629692077637,-0.16456657648086548
1772561951992985000,1.593985107421875,-0.005819805897772312,-2.1731224060058594,-0.11904969066381454
1772561952003052300,1.60405224609375,-0.08902707695960999,-3.014695644378662,-0.5484828352928162
1772561952013119200,1.614119140625,-0.17068065702915192,-3.2831625938415527,-1.3663246631622314
1772561952023187200,1.624187255859375,-0.24354581534862518,-2.7230403423309326,-2.290231943130493
1772561952033254100,1.634254150390625,-0.22453217208385468,-1.9746109247207642,-2.9599947929382324
1772561952043321000,1.644321044921875,-0.11616229265928268,-1.5537704229354858,-3.1342153549194336
1772561952053388000,1.654387939453125,0.008216651156544685,-1.163365125656128,-2.878715991973877
1772561952063455200,1.664455322265625,0.014808506704866886,-0.7622368931770325,-2.5142030715942383
1772561952073522200,1.674522216796875,-0.1396031677722931,-0.7409899234771729,-2.2111189365386963
1772561952083590100,1.684590087890625,-0.44099125266075134,-1.0121040344238281,-1.9953644275665283
1772561952093657000,1.694656982421875,-0.8601338863372803,-1.438977599143982,-1.9320833683013916
1772561952103724000,1.70472412109375,-1.3737719058990479,-1.7503207921981812,-2.0190515518188477
1772561952113791200,1.714791259765625,-1.80772864818573,-1.8629109859466553,-2.161073923110962
1772561952123858200,1.724858154296875,-2.023717164993286,-1.7149990797042847,-2.1965396404266357
1772561952133925000,1.734925048828125,-2.0038983821868896,-1.374643325805664,-2.027348518371582
1772561952143993000,1.7449931640625,-1.7941534519195557,-1.112768530845642,-1.6416898965835571
1772561952154060000,1.75506005859375,-1.658333659172058,-0.9598192572593689,-1.0579359531402588
1772561952164127200,1.765127197265625,-1.6599671840667725,-0.7589998245239258,-0.34314829111099243
1772561952174194200,1.775194091796875,-1.7839088439941406,-0.6890300512313843,0.2138204127550125
1772561952184261000,1.78526123046875,-1.8799551725387573,-0.5662665963172913,0.48585858941078186
1772561952194328000,1.795328125,-1.7642790079116821,-0.18746203184127808,0.6600479483604431
1772561952204396000,1.80539599609375,-1.3700793981552124,0.2685166895389557,0.9584562182426453
1772561952214463200,1.815463134765625,-0.8483944535255432,0.7623812556266785,1.4686223268508911
1772561952224530200,1.8255302734375,-0.2337653487920761,1.2529571056365967,2.2640769481658936
1772561952234597000,1.83559716796875,0.21869026124477386,1.0376895666122437,2.8153181076049805
1772561952244664300,1.845664306640625,0.1535874307155609,0.2558717131614685,2.7426393032073975
1772561952254731300,1.855731201171875,-0.19965185225009918,0.02694826014339924,2.3498451709747314
1772561952264798200,1.865798095703125,-0.7692708373069763,1.9347918033599854,2.3296091556549072
1772561952274866200,1.8758662109375,-0.616560161113739,3.660797357559204,2.5061774253845215
1772561952284933000,1.88593310546875,0.7731121778488159,3.450580596923828,2.3732481002807617
1772561952295000000,1.896,2.637080669403076,2.1961944103240967,2.5533931255340576
1772561952305067000,1.90606689453125,3.708967924118042,1.3350961208343506,3.7272768020629883
1772561952315134000,1.916134033203125,3.6957778930664062,0.5735410451889038,5.422863006591797
1772561952325201200,1.926201171875,3.1506340503692627,0.27830806374549866,7.114400863647461
1772561952335269000,1.93626904296875,2.576488494873047,-0.3568018078804016,8.066584587097168
1772561952345336300,1.94633642578125,1.827587366104126,-1.3658125400543213,7.668229103088379
1772561952355403300,1.9564033203125,0.9596538543701172,-1.555114507675171,6.2903151512146
1772561952365470200,1.96647021484375,0.48410382866859436,-0.5867300629615784,4.562934398651123
1772561952375537200,1.976537109375,0.5870179533958435,0.7504239082336426,2.770646810531616
1772561952385604000,1.98660400390625,0.8794860243797302,1.376137614250183,1.0977672338485718
1772561952395672000,1.996672119140625,0.9855802655220032,1.402831792831421,-0.16928783059120178
1772561952405739000,2.006739013671875,0.9740170836448669,0.9033202528953552,-1.14154851436615
1772561952415806000,2.016805908203125,0.7928536534309387,0.19622915983200073,-1.6815427541732788
1772561952425873200,2.026873046875,0.4790653884410858,-0.19784650206565857,-1.9448953866958618
1772561952435940000,2.036940185546875,0.1646432727575302,-0.24984897673130035,-1.9621281623840332
1772561952446007000,2.047007080078125,-0.03031875751912594,-0.1258130520582199,-1.7190190553665161
1772561952456074000,2.057073974609375,0.03982783854007721,0.2055204063653946,-1.1052954196929932
1772561952466142200,2.06714208984375,0.3530363440513611,0.4303511083126068,-0.36642539501190186
1772561952476209200,2.077209228515625,0.6983447670936584,0.31638166308403015,0.07271015644073486
1772561952486276000,2.087276123046875,0.8372368812561035,0.09933511167764664,0.08653728663921356
1772561952496343000,2.097343017578125,0.5071766376495361,0.006709834095090628,-0.3045375347137451
1772561952506410200,2.10741015625,-0.28581178188323975,0.0956634059548378,-1.0100197792053223
1772561952516477200,2.117477294921875,-1.1381253004074097,0.323637455701828,-1.8661187887191772
1772561952526545200,2.127545166015625,-1.663879632949829,0.5783898234367371,-2.729612350463867
1772561952536612000,2.137612060546875,-1.8567590713500977,0.9026533961296082,-3.4345312118530273
1772561952546679000,2.147678955078125,-1.7669039964675903,1.2318177223205566,-3.821045160293579
1772561952556746000,2.15774609375,-1.4373003244400024,1.2570372819900513,-3.994288682937622
1772561952566812200,2.167812255859375,-1.0781238079071045,1.1548914909362793,-3.9378840923309326
1772561952576879400,2.17787939453125,-0.744857668876648,1.2049453258514404,-3.4723873138427734
1772561952586947300,2.187947265625,-0.5762782096862793,0.9671279788017273,-2.955827236175537
1772561952597014500,2.1980146484375,-0.6692332029342651,0.330552875995636,-2.7731544971466064
1772561952607081500,2.20808154296875,-0.7389638423919678,-0.6654552221298218,-2.9612410068511963
1772561952617148400,2.2181484375,-0.7756112813949585,-1.7587814331054688,-3.517007350921631
1772561952627215400,2.22821533203125,-0.8095812797546387,-2.5207810401916504,-4.196439266204834
1772561952637282300,2.2382822265625,-0.8100694417953491,-2.6254992485046387,-4.7106475830078125
1772561952647350300,2.248350341796875,-0.7618123888969421,-2.016144275665283,-4.888136386871338
1772561952657417200,2.258417236328125,-0.6345982551574707,-0.8977050185203552,-4.586682319641113
1772561952667484200,2.268484130859375,-0.44347384572029114,-0.023417707532644272,-3.8984038829803467
1772561952677551400,2.27855126953125,-0.23602797091007233,0.06395288556814194,-2.9925410747528076
1772561952687618300,2.288618408203125,-0.22902093827724457,-0.6457521319389343,-2.0287091732025146
1772561952697685500,2.298685546875,-0.5376051068305969,-1.9375905990600586,-1.1657944917678833
1772561952707753500,2.30875341796875,-1.0828639268875122,-3.6063454151153564,-0.49732935428619385
1772561952717820400,2.3188203125,-1.6751232147216797,-5.500707149505615,0.03761342167854309
1772561952727887400,2.328887451171875,-2.0970146656036377,-7.626346111297607,0.5522266626358032
1772561952737954300,2.338954345703125,-2.1960322856903076,-9.229436874389648,1.1139047145843506
1772561952748021200,2.349021240234375,-2.0090830326080322,-9.180383682250977,1.5199837684631348
1772561952758088400,2.35908837890625,-1.7168962955474854,-8.233631134033203,1.608499526977539
1772561952768155400,2.3691552734375,-1.3940258026123047,-7.124304294586182,1.3886866569519043
1772561952778223400,2.379223388671875,-0.9445846080780029,-5.58627986907959,0.8455483317375183
1772561952788290300,2.389290283203125,-0.48466548323631287,-3.7736172676086426,0.014973090030252934
1772561952798357500,2.399357421875,-0.1561664342880249,-2.380034923553467,-1.1304426193237305
1772561952808424400,2.409424560546875,-0.15803277492523193,-1.4505444765090942,-2.457768440246582
1772561952818491400,2.419491455078125,-0.3313310444355011,-0.30087196826934814,-3.49942684173584
1772561952828558300,2.429558349609375,-0.6482978463172913,0.9838561415672302,-4.0437092781066895
1772561952838626300,2.439626220703125,-1.05329167842865,2.6080143451690674,-3.765516996383667
1772561952848693200,2.449693359375,-1.35036039352417,4.153282642364502,-2.6222870349884033
1772561952858760400,2.459760498046875,-1.356418251991272,4.618818283081055,-0.981334388256073
1772561952868827400,2.469827392578125,-1.1406776905059814,3.68418550491333,0.23673291504383087
1772561952878894300,2.479894287109375,-1.1183958053588867,2.7867815494537354,0.4867986738681793
1772561952888961300,2.489961181640625,-1.303079605102539,4.157591819763184,0.8295227289199829
1772561952899029200,2.500029296875,-1.0843851566314697,6.397556304931641,1.814811110496521
1772561952909096400,2.510096435546875,-0.1634155511856079,6.773444652557373,2.536334991455078
1772561952919163400,2.520163330078125,1.4605944156646729,5.898632049560547,3.075467586517334
1772561952929230300,2.530230224609375,2.7767062187194824,4.441911220550537,3.8147428035736084
1772561952939297500,2.540297607421875,3.3025577068328857,3.332317352294922,5.109309673309326
1772561952949364500,2.550364501953125,3.2350552082061768,2.5222089290618896,6.746249675750732
1772561952959432400,2.560432373046875,2.678957939147949,0.9666763544082642,7.995245456695557
1772561952969499400,2.57049951171875,1.8149796724319458,-0.5815049409866333,8.128796577453613
1772561952979566300,2.58056640625,1.1355113983154297,-0.9905867576599121,7.206441402435303
1772561952989633300,2.59063330078125,0.7663565278053284,-0.3841269016265869,5.717067718505859
1772561952999700200,2.6007001953125,0.5218549370765686,0.4355109930038452,3.9191792011260986
1772561953009767200,2.61076708984375,0.5485169291496277,1.1106106042861938,2.2807376384735107
1772561953019834400,2.62083447265625,0.7736935615539551,1.5453165769577026,1.0458239316940308
1772561953029902300,2.63090234375,1.0297898054122925,1.5867105722427368,0.32435518503189087
1772561953039969500,2.640969482421875,1.0760047435760498,1.2950563430786133,0.10955605655908585
1772561953050036500,2.651036376953125,0.7977368235588074,0.8314447402954102,0.2764800488948822
1772561953060103400,2.661103515625,0.18165528774261475,0.18136712908744812,0.4730178713798523
1772561953070170400,2.67117041015625,-0.5126651525497437,-0.4762363135814667,0.6427462100982666
1772561953080237300,2.6812373046875,-1.0562293529510498,-0.6159143447875977,0.641533374786377
1772561953090305300,2.69130517578125,-1.2148408889770508,0.04976782202720642,0.6776245832443237
1772561953100372200,2.701372314453125,-1.00690495967865,0.9477636218070984,0.7575473785400391
1772561953110439400,2.711439453125,-0.5825979113578796,1.471567988395691,0.8203127384185791
1772561953120506400,2.72150634765625,-0.2422744184732437,1.378541111946106,0.6291337013244629
1772561953130573300,2.7315732421875,-0.14190679788589478,0.8497057557106018,0.1464323103427887
1772561953140640300,2.74164013671875,-0.25630447268486023,0.17034296691417694,-0.5496258735656738
1772561953150708500,2.75170849609375,-0.4817056357860565,-0.21085630357265472,-1.2738347053527832
1772561953160775400,2.761775390625,-0.6896803975105286,-0.04320632666349411,-1.8825595378875732
1772561953170842400,2.77184228515625,-0.7059144973754883,0.6688273549079895,-2.2555861473083496
1772561953180909300,2.781909423828125,-0.2894432544708252,1.4967955350875854,-2.1527042388916016
1772561953190976300,2.791976318359375,0.161032035946846,1.7121728658676147,-1.8833563327789307
1772561953201043500,2.80204345703125,0.4778006672859192,1.4978227615356445,-1.5026556253433228
1772561953211111400,2.812111328125,0.5312255024909973,0.9280634522438049,-1.150434136390686
1772561953221178400,2.822178466796875,0.28043779730796814,0.12450171262025833,-1.0112792253494263
1772561953231245300,2.832245361328125,0.006842193193733692,-0.5676197409629822,-1.1634520292282104
1772561953241312300,2.842312255859375,-0.09742163121700287,-1.1030328273773193,-1.642082691192627
1772561953251379200,2.852379150390625,-0.0002948119363281876,-1.278917908668518,-2.323040246963501
1772561953261446400,2.8624462890625,0.1952216923236847,-0.7567753195762634,-3.015752077102661
1772561953271514400,2.872514404296875,0.33800041675567627,0.30322593450546265,-3.525022506713867
1772561953281581300,2.882581298828125,0.34359678626060486,1.4919753074645996,-3.735006332397461
1772561953291648500,2.8926484375,0.263006329536438,2.4352028369903564,-3.617452383041382
1772561953301715500,2.902715576171875,0.16103336215019226,2.708164930343628,-3.259641408920288
1772561953311782400,2.912782470703125,0.0728696808218956,2.3646111488342285,-2.790335178375244
1772561953321849300,2.922849365234375,-0.07855898886919022,1.7662813663482666,-2.2946982383728027
1772561953331916300,2.932916259765625,-0.27721908688545227,1.1570638418197632,-1.8920483589172363
1772561953341984300,2.942984375,-0.44561901688575745,0.7395681142807007,-1.7258578538894653
1772561953352051200,2.95305126953125,-0.5509566068649292,0.6212092041969299,-1.771774172782898
1772561953362118400,2.963118408203125,-0.4801594316959381,0.603277862071991,-1.866297721862793
1772561953372185300,2.973185302734375,-0.2988327741622925,0.4553470015525818,-1.9853583574295044
1772561953382252500,2.98325244140625,-0.14143329858779907,0.3312056362628937,-2.014894962310791
1772561953392320500,2.993320556640625,-0.0065228804014623165,0.38323765993118286,-1.9082978963851929
1772561953402387500,3.003387451171875,0.10457994043827057,0.5793305039405823,-1.7664177417755127
1772561953412454400,3.013454345703125,0.14678731560707092,0.8516693115234375,-1.5995832681655884
1772561953422521300,3.023521240234375,0.10689608752727509,1.0069917440414429,-1.2123297452926636
1772561953432588300,3.03358837890625,0.03798466548323631,0.840725302696228,-0.4776584506034851
1772561953442655200,3.0436552734375,0.011255583725869656,0.323634535074234,0.4997943639755249
1772561953452722400,3.053722412109375,0.0603506937623024,-0.09389453381299973,1.5128000974655151
1772561953462790100,3.0637900390625,0.18825672566890717,0.11550289392471313,2.579693078994751
1772561953472857600,3.073857666015625,0.3377053439617157,0.8510666489601135,3.497446298599243
1772561953482924500,3.083924560546875,0.47874873876571655,1.6970394849777222,4.051311492919922
1772561953492991500,3.093991455078125,0.5997276306152344,2.0577001571655273,4.095451354980469
1772561953503058400,3.104058349609375,0.5815214514732361,1.7740464210510254,3.56508731842041
1772561953513125400,3.11412548828125,0.44390687346458435,1.9507955312728882,3.0870838165283203
1772561953523193300,3.124193359375,0.4115862250328064,2.330528736114502,2.853787422180176
1772561953533260300,3.13426025390625,0.6263976097106934,1.8637748956680298,2.5195908546447754
1772561953543327200,3.1443271484375,1.12253999710083,0.7520471215248108,2.2506473064422607
1772561953553394400,3.15439453125,1.858155608177185,-0.39770743250846863,2.077193021774292
1772561953563461400,3.16446142578125,2.340899705886841,-0.6683332920074463,2.1210474967956543
1772561953573528300,3.1745283203125,2.197420835494995,-0.3020536005496979,2.1689934730529785
1772561953583596500,3.184596435546875,1.5079965591430664,0.2702213525772095,1.9015164375305176
1772561953593663500,3.19466357421875,0.9691740870475769,0.3901088833808899,1.0750504732131958
1772561953603730400,3.20473046875,1.0373600721359253,-0.0932958573102951,-0.20930981636047363
1772561953613797400,3.21479736328125,1.3861700296401978,-0.4197072684764862,-1.2199368476867676
1772561953623864300,3.2248642578125,1.4734289646148682,-0.3285749554634094,-1.7144427299499512
1772561953633931500,3.234931640625,1.1691508293151855,0.05633624270558357,-1.7559860944747925
1772561953643999200,3.244999267578125,0.8766382932662964,0.33657747507095337,-1.4811972379684448
1772561953654066400,3.25506640625,0.8311030864715576,-0.03941664844751358,-1.148105502128601
1772561953664133400,3.26513330078125,0.7523949146270752,-0.8210293650627136,-1.0268805027008057
1772561953674200300,3.275200439453125,0.4988526701927185,-1.3733044862747192,-0.953478217124939
1772561953684267300,3.285267333984375,0.15643595159053802,-1.314347743988037,-0.794317901134491
1772561953694334200,3.295334228515625,-0.07199935615062714,-0.593402624130249,-0.5456721186637878
1772561953704402400,3.30540234375,-0.031565647572278976,0.3455832302570343,-0.25413134694099426
1772561953714469400,3.315469482421875,0.16573970019817352,0.9361509084701538,-0.12326920032501221
1772561953724536300,3.325536376953125,0.2958976924419403,0.9112631678581238,-0.33241283893585205
1772561953734603500,3.335603515625,0.21919360756874084,0.4724261462688446,-0.9106205105781555
1772561953744670500,3.34567041015625,-0.06787651777267456,0.08586377650499344,-1.7082873582839966
1772561953754737400,3.3557373046875,-0.3645516037940979,0.027603132650256157,-2.577205181121826
1772561953764804400,3.365804443359375,-0.32527637481689453,0.2760145366191864,-3.2130730152130127
1772561953774872300,3.375872314453125,0.04441620036959648,0.6589398384094238,-3.396944999694824
1772561953784939300,3.385939208984375,0.2719132602214813,0.8394997715950012,-3.3041038513183594
1772561953795006200,3.396006103515625,0.3376446068286896,0.8368320465087891,-3.010228395462036
1772561953805073200,3.4060732421875,0.32858800888061523,0.3347010314464569,-2.6995582580566406
1772561953815140600,3.416140625,0.21113647520542145,-0.4742860794067383,-2.5041821002960205
1772561953825207600,3.42620751953125,0.04159378260374069,-1.1784218549728394,-2.4796791076660156
1772561953835275500,3.436275634765625,-0.1241602972149849,-1.4475665092468262,-2.6247291564941406
1772561953845342500,3.446342529296875,-0.18981227278709412,-1.2286491394042969,-2.7981903553009033
1772561953855409400,3.456409423828125,-0.18223771452903748,-0.9100815057754517,-2.951049566268921
1772561953865476400,3.466476318359375,-0.22524669766426086,-0.7375795245170593,-3.1272101402282715
1772561953875543300,3.476543212890625,-0.41678816080093384,-0.45191261172294617,-3.213176965713501
1772561953885610200,3.4866103515625,-0.6579688191413879,0.09653665870428085,-2.9807708263397217
1772561953895678200,3.49667822265625,-0.6128924489021301,0.7809216380119324,-1.9316394329071045
1772561953905745200,3.5067451171875,-0.42226922512054443,0.5728379487991333,-0.2562110126018524
1772561953915812400,3.516812255859375,-0.7504790425300598,-0.9915369153022766,0.74948650598526
1772561953925879600,3.526879638671875,-1.2077549695968628,-2.3331587314605713,0.8562148213386536
1772561953935946500,3.536946533203125,-1.427263617515564,-2.546396255493164,0.5495715141296387
1772561953946013400,3.547013427734375,-1.432944416999817,-1.9732692241668701,-0.16552025079727173
1772561953956081400,3.557081298828125,-1.260642409324646,-1.1127272844314575,-1.1390728950500488
1772561953966148400,3.5671484375,-0.9756056666374207,-0.30400943756103516,-2.0545005798339844
1772561953976215300,3.57721533203125,-0.6712185740470886,0.2950473427772522,-2.626258134841919
1772561953986282200,3.5872822265625,-0.38522252440452576,0.58324134349823,-2.6575887203216553
1772561953996349400,3.597349365234375,-0.09281355887651443,0.4503847360610962,-2.142827033996582
1772561954006416400,3.60741650390625,0.23447374999523163,0.01942802593111992,-1.2410706281661987
1772561954016484400,3.617484375,0.5265852212905884,-0.5610367059707642,-0.24261903762817383
1772561954026551600,3.627551513671875,0.6525719165802002,-1.146676778793335,0.5825148224830627
1772561954036618500,3.637618408203125,0.6512619256973267,-1.391459584236145,1.234176516532898
1772561954046685400,3.647685546875,0.5796108841896057,-1.2175559997558594,1.6460132598876953
1772561954056752400,3.65775244140625,0.5413569808006287,-0.6815212965011597,1.788977861404419
1772561954066819300,3.6678193359375,0.5445205569267273,0.08783558011054993,1.8088618516921997
1772561954076887300,3.67788720703125,0.6018320322036743,0.9429675340652466,1.8574326038360596
1772561954086954200,3.687954345703125,0.7240807414054871,1.812637209892273,2.1155967712402344
1772561954097021400,3.698021484375,1.0301668643951416,2.239396333694458,2.518277168273926
1772561954107088400,3.70808837890625,1.3284766674041748,1.2118858098983765,2.1970698833465576
1772561954117155300,3.7181552734375,1.2261781692504883,-0.8319483399391174,0.7118978500366211
1772561954127222300,3.72822216796875,0.8426191210746765,-1.1271259784698486,-0.42447537183761597
1772561954137290500,3.73829052734375,0.36671993136405945,-0.23963016271591187,-1.2948105335235596
1772561954147357400,3.748357421875,0.36979296803474426,0.9501503705978394,-1.7632571458816528
1772561954157424400,3.75842431640625,1.1846768856048584,1.467961311340332,-1.84506094455719
1772561954167491300,3.7684912109375,2.086542844772339,1.6900007724761963,-1.1552960872650146
1772561954177558500,3.77855859375,2.3236284255981445,1.7766823768615723,0.03726561367511749
1772561954187625500,3.78862548828125,1.7723054885864258,1.2183029651641846,1.443852186203003
1772561954197692400,3.7986923828125,0.7000965476036072,-0.5024559497833252,2.7927658557891846
1772561954207760400,3.808760498046875,-0.5457032918930054,-2.4673268795013428,3.731344699859619
1772561954217827300,3.818827392578125,-1.1828831434249878,-3.5811307430267334,4.083314418792725
1772561954227894300,3.828894287109375,-1.3207066059112549,-3.650268077850342,4.0627336502075195
1772561954237961200,3.838961181640625,-1.539177417755127,-2.8347973823547363,3.5633366107940674
1772561954248028200,3.849028076171875,-1.8383969068527222,-1.8461264371871948,2.5397658348083496
1772561954258095400,3.859095458984375,-1.9335631132125854,-1.2021559476852417,1.1944234371185303
1772561954268163300,3.869163330078125,-1.8083151578903198,-0.6582149267196655,-0.08987769484519958
1772561954278230500,3.87923046875,-1.6808147430419922,-0.3114582896232605,-1.1510376930236816
1772561954288297500,3.88929736328125,-1.6168605089187622,-0.14746002852916718,-1.7697653770446777
1772561954298364400,3.899364501953125,-1.60215425491333,-0.11780226975679398,-1.8172001838684082
1772561954308431400,3.909431396484375,-1.5579487085342407,-0.030723556876182556,-1.333922266960144
1772561954318498300,3.919498291015625,-1.2964097261428833,0.3090830147266388,-0.41151538491249084
1772561954328566300,3.929566162109375,-0.8958080410957336,0.4778462052345276,0.6173567175865173
1772561954338633200,3.93963330078125,-0.5578994750976562,0.22038216888904572,1.3304353952407837
1772561954348700200,3.9497001953125,-0.43655282258987427,-0.2658998668193817,1.519528865814209
1772561954358767400,3.959767333984375,-0.3923344910144806,-0.30224642157554626,1.273249626159668
1772561954368834300,3.969834228515625,-0.3644520044326782,-0.4177274703979492,0.6652365922927856
1772561954378901500,3.979901611328125,-0.5458641052246094,-0.5165672302246094,-0.3743770718574524
1772561954388969500,3.989969482421875,-0.582648515701294,-0.307086706161499,-1.58043372631073
1772561954399036400,4.000036376953125,-0.4812481105327606,0.1985035091638565,-2.665811061859131
1772561954409103400,4.010103271484375,-0.17786826193332672,0.919913649559021,-3.4561688899993896
1772561954419170300,4.02017041015625,0.2764912545681,1.5791925191879272,-3.7002923488616943
1772561954429237200,4.0302373046875,0.7981661558151245,1.804132342338562,-3.3750762939453125
1772561954439304400,4.040304443359375,0.902289867401123,1.4625986814498901,-2.901371717453003
1772561954449372400,4.050372314453125,0.7061640620231628,0.6129608750343323,-2.4871692657470703
1772561954459439400,4.060439453125,0.27225735783576965,-0.2492082267999649,-2.2635438442230225
1772561954469506300,4.07050634765625,-0.09476592391729355,-0.6728721261024475,-2.076169013977051
1772561954479573200,4.0805732421875,-0.16175773739814758,-0.889211893081665,-2.0733585357666016
1772561954489640400,4.090640380859375,0.004279699642211199,-0.9921968579292297,-2.3091838359832764
1772561954499707400,4.100707275390625,0.19986064732074738,-0.6898394227027893,-2.5684151649475098
1772561954509775400,4.110775390625,0.23902775347232819,0.036559343338012695,-2.793712615966797
1772561954519842300,4.12084228515625,0.10803006589412689,0.9585734009742737,-2.8475606441497803
1772561954529909200,4.1309091796875,0.0020266654901206493,1.6653614044189453,-2.6022348403930664
1772561954539976400,4.1409765625,-0.00395825644955039,1.8634002208709717,-2.053929567337036
1772561954550043400,4.15104345703125,-0.015108911320567131,1.6058355569839478,-1.2956345081329346
1772561954560110300,4.1611103515625,-0.1549999713897705,0.9825817942619324,-0.5194591283798218
1772561954570178800,4.1711787109375,-0.45444926619529724,0.2272435426712036,0.06035175547003746
1772561954580245800,4.181245849609375,-0.7768582105636597,-0.45660722255706787,0.40301430225372314
1772561954590312700,4.191312744140625,-1.000612497329712,-0.9278096556663513,0.41686221957206726
1772561954600379600,4.201379638671875,-1.0090913772583008,-0.9618714451789856,0.18111306428909302
1772561954610446600,4.211446533203125,-0.7879023551940918,-0.628749430179596,-0.13648860156536102
1772561954620513800,4.221513671875,-0.3983910381793976,-0.10813871771097183,-0.39477553963661194
1772561954630581800,4.231581787109375,0.000031957933970261365,0.2762118875980377,-0.44486427307128906
1772561954640649000,4.24164892578125,0.2951919734477997,0.3769054710865021,-0.26012691855430603
1772561954650716000,4.2517158203125,0.4626864194869995,0.31149449944496155,0.22889922559261322
1772561954660782800,4.261782958984375,0.5303120613098145,0.13856267929077148,1.0157746076583862
1772561954670849800,4.271849853515625,0.4847235381603241,-0.18295304477214813,1.79612135887146
1772561954680916700,4.281916748046875,0.3226765990257263,-0.47574150562286377,2.297407865524292
1772561954690984700,4.291984619140625,0.2379683554172516,-0.37017112970352173,2.6399848461151123
1772561954701051600,4.3020517578125,0.2999342679977417,-0.2139386534690857,2.8043429851531982
1772561954711118600,4.31211865234375,0.47528183460235596,-0.21607530117034912,2.848775863647461
1772561954721185800,4.322185791015625,0.6491870284080505,-0.5334903001785278,2.6854875087738037
1772561954731252700,4.332252685546875,0.802677571773529,-0.9235464334487915,2.157931089401245
1772561954741319700,4.342319580078125,0.9205738306045532,0.0013464941876009107,1.8120238780975342
1772561954751388000,4.352387939453125,1.225056529045105,1.7503242492675781,2.0326268672943115
1772561954761454800,4.362454833984375,1.6032538414001465,2.4228463172912598,2.424466371536255
1772561954771521800,4.372521728515625,2.258056163787842,2.201388120651245,3.1817758083343506
1772561954781588700,4.382588623046875,2.8458235263824463,1.2191834449768066,4.246519565582275
1772561954791655700,4.39265576171875,2.680370569229126,-0.07396956533193588,5.199023246765137
1772561954801723000,4.402722900390625,2.002537488937378,-1.0796988010406494,5.982696533203125
1772561954811789800,4.412789794921875,1.1173404455184937,-1.2568516731262207,6.7499308586120605
1772561954821857800,4.42285791015625,0.401565283536911,-0.7961615920066833,6.805595397949219
1772561954831924700,4.4329248046875,0.22288767993450165,-0.19811707735061646,5.764953136444092
1772561954841991700,4.44299169921875,0.21700581908226013,0.3692041337490082,4.000253677368164
1772561954852058600,4.45305859375,0.00412363838404417,1.197427749633789,2.289767265319824
1772561954862125600,4.46312548828125,-0.42312783002853394,1.7205195426940918,0.9570636749267578
1772561954872192800,4.47319287109375,-0.5288281440734863,1.4896963834762573,0.25299444794654846
1772561954882260700,4.4832607421875,-0.3540254533290863,0.5778377652168274,0.14679716527462006
1772561954892327700,4.49332763671875,-0.21850277483463287,-0.6419605612754822,0.2984263598918915
1772561954902395000,4.503394775390625,-0.3871288001537323,-1.5694184303283691,0.4672641158103943
1772561954912461800,4.5134619140625,-0.7517089247703552,-1.7289543151855469,0.6267762780189514
1772561954922528800,4.52352880859375,-0.9512041807174683,-1.06660795211792,0.780937910079956
1772561954932595700,4.533595703125,-0.8279751539230347,-0.049361955374479294,0.8131973147392273
1772561954942663700,4.54366357421875,-0.46706491708755493,0.7708184123039246,0.7143809795379639
1772561954952730600,4.553730712890625,0.03809811547398567,1.104483723640442,0.41615939140319824
1772561954962797600,4.563797607421875,0.3647255003452301,0.851632833480835,-0.10612643510103226
1772561954972864500,4.573864501953125,0.31538963317871094,0.20948956906795502,-0.8197822570800781
1772561954982932000,4.583931884765625,-0.03262026235461235,-0.3909773528575897,-1.5507773160934448
1772561954992999000,4.5939990234375,-0.4032406806945801,-0.5829220414161682,-2.1986007690429688
1772561955003067000,4.60406689453125,-0.6006115078926086,-0.38887476921081543,-2.683260202407837
1772561955013133800,4.6141337890625,-0.5076653361320496,0.1623883694410324,-2.938098669052124
1772561955023200800,4.62420068359375,-0.1310751885175705,0.765027642250061,-2.9373879432678223
1772561955033267700,4.634267822265625,0.3827846646308899,1.0459977388381958,-2.6363019943237305
1772561955043334700,4.644334716796875,0.6624104380607605,0.5997574329376221,-2.296851873397827
1772561955053402600,4.654402587890625,0.5025416612625122,-0.34544020891189575,-2.1130359172821045
1772561955063469600,4.664469482421875,0.05120353400707245,-1.5026614665985107,-2.1013896465301514
1772561955073536500,4.67453662109375,-0.4027431905269623,-2.2634286880493164,-2.226890802383423
1772561955083604000,4.68460400390625,-0.6375048160552979,-2.5243661403656006,-2.482835054397583
1772561955093671000,4.6946708984375,-0.5938958525657654,-2.3495569229125977,-2.817335367202759
1772561955103737900,4.70473779296875,-0.3906332552433014,-1.6756513118743896,-3.1965999603271484
1772561955113805800,4.714805908203125,-0.2571479082107544,-0.7473596930503845,-3.6556665897369385
1772561955123872800,4.724872802734375,-0.3013302981853485,0.17064790427684784,-4.037871837615967
1772561955133939700,4.734939697265625,-0.4330885708332062,0.8962615728378296,-4.125546455383301
1772561955144006000,4.745005859375,-0.633968710899353,1.1248396635055542,-4.015467643737793
1772561955154072800,4.75507275390625,-0.8059912919998169,0.9200997948646545,-3.7786917686462402
1772561955164139800,4.765139892578125,-0.863211452960968,0.42426633834838867,-3.4551992416381836
1772561955174206700,4.775206787109375,-0.9093922972679138,-0.035711925476789474,-3.007019519805908
1772561955184274700,4.785274658203125,-1.0575822591781616,-0.16451305150985718,-2.44675874710083
1772561955194341600,4.795341552734375,-1.2738139629364014,-0.10819438099861145,-1.9346933364868164
1772561955204408600,4.80540869140625,-1.4172592163085938,-0.12290354818105698,-1.5061999559402466
1772561955214475500,4.8154755859375,-1.4557442665100098,-0.27329811453819275,-1.2099028825759888
1772561955224543000,4.82554296875,-1.460351824760437,-0.29202866554260254,-0.9953457713127136
1772561955234610000,4.83560986328125,-1.3800452947616577,0.04595896974205971,-0.6644909381866455
1772561955244678000,4.845677978515625,-1.1167526245117188,0.5567876100540161,-0.1041325256228447
1772561955254744800,4.855744873046875,-0.6876502633094788,0.8242398500442505,0.6228262782096863
1772561955264811800,4.865811767578125,-0.22706350684165955,0.8356517553329468,1.4260703325271606
1772561955274878700,4.875878662109375,0.14687520265579224,0.8294439315795898,2.2523036003112793
1772561955284945700,4.885945556640625,0.3882071375846863,0.8539018630981445,3.050825595855713
1772561955295012600,4.8960126953125,0.45189982652664185,0.813670814037323,3.749412775039673
1772561955305080600,4.90608056640625,0.48148539662361145,0.7263708114624023,4.229907035827637
1772561955315147500,4.9161474609375,0.45736223459243774,0.3035534918308258,4.191186428070068
1772561955325214700,4.926214599609375,0.3103751838207245,-0.3809041976928711,3.5159900188446045
1772561955335282000,4.936281982421875,0.2321522831916809,-0.5417500734329224,2.702695608139038
1772561955345348900,4.946348876953125,0.2774835526943207,0.360659122467041,2.2721915245056152
1772561955355415800,4.956415771484375,0.5554307103157043,1.0252629518508911,2.1569631099700928
1772561955365483800,4.96648388671875,1.0382258892059326,0.7810716032981873,2.0085458755493164
1772561955375550700,4.97655078125,1.514148235321045,-0.20955616235733032,1.8395196199417114
1772561955385617700,4.98661767578125,1.5271459817886353,-0.7251827716827393,1.9937984943389893
1772561955395684600,4.9966845703125,1.3330907821655273,-0.2568139433860779,2.631066083908081
1772561955405751800,5.006751708984375,1.2208489179611206,0.417113333940506,3.600233793258667
1772561955415818800,5.01681884765625,1.0544929504394531,0.581371009349823,4.276819229125977
1772561955425886700,5.02688671875,0.9580607414245605,0.07528596371412277,4.239677429199219
1772561955435954000,5.036953857421875,0.8300337791442871,-0.589819610118866,3.6427440643310547
1772561955446020900,5.047020751953125,0.5637738704681396,-0.8093485236167908,2.8714709281921387
1772561955456087800,5.057087890625,0.21555545926094055,-0.5539079308509827,2.0944111347198486
1772561955466154800,5.06715478515625,-0.11338887363672256,-0.14788053929805756,1.2674193382263184
1772561955476221700,5.0772216796875,-0.3246593177318573,0.14508982002735138,0.3790362775325775
1772561955486289700,5.08728955078125,-0.2907213270664215,0.11495694518089294,-0.44402778148651123
1772561955496356600,5.097356689453125,-0.12085078656673431,-0.053946055471897125,-0.9215021729469299
1772561955506423800,5.107423828125,-0.04020121693611145,-0.1250612437725067,-0.9011063575744629
1772561955516490800,5.11749072265625,-0.20758941769599915,0.03266100585460663,-0.5295314788818359
1772561955526557700,5.1275576171875,-0.5091234445571899,0.39640647172927856,0.021861622110009193
1772561955536624600,5.137624755859375,-0.7426589727401733,0.781996488571167,0.6081104874610901
1772561955546692900,5.14769287109375,-0.7790622115135193,0.9928568005561829,1.069340705871582
1772561955556759800,5.157759765625,-0.6973042488098145,0.8404353260993958,1.2581558227539062
1772561955566826800,5.16782666015625,-0.5837848782539368,0.5275780558586121,1.1972389221191406
1772561955576894000,5.17789404296875,-0.5384299159049988,0.17213554680347443,0.8087916374206543
1772561955586961200,5.187961181640625,-0.6271310448646545,-0.1858430951833725,-0.08809896558523178
1772561955597028000,5.198028076171875,-0.7080010771751404,-0.2927386462688446,-1.1626485586166382
1772561955607096300,5.208096435546875,-0.7147032022476196,-0.05609256401658058,-2.177029609680176
1772561955617163300,5.218163330078125,-0.5861747860908508,0.35129863023757935,-2.9388341903686523
1772561955627230200,5.228230224609375,-0.3410622477531433,0.8403644561767578,-3.211587905883789
1772561955637297200,5.238297119140625,-0.055390555411577225,0.899747908115387,-3.0186357498168945
1772561955647364000,5.248364013671875,-0.131465882062912,0.3111323118209839,-2.801649332046509
1772561955657431000,5.25843115234375,-0.4728996455669403,-0.4969743490219116,-2.6225202083587646
1772561955667499000,5.2684990234375,-0.9422090649604797,-1.2162249088287354,-2.5904407501220703
1772561955677566000,5.27856591796875,-1.3687268495559692,-1.5743961334228516,-2.748976945877075
1772561955687633200,5.288633056640625,-1.6479160785675049,-1.7072221040725708,-3.0591607093811035
1772561955697700000,5.2987001953125,-1.8073114156723022,-1.7737592458724976,-3.5215420722961426
1772561955707767000,5.30876708984375,-1.9038152694702148,-1.8568296432495117,-4.058591842651367
1772561955717834200,5.318834228515625,-2.0455257892608643,-1.9826939105987549,-4.547030448913574
1772561955727902200,5.328902099609375,-2.272798538208008,-2.0237441062927246,-4.789761543273926
1772561955737969200,5.33896923828125,-2.499265193939209,-2.0172576904296875,-4.653615951538086
1772561955748036000,5.3490361328125,-2.601754665374756,-2.0572988986968994,-3.9344630241394043
1772561955758103000,5.35910302734375,-2.679830551147461,-2.2446277141571045,-2.75439715385437
1772561955768170200,5.369170166015625,-2.876882314682007,-2.5570309162139893,-1.4258772134780884
1772561955778237200,5.3792373046875,-3.167325735092163,-2.9849865436553955,-0.4667282998561859
1772561955788305200,5.38930517578125,-3.4552342891693115,-3.289198875427246,-0.06156376004219055
1772561955798372000,5.3993720703125,-3.618199110031128,-3.4776506423950195,-0.22131188213825226
1772561955808439000,5.40943896484375,-3.6271324157714844,-3.4644615650177,-0.7672058343887329
1772561955818506000,5.419506103515625,-3.4043490886688232,-2.904693365097046,-1.460292935371399
1772561955828573200,5.4295732421875,-2.9646334648132324,-1.6529735326766968,-1.949758529663086
1772561955838640000,5.43964013671875,-2.360189914703369,-0.229533851146698,-2.076117515563965
1772561955848708000,5.4497080078125,-1.6620900630950928,0.9061203002929688,-1.9025888442993164
1772561955858775000,5.459775146484375,-1.0631937980651855,1.5424323081970215,-1.4944418668746948
1772561955868842200,5.46984228515625,-0.7067659497261047,1.7727800607681274,-0.7795096635818481
1772561955878909200,5.4799091796875,-0.4059637486934662,1.7624741792678833,0.06285938620567322
1772561955888976100,5.48997607421875,-0.048163801431655884,1.507646918296814,0.8621610999107361
1772561955899044000,5.500044189453125,0.46764177083969116,1.3503895998001099,1.6732380390167236
1772561955909111000,5.510111083984375,1.1114587783813477,1.464702844619751,2.3485822677612305
1772561955919178000,5.520177978515625,1.6903525590896606,1.6474902629852295,2.617018222808838
1772561955929245200,5.5302451171875,2.1157922744750977,1.8462917804718018,2.3030402660369873
1772561955939312000,5.54031201171875,2.035499095916748,2.0519630908966064,1.4434369802474976
1772561955949379300,5.55037939453125,1.8888968229293823,3.360271453857422,1.1308850049972534
1772561955959447000,5.560447021484375,2.1004302501678467,4.551757335662842,1.3617591857910156
1772561955969514200,5.57051416015625,2.5619900226593018,4.979306697845459,1.7420929670333862
1772561955979581200,5.580581298828125,3.5141360759735107,5.059206962585449,2.5818989276885986
1772561955989648100,5.590648193359375,4.531551837921143,4.513580799102783,3.8290727138519287
1772561955999715000,5.600715087890625,4.928359031677246,3.282477855682373,4.894130706787109
1772561956009782000,5.610781982421875,4.669633388519287,1.8008646965026855,5.748230934143066
1772561956019850000,5.62085009765625,4.21087646484375,0.9056481122970581,6.620630264282227
1772561956029917000,5.6309169921875,3.581730365753174,0.2613961696624756,7.068649768829346
1772561956039984000,5.640984130859375,2.5451133251190186,-0.534535825252533,6.6773576736450195
1772561956050051300,5.65105126953125,1.2693402767181396,-0.6525964140892029,5.904248237609863
1772561956060118300,5.6611181640625,0.42346736788749695,0.1695200502872467,5.148464679718018
1772561956070185200,5.671185302734375,0.18713819980621338,1.2194814682006836,4.357723712921143
1772561956080253200,5.681253173828125,0.18418236076831818,2.0119333267211914,3.5364060401916504
1772561956090320100,5.691320068359375,0.19345787167549133,2.260359287261963,2.8608648777008057
1772561956100387000,5.701386962890625,0.2580491304397583,2.127701997756958,2.5207924842834473
1772561956110454000,5.7114541015625,0.25851917266845703,1.7269920110702515,2.575913667678833
1772561956120521000,5.72152099609375,-0.033782463520765305,1.0287948846817017,2.710922956466675
1772561956130588200,5.731588134765625,-0.5861614942550659,0.4134019613265991,2.773959159851074
1772561956140656000,5.74165625,-1.1548316478729248,0.1841309517621994,2.6922154426574707
1772561956150723300,5.751723388671875,-1.5281527042388916,0.30609947443008423,2.3609819412231445
1772561956160790300,5.761790283203125,-1.542776346206665,0.8210488557815552,1.8588645458221436
1772561956170857200,5.771857177734375,-1.204664707183838,1.3673036098480225,1.4081501960754395
1772561956180924200,5.781924072265625,-0.7949733138084412,1.5537261962890625,0.9892075061798096
1772561956190991000,5.7919912109375,-0.6243836879730225,1.6051276922225952,0.5748100280761719
1772561956201059000,5.80205908203125,-0.6870697140693665,1.496229648590088,0.07726283371448517
1772561956211126000,5.8121259765625,-0.9846689105033875,1.2022873163223267,-0.50045245885849
1772561956221193000,5.82219287109375,-1.3733501434326172,0.7916494011878967,-1.1751781702041626
1772561956231260200,5.83226025390625,-1.677034854888916,0.43982717394828796,-1.987259864807129
1772561956241327000,5.8423271484375,-1.7245792150497437,0.24546648561954498,-2.8033647537231445
1772561956251394000,5.85239404296875,-1.5092512369155884,0.1920570582151413,-3.481394052505493
1772561956261462300,5.862462158203125,-1.1801908016204834,0.10429311543703079,-3.942525625228882
1772561956271529200,5.872529296875,-0.7284099459648132,0.13351331651210785,-3.902397394180298
1772561956281596200,5.88259619140625,-0.2828333079814911,-0.19348397850990295,-3.5195558071136475
1772561956291663000,5.8926630859375,-0.2061864584684372,-0.6630163192749023,-3.0305838584899902
1772561956301730000,5.90272998046875,-0.35342279076576233,-1.275718331336975,-2.5140178203582764
1772561956311797200,5.91279736328125,-0.6672685742378235,-2.2086799144744873,-2.2416250705718994
1772561956321865000,5.922864990234375,-0.8140769600868225,-3.218611001968384,-2.1959023475646973
1772561956331932200,5.93293212890625,-0.5815473198890686,-4.082016944885254,-2.390542507171631
1772561956341999000,5.9429990234375,-0.18441644310951233,-4.556866645812988,-2.838435649871826
1772561956352066000,5.953066162109375,0.06127214431762695,-4.272307872772217,-3.4421157836914062
1772561956362133000,5.963133056640625,0.10754137486219406,-3.2248497009277344,-4.007574081420898
1772561956372201200,5.973201171875,0.010426541790366173,-1.6735464334487915,-4.22296667098999
1772561956382268200,5.98326806640625,-0.12100924551486969,-0.14297392964363098,-3.941624641418457
1772561956392335000,5.993335205078125,-0.22251775860786438,0.916483998298645,-3.240541696548462
1772561956402402000,6.003402099609375,-0.3062203824520111,1.1933393478393555,-2.3707897663116455
1772561956412469200,6.01346923828125,-0.4465010464191437,0.7629788517951965,-1.5112017393112183
1772561956422536200,6.0235361328125,-0.6164597272872925,-0.1233254000544548,-0.7745652198791504
1772561956432604200,6.033604248046875,-0.6473659873008728,-1.289473533630371,-0.22897405922412872
1772561956442671000,6.043671142578125,-0.43018707633018494,-2.453927993774414,0.1738373041152954
1772561956452738000,6.053738037109375,-0.16024719178676605,-3.148988962173462,0.49351197481155396
1772561956462805000,6.063804931640625,-0.02793203294277191,-2.859220266342163,0.7626795172691345
1772561956472872000,6.073871826171875,-0.06732391566038132,-1.848345398902893,0.8422414660453796
1772561956482939000,6.08393896484375,-0.20256322622299194,-0.7551129460334778,0.6103389859199524
1772561956493007000,6.094007080078125,-0.32813021540641785,0.0235801599919796,0.04349501430988312
1772561956503074000,6.104073974609375,-0.2744469940662384,0.49904683232307434,-0.6018579006195068
1772561956513141200,6.114141357421875,-0.016926785930991173,0.7904701232910156,-0.9855064749717712
1772561956523208200,6.124208251953125,0.24610164761543274,0.960262656211853,-1.0114749670028687
1772561956533275100,6.134275146484375,0.46030980348587036,1.0549886226654053,-0.5452750325202942
1772561956543342000,6.144342041015625,0.7306025624275208,0.9169886708259583,0.34265509247779846
1772561956553410000,6.15441015625,1.0829819440841675,0.28186285495758057,1.1825863122940063
1772561956563477000,6.16447705078125,1.207809567451477,-0.8387410044670105,1.3934942483901978
1772561956573543400,6.17454345703125,1.124102234840393,-1.2886098623275757,1.169029712677002
1772561956583611000,6.18461083984375,0.9098348617553711,-0.5021145343780518,0.9566341042518616
1772561956593677800,6.194677734375,0.6984869837760925,0.8300005197525024,0.924767255783081
1772561956603744800,6.204744873046875,1.1192851066589355,2.030125617980957,1.1868313550949097
1772561956613812700,6.214812744140625,2.1605944633483887,2.2140612602233887,1.6661773920059204
1772561956623879700,6.224879638671875,3.0536611080169678,1.4877573251724243,2.5000903606414795
1772561956633946600,6.234946533203125,3.324995756149292,0.42578327655792236,3.5530283451080322
1772561956644013600,6.245013671875,3.1377792358398438,-0.6210379600524902,4.744114875793457
1772561956654080500,6.25508056640625,2.6045446395874023,-1.6961678266525269,5.611989498138428
1772561956664147700,6.265147705078125,1.6710542440414429,-2.8287532329559326,5.582770824432373
1772561956674215700,6.275215576171875,0.7855536937713623,-2.883559226989746,4.823513984680176
1772561956684282600,6.28528271484375,0.5127061605453491,-1.7402029037475586,3.580428123474121
1772561956694349800,6.295349853515625,0.5997201800346375,-0.11050653457641602,2.126143217086792
1772561956704416800,6.305416748046875,0.5020260810852051,1.2385648488998413,0.7341266870498657
1772561956714483700,6.315483642578125,0.169664666056633,1.8956804275512695,-0.29525667428970337
1772561956724551700,6.3255517578125,-0.15292057394981384,1.835794448852539,-0.872481644153595
1772561956734618600,6.33561865234375,-0.3243405222892761,1.0974165201187134,-1.0775362253189087
1772561956744685600,6.345685546875,-0.3838837444782257,0.058510180562734604,-1.032583236694336
1772561956754752500,6.35575244140625,-0.4933742880821228,-0.6485316753387451,-0.7948949933052063
1772561956764819700,6.36581982421875,-0.6536902189254761,-0.8766500353813171,-0.5110813975334167
1772561956774886700,6.37588671875,-0.7803575992584229,-0.8347276449203491,-0.3145129382610321
1772561956784954600,6.38595458984375,-0.8434076905250549,-0.5125791430473328,-0.22658920288085938
1772561956795021800,6.396021728515625,-0.8170167803764343,0.1281134933233261,-0.16167119145393372
1772561956805088800,6.4060888671875,-0.7200649380683899,0.7548618316650391,-0.14360776543617249
1772561956815155700,6.41615576171875,-0.6452210545539856,1.0174702405929565,-0.25289565324783325
1772561956825222700,6.42622265625,-0.6500539183616638,0.9068787693977356,-0.49610188603401184
1772561956835289600,6.43628955078125,-0.8080779314041138,0.4174763262271881,-1.0153142213821411
1772561956845357600,6.446357666015625,-1.0909178256988525,-0.022792929783463478,-1.755484938621521
1772561956855424800,6.4564248046875,-1.3299927711486816,0.030160564929246902,-2.489339590072632
1772561956865491700,6.46649169921875,-1.3948394060134888,0.5316540598869324,-3.1001267433166504
1772561956875558700,6.47655859375,-1.187786340713501,1.495542287826538,-3.3284189701080322
1772561956885625600,6.48662548828125,-0.7645857930183411,2.1272125244140625,-3.156633138656616
1772561956895692500,6.496692626953125,-0.4578501284122467,2.1671507358551025,-2.861467123031616
1772561956905760800,6.5067607421875,-0.18981094658374786,1.6940582990646362,-2.437546968460083
1772561956915827700,6.51682763671875,-0.08963507413864136,0.7468803524971008,-2.0053341388702393
1772561956925894700,6.526894775390625,-0.22826538980007172,-0.25890666246414185,-1.640130877494812
1772561956935961600,6.536961669921875,-0.432352215051651,-0.9188100099563599,-1.301515817642212
1772561956946028800,6.54702880859375,-0.5654423832893372,-1.2922416925430298,-1.066370964050293
1772561956956095700,6.557095703125,-0.5710520148277283,-1.4044257402420044,-1.057098150253296
1772561956966163700,6.567163818359375,-0.4935886859893799,-1.334751009941101,-1.3676650524139404
1772561956976230700,6.577230712890625,-0.4356563985347748,-1.2433688640594482,-1.9427413940429688
1772561956986297600,6.587297607421875,-0.45167291164398193,-1.2344603538513184,-2.563197374343872
1772561956996364500,6.597364501953125,-0.6024723052978516,-1.2384181022644043,-3.0615651607513428
1772561957006431500,6.607431396484375,-0.8998991847038269,-1.0888432264328003,-3.3022351264953613
1772561957016498700,6.617498779296875,-1.2434344291687012,-0.8410736918449402,-3.250070333480835
1772561957026566700,6.627566650390625,-1.5206660032272339,-0.7385499477386475,-3.032017707824707
1772561957036633900,6.6376337890625,-1.637578010559082,-0.738215446472168,-2.7041444778442383
1772561957046700800,6.64770068359375,-1.651041865348816,-0.8119373321533203,-2.3357694149017334
1772561957056767700,6.657767822265625,-1.6025315523147583,-0.9489750862121582,-1.9320865869522095
1772561957066834700,6.667834716796875,-1.5370396375656128,-1.1763246059417725,-1.5375983715057373
1772561957076902700,6.677902587890625,-1.5700428485870361,-1.5726221799850464,-1.2614879608154297
1772561957086969600,6.687969482421875,-1.6807653903961182,-2.0371344089508057,-1.1095898151397705
1772561957097036500,6.69803662109375,-1.6588984727859497,-2.3814847469329834,-1.155712604522705
1772561957107103500,6.708103515625,-1.344099998474121,-2.301924228668213,-1.3096195459365845
1772561957117170700,6.718170654296875,-0.7287700176239014,-1.7613356113433838,-1.3650420904159546
1772561957127237600,6.728237548828125,-0.09896758943796158,-1.074347972869873,-1.256729245185852
1772561957137305900,6.738305908203125,0.36811622977256775,-0.3319411873817444,-0.7378202676773071
1772561957147372800,6.748372802734375,0.7421973943710327,0.5667496919631958,0.2687843143939972
1772561957157439700,6.758439697265625,0.9362097978591919,1.4142040014266968,1.4293813705444336
1772561957167506700,6.768506591796875,0.9754014015197754,1.9942823648452759,2.366175413131714
1772561957177573600,6.77857373046875,1.110442876815796,2.1499557495117188,2.8802850246429443
1772561957187640600,6.788640625,1.542094111442566,1.7592756748199463,2.881558418273926
1772561957197708500,6.79870849609375,2.169034242630005,0.8496253490447998,2.4909214973449707
1772561957207775500,6.808775390625,2.2521092891693115,-0.04573606327176094,1.9996051788330078
1772561957217842700,6.8188427734375,2.0315535068511963,0.19038592278957367,2.214334487915039
1772561957227909600,6.82890966796875,2.29653000831604,0.7781330347061157,3.1107921600341797
1772561957237976600,6.8389765625,2.9566662311553955,0.7816564440727234,3.96475887298584
1772561957248043800,6.849043701171875,3.467477798461914,0.7673357725143433,4.804265022277832
1772561957258111700,6.85911181640625,3.5494019985198975,0.5227968692779541,5.620891094207764
1772561957268178700,6.8691787109375,3.130572557449341,0.10400363057851791,6.338170528411865
1772561957278245600,6.87924560546875,2.1290621757507324,-0.2777163088321686,6.754169940948486
1772561957288312600,6.8893125,0.8764825463294983,-0.5218245983123779,6.545933246612549
1772561957298379800,6.8993798828125,0.2788185775279999,-0.7535893321037292,5.509951591491699
1772561957308446700,6.90944677734375,0.21343131363391876,-0.6337447166442871,4.069979190826416
1772561957318514700,6.9195146484375,-0.04090748727321625,-0.059544019401073456,2.5597381591796875
1772561957328581600,6.92958154296875,-0.4809304177761078,0.8382336497306824,1.2380037307739258
1772561957338648600,6.939648681640625,-0.7651796936988831,1.5170047283172607,0.3071053624153137
1772561957348715500,6.949715576171875,-0.7915713787078857,1.481729507446289,-0.35044804215431213
1772561957358782700,6.95978271484375,-0.6363098621368408,0.8921011686325073,-0.8732451796531677
1772561957368850700,6.9698505859375,-0.4268368184566498,0.08418971300125122,-1.122991919517517
1772561957378917600,6.979917724609375,-0.2957829236984253,-0.5818290710449219,-1.088417410850525
1772561957388984600,6.989984619140625,-0.3132242262363434,-0.9204174876213074,-0.9808605909347534
1772561957399051800,7.0000517578125,-0.31738486886024475,-0.7510830760002136,-0.7650864720344543
1772561957409118700,7.01011865234375,-0.10200173407793045,-0.30256038904190063,-0.4369989037513733
1772561957419185700,7.020185546875,0.26312777400016785,0.12307852506637573,-0.0910303071141243
1772561957429253600,7.030253662109375,0.5733436942100525,0.31589004397392273,0.10876243561506271
1772561957439320600,7.040320556640625,0.7022505402565002,0.2904757857322693,0.0787038654088974
1772561957449387500,7.050387451171875,0.7302624583244324,0.27536338567733765,-0.10237457603216171
1772561957459454700,7.060454833984375,0.5665878057479858,0.14242665469646454,-0.45198529958724976
1772561957469521700,7.070521728515625,-0.001591505017131567,-0.22887872159481049,-0.9688616991043091
1772561957479588900,7.0805888671875,-0.7343693375587463,-0.46624520421028137,-1.6129070520401
1772561957489656600,7.090656494140625,-1.3185886144638062,-0.41950753331184387,-2.3008522987365723
1772561957499723800,7.100723876953125,-1.5389260053634644,-0.05964069440960884,-2.9758670330047607
1772561957509790700,7.110790771484375,-1.4186164140701294,0.419464111328125,-3.5191142559051514
1772561957519857700,7.120857666015625,-1.0318859815597534,1.005181908607483,-3.650331735610962
1772561957529924600,7.130924560546875,-0.6165859699249268,1.0574430227279663,-3.4664812088012695
1772561957539991600,7.140991455078125,-0.3440284729003906,0.5411213040351868,-3.2648634910583496
1772561957550059500,7.1510595703125,-0.14430125057697296,-0.20970343053340912,-3.0084502696990967
1772561957560126500,7.16112646484375,-0.09393182396888733,-1.0143104791641235,-2.720830202102661
1772561957570193700,7.171193603515625,-0.3362789452075958,-1.711865782737732,-2.5305564403533936
1772561957580261000,7.18126123046875,-0.6647721529006958,-2.1368770599365234,-2.564110279083252
1772561957590328000,7.191328125,-0.7444472908973694,-2.1623876094818115,-2.743330240249634
1772561957600395000,7.20139501953125,-0.49738606810569763,-1.8002090454101562,-3.035583734512329
1772561957610463000,7.211462890625,-0.10795283317565918,-1.159783959388733,-3.3355913162231445
1772561957620530000,7.221530029296875,0.2361784428358078,-0.49874961376190186,-3.522498846054077
1772561957630596900,7.231596923828125,0.5173730850219727,0.057262223213911057,-3.450923204421997
1772561957640664000,7.2416640625,0.7702264189720154,0.5133013725280762,-3.0903756618499756
1772561957650731000,7.25173095703125,0.9942842721939087,0.770108699798584,-2.537327289581299
1772561957660798000,7.2617978515625,1.0513159036636353,0.4652768671512604,-1.9210792779922485
1772561957670866000,7.271865966796875,0.8390347361564636,-0.24500443041324615,-1.3340508937835693
1772561957680933000,7.28193310546875,0.47271081805229187,-0.9246537685394287,-0.7410309314727783
1772561957691000000,7.292,0.2024971842765808,-1.3020501136779785,-0.2038133144378662
1772561957701067000,7.30206689453125,0.135873943567276,-1.4027284383773804,0.3090529143810272
1772561957711134000,7.312134033203125,0.23074373602867126,-1.3396624326705933,0.7629296183586121
1772561957721202000,7.322201904296875,0.31096747517585754,-1.2726490497589111,1.0300137996673584
1772561957731268900,7.332268798828125,0.3305012285709381,-1.200480580329895,1.0899056196212769
1772561957741336000,7.342336181640625,0.2670378088951111,-0.9828752875328064,0.9780752062797546
1772561957751403000,7.352403076171875,0.1494067907333374,-0.643081784248352,0.8508621454238892
1772561957761470000,7.362469970703125,0.09812790155410767,-0.2390008568763733,0.8883703351020813
1772561957771537200,7.372537109375,0.052751362323760986,0.29214316606521606,1.1200131177902222
1772561957781605000,7.382605224609375,-0.16972166299819946,0.8778351545333862,1.4524846076965332
1772561957791672000,7.392672119140625,-0.37993746995925903,1.4783813953399658,1.9664589166641235
1772561957801739000,7.402739013671875,-0.5194231867790222,1.9212677478790283,2.2995378971099854
1772561957811806000,7.412805908203125,-0.5688741207122803,1.9532874822616577,1.977182388305664
1772561957821873000,7.422872802734375,-0.7544298768043518,1.6343982219696045,0.8833569288253784
1772561957831939800,7.43293994140625,-0.8043963313102722,2.2715396881103516,0.3392893970012665
1772561957842007800,7.4430078125,-0.4044888913631439,3.1169991493225098,0.7408269643783569
1772561957852075000,7.453074951171875,0.32858186960220337,3.2055749893188477,1.4143385887145996
1772561957862142200,7.46314208984375,1.1196105480194092,2.640775680541992,2.1007373332977295
1772561957872209200,7.473209228515625,1.7467015981674194,1.6709463596343994,2.9096858501434326
1772561957882276000,7.483276123046875,2.1526594161987305,0.8128023743629456,3.828216791152954
1772561957892343000,7.493343017578125,2.2449681758880615,0.12053413689136505,4.583030700683594
1772561957902411000,7.503410888671875,2.004587411880493,-0.5459802150726318,4.863518238067627
1772561957912478000,7.51347802734375,1.615159511566162,-1.093347191810608,4.628682613372803
1772561957922545000,7.523544921875,1.2493886947631836,-1.3146177530288696,3.934905767440796
1772561957932611800,7.53361181640625,0.9284762144088745,-1.159166932106018,2.8836259841918945
1772561957942679000,7.543678955078125,0.7384847402572632,-0.5782966613769531,1.7847785949707031
1772561957952746000,7.55374609375,0.6177201867103577,0.12917982041835785,0.8400614261627197
1772561957962814200,7.563814208984375,0.41450583934783936,0.6966789364814758,0.1509397178888321
1772561957972881200,7.573881103515625,0.11156487464904785,1.0040719509124756,-0.24650084972381592
1772561957982948000,7.583947998046875,-0.132811039686203,1.1580132246017456,-0.3009326756000519
1772561957993015000,7.59401513671875,-0.20105135440826416,1.1259032487869263,-0.19328264892101288
1772561958003082000,7.60408203125,-0.11620064079761505,0.8344234824180603,-0.006084524095058441
1772561958013149000,7.61414892578125,-0.0006103964988142252,0.38864389061927795,0.2245103418827057
1772561958023217000,7.624216796875,-0.03214781731367111,-0.0917152687907219,0.4027831256389618
1772561958033283800,7.634283935546875,-0.19767393171787262,-0.45483195781707764,0.4539443254470825
1772561958043351000,7.64435107421875,-0.40522152185440063,-0.5773317813873291,0.327336847782135
1772561958053418000,7.65441796875,-0.5288619995117188,-0.41615965962409973,0.06407459080219269
1772561958063485000,7.66448486328125,-0.5275647640228271,-0.12023133784532547,-0.32018813490867615
1772561958073552000,7.6745517578125,-0.42481040954589844,0.11973918229341507,-0.7361328601837158
1772561958083620000,7.6846201171875,-0.2777075171470642,0.23327985405921936,-1.0518471002578735
1772561958093687000,7.69468701171875,-0.19281871616840363,0.24366113543510437,-1.1858079433441162
1772561958103754000,7.70475390625,-0.186998650431633,0.22394227981567383,-1.137725830078125
1772561958113821000,7.714821044921875,-0.2280784398317337,0.18363428115844727,-0.9394364356994629
1772561958123888000,7.72488818359375,-0.25417476892471313,0.15856380760669708,-0.6352781653404236
1772561958133955800,7.734955810546875,-0.26310965418815613,0.14583496749401093,-0.30266159772872925
1772561958144023000,7.74502294921875,-0.2589260935783386,0.14847016334533691,-0.07749638706445694
1772561958154090000,7.755090087890625,-0.23480398952960968,0.1847219169139862,0.02960875816643238
1772561958164157000,7.765156982421875,-0.23934787511825562,0.14806322753429413,0.03538275882601738
1772561958174224000,7.775223876953125,-0.3555415868759155,0.020975589752197266,-0.04518585279583931
1772561958184290800,7.785290771484375,-0.5171056985855103,-0.04881174862384796,-0.12585432827472687
1772561958194359000,7.795359130859375,-0.5334519147872925,0.028557607904076576,-0.17017465829849243
1772561958204426000,7.805426025390625,-0.3540686070919037,0.11697003245353699,-0.26848071813583374
1772561958214493000,7.815492919921875,-0.11325757950544357,0.16071884334087372,-0.3290521800518036
1772561958224560000,7.82556005859375,0.02159237675368786,0.15923918783664703,-0.2953488230705261
1772561958234627000,7.835626953125,0.020682375878095627,0.07767828553915024,-0.1862734705209732
1772561958244694000,7.845694091796875,-0.04747377708554268,-0.08989899605512619,-0.046066027134656906
1772561958254762000,7.855761962890625,-0.11723341792821884,-0.3006032407283783,0.10390748828649521
1772561958264829000,7.865828857421875,-0.1888601928949356,-0.570682942867279,0.2101910561323166
1772561958274896000,7.875895751953125,-0.1998950093984604,-0.8354549407958984,0.28998494148254395
1772561958284962800,7.885962890625,-0.16894401609897614,-1.0939357280731201,0.30173349380493164
1772561958295029800,7.89602978515625,-0.1313263326883316,-1.272819995880127,0.22796818614006042
1772561958305097200,7.90609716796875,-0.16145333647727966,-1.2462477684020996,0.1078265979886055
1772561958315165000,7.9161650390625,-0.25531670451164246,-1.1123701333999634,-0.022128205746412277
1772561958325232000,7.926232177734375,-0.396750271320343,-1.0328694581985474,-0.18330350518226624
1772561958335299000,7.936299072265625,-0.5679832696914673,-0.8856152892112732,-0.32813501358032227
1772561958345366000,7.946365966796875,-0.6664238572120667,-0.703618586063385,-0.48042359948158264
1772561958355433000,7.956432861328125,-0.6457459926605225,-0.5953150391578674,-0.6798549294471741
1772561958365500000,7.9665,-0.6077945828437805,-0.6160040497779846,-0.9118927121162415
1772561958375568000,7.97656787109375,-0.6334981322288513,-0.7636110782623291,-0.985302746295929
1772561958385634800,7.986634765625,-0.6371367573738098,-1.1778324842453003,-0.6903544664382935
1772561958395701800,7.99670166015625,-0.5941382050514221,-1.896414875984192,-0.16591893136501312
1772561958405769200,8.006769287109375,-0.6911973357200623,-2.860386848449707,0.08691439032554626
1772561958415836200,8.016836181640626,-0.9742721915245056,-3.240558624267578,0.053343914449214935
1772561958425903000,8.026903076171875,-1.2122647762298584,-2.3584907054901123,-0.062420766800642014
1772561958435971000,8.03697119140625,-1.248207926750183,-0.42134588956832886,-0.030164560303092003
1772561958446038000,8.0470380859375,-0.931797981262207,1.6846424341201782,0.38299983739852905
1772561958456105000,8.05710498046875,-0.5363560914993286,2.760129928588867,0.8469187617301941
1772561958466172000,8.067171875,-0.15739281475543976,2.7048799991607666,1.4775545597076416
1772561958476238800,8.07723876953125,0.30395960807800293,1.7798914909362793,2.2932543754577637
1772561958486306000,8.08730615234375,0.8469738960266113,0.5042114853858948,3.3425488471984863
1772561958496374000,8.0973740234375,1.2465697526931763,-0.7672399282455444,4.534992694854736
1772561958506441000,8.10744091796875,1.3919131755828857,-1.696311354637146,5.6103973388671875
1772561958516508200,8.117508056640625,1.426066279411316,-2.099928140640259,6.447866439819336
1772561958526575000,8.1275751953125,1.3720566034317017,-2.082207679748535,6.95682430267334
1772561958536642000,8.13764208984375,1.1921955347061157,-1.7602062225341797,6.957680702209473
1772561958546709000,8.147708984375,0.9433196187019348,-1.3357646465301514,6.231353759765625
1772561958556777000,8.15777685546875,0.7605761885643005,-0.823695182800293,4.890000820159912
1772561958566844000,8.167843994140625,0.7244754433631897,-0.10729902237653732,3.245948314666748
1772561958576910000,8.17791015625,0.963858962059021,0.7687251567840576,1.631919026374817
1772561958586977000,8.18797705078125,1.3286010026931763,1.4137438535690308,0.35893020033836365
1772561958597044200,8.198044189453125,1.473438024520874,1.462652564048767,-0.44063571095466614
1772561958607111200,8.208111083984376,1.415368676185608,1.0393873453140259,-0.7294009327888489
1772561958617179100,8.21817919921875,1.23112952709198,0.34749725461006165,-0.644446611404419
1772561958627246000,8.22824609375,0.935544490814209,-0.4386916160583496,-0.37121695280075073
1772561958637313000,8.23831298828125,0.5396009087562561,-1.0761111974716187,-0.03741128742694855
1772561958647380200,8.248380126953125,0.04318422079086304,-1.366661548614502,0.17964166402816772
1772561958657447200,8.258447265625,-0.4886157512664795,-1.1558934450149536,0.1597401350736618
1772561958667515100,8.26851513671875,-0.9062390923500061,-0.4162321090698242,-0.15464869141578674
1772561958677582000,8.27858203125,-1.1668120622634888,0.41519400477409363,-0.7436200976371765
1772561958687649000,8.28864892578125,-1.1545716524124146,1.3763823509216309,-1.3539345264434814
1772561958697716200,8.29871630859375,-1.1000770330429077,2.1347970962524414,-1.8522335290908813
1772561958707783200,8.308783203125,-1.1082414388656616,2.518059730529785,-2.183915615081787
1772561958717850000,8.31885009765625,-1.303452730178833,2.38703989982605,-2.3309555053710938
1772561958727918000,8.32891796875,-1.6618633270263672,1.8266336917877197,-2.441678762435913
1772561958737985000,8.338985107421875,-2.0064260959625244,1.041416049003601,-2.649921178817749
1772561958748052200,8.34905224609375,-2.137629747390747,0.36134859919548035,-2.988046407699585
1772561958758119200,8.359119140625,-1.9695268869400024,-0.10615307092666626,-3.3980157375335693
1772561958768186000,8.36918603515625,-1.5715014934539795,-0.4319005310535431,-3.7827908992767334
1772561958778253000,8.379253173828126,-1.054492712020874,-0.7179493308067322,-4.064393520355225
1772561958788321000,8.389321044921875,-0.5784193873405457,-1.1167689561843872,-4.286503314971924
1772561958798388000,8.399387939453124,-0.2795288562774658,-1.5096410512924194,-4.531940460205078
1772561958808455200,8.409455078125,-0.14826935529708862,-1.684064269065857,-4.712543964385986
1772561958818522000,8.419522216796874,-0.1810867041349411,-1.9221484661102295,-4.9179558753967285
1772561958828589300,8.42958935546875,-0.3018663823604584,-2.089029312133789,-5.234811782836914
1772561958838656300,8.43965625,-0.2503661811351776,-1.8414230346679688,-5.461243152618408
1772561958848724200,8.44972412109375,-0.024772990494966507,-1.2408785820007324,-5.457023620605469
1772561958858791200,8.459791259765625,0.17120610177516937,-0.48503461480140686,-5.210517406463623
1772561958868858000,8.469858154296874,0.22920522093772888,0.1204872652888298,-4.783957481384277
1772561958878925000,8.479925048828125,0.12347160279750824,0.19478067755699158,-4.309897422790527
1772561958888992000,8.489991943359374,0.003209375310689211,-0.18913982808589935,-3.7999889850616455
1772561958899059000,8.500058837890625,0.005410477984696627,-0.6128982901573181,-3.1736390590667725
1772561958909127200,8.510127197265625,0.13905216753482819,-0.8727759122848511,-2.3592398166656494
1772561958919194000,8.520194091796874,0.2931029796600342,-1.0552102327346802,-1.4626493453979492
1772561958929261300,8.53026123046875,0.34667032957077026,-1.2881052494049072,-0.7411907315254211
1772561958939328300,8.540328369140624,0.33966514468193054,-1.5447993278503418,-0.31590017676353455
1772561958949395200,8.550395263671875,0.3659995496273041,-1.6952935457229614,-0.13410267233848572
1772561958959462100,8.560462158203125,0.38887372612953186,-1.8501273393630981,-0.17952582240104675
1772561958969530000,8.570530029296876,0.2754051983356476,-2.0188002586364746,-0.4391443431377411
1772561958979597000,8.58059716796875,0.0697133019566536,-1.7653487920761108,-0.6583099961280823
1772561958989664000,8.5906640625,-0.13323821127414703,-0.6864012479782104,-0.3997471332550049
1772561958999731000,8.60073095703125,-0.3627060353755951,0.9405544400215149,0.37456241250038147
1772561959009798100,8.610798095703124,-0.5656996369361877,2.4382472038269043,1.3446987867355347
1772561959019865000,8.620864990234375,-0.6566700339317322,3.201521158218384,2.1338107585906982
1772561959029933300,8.630933349609375,-0.44859030842781067,3.6181914806365967,2.797581672668457
1772561959040000300,8.641000244140624,-0.38485339283943176,2.8388442993164062,2.4149632453918457
1772561959050067200,8.651067138671875,-0.5292020440101624,2.428102731704712,1.698910117149353
1772561959060134100,8.661134033203124,-0.12082282453775406,3.0387678146362305,2.2161381244659424
1772561959070201000,8.671201171875,0.7238690257072449,2.764890670776367,3.0937864780426025
1772561959080268000,8.68126806640625,1.7578173875808716,2.2404918670654297,3.874220132827759
1772561959090336000,8.6913359375,2.4582738876342773,1.6970852613449097,4.981996536254883
1772561959100403000,8.70140283203125,2.176286458969116,0.764500617980957,6.10949182510376
1772561959110470100,8.71147021484375,1.1298357248306274,0.14927203953266144,6.944701671600342
1772561959120537000,8.721537109375,0.06192834675312042,0.3379063904285431,7.323033332824707
1772561959130604000,8.73160400390625,-0.1368587762117386,0.9800882935523987,6.956126689910889
1772561959140671000,8.7416708984375,0.5004263520240784,1.4738082885742188,6.019308567047119
1772561959150739200,8.7517392578125,0.9459776878356934,1.4146546125411987,4.621803283691406
1772561959160806100,8.76180615234375,0.9512771368026733,0.9137340188026428,3.205106258392334
1772561959170873000,8.771873046875,0.7674175500869751,0.37300047278404236,2.1660101413726807
1772561959180940000,8.78193994140625,0.5496383905410767,-0.11607068032026291,1.6058512926101685
1772561959191007200,8.79200732421875,0.2813142240047455,-0.6092809438705444,1.2584400177001953
1772561959201074200,8.80207421875,-0.027667846530675888,-0.7365123629570007,0.9313995838165283
1772561959211142100,8.81214208984375,-0.26595792174339294,-0.4186638295650482,0.5832679867744446
1772561959221209000,8.822208984375,-0.32830172777175903,0.06847972422838211,0.22133424878120422
1772561959231276000,8.832276123046874,-0.24131327867507935,0.4217562973499298,-0.07353227585554123
1772561959241343000,8.842343017578125,-0.1066334992647171,0.8275133967399597,-0.059787165373563766
1772561959251410000,8.852409912109374,0.04686817154288292,1.4193977117538452,0.32625827193260193
1772561959261478100,8.86247802734375,0.21841062605381012,1.8320313692092896,0.8647994995117188
1772561959271545000,8.872545166015625,0.3614679276943207,1.7436988353729248,1.2288727760314941
1772561959281612000,8.882612060546874,0.44992029666900635,1.2934293746948242,1.2813905477523804
1772561959291679200,8.89267919921875,0.39687225222587585,0.6879549622535706,1.063818335533142
1772561959301746200,8.90274609375,0.21464359760284424,0.11879322677850723,0.6260734796524048
1772561959311813000,8.912813232421875,-0.0009041432058438659,-0.21350029110908508,0.041853174567222595
1772561959321880000,8.922880126953125,-0.11228419840335846,-0.24465689063072205,-0.5428557991981506
1772561959331948000,8.932947998046876,-0.06390681117773056,0.03331907466053963,-0.9971578121185303
1772561959342015000,8.943014892578125,0.105959452688694,0.46832752227783203,-1.2855467796325684
1772561959352082000,8.95308203125,0.21482548117637634,0.699364185333252,-1.4865927696228027
1772561959362149000,8.963149169921875,0.2355552613735199,0.6106274127960205,-1.6530648469924927
1772561959372216300,8.97321630859375,0.20103377103805542,0.2488769292831421,-1.818764567375183
1772561959382284300,8.9832841796875,0.10087627917528152,-0.14772874116897583,-1.9952458143234253
1772561959392351200,8.993351318359375,-0.034338001161813736,-0.344636470079422,-2.0694515705108643
1772561959402418200,9.003418212890624,-0.13991689682006836,-0.33117738366127014,-2.0510401725769043
1772561959412485000,9.013485107421875,-0.2004753053188324,-0.3225359618663788,-2.0128014087677
1772561959422552000,9.023552001953124,-0.2047094702720642,-0.39537128806114197,-2.0114195346832275
1772561959432619000,9.033618896484375,-0.14164528250694275,-0.543572723865509,-2.0853655338287354
1772561959442687000,9.04368701171875,-0.11575189977884293,-0.7454725503921509,-2.223219871520996
1772561959452754000,9.05375390625,-0.20310038328170776,-0.955642580986023,-2.391249418258667
1772561959462821000,9.063821044921875,-0.3429054319858551,-1.0621309280395508,-2.5012593269348145
1772561959472888300,9.073888427734374,-0.479202002286911,-1.0897871255874634,-2.5067431926727295
1772561959482955300,9.083955322265625,-0.5907988548278809,-1.0354868173599243,-2.362375020980835
1772561959493022200,9.094022216796875,-0.6285390257835388,-0.8420486450195312,-2.0539772510528564
1772561959503090200,9.104090087890626,-0.6268007755279541,-0.6368550062179565,-1.7011735439300537
1772561959513157000,9.1141572265625,-0.603420615196228,-0.5558829307556152,-1.343567132949829
1772561959523224000,9.12422412109375,-0.578467607498169,-0.6122484803199768,-0.9736301302909851
1772561959533291000,9.134291015625,-0.608801543712616,-0.6072198748588562,-0.6961894631385803
1772561959543359000,9.14435888671875,-0.6968456506729126,-0.4993022084236145,-0.5978698134422302
1772561959553426000,9.154426025390626,-0.7441745400428772,-0.47469648718833923,-0.630240261554718
1772561959563493000,9.1644931640625,-0.6606735587120056,-0.5451781153678894,-0.6523370146751404
1772561959573560600,9.174560546875,-0.4513016641139984,-0.5014923810958862,-0.526906430721283
1772561959583627500,9.18462744140625,-0.21227684617042542,-0.23255255818367004,-0.281613826751709
1772561959593694500,9.194694580078124,-0.005735916085541248,0.23388199508190155,-0.10085124522447586
1772561959603762400,9.204762451171876,0.043947748839855194,0.5937698483467102,-0.35862234234809875
1772561959613829400,9.214829345703125,-0.1396481841802597,0.7654579877853394,-1.0416972637176514
1772561959623896600,9.224896484375,-0.4833781123161316,1.1014535427093506,-1.8602089881896973
1772561959633963500,9.234963623046875,-0.7266355156898499,2.1909542083740234,-2.349890947341919
1772561959644030500,9.245030517578124,-0.656920850276947,3.7578725814819336,-2.1505908966064453
1772561959654097700,9.25509765625,0.02070421352982521,4.1629862785339355,-1.3651107549667358
1772561959664165400,9.265165283203125,0.8041534423828125,2.8625380992889404,-0.672460675239563
1772561959674232600,9.275232666015626,1.4030102491378784,1.3141459226608276,0.20594383776187897
1772561959684299500,9.285299560546875,1.5851837396621704,0.2213720679283142,1.5268927812576294
1772561959694366500,9.295366455078126,1.1980395317077637,-0.7043642997741699,2.6741702556610107
1772561959704433400,9.305433349609375,0.39314037561416626,-1.1816456317901611,3.1542601585388184
1772561959714500400,9.315500244140624,0.044704619795084,-1.1808578968048096,2.880734443664551
1772561959724568600,9.325568603515626,0.30052414536476135,-1.0771037340164185,1.7822054624557495
1772561959734635500,9.335635498046875,0.604467511177063,-0.6921901702880859,0.3939017653465271
1772561959744702500,9.345702392578126,0.6497617363929749,0.029586121439933777,-0.6116482019424438
1772561959754769700,9.355769775390625,0.45352035760879517,0.858585000038147,-1.0739558935165405
1772561959764836600,9.365836669921874,0.2566869258880615,1.2800183296203613,-1.1945281028747559
1772561959774904600,9.375904541015625,0.2888230085372925,1.0149562358856201,-1.17088782787323
1772561959784971500,9.385971435546875,0.5256291627883911,0.33977222442626953,-1.080108404159546
1772561959795038500,9.39603857421875,0.8072198033332825,-0.21035456657409668,-0.8942258358001709
1772561959805105400,9.40610546875,1.007565975189209,-0.40448808670043945,-0.550741970539093
1772561959815172400,9.41617236328125,1.124358057975769,-0.24557913839817047,-0.04164198413491249
1772561959825239300,9.4262392578125,1.2641655206680298,0.020200343802571297,0.5017113089561462
1772561959835307500,9.4363076171875,1.46430242061615,0.17656438052654266,0.9890040159225464
1772561959845374500,9.44637451171875,1.6538903713226318,0.21104378998279572,1.3130236864089966
1772561959855441700,9.456441650390625,1.7032185792922974,0.2019491046667099,1.4519037008285522
1772561959865508600,9.466508544921876,1.6695088148117065,0.22222907841205597,1.4517271518707275
1772561959875575600,9.476575439453125,1.645946741104126,0.25689518451690674,1.3257393836975098
1772561959885642500,9.486642578125,1.5642675161361694,0.16380038857460022,1.0561375617980957
1772561959895710500,9.49671044921875,1.4379605054855347,-0.008433965034782887,0.6401381492614746
1772561959905777400,9.50677734375,1.2977980375289917,-0.10887827724218369,0.1327332854270935
1772561959915844400,9.51684423828125,1.0992927551269531,-0.09048329293727875,-0.40278953313827515
1772561959925911600,9.52691162109375,0.8592332601547241,0.023253124207258224,-0.9209809899330139
1772561959935978500,9.536978515625,0.6792605519294739,0.21097534894943237,-1.378007173538208
1772561959946045400,9.54704541015625,0.5607174038887024,0.4061485826969147,-1.769071340560913
1772561959956113700,9.55711376953125,0.49142006039619446,0.689797580242157,-1.9824984073638916
1772561959966180600,9.5671806640625,0.43560606241226196,0.9218723773956299,-1.914556860923767
1772561959976247600,9.57724755859375,0.3747760057449341,1.0252304077148438,-1.6997820138931274
1772561959986314500,9.587314453125,0.38373807072639465,1.0758694410324097,-1.4147627353668213
1772561959996381400,9.59738134765625,0.40997207164764404,1.0033831596374512,-1.1352202892303467
1772561960006448400,9.607448486328124,0.466801255941391,0.7981858849525452,-0.9393930435180664
1772561960016516400,9.617516357421875,0.5521113872528076,0.4817514419555664,-0.8355095386505127
1772561960026583600,9.62758349609375,0.7140606045722961,0.14322906732559204,-0.7280693650245667
1772561960036650500,9.637650390625,0.9500643610954285,-0.12691320478916168,-0.5335915088653564
1772561960046717400,9.647717529296875,1.2211453914642334,-0.27900633215904236,-0.24248135089874268
1772561960056784400,9.657784423828126,1.501233696937561,-0.2638145983219147,0.11162745952606201
1772561960066851300,9.667851318359375,1.770512580871582,-0.21083474159240723,0.38773229718208313
1772561960076919600,9.67791943359375,1.8602672815322876,-0.3640911281108856,0.5315394997596741
1772561960086986500,9.687986572265626,1.6873756647109985,-0.8303390145301819,0.5905748605728149
1772561960097053400,9.698053466796875,1.3863753080368042,-1.6279191970825195,0.632703423500061
1772561960107120600,9.70812060546875,1.0147790908813477,-2.67218017578125,0.6819425821304321
1772561960117187600,9.7181875,0.7748187780380249,-3.729031562805176,0.8120926022529602
1772561960127254500,9.728254638671874,0.7601900100708008,-3.96718692779541,0.9721629619598389
1772561960137322500,9.738322509765625,0.8777613639831543,-3.1709094047546387,0.9739033579826355
1772561960147389400,9.748389404296875,0.9764392375946045,-0.7494292259216309,0.46054017543792725
1772561960157456400,9.758456298828126,0.7009661197662354,2.706899404525757,-0.3135789632797241
1772561960167523300,9.7685234375,0.2359241098165512,4.041663646697998,-1.168737530708313
1772561960177590500,9.778590576171876,0.07281721383333206,3.95224666595459,-1.7107901573181152
1772561960187657500,9.788657470703125,-0.31878411769866943,2.857928991317749,-2.3452723026275635
1772561960197725400,9.798725341796874,-0.8593906164169312,1.7958872318267822,-2.9399147033691406
1772561960207792600,9.808792724609376,-1.0880727767944336,0.9375360012054443,-3.296700954437256
1772561960217859600,9.818859619140625,-1.179857611656189,0.3311361074447632,-3.401573896408081
1772561960227926500,9.828926513671876,-1.1417608261108398,0.3604428768157959,-3.4042112827301025
1772561960237993500,9.838993408203125,-1.0071824789047241,0.8047846555709839,-3.384009599685669
1772561960248060400,9.849060302734374,-1.0019009113311768,0.8764433860778809,-3.2375688552856445
1772561960258128400,9.85912841796875,-0.9346941709518433,-0.056469399482011795,-2.735363721847534
1772561960268195300,9.8691953125,-0.6545916795730591,-0.31741657853126526,-1.6674320697784424
1772561960278262300,9.87926220703125,-0.42761579155921936,-0.41399291157722473,-0.695768415927887
1772561960288329700,9.889329833984375,-0.3518030345439911,-0.5629009008407593,-0.17418058216571808
1772561960298396700,9.899396728515624,-0.2912960350513458,-0.6840150952339172,-0.06757691502571106
1772561960308463600,9.909463623046875,-0.21698424220085144,-0.7598177194595337,-0.20590895414352417
1772561960318531600,9.919531494140625,-0.15681996941566467,-0.8248451948165894,-0.4882120192050934
1772561960328598500,9.9295986328125,-0.07379060238599777,-0.8512464165687561,-0.8117759823799133
1772561960338665500,9.93966552734375,-0.03659769147634506,-0.7157727479934692,-1.0280486345291138
1772561960348732400,9.949732421875,0.0168551467359066,-0.36167192459106445,-1.0712206363677979
1772561960358799400,9.95979931640625,0.041797246783971786,0.053290918469429016,-1.0309256315231323
1772561960368867300,9.969867431640624,-0.024177508428692818,0.318372905254364,-0.889734148979187
1772561960378934300,9.979934326171875,-0.07754246145486832,0.5304164886474609,-0.6100258231163025
1772561960389001700,9.990001708984375,-0.10181264579296112,0.663941502571106,-0.23513181507587433
1772561960399068700,10.000068603515626,-0.13160276412963867,0.696290135383606,0.18034447729587555
1772561960409135600,10.010135498046875,-0.18597519397735596,0.5710456371307373,0.5792554020881653
1772561960419202600,10.02020263671875,-0.2445783168077469,0.3084403872489929,0.9039676785469055
1772561960429269500,10.03026953125,-0.2822284996509552,0.06730473786592484,1.1333491802215576
1772561960439337500,10.04033740234375,-0.35641032457351685,-0.18735018372535706,1.2621351480484009
1772561960449404400,10.050404296875,-0.48514193296432495,-0.4497016370296478,1.2851102352142334
1772561960459471400,10.060471435546875,-0.6509532928466797,-0.5897293090820312,1.229690432548523
1772561960469538600,10.07053857421875,-0.7911258339881897,-0.6024733185768127,1.177388310432434
1772561960479605500,10.08060546875,-0.8685380220413208,-0.5222986340522766,1.1376878023147583
1772561960489673500,10.090673583984374,-0.9104948043823242,-0.3435666859149933,1.1385055780410767
1772561960499740700,10.10074072265625,-0.9821844696998596,0.1017729640007019,1.4088222980499268
1772561960509807600,10.1108076171875,-0.9973673820495605,-0.27338361740112305,1.6047353744506836
1772561960519874600,10.12087451171875,-1.0147663354873657,-0.6387701034545898,1.7736825942993164
1772561960529941500,10.13094140625,-1.0654652118682861,-0.49881991744041443,1.8836559057235718
1772561960540008400,10.141008544921876,-1.1389505863189697,-0.08620546013116837,1.92238450050354
1772561960550076400,10.151076416015625,-1.2035669088363647,0.3261812925338745,1.926577091217041
1772561960560143400,10.161143310546874,-1.1800333261489868,0.8798255920410156,1.8723865747451782
1772561960570210600,10.17121044921875,-0.8825079202651978,1.4743062257766724,1.5865929126739502
1772561960580277500,10.181277587890625,-0.37441009283065796,1.7349945306777954,0.9657911062240601
1772561960590344400,10.191344482421876,-0.05035371705889702,1.5143495798110962,0.1930227130651474
1772561960600411400,10.201411376953125,0.05567551404237747,1.1132633686065674,-0.48007819056510925
1772561960610479400,10.211479248046874,0.14968296885490417,0.7622281312942505,-0.9254807233810425
1772561960620546300,10.22154638671875,0.2920779287815094,0.4431779682636261,-1.1576257944107056
1772561960630613200,10.23161328125,0.46207281947135925,0.1667351871728897,-1.2558999061584473
1772561960640680200,10.24168017578125,0.5837907195091248,-0.052015531808137894,-1.2554740905761719
1772561960650747400,10.251747314453125,0.6071234941482544,-0.19234947860240936,-1.1505622863769531
1772561960660814600,10.261814697265624,0.6244087219238281,-0.28635159134864807,-1.005013346672058
1772561960670882600,10.271882568359375,0.5941488146781921,-0.3532416820526123,-0.8306042551994324
1772561960680949500,10.281949462890625,0.4686849117279053,-0.4418533146381378,-0.6284908056259155
1772561960691016400,10.292016357421875,0.2890017032623291,-0.583472728729248,-0.39645200967788696
1772561960701083400,10.30208349609375,0.09907998144626617,-0.633903443813324,-0.20346523821353912
1772561960711150300,10.312150390625,-0.0772969201207161,-0.5668330788612366,-0.054615575820207596
1772561960721217300,10.32221728515625,-0.2157924771308899,-0.3906644284725189,0.0682259276509285
1772561960731285200,10.33228515625,-0.3065143823623657,-0.1732250452041626,0.19307571649551392
1772561960741352200,10.342352294921875,-0.3403754234313965,-0.07266487926244736,0.32725563645362854
1772561960751419400,10.35241943359375,-0.31002336740493774,-0.06904884427785873,0.4988611936569214
1772561960761486300,10.362486328125,-0.2330138087272644,-0.07180202007293701,0.6965811848640442
1772561960771553500,10.372553466796875,-0.1357772797346115,-0.047988831996917725,0.8994078040122986
1772561960781620500,10.382620361328126,-0.04511155188083649,0.017673801630735397,1.0778495073318481
1772561960791688400,10.3926884765625,0.024037426337599754,0.08304082602262497,1.2093793153762817
1772561960801755400,10.40275537109375,0.04819762334227562,0.0923328623175621,1.2884272336959839
1772561960811822300,10.412822265625,0.031246069818735123,0.039080824702978134,1.3265022039413452
1772561960821889300,10.42288916015625,-0.007699198555201292,-0.02274419367313385,1.315333366394043
1772561960831956500,10.43295654296875,-0.05326668173074722,-0.102128766477108,1.248071551322937
1772561960842023400,10.4430234375,-0.0993201956152916,-0.21936191618442535,1.1303446292877197
1772561960852091400,10.45309130859375,-0.1523975282907486,-0.32920852303504944,0.9801084995269775
1772561960862158300,10.463158447265625,-0.21588756144046783,-0.3884012699127197,0.8018059134483337
1772561960872225500,10.4732255859375,-0.27971312403678894,-0.40543991327285767,0.6008853316307068
1772561960882292500,10.48329248046875,-0.345002144575119,-0.4353456199169159,0.4185415804386139
1772561960892359400,10.493359375,-0.404668927192688,-0.5067462921142578,0.2789804935455322
1772561960902426400,10.50342626953125,-0.4642430245876312,-0.5908616781234741,0.1971130669116974
1772561960912494300,10.513494384765625,-0.5228109955787659,-0.6655556559562683,0.16371063888072968
1772561960922561300,10.523561279296874,-0.5746260285377502,-0.728426456451416,0.1590767353773117
1772561960932628500,10.53362841796875,-0.6328219175338745,-0.7584669589996338,0.17358005046844482
1772561960942695400,10.5436953125,-0.7070293426513672,-0.7429929375648499,0.21998482942581177
1772561960952762400,10.553762451171876,-0.7849395871162415,-0.7091845870018005,0.28232836723327637
1772561960962830300,10.563830322265625,-0.85903400182724,-0.6874105930328369,0.33161255717277527
1772561960972897300,10.573897216796874,-0.9056934118270874,-0.6630248427391052,0.3816341757774353
1772561960982964500,10.583964599609375,-0.8996890187263489,-0.6118918657302856,0.41778844594955444
1772561960993031400,10.594031494140625,-0.8298335075378418,-0.521987795829773,0.46489736437797546
1772561961003098400,10.604098388671876,-0.7177631855010986,-0.37345054745674133,0.5170590877532959
1772561961013165600,10.61416552734375,-0.5814226269721985,-0.198094442486763,0.5749841928482056
1772561961023233500,10.624233642578124,-0.44247037172317505,-0.04230431467294693,0.6267211437225342
1772561961033300500,10.634300537109375,-0.3331494629383087,0.08412552624940872,0.6572676301002502
1772561961043367400,10.644367431640624,-0.25420618057250977,0.17641684412956238,0.6645862460136414
1772561961053434400,10.654434326171875,-0.18825246393680573,0.24388191103935242,0.646313488483429
1772561961063501300,10.664501220703125,-0.12384071946144104,0.2847883105278015,0.6158879399299622
1772561961073568300,10.674568359375,-0.04379328712821007,0.3022211194038391,0.5974924564361572
1772561961083636500,10.684636474609375,0.04404309019446373,0.30583128333091736,0.5834011435508728
1772561961093703400,10.694703369140624,0.142674058675766,0.32171759009361267,0.5858602523803711
1772561961103770400,10.704770263671875,0.2486225962638855,0.3377237021923065,0.5985593199729919
1772561961113837600,10.714837646484375,0.3644149899482727,0.34235522150993347,0.6054824590682983
1772561961123904500,10.724904541015626,0.48165664076805115,0.3609776198863983,0.5977198481559753
1772561961133971500,10.734971435546875,0.589664101600647,0.3779084086418152,0.5328378081321716
1772561961144039400,10.745039306640624,0.6951375007629395,0.3462833762168884,0.4083259701728821
1772561961154106400,10.7551064453125,0.7859715223312378,0.26843732595443726,0.2665054500102997
1772561961164173300,10.76517333984375,0.8513430953025818,0.19327811896800995,0.1542675942182541
1772561961174240300,10.775240234375,0.8764910697937012,0.1325383335351944,0.09723866730928421
1772561961184307500,10.785307373046875,0.8706837892532349,0.09456778317689896,0.08259847015142441
1772561961194374400,10.79537451171875,0.8596705198287964,0.08686432242393494,0.09454887360334396
1772561961204442600,10.805442626953125,0.8468575477600098,0.08492660522460938,0.10653496533632278
1772561961214509600,10.815509521484374,0.8378658890724182,0.09001830965280533,0.11241123080253601
1772561961224576500,10.825576416015625,0.836617112159729,0.10135991126298904,0.1428423672914505
1772561961234643500,10.8356435546875,0.8371005058288574,0.12045104801654816,0.19994160532951355
1772561961244710400,10.84571044921875,0.8583216071128845,0.20776012539863586,0.27990567684173584
1772561961254777300,10.85577734375,0.9206321239471436,0.36067110300064087,0.32982078194618225
1772561961264845300,10.86584521484375,1.0233254432678223,0.5031337141990662,0.3231242597103119
1772561961274912300,10.875912353515625,1.1132748126983643,0.6002823710441589,0.2543262839317322
1772561961284979500,10.8859794921875,1.1454607248306274,0.6445936560630798,0.11427251249551773
1772561961295046400,10.89604638671875,1.1039388179779053,0.5759469270706177,-0.08328051120042801
1772561961305113300,10.90611328125,0.9965945482254028,0.43354904651641846,-0.3249032497406006
1772561961315180300,10.91618017578125,0.8361276388168335,0.2804598808288574,-0.5531497597694397
1772561961325248500,10.92624853515625,0.6393565535545349,0.04866261035203934,-0.7592741250991821
1772561961335315500,10.9363154296875,0.47781902551651,-0.22867365181446075,-0.971473753452301
1772561961345382400,10.94638232421875,0.3899725377559662,-0.37051495909690857,-1.1258058547973633
1772561961355449300,10.956449462890625,0.33051666617393494,-0.3959459960460663,-1.1879130601882935
1772561961365516500,10.9665166015625,0.2431388795375824,-0.39458540081977844,-1.1538907289505005
1772561961375583500,10.97658349609375,0.15981443226337433,-0.4105609059333801,-1.0716125965118408
1772561961385651500,10.9866513671875,0.06886348873376846,-0.41474366188049316,-0.991797685623169
