time,seconds_elapsed,z,y,x
1772561950470325200,0.0713251953125,-1.0559762716293335,-0.6140087842941284,-0.07111722230911255
1772561950480392200,0.08139208984375,-1.0996462106704712,-0.8639186024665833,-0.20827236771583557
1772561950490459100,0.091459228515625,-1.1537930965423584,-1.0318617820739746,-0.31069275736808777
1772561950500526000,0.101526123046875,-1.1108587980270386,-1.3176237344741821,-0.36546793580055237
1772561950510594000,0.111593994140625,-0.9889891147613525,-1.648795485496521,-0.35794609785079956
1772561950520661000,0.121660888671875,-0.8435401320457458,-1.8350836038589478,-0.3558524549007416
1772561950530728200,0.131728271484375,-0.44429340958595276,-1.7641735076904297,-0.47303685545921326
1772561950540795100,0.141795166015625,0.27169281244277954,-1.259070873260498,-0.7773473858833313
1772561950550862000,0.151862060546875,0.8114343881607056,-0.40326330065727234,-0.9792064428329468
1772561950560929000,0.161928955078125,1.3286839723587036,0.4415819048881531,-0.9758438467979431
1772561950570997800,0.171997802734375,1.7664713859558105,0.7894211411476135,-0.8688273429870605
1772561950581064700,0.182064697265625,1.903621792793274,0.6893147826194763,-0.6884128451347351
1772561950591131600,0.192131591796875,1.7654197216033936,0.062226392328739166,-0.5228691697120667
1772561950601198600,0.202198486328125,1.4282441139221191,-0.7192424535751343,-0.45291030406951904
1772561950611265800,0.212265869140625,1.0098503828048706,-1.0397286415100098,-0.35805490612983704
1772561950621333000,0.2223330078125,0.5617072582244873,-0.9520613551139832,-0.22472567856311798
1772561950631400000,0.23239990234375,0.10804256051778793,-0.6747434139251709,-0.09521349519491196
1772561950641468000,0.242468017578125,-0.312077134847641,-0.4590272903442383,0.027679715305566788
1772561950651534800,0.252534912109375,-0.6345832943916321,-0.38296449184417725,0.1383468359708786
1772561950661601800,0.262601806640625,-0.8221821188926697,-0.3841201066970825,0.27475565671920776
1772561950671668700,0.272668701171875,-0.8742631673812866,-0.23031696677207947,0.3558345437049866
1772561950681735700,0.282735595703125,-0.891838014125824,0.11964423209428787,0.3909554183483124
1772561950691802600,0.292802734375,-0.8291459083557129,0.5268492698669434,0.34245365858078003
1772561950701870600,0.30287060546875,-0.6721727848052979,0.614299476146698,0.30722084641456604
1772561950711937800,0.312937744140625,-0.5166268944740295,0.7680999636650085,0.2589060366153717
1772561950722005000,0.3230048828125,-0.34958067536354065,0.7349783778190613,0.2393864542245865
1772561950732072000,0.333072021484375,-0.13734589517116547,0.6038134694099426,0.3382805585861206
1772561950742139000,0.343138916015625,0.0726291760802269,0.5382872819900513,0.5153210759162903
1772561950752205800,0.353205810546875,0.23449504375457764,0.46203532814979553,0.6864137053489685
1772561950762273800,0.363273681640625,0.32588788866996765,0.32069844007492065,0.7303725481033325
1772561950772340700,0.3733408203125,0.33767345547676086,0.10256131738424301,0.6703118681907654
1772561950782407700,0.38340771484375,0.29178521037101746,0.0012920238077640533,0.5921905040740967
1772561950792474600,0.393474609375,0.25963661074638367,0.08917101472616196,0.5273576974868774
1772561950802541800,0.403541748046875,0.26911771297454834,0.2254040539264679,0.48469963669776917
1772561950812608800,0.41360888671875,0.3340413272380829,0.30326399207115173,0.43552541732788086
1772561950822677000,0.423677001953125,0.41162729263305664,0.2669457793235779,0.373363733291626
1772561950832744000,0.433743896484375,0.4709998071193695,0.12960097193717957,0.31094056367874146
1772561950842811000,0.443810791015625,0.4909762740135193,-0.05020773783326149,0.2791740596294403
1772561950852877800,0.4538779296875,0.4944716691970825,-0.16389063000679016,0.2545185089111328
1772561950862944800,0.46394482421875,0.48292943835258484,0.17788584530353546,0.22687853872776031
1772561950873011700,0.47401171875,0.46202734112739563,0.4345088601112366,0.17894935607910156
1772561950883079700,0.48407958984375,0.40112778544425964,0.9949867725372314,0.15111322700977325
1772561950893147000,0.49414697265625,0.3217730224132538,1.5821930170059204,0.07957194000482559
1772561950903213800,0.5042138671875,0.2398376166820526,1.990185022354126,-0.07858007401227951
1772561950913280800,0.51428076171875,0.1577605903148651,2.254587173461914,-0.26342126727104187
1772561950923347700,0.52434765625,0.1105785220861435,2.4957823753356934,-0.4015454947948456
1772561950933414700,0.53441455078125,0.10908661782741547,2.668382406234741,-0.5273968577384949
1772561950943483000,0.54448291015625,0.10061429440975189,2.637441635131836,-0.6411939859390259
1772561950953549800,0.5545498046875,0.08477408438920975,2.530982494354248,-0.6957842111587524
1772561950963616800,0.56461669921875,0.059553951025009155,2.358311414718628,-0.7006036639213562
1772561950973683700,0.57468359375,0.02577255107462406,2.107635498046875,-0.661475419998169
1772561950983751000,0.5847509765625,0.002018924802541733,1.8255492448806763,-0.5722854137420654
1772561950993817900,0.59481787109375,0.0036844657734036446,1.5315972566604614,-0.43701520562171936
1772561951003885800,0.6048857421875,0.010464953258633614,1.3086998462677002,-0.2702033817768097
1772561951013952800,0.614952880859375,0.008987165056169033,1.140475869178772,-0.11230325698852539
1772561951024019700,0.625019775390625,-0.025168394669890404,1.014764666557312,-0.00035182596184313297
1772561951034086700,0.635086669921875,-0.05004151910543442,0.9380139708518982,0.05857674032449722
1772561951044153600,0.645153564453125,-0.06108005717396736,0.9067535996437073,0.06893657892942429
1772561951054220800,0.655220703125,-0.0419955775141716,0.7816702127456665,0.04706750065088272
1772561951064288800,0.665288818359375,0.06284800916910172,0.46959638595581055,-0.03155748173594475
1772561951074356000,0.67535595703125,0.1644899547100067,0.2641007602214813,-0.08685695379972458
1772561951084423000,0.6854228515625,0.17731040716171265,0.16200518608093262,-0.12711158394813538
1772561951094489900,0.69548974609375,0.13324974477291107,0.14235372841358185,-0.12826180458068848
1772561951104556800,0.705556884765625,0.06979362666606903,0.1419646143913269,-0.09316922724246979
1772561951114623700,0.715623779296875,0.02807333692908287,0.14325785636901855,-0.052004218101501465
1772561951124691700,0.725691650390625,0.02687332034111023,0.10255894809961319,-0.04078354686498642
1772561951134758700,0.735758544921875,0.052963245660066605,0.008055082522332668,-0.1008487418293953
1772561951144825600,0.74582568359375,0.09119629114866257,-0.123059943318367,-0.1791490912437439
1772561951154892800,0.755892822265625,0.09942572563886642,-0.2664879262447357,-0.2799265682697296
1772561951164959700,0.765959716796875,0.07299802452325821,-0.3797486126422882,-0.4052751064300537
1772561951175027000,0.77602685546875,0.04899868369102478,-0.47351184487342834,-0.5362259745597839
1772561951185095000,0.786094970703125,0.049661457538604736,-0.6439247131347656,-0.6216188669204712
1772561951195161900,0.796161865234375,0.04395084083080292,-0.7741820812225342,-0.579574704170227
1772561951205228800,0.806228759765625,0.016555700451135635,-0.7746294736862183,-0.3995194733142853
1772561951215295700,0.816295654296875,-0.02247292548418045,-0.8209360241889954,-0.19789551198482513
1772561951225362700,0.82636279296875,0.00754000898450613,-1.0156770944595337,-0.06326866149902344
1772561951235430000,0.836429931640625,0.04902327060699463,-1.1639939546585083,-0.06576111167669296
1772561951245497600,0.84649755859375,0.02879239246249199,-1.0949233770370483,-0.059456951916217804
1772561951255564800,0.856564697265625,-0.0642765611410141,-0.8701906204223633,-0.04633102938532829
1772561951265631700,0.8666318359375,-0.21881429851055145,-0.7954062223434448,-0.10338450968265533
1772561951275699000,0.876698974609375,-0.38106101751327515,-0.8213654160499573,-0.19334635138511658
1772561951285766000,0.886765869140625,-0.5214287042617798,-0.965096116065979,-0.31768879294395447
1772561951295832800,0.896832763671875,-0.63812255859375,-1.180285096168518,-0.46957817673683167
1772561951305900800,0.90690087890625,-0.7334372401237488,-1.2868775129318237,-0.5829358100891113
1772561951315967700,0.9169677734375,-0.7940528988838196,-1.3082832098007202,-0.6260180473327637
1772561951326034700,0.92703466796875,-0.8156602382659912,-1.3126872777938843,-0.6143954396247864
1772561951336102000,0.937101806640625,-0.8353193998336792,-1.2673454284667969,-0.5205214023590088
1772561951346168800,0.9471689453125,-0.8673778176307678,-1.2407290935516357,-0.388933002948761
1772561951356235800,0.95723583984375,-0.8872287273406982,-1.4173378944396973,-0.29797860980033875
1772561951366303700,0.9673037109375,-0.8603861331939697,-1.668211579322815,-0.23993077874183655
1772561951376370700,0.97737060546875,-0.7701963186264038,-1.7933721542358398,-0.17263668775558472
1772561951386438000,0.98743798828125,-0.5694088935852051,-1.3200105428695679,-0.223855122923851
1772561951396504800,0.9975048828125,-0.31647011637687683,-1.0776867866516113,-0.17853903770446777
1772561951406571800,1.00757177734375,-0.15388314425945282,-1.0177836418151855,-0.05407387763261795
1772561951416639000,1.017638916015625,-0.1435982882976532,-1.2528506517410278,0.06766853481531143
1772561951426706000,1.027705810546875,-0.17656183242797852,-1.438063621520996,0.17385905981063843
1772561951436774000,1.03777392578125,-0.1395646631717682,-1.3291987180709839,0.28815314173698425
1772561951446840800,1.0478408203125,-0.06255500763654709,-1.0434645414352417,0.44887760281562805
1772561951456907800,1.05790771484375,0.01836167834699154,-0.7407895922660828,0.6154268980026245
1772561951466974700,1.067974609375,0.12704670429229736,-0.48308417201042175,0.7235589623451233
1772561951477041700,1.078041748046875,0.3169090449810028,-0.29994282126426697,0.7402143478393555
1772561951487108600,1.088108642578125,0.6083353757858276,-0.057072095572948456,0.6978235244750977
1772561951497176800,1.0981767578125,0.9513949751853943,0.19446639716625214,0.6327763199806213
1772561951507243800,1.108243896484375,1.2705575227737427,0.4739193916320801,0.5415880680084229
1772561951517311000,1.11831103515625,1.596212387084961,0.559846043586731,0.45921751856803894
1772561951527378000,1.1283779296875,1.7372671365737915,0.6298208236694336,0.4828423261642456
1772561951537444900,1.13844482421875,1.569647192955017,1.0072261095046997,0.6493101119995117
1772561951547511800,1.14851171875,1.0101492404937744,2.281005859375,0.7716383337974548
1772561951557579800,1.158579833984375,0.2769821286201477,2.4707508087158203,0.8029779195785522
1772561951567647200,1.168647216796875,-0.33592742681503296,1.97531259059906,0.7595333456993103
1772561951577714200,1.178714111328125,-0.7157384157180786,1.1159342527389526,0.7743546366691589
1772561951587781000,1.188781005859375,-0.8857426047325134,0.32375970482826233,0.9466498494148254
1772561951597848000,1.19884814453125,-0.8166117668151855,-0.20137731730937958,1.1875466108322144
1772561951607915300,1.208915283203125,-0.4937452971935272,-0.30982479453086853,1.2853150367736816
1772561951617983000,1.21898291015625,0.030126191675662994,-0.02249608375132084,1.1136285066604614
1772561951628050200,1.22905029296875,0.779695987701416,0.4939461648464203,0.8039554357528687
1772561951638117000,1.2391171875,1.4829329252243042,1.288899540901184,0.4182804226875305
1772561951648184000,1.24918408203125,1.8328300714492798,1.9686146974563599,0.02799629420042038
1772561951658251000,1.2592509765625,1.7935870885849,2.435101270675659,-0.45327603816986084
1772561951668318000,1.26931787109375,1.5824549198150635,2.6221742630004883,-0.9912164807319641
1772561951678386200,1.27938623046875,1.463550329208374,2.4832239151000977,-1.3972593545913696
1772561951688453000,1.289453125,1.3754496574401855,2.267577886581421,-1.5219297409057617
1772561951698520000,1.29952001953125,1.1379636526107788,1.9933661222457886,-1.081326961517334
1772561951708587300,1.309587158203125,0.6523576378822327,1.568524956703186,0.2807456851005554
1772561951718654200,1.319654296875,0.0006237826310098171,0.15417788922786713,1.9059953689575195
1772561951728721200,1.32972119140625,-0.340978741645813,-2.232898473739624,3.0167903900146484
1772561951738788000,1.3397880859375,-0.5450519323348999,-3.8761672973632812,3.80806565284729
1772561951748856000,1.34985595703125,-0.7786241173744202,-4.597956657409668,4.236188888549805
1772561951758923000,1.359923095703125,-0.7343895435333252,-4.912779331207275,4.1454877853393555
1772561951768990000,1.369989990234375,-0.5065647959709167,-4.71405029296875,3.3447306156158447
1772561951779057200,1.38005712890625,-0.3948987126350403,-3.610750198364258,2.028102159500122
1772561951789124000,1.3901240234375,-0.33044788241386414,-2.0469114780426025,0.5325990915298462
1772561951799191300,1.40019140625,-0.22187399864196777,-0.6622526049613953,-0.8713917136192322
1772561951809259300,1.41025927734375,-0.2249985933303833,0.3354446589946747,-1.935476541519165
1772561951819326200,1.420326171875,-0.2212720364332199,0.9149128198623657,-2.451847553253174
1772561951829393200,1.43039306640625,-0.060841355472803116,1.3630940914154053,-2.1578094959259033
1772561951839460000,1.440460205078125,0.155161514878273,1.551121473312378,-1.2047089338302612
1772561951849527000,1.450527099609375,0.2245052605867386,1.2382357120513916,-0.07903629541397095
1772561951859594000,1.460593994140625,0.0798087939620018,0.6158598065376282,0.8683478236198425
1772561951869662000,1.470661865234375,-0.2620629668235779,-0.05972570925951004,1.3822484016418457
1772561951879729200,1.480729248046875,-0.7102338075637817,-0.4393579959869385,1.387610912322998
1772561951889796000,1.490796142578125,-1.0206748247146606,-0.2821957767009735,0.993806004524231
1772561951899863000,1.500863037109375,-1.0705270767211914,0.14545302093029022,0.2404526174068451
1772561951909930200,1.51093017578125,-0.8886781334877014,0.7112863063812256,-0.5537692904472351
1772561951919997200,1.5209970703125,-0.6702113151550293,1.2290316820144653,-1.247959017753601
1772561951930065200,1.531065185546875,-0.48310011625289917,1.8246339559555054,-1.6197327375411987
1772561951940132000,1.541132080078125,-0.36754047870635986,2.221228837966919,-1.680768370628357
1772561951950199000,1.551198974609375,-0.2834741771221161,2.2105278968811035,-1.4791853427886963
1772561951960266200,1.561266357421875,-0.18357552587985992,1.5875217914581299,-1.118952751159668
1772561951970333200,1.571333251953125,-0.08223123848438263,0.49292823672294617,-0.6594381332397461
1772561951980400000,1.581400146484375,-0.012276393361389637,-0.7649291157722473,-0.24070186913013458
1772561951990467000,1.591467041015625,0.006210563704371452,-1.9096603393554688,-0.08830654621124268
1772561952000535000,1.60153515625,-0.06410807371139526,-2.8384792804718018,-0.400417298078537
1772561952010602200,1.611602294921875,-0.14370454847812653,-3.289504289627075,-1.1402482986450195
1772561952020669200,1.621669189453125,-0.22875580191612244,-2.9136264324188232,-2.0723330974578857
1772561952030736100,1.631736083984375,-0.23386292159557343,-2.129119873046875,-2.838020086288452
1772561952040803000,1.641802978515625,-0.1480364352464676,-1.6296921968460083,-3.1426143646240234
1772561952050870300,1.651870361328125,-0.012748395092785358,-1.2752423286437988,-2.9686965942382812
1772561952060938200,1.661938232421875,0.03187393397092819,-0.82984858751297,-2.605731248855591
1772561952071005200,1.672005126953125,-0.0867786779999733,-0.705156147480011,-2.2814879417419434
1772561952081072000,1.682072021484375,-0.3534886837005615,-0.9147536158561707,-2.040973424911499
1772561952091139000,1.69213916015625,-0.7387762069702148,-1.3262205123901367,-1.9355220794677734
1772561952101206000,1.7022060546875,-1.2438467741012573,-1.6851035356521606,-1.9907029867172241
1772561952111273000,1.71227294921875,-1.713219165802002,-1.8480790853500366,-2.1352131366729736
1772561952121341200,1.722341064453125,-1.9889689683914185,-1.773268222808838,-2.2072863578796387
1772561952131408100,1.732408203125,-2.0298969745635986,-1.46316659450531,-2.0943775177001953
1772561952141475300,1.742475341796875,-1.8462762832641602,-1.1537970304489136,-1.7602975368499756
1772561952151542300,1.752542236328125,-1.6760057210922241,-0.9984915852546692,-1.2204240560531616
1772561952161609200,1.762609130859375,-1.6461261510849,-0.7970181107521057,-0.5241283178329468
1772561952171676200,1.77267626953125,-1.7412478923797607,-0.6875638961791992,0.10011934489011765
1772561952181744000,1.782744140625,-1.8655622005462646,-0.6187576651573181,0.432964950799942
1772561952191811000,1.79281103515625,-1.8182204961776733,-0.2947169840335846,0.6094732284545898
1772561952201878000,1.8028779296875,-1.4845714569091797,0.1635853350162506,0.8669819831848145
1772561952211945000,1.812945068359375,-0.9837654829025269,0.6322112083435059,1.3073649406433105
1772561952222012200,1.82301220703125,-0.38816818594932556,1.1730082035064697,2.0532937049865723
1772561952232079000,1.8330791015625,0.16024966537952423,1.1785368919372559,2.737863063812256
1772561952242147300,1.843147216796875,0.2006700485944748,0.48168566823005676,2.808016538619995
1772561952252214300,1.85321435546875,-0.07073144614696503,-0.1048060804605484,2.4328598976135254
1772561952262281200,1.86328125,-0.6512744426727295,1.3598054647445679,2.287606716156006
1772561952272348200,1.87334814453125,-0.7673882842063904,3.3983542919158936,2.4791018962860107
1772561952282415000,1.8834150390625,0.3281826376914978,3.6869587898254395,2.423222303390503
1772561952292482000,1.89348193359375,2.209061622619629,2.4983577728271484,2.4169721603393555
1772561952302550000,1.903550048828125,3.554377317428589,1.5236212015151978,3.348872661590576
1772561952312617000,1.913616943359375,3.7935492992401123,0.7497825026512146,4.989492893218994
1772561952322684200,1.92368408203125,3.29162335395813,0.35810473561286926,6.720727920532227
1772561952332751000,1.933751220703125,2.7283401489257812,-0.13078182935714722,7.941927433013916
1772561952342818000,1.943818115234375,2.0514509677886963,-1.132395625114441,7.8921403884887695
1772561952352885000,1.953885009765625,1.1553716659545898,-1.6203397512435913,6.677879810333252
1772561952362952200,1.9639521484375,0.5548368096351624,-0.9046189188957214,5.005788803100586
1772561952373020200,1.974020263671875,0.5228109955787659,0.4598352909088135,3.207937479019165
1772561952383087000,1.984087158203125,0.8274790048599243,1.3049782514572144,1.4791896343231201
1772561952393154000,1.994154052734375,0.9696224927902222,1.4350855350494385,0.11187804490327835
1772561952403221200,2.00422119140625,0.997431218624115,1.0703917741775513,-0.9475314021110535
1772561952413288200,2.0142880859375,0.8581189513206482,0.3691770136356354,-1.5736984014511108
1772561952423355100,2.024355224609375,0.5607589483261108,-0.13252393901348114,-1.910528540611267
1772561952433423000,2.034423095703125,0.24319212138652802,-0.24500681459903717,-1.9800498485565186
1772561952443490000,2.044489990234375,0.0022029466927051544,-0.1736394315958023,-1.8186346292495728
1772561952453557000,2.054556884765625,-0.006963295396417379,0.11841127276420593,-1.2883557081222534
1772561952463624000,2.0646240234375,0.2665571868419647,0.40648406744003296,-0.5424314141273499
1772561952473691100,2.074691162109375,0.6248480677604675,0.37284016609191895,0.007079343777149916
1772561952483758300,2.08475830078125,0.8435199856758118,0.15240341424942017,0.12107887864112854
1772561952493826000,2.094825927734375,0.6413211226463318,0.01603512093424797,-0.17162016034126282
1772561952503893200,2.104893310546875,-0.05424141511321068,0.062221258878707886,-0.8161440491676331
1772561952513960200,2.114960205078125,-0.9423197507858276,0.26110824942588806,-1.6449424028396606
1772561952524027100,2.125027099609375,-1.5674995183944702,0.521017849445343,-2.519523859024048
1772561952534094000,2.135093994140625,-1.8302239179611206,0.8201131224632263,-3.2882704734802246
1772561952544161000,2.1451611328125,-1.8176738023757935,1.1763659715652466,-3.753662109375
1772561952554229000,2.15522900390625,-1.526260495185852,1.2788947820663452,-3.9727745056152344
1772561952564296000,2.1652958984375,-1.1617387533187866,1.1810712814331055,-3.980724334716797
1772561952574362400,2.1753623046875,-0.830167829990387,1.1951454877853394,-3.629142999649048
1772561952584429300,2.18542919921875,-0.571559727191925,1.0809239149093628,-3.0544254779815674
1772561952594496300,2.195496337890625,-0.6393225789070129,0.5335647463798523,-2.7905125617980957
1772561952604563500,2.2055634765625,-0.7244592905044556,-0.38801923394203186,-2.8776371479034424
1772561952614631400,2.21563134765625,-0.7637993097305298,-1.4964812994003296,-3.3558402061462402
1772561952624698400,2.225698486328125,-0.8020724058151245,-2.375298500061035,-4.033740520477295
1772561952634765300,2.235765380859375,-0.8066001534461975,-2.662421941757202,-4.609143257141113
1772561952644832300,2.245832275390625,-0.7778499722480774,-2.2293214797973633,-4.888832092285156
1772561952654899500,2.2558994140625,-0.6715441942214966,-1.1862074136734009,-4.706521987915039
1772561952664966400,2.26596630859375,-0.4939899742603302,-0.17325334250926971,-4.102400302886963
1772561952675033300,2.276033447265625,-0.27584102749824524,0.13137345016002655,-3.2342746257781982
1772561952685101300,2.286101318359375,-0.1939336210489273,-0.40365269780158997,-2.263836145401001
1772561952695168300,2.296168212890625,-0.43435102701187134,-1.5638477802276611,-1.3634830713272095
1772561952705235500,2.3062353515625,-0.9310073852539062,-3.1577870845794678,-0.650528609752655
1772561952715302400,2.316302490234375,-1.5347951650619507,-4.995996475219727,-0.09155935049057007
1772561952725369300,2.326369384765625,-2.016050100326538,-7.083427429199219,0.41698455810546875
1772561952735436500,2.3364365234375,-2.201716899871826,-8.956080436706543,0.9682915806770325
1772561952745504300,2.346504150390625,-2.0727672576904297,-9.330142974853516,1.4417060613632202
1772561952755571500,2.356571533203125,-1.785220980644226,-8.48190975189209,1.6136770248413086
1772561952765638400,2.366638427734375,-1.4849785566329956,-7.418823719024658,1.4658291339874268
1772561952775705300,2.376705322265625,-1.0592498779296875,-6.015725612640381,1.011042833328247
1772561952785772300,2.386772216796875,-0.5904115438461304,-4.213844299316406,0.24483303725719452
1772561952795839200,2.396839111328125,-0.20995751023292542,-2.6541500091552734,-0.8115113973617554
1772561952805907200,2.4069072265625,-0.12229157984256744,-1.67902410030365,-2.1369845867156982
1772561952815974400,2.416974365234375,-0.2776549756526947,-0.6098941564559937,-3.2819337844848633
1772561952826041300,2.427041259765625,-0.5507818460464478,0.6519531011581421,-3.9734206199645996
1772561952836108500,2.437108642578125,-0.9508875012397766,2.1750776767730713,-3.931487798690796
1772561952846175500,2.447175537109375,-1.2934318780899048,3.8361594676971436,-2.973311424255371
1772561952856242400,2.457242431640625,-1.3868694305419922,4.650713920593262,-1.398053765296936
1772561952866310400,2.467310302734375,-1.1860865354537964,4.011568546295166,0.02951153740286827
1772561952876377300,2.47737744140625,-1.0996103286743164,2.872086763381958,0.47388073801994324
1772561952886444300,2.4874443359375,-1.264821171760559,3.551290512084961,0.6480370759963989
1772561952896511200,2.49751123046875,-1.201488733291626,6.015231609344482,1.5726299285888672
1772561952906578200,2.507578125,-0.4527450501918793,6.798940658569336,2.378901481628418
1772561952916645400,2.517645263671875,1.030714511871338,6.229668617248535,2.942800521850586
1772561952926712300,2.52771240234375,2.5275819301605225,4.795959949493408,3.576497793197632
1772561952936780500,2.537780517578125,3.2429962158203125,3.581657648086548,4.742546081542969
1772561952946847500,2.547847412109375,3.2893879413604736,2.767002820968628,6.329970359802246
1772561952956914400,2.55791455078125,2.8725228309631348,1.4117355346679688,7.7582926750183105
1772561952966981400,2.5679814453125,2.0331039428710938,-0.26771560311317444,8.216302871704102
1772561952977048300,2.57804833984375,1.2727266550064087,-1.0095241069793701,7.496995449066162
1772561952987115300,2.588115234375,0.8502432703971863,-0.5766019821166992,6.1341938972473145
1772561952997183200,2.598183349609375,0.5647597312927246,0.24177764356136322,4.36714506149292
1772561953007250400,2.60825048828125,0.5158547759056091,0.9671925902366638,2.6561527252197266
1772561953017317400,2.6183173828125,0.708275318145752,1.4718117713928223,1.304243564605713
1772561953027384300,2.62838427734375,0.9834904074668884,1.6240479946136475,0.4558301866054535
1772561953037451300,2.638451171875,1.0970666408538818,1.3937581777572632,0.11196500808000565
1772561953047518200,2.648518310546875,0.9029451012611389,0.9606242775917053,0.21685652434825897
1772561953057586400,2.65858642578125,0.3590627908706665,0.3599655330181122,0.4141160547733307
1772561953067653400,2.6686533203125,-0.34086015820503235,-0.3277673125267029,0.6176196336746216
1772561953077720300,2.67872021484375,-0.9505548477172852,-0.6549980044364929,0.6386171579360962
1772561953087787300,2.688787353515625,-1.2110793590545654,-0.15732401609420776,0.664933979511261
1772561953097854500,2.6988544921875,-1.0850449800491333,0.7422847747802734,0.7258713841438293
1772561953107921400,2.70892138671875,-0.6883747577667236,1.404045820236206,0.8146544694900513
1772561953117988400,2.71898828125,-0.3024534583091736,1.456297516822815,0.705175518989563
1772561953128056300,2.729056396484375,-0.13957583904266357,1.0145978927612305,0.28655481338500977
1772561953138123300,2.739123291015625,-0.21124158799648285,0.33778560161590576,-0.36746668815612793
1772561953148190200,2.749190185546875,-0.4175119400024414,-0.15542010962963104,-1.1074997186660767
1772561953158257400,2.75925732421875,-0.6407922506332397,-0.13480909168720245,-1.7460523843765259
1772561953168324400,2.769324462890625,-0.7333583831787109,0.44283002614974976,-2.20955228805542
1772561953178392300,2.779392333984375,-0.4245120882987976,1.3513412475585938,-2.2122409343719482
1772561953188459500,2.78945947265625,0.06580118834972382,1.706516981124878,-1.9656352996826172
1772561953198526500,2.7995263671875,0.42477089166641235,1.5908554792404175,-1.6095134019851685
1772561953208593400,2.809593505859375,0.5528244376182556,1.1140172481536865,-1.2224154472351074
1772561953218660400,2.819660400390625,0.3589773178100586,0.3304813802242279,-1.0246340036392212
1772561953228727300,2.829727294921875,0.06606688350439072,-0.404476523399353,-1.0933778285980225
1772561953238794200,2.839794189453125,-0.09121754765510559,-0.9839096665382385,-1.5003412961959839
1772561953248862200,2.8498623046875,-0.036524202674627304,-1.288780927658081,-2.1469669342041016
1772561953258929200,2.85992919921875,0.1471175253391266,-0.9531674385070801,-2.85467529296875
1772561953268996400,2.869996337890625,0.31955933570861816,0.021519148722290993,-3.4285545349121094
1772561953279063600,2.8800634765625,0.35935157537460327,1.2011371850967407,-3.7155535221099854
1772561953289130500,2.890130615234375,0.2909189760684967,2.260457754135132,-3.6791625022888184
1772561953299197400,2.900197509765625,0.18658655881881714,2.71651029586792,-3.3693904876708984
1772561953309265400,2.910265380859375,0.09794802963733673,2.4896717071533203,-2.9128849506378174
1772561953319332400,2.920332275390625,-0.030489744618535042,1.9288572072982788,-2.4150702953338623
1772561953329399300,2.9303994140625,-0.22414575517177582,1.3071516752243042,-1.9781070947647095
1772561953339466200,2.94046630859375,-0.4024372100830078,0.8184143900871277,-1.7433339357376099
1772561953349533400,2.950533447265625,-0.5317574143409729,0.6320415735244751,-1.7588104009628296
1772561953359600400,2.960600341796875,-0.5146530866622925,0.62489253282547,-1.8434120416641235
1772561953369668600,2.970668701171875,-0.34233829379081726,0.5011522173881531,-1.9578478336334229
1772561953379735600,2.980735595703125,-0.17496320605278015,0.3532719910144806,-2.0246970653533936
1772561953389802500,2.990802490234375,-0.03676539286971092,0.3590230941772461,-1.942864179611206
1772561953399869400,3.000869384765625,0.0828777328133583,0.520087718963623,-1.8045635223388672
1772561953409936400,3.010936279296875,0.1494080275297165,0.7917815446853638,-1.6526716947555542
1772561953420003300,3.02100341796875,0.12220551818609238,0.9977390170097351,-1.3458786010742188
1772561953430071300,3.0310712890625,0.0558006688952446,0.9232780933380127,-0.6971219182014465
1772561953440138200,3.04113818359375,0.016530491411685944,0.4774019420146942,0.24362044036388397
1772561953450205400,3.051205322265625,0.041746098548173904,-0.029839158058166504,1.2488423585891724
1772561953460272400,3.0612724609375,0.15301057696342468,0.00335868401452899,2.312704086303711
1772561953470339300,3.07133935546875,0.30523791909217834,0.650672972202301,3.294858694076538
1772561953480406300,3.08140625,0.44464045763015747,1.5102338790893555,3.950996160507202
1772561953490474500,3.091474609375,0.5830902457237244,2.0446088314056396,4.140603542327881
1772561953500541400,3.10154150390625,0.6094624400138855,1.859148383140564,3.728243112564087
1772561953510608400,3.1116083984375,0.4677252769470215,1.8318631649017334,3.1623592376708984
1772561953520675300,3.12167529296875,0.4109484553337097,2.300912857055664,2.91754150390625
1772561953530742500,3.131742431640625,0.5516166687011719,2.0565602779388428,2.5959601402282715
1772561953540809500,3.1418095703125,0.9650612473487854,1.0908410549163818,2.3108267784118652
1772561953550877400,3.15187744140625,1.6843417882919312,-0.18090730905532837,2.0997304916381836
1772561953560944400,3.1619443359375,2.2675487995147705,-0.6628915071487427,2.09250545501709
1772561953571011300,3.17201123046875,2.3048958778381348,-0.4305213689804077,2.168825387954712
1772561953581078300,3.182078369140625,1.7023603916168213,0.15014025568962097,2.008260726928711
1772561953591145200,3.192145263671875,1.050931692123413,0.4383121430873871,1.3428778648376465
1772561953601212200,3.202212158203125,0.9764987826347351,0.044241905212402344,0.10887222737073898
1772561953611279400,3.212279296875,1.306101679801941,-0.37342962622642517,-1.0192228555679321
1772561953621347300,3.222347412109375,1.4979935884475708,-0.38484856486320496,-1.6425243616104126
1772561953631414500,3.23241455078125,1.2671337127685547,-0.04771954566240311,-1.7846434116363525
1772561953641481500,3.2424814453125,0.9271205067634583,0.3209157884120941,-1.5722700357437134
1772561953651548400,3.25254833984375,0.834343433380127,0.12547360360622406,-1.2198387384414673
1772561953661615400,3.262615478515625,0.7928460836410522,-0.6204151511192322,-1.0413992404937744
1772561953671682300,3.272682373046875,0.5792568325996399,-1.27263343334198,-0.9813178777694702
1772561953681750300,3.282750244140625,0.2444366216659546,-1.3894920349121094,-0.8428958654403687
1772561953691817200,3.292817138671875,-0.03410951793193817,-0.818038284778595,-0.6222756505012512
1772561953701884200,3.30288427734375,-0.06044028326869011,0.13258443772792816,-0.32706695795059204
1772561953711951400,3.312951416015625,0.1171259880065918,0.8527692556381226,-0.12991924583911896
1772561953722018600,3.3230185546875,0.2789173722267151,0.9753071069717407,-0.24561423063278198
1772561953732085500,3.33308544921875,0.26470327377319336,0.5990713834762573,-0.7456365823745728
1772561953742153500,3.343153564453125,0.016718415543437004,0.17046241462230682,-1.4941766262054443
1772561953752220400,3.353220458984375,-0.3149242401123047,0.012493021786212921,-2.3762922286987305
1772561953762287400,3.363287353515625,-0.35998615622520447,0.1839829385280609,-3.0941660404205322
1772561953772354300,3.373354248046875,-0.059284910559654236,0.5970866680145264,-3.3914027214050293
1772561953782421200,3.383421142578125,0.24059483408927917,0.7991778254508972,-3.351123571395874
1772561953792488400,3.393488525390625,0.3339489996433258,0.8815147876739502,-3.095094919204712
1772561953802556200,3.40355615234375,0.3442472815513611,0.509800136089325,-2.768437385559082
1772561953812623400,3.413623291015625,0.2490675002336502,-0.2644207775592804,-2.5467867851257324
1772561953822690300,3.423690185546875,0.08857964724302292,-1.023396372795105,-2.469562530517578
1772561953832757500,3.433757568359375,-0.08704623579978943,-1.428225040435791,-2.5822484493255615
1772561953842824400,3.443824462890625,-0.17862488329410553,-1.3076903820037842,-2.7598683834075928
1772561953852891400,3.453891357421875,-0.18096821010112762,-0.9683469533920288,-2.914116382598877
1772561953862959400,3.46395947265625,-0.1988278031349182,-0.770031213760376,-3.084542989730835
1772561953873026300,3.4740263671875,-0.35171830654144287,-0.5484740734100342,-3.2193312644958496
1772561953883093200,3.48409326171875,-0.6052825450897217,-0.061600588262081146,-3.0897700786590576
1772561953893160400,3.494160400390625,-0.6607908606529236,0.6482066512107849,-2.2937278747558594
1772561953903227400,3.504227294921875,-0.43453043699264526,0.7838154435157776,-0.6631049513816833
1772561953913294300,3.51429443359375,-0.6214790344238281,-0.5397806763648987,0.5957111120223999
1772561953923362300,3.5243623046875,-1.1108238697052002,-2.096079111099243,0.8694406151771545
1772561953933429500,3.534429443359375,-1.3905540704727173,-2.581453323364258,0.6609598398208618
1772561953943496400,3.544496337890625,-1.4429166316986084,-2.1503899097442627,0.04182618856430054
1772561953953563400,3.5545634765625,-1.3147107362747192,-1.3288682699203491,-0.8924890160560608
1772561953963630300,3.56463037109375,-1.048703908920288,-0.4874386191368103,-1.8499380350112915
1772561953973697500,3.574697509765625,-0.7432010173797607,0.17531512677669525,-2.5283477306365967
1772561953983765200,3.58476513671875,-0.45244669914245605,0.55694180727005,-2.703028678894043
1772561953993832400,3.59483251953125,-0.1639498919248581,0.5238006114959717,-2.3206095695495605
1772561954003899400,3.6048994140625,0.15396878123283386,0.15213458240032196,-1.4947038888931274
1772561954013966300,3.61496630859375,0.46699005365371704,-0.3947788178920746,-0.48743534088134766
1772561954024033300,3.625033203125,0.6412422060966492,-1.0171364545822144,0.390252023935318
1772561954034100200,3.635100341796875,0.6640332937240601,-1.3651211261749268,1.0859663486480713
1772561954044167200,3.645167236328125,0.599306046962738,-1.2922276258468628,1.5670242309570312
1772561954054235400,3.6552353515625,0.5484873056411743,-0.8385344743728638,1.7727137804031372
1772561954064302300,3.66530224609375,0.5399290919303894,-0.10919573903083801,1.8075233697891235
1772561954074369500,3.67536962890625,0.5897341966629028,0.7323501110076904,1.8321144580841064
1772561954084436500,3.6854365234375,0.6834967136383057,1.6057389974594116,2.020888090133667
1772561954094503400,3.69550341796875,0.9394235610961914,2.2377192974090576,2.440006732940674
1772561954104570400,3.7055703125,1.283281683921814,1.652980089187622,2.4059665203094482
1772561954114638300,3.715638427734375,1.2954847812652588,-0.40605297684669495,1.099562168121338
1772561954124705300,3.725705322265625,0.9649903774261475,-1.2167515754699707,-0.19050656259059906
1772561954134772200,3.735772216796875,0.47000589966773987,-0.5051475167274475,-1.1028748750686646
1772561954144839200,3.745839111328125,0.29093238711357117,0.6904181241989136,-1.6866979598999023
1772561954154906400,3.75590625,0.943480372428894,1.4072993993759155,-1.8827683925628662
1772561954164973300,3.765973388671875,1.8987879753112793,1.6382043361663818,-1.4030524492263794
1772561954175041500,3.77604150390625,2.3592824935913086,1.791388988494873,-0.2828662395477295
1772561954185108500,3.7861083984375,1.9649122953414917,1.465288758277893,1.0722655057907104
1772561954195175400,3.796175537109375,1.0163720846176147,0.010835547000169754,2.477579355239868
1772561954205242400,3.806242431640625,-0.2665213644504547,-2.0247020721435547,3.5513062477111816
1772561954215309300,3.816309326171875,-1.0897459983825684,-3.4034595489501953,4.03491735458374
1772561954225376300,3.826376220703125,-1.2959624528884888,-3.7226216793060303,4.10581111907959
1772561954235444200,3.8364443359375,-1.4642784595489502,-3.0916483402252197,3.74048113822937
1772561954245511200,3.84651123046875,-1.770512342453003,-2.052421808242798,2.83787202835083
1772561954255578400,3.856578369140625,-1.9366965293884277,-1.3407562971115112,1.5359967947006226
1772561954265645300,3.866645263671875,-1.8441035747528076,-0.7774611711502075,0.2088272124528885
1772561954275712300,3.876712158203125,-1.7073304653167725,-0.3705042600631714,-0.9152467846870422
1772561954285779500,3.886779541015625,-1.6258025169372559,-0.16937455534934998,-1.6738758087158203
1772561954295847400,3.896847412109375,-1.5958975553512573,-0.11215946823358536,-1.8614270687103271
1772561954305914400,3.906914306640625,-1.5814157724380493,-0.07237377017736435,-1.5110881328582764
1772561954315981300,3.916981201171875,-1.3815321922302246,0.22710508108139038,-0.6725532412528992
1772561954326048300,3.92704833984375,-0.9968631863594055,0.4770037829875946,0.3702099025249481
1772561954336115500,3.937115478515625,-0.6212906241416931,0.3296896815299988,1.1941112279891968
1772561954346182400,3.947182373046875,-0.4457853138446808,-0.14757350087165833,1.5172386169433594
1772561954356250400,3.95725048828125,-0.3999912142753601,-0.35415464639663696,1.359668493270874
1772561954366317300,3.9673173828125,-0.33001789450645447,-0.33008095622062683,0.8628020882606506
1772561954376384300,3.97738427734375,-0.5174666047096252,-0.5245492458343506,-0.0886516124010086
1772561954386451500,3.987451416015625,-0.5739192366600037,-0.3758338391780853,-1.2874548435211182
1772561954396518400,3.997518310546875,-0.5254318714141846,0.04340283200144768,-2.4167871475219727
1772561954406585300,4.00758544921875,-0.2644249498844147,0.7472112774848938,-3.297748565673828
1772561954416653300,4.0176533203125,0.1473674327135086,1.4331578016281128,-3.7169957160949707
1772561954426720300,4.02772021484375,0.7170125246047974,1.8286911249160767,-3.473599910736084
1772561954436787500,4.037787353515625,0.8979634046554565,1.6081997156143188,-3.0281121730804443
1772561954446854400,4.0478544921875,0.789848268032074,0.8602710366249084,-2.572178363800049
1772561954456921300,4.05792138671875,0.38814210891723633,-0.06134217977523804,-2.3189375400543213
1772561954466988300,4.06798828125,-0.021638289093971252,-0.596775233745575,-2.1204230785369873
1772561954477056300,4.07805615234375,-0.17122989892959595,-0.8279805183410645,-2.051536798477173
1772561954487123200,4.088123291015625,-0.046268533915281296,-0.9886330962181091,-2.2400529384613037
1772561954497190400,4.0981904296875,0.16388656198978424,-0.8030648827552795,-2.50608229637146
1772561954507257300,4.10825732421875,0.2554377615451813,-0.16726523637771606,-2.7468159198760986
1772561954517324500,4.118324462890625,0.15199795365333557,0.7388902306556702,-2.8671255111694336
1772561954527391500,4.1283916015625,0.020121492445468903,1.53554105758667,-2.696040153503418
1772561954537458400,4.13845849609375,-0.003147077513858676,1.8657044172286987,-2.2203123569488525
1772561954547526400,4.1485263671875,-0.0026423123199492693,1.7123913764953613,-1.4976882934570312
1772561954557593300,4.15859326171875,-0.105558842420578,1.1720690727233887,-0.7063918113708496
1772561954567660800,4.168660888671875,-0.36685118079185486,0.4175238013267517,-0.06675103306770325
1772561954577727700,4.178727783203125,-0.6992511749267578,-0.2954923212528229,0.338196724653244
1772561954587794700,4.188794677734375,-0.953393816947937,-0.83645099401474,0.43810150027275085
1772561954597862000,4.19886181640625,-1.028795599937439,-0.9884623289108276,0.2480868399143219
1772561954607929600,4.2089296875,-0.858989417552948,-0.7265641093254089,-0.06096938997507095
1772561954617996800,4.218996826171875,-0.4992741346359253,-0.23756012320518494,-0.34701311588287354
1772561954628063700,4.229063720703125,-0.08912696689367294,0.21628603339195251,-0.4577644169330597
1772561954638130700,4.239130615234375,0.23683276772499084,0.3774879574775696,-0.32988688349723816
1772561954648197600,4.24919775390625,0.4347784221172333,0.3402162194252014,0.07001940160989761
1772561954658264600,4.2592646484375,0.5246055126190186,0.20320190489292145,0.8015040159225464
1772561954668332800,4.269332763671875,0.5103485584259033,-0.09180309623479843,1.620382308959961
1772561954678399700,4.279399658203125,0.3734873831272125,-0.4280482232570648,2.1898112297058105
1772561954688466700,4.289466796875,0.24599626660346985,-0.40875598788261414,2.564640760421753
1772561954698534000,4.299533935546875,0.2742292284965515,-0.23919649422168732,2.7771248817443848
1772561954708600800,4.309600830078125,0.43038278818130493,-0.18479688465595245,2.8407037258148193
1772561954718667800,4.319667724609375,0.6112314462661743,-0.4139576256275177,2.753828763961792
1772561954728735700,4.32973583984375,0.7733766436576843,-0.8835299611091614,2.302889585494995
1772561954738802700,4.339802734375,0.8839558959007263,-0.38668933510780334,1.8373669385910034
1772561954748869600,4.34986962890625,1.1297498941421509,1.3967968225479126,1.9510879516601562
1772561954758936600,4.3599365234375,1.5076205730438232,2.3463237285614014,2.2972731590270996
1772561954769003500,4.37000341796875,2.061624765396118,2.345076084136963,2.9465725421905518
1772561954779071000,4.380071044921875,2.765824556350708,1.5152918100357056,3.9694199562072754
1772561954789138700,4.390138671875,2.790503740310669,0.26928237080574036,4.991279125213623
1772561954799206000,4.400205810546875,2.198380708694458,-0.9043408036231995,5.773666858673096
1772561954809272800,4.41027294921875,1.3555071353912354,-1.2718948125839233,6.595327854156494
1772561954819339800,4.42033984375,0.5238450765609741,-0.9423750042915344,6.882808685302734
1772561954829406700,4.43040673828125,0.24280217289924622,-0.33278903365135193,6.120609283447266
1772561954839473700,4.4404736328125,0.22614729404449463,0.20869524776935577,4.452148914337158
1772561954849541600,4.450541748046875,0.09423132240772247,0.9918396472930908,2.6890792846679688
1772561954859608600,4.460608642578125,-0.322557657957077,1.6632121801376343,1.229695439338684
1772561954869675500,4.470675537109375,-0.5396211743354797,1.6211135387420654,0.3636987805366516
1772561954879743000,4.480742919921875,-0.40297970175743103,0.8618863821029663,0.13316278159618378
1772561954889810000,4.490809814453125,-0.22811324894428253,-0.33415666222572327,0.2536664605140686
1772561954899876900,4.500876953125,-0.3096352815628052,-1.393863558769226,0.4211918115615845
1772561954909944800,4.51094482421875,-0.6612212657928467,-1.763856053352356,0.5844042301177979
1772561954920011800,4.52101171875,-0.9273770451545715,-1.2916226387023926,0.746614396572113
1772561954930078700,4.53107861328125,-0.8854167461395264,-0.28826284408569336,0.8186177611351013
1772561954940145700,4.541145751953125,-0.5781169533729553,0.5960879325866699,0.7436923980712891
1772561954950212600,4.551212646484375,-0.07447557151317596,1.092200517654419,0.5214405059814453
1772561954960279800,4.56127978515625,0.3116593360900879,0.9711077213287354,0.04083901643753052
1772561954970347500,4.571347412109375,0.36923056840896606,0.38814491033554077,-0.6332204937934875
1772561954980414700,4.581414794921875,0.06815436482429504,-0.26432663202285767,-1.3793948888778687
1772561954990482000,4.59148193359375,-0.3182635009288788,-0.5680465698242188,-2.0532495975494385
1772561955000548900,4.601548828125,-0.5740954875946045,-0.46655407547950745,-2.581671714782715
1772561955010615800,4.61161572265625,-0.5550068616867065,0.004823717754334211,-2.905257225036621
1772561955020682800,4.621682861328125,-0.24305535852909088,0.6379156708717346,-2.96077823638916
1772561955030750700,4.631750732421875,0.25007736682891846,1.0387920141220093,-2.733120918273926
1772561955040817700,4.641817626953125,0.6465150117874146,0.7734487652778625,-2.3664793968200684
1772561955050884600,4.651884521484375,0.5846423506736755,-0.06241849809885025,-2.146305561065674
1772561955060951800,4.661951904296875,0.18048764765262604,-1.2288867235183716,-2.0937082767486572
1772561955071018800,4.672018798828125,-0.2993221879005432,-2.118969440460205,-2.186079978942871
1772561955081085700,4.682085693359375,-0.6044043302536011,-2.488947629928589,-2.413323163986206
1772561955091154000,4.69215380859375,-0.6261776685714722,-2.437314987182617,-2.730788230895996
1772561955101220900,4.702220947265625,-0.4417670667171478,-1.8792167901992798,-3.0977072715759277
1772561955111287800,4.712287841796875,-0.2698519229888916,-0.9811924695968628,-3.5379302501678467
1772561955121354800,4.722354736328125,-0.27799853682518005,-0.04730445519089699,-3.9715895652770996
1772561955131421700,4.732421630859375,-0.38698306679725647,0.7592087984085083,-4.133078098297119
1772561955141489000,4.742489013671875,-0.5801383852958679,1.1208479404449463,-4.0619306564331055
1772561955151555800,4.752555908203125,-0.7673420310020447,1.009324312210083,-3.8474905490875244
1772561955161622800,4.762622802734375,-0.8557444214820862,0.5718141794204712,-3.54600191116333
1772561955171690800,4.772690673828125,-0.8863843679428101,0.05603737756609917,-3.138291120529175
1772561955181757700,4.7827578125,-1.0055018663406372,-0.15714387595653534,-2.5894830226898193
1772561955191824600,4.79282470703125,-1.2195253372192383,-0.1169700101017952,-2.056467056274414
1772561955201891600,4.8028916015625,-1.3904924392700195,-0.09936491400003433,-1.6073925495147705
1772561955211958500,4.81295849609375,-1.445590853691101,-0.2276959866285324,-1.275997519493103
1772561955222025700,4.823025634765625,-1.459381341934204,-0.31158673763275146,-1.0539870262145996
1772561955232093700,4.83309375,-1.4116921424865723,-0.06551411747932434,-0.7653881311416626
1772561955242161000,4.843160888671875,-1.2026424407958984,0.44243431091308594,-0.2655339539051056
1772561955252227800,4.853227783203125,-0.8000193238258362,0.7900519371032715,0.4288943409919739
1772561955262294800,4.863294677734375,-0.3337225019931793,0.8497134447097778,1.2183724641799927
1772561955272361700,4.87336181640625,0.06855170428752899,0.8257500529289246,2.0419986248016357
1772561955282428700,4.8834287109375,0.35155701637268066,0.8633909225463867,2.852172613143921
1772561955292496600,4.89349658203125,0.45120880007743835,0.8279610276222229,3.5895137786865234
1772561955302563600,4.9035634765625,0.47333887219429016,0.7758703827857971,4.138892650604248
1772561955312630500,4.913630615234375,0.4811478853225708,0.4563547968864441,4.264096736907959
1772561955322697700,4.92369775390625,0.3462117910385132,-0.21071122586727142,3.7247326374053955
1772561955332764700,4.9337646484375,0.2405778020620346,-0.6121529340744019,2.876155138015747
1772561955342831900,4.943831787109375,0.2564760446548462,0.08946111798286438,2.330709934234619
1772561955352899800,4.95389990234375,0.4687979817390442,0.95212721824646,2.1725263595581055
1772561955362966800,4.963966796875,0.9087151885032654,0.9386478066444397,2.0535244941711426
1772561955373033700,4.97403369140625,1.4289398193359375,0.06351760029792786,1.8582683801651
1772561955383100700,4.9841005859375,1.5676279067993164,-0.6950915455818176,1.912448763847351
1772561955393167600,4.994167724609375,1.3797074556350708,-0.42918381094932556,2.4207699298858643
1772561955403234800,5.00423486328125,1.2524391412734985,0.2843119502067566,3.3594374656677246
1772561955413302800,5.014302734375,1.0972905158996582,0.6115947961807251,4.163619518280029
1772561955423369700,5.02436962890625,0.9837269186973572,0.24990205466747284,4.3146185874938965
1772561955433436700,5.034436767578125,0.8756144046783447,-0.4400599002838135,3.8177742958068848
1772561955443503900,5.04450390625,0.6450681090354919,-0.8060911893844604,3.0654807090759277
1772561955453570800,5.05457080078125,0.30431824922561646,-0.6370640993118286,2.288105010986328
1772561955463637800,5.0646376953125,-0.02915310673415661,-0.2438993602991104,1.478391170501709
1772561955473705700,5.074705810546875,-0.29297012090682983,0.10156510025262833,0.6034865379333496
1772561955483772700,5.084772705078125,-0.3144357204437256,0.1554027646780014,-0.2602074444293976
1772561955493839600,5.094839599609375,-0.16365623474121094,-0.010901650413870811,-0.8520854115486145
1772561955503906800,5.10490673828125,-0.03378656134009361,-0.11504628509283066,-0.9493483901023865
1772561955513973800,5.114973876953125,-0.14228107035160065,-0.026811229065060616,-0.6494237184524536
1772561955524040700,5.125040771484375,-0.42806124687194824,0.29988157749176025,-0.12387310713529587
1772561955534108700,5.135108642578125,-0.6995812058448792,0.6994284391403198,0.45970508456230164
1772561955544177000,5.145177001953125,-0.7826411724090576,0.9762195944786072,0.973085880279541
1772561955554243800,5.155243896484375,-0.7168107032775879,0.9134624600410461,1.2310035228729248
1772561955564310800,5.165310791015625,-0.6078261137008667,0.6162347793579102,1.2336384057998657
1772561955574378000,5.1753779296875,-0.5369409322738647,0.273629367351532,0.9535489678382874
1772561955584445000,5.18544482421875,-0.5932601094245911,-0.10329179465770721,0.1643773317337036
1772561955594512100,5.19551220703125,-0.6901606917381287,-0.29727062582969666,-0.8937602639198303
1772561955604580000,5.205580078125,-0.7230474948883057,-0.13514003157615662,-1.943190097808838
1772561955614647000,5.21564697265625,-0.6237891316413879,0.25218844413757324,-2.7794902324676514
1772561955624714200,5.22571435546875,-0.41541409492492676,0.7253056764602661,-3.2101404666900635
1772561955634781200,5.23578125,-0.08911363780498505,0.9746263027191162,-3.073822259902954
1772561955644848000,5.24584814453125,-0.08257611095905304,0.4959467649459839,-2.8564200401306152
1772561955654915000,5.2559150390625,-0.3628392219543457,-0.28424596786499023,-2.6619820594787598
1772561955664983000,5.265983154296875,-0.8172615170478821,-1.0574530363082886,-2.584886074066162
1772561955675050000,5.276050048828125,-1.2740751504898071,-1.5110013484954834,-2.696139335632324
1772561955685117000,5.286116943359375,-1.5890591144561768,-1.6746577024459839,-2.9691970348358154
1772561955695184100,5.29618408203125,-1.7733168601989746,-1.7533775568008423,-3.398207902908325
1772561955705251300,5.306251220703125,-1.8739025592803955,-1.8204900026321411,-3.92338228225708
1772561955715318300,5.316318359375,-2.0004310607910156,-1.9539875984191895,-4.440963268280029
1772561955725386200,5.32638623046875,-2.210296869277954,-2.0140528678894043,-4.763308525085449
1772561955735453200,5.336453125,-2.450439453125,-2.0130198001861572,-4.742075443267822
1772561955745520000,5.34652001953125,-2.5814950466156006,-2.030345916748047,-4.1719770431518555
1772561955755587000,5.356587158203125,-2.6496148109436035,-2.181354522705078,-3.0829970836639404
1772561955765654000,5.366654052734375,-2.8112270832061768,-2.461237907409668,-1.7449852228164673
1772561955775721000,5.376720947265625,-3.087134838104248,-2.874314785003662,-0.6574868559837341
1772561955785789000,5.386788818359375,-3.3889896869659424,-3.2284600734710693,-0.10870146751403809
1772561955795856000,5.39685595703125,-3.590074062347412,-3.432180881500244,-0.1387001872062683
1772561955805923300,5.40692333984375,-3.6407129764556885,-3.497427463531494,-0.6096163392066956
1772561955815990300,5.416990234375,-3.4791486263275146,-3.1103882789611816,-1.2961006164550781
1772561955826057200,5.42705712890625,-3.08591890335083,-2.00228214263916,-1.861565113067627
1772561955836124200,5.437124267578125,-2.5204598903656006,-0.564801812171936,-2.082756519317627
1772561955846192000,5.447192138671875,-1.8356280326843262,0.6679032444953918,-1.9709371328353882
1772561955856259000,5.457259033203125,-1.186477541923523,1.4420557022094727,-1.623778223991394
1772561955866326000,5.467325927734375,-0.7836995124816895,1.7460976839065552,-0.9872235655784607
1772561955876393000,5.47739306640625,-0.4788767695426941,1.7947824001312256,-0.1531059443950653
1772561955886460200,5.487460205078125,-0.144975483417511,1.5887207984924316,0.6651793122291565
1772561955896528100,5.497528076171875,0.3228221535682678,1.359440803527832,1.4693663120269775
1772561955906595300,5.50759521484375,0.9568025469779968,1.4369686841964722,2.2060861587524414
1772561955916662300,5.517662353515625,1.5542598962783813,1.5971465110778809,2.5954537391662598
1772561955926729200,5.527729248046875,2.05082106590271,1.81814706325531,2.448317766189575
1772561955936796200,5.537796142578125,2.1019797325134277,1.9410117864608765,1.653031587600708
1772561955946863000,5.547863037109375,1.8931193351745605,2.9450132846832275,1.1202545166015625
1772561955956931000,5.55793115234375,2.022278308868408,4.378414630889893,1.2899603843688965
1772561955966998000,5.567998046875,2.4145233631134033,4.888329982757568,1.6138031482696533
1772561955977065000,5.57806494140625,3.243030548095703,5.094842433929443,2.313244581222534
1772561955987132200,5.588132080078125,4.312068462371826,4.7221198081970215,3.508695602416992
1772561955997199000,5.59819921875,4.9082207679748535,3.649995803833008,4.658237934112549
1772561956007266000,5.60826611328125,4.767416000366211,2.137289524078369,5.533298015594482
1772561956017334300,5.618334228515625,4.343502044677734,1.0682322978973389,6.411315441131592
1772561956027401200,5.628401123046875,3.765899658203125,0.4549712538719177,7.035592079162598
1772561956037468200,5.63846826171875,2.853790044784546,-0.34779515862464905,6.835180282592773
1772561956047535000,5.64853515625,1.5756977796554565,-0.730747640132904,6.0994062423706055
1772561956057602000,5.65860205078125,0.5754221677780151,-0.07921435683965683,5.3308258056640625
1772561956067669200,5.668669189453125,0.2108500897884369,0.9731971025466919,4.561013221740723
1772561956077737200,5.6787373046875,0.18497100472450256,1.8619552850723267,3.728895425796509
1772561956087804200,5.68880419921875,0.19415917992591858,2.250231981277466,3.006148099899292
1772561956097871000,5.69887109375,0.24024713039398193,2.1898958683013916,2.5561296939849854
1772561956107938000,5.70893798828125,0.2829354405403137,1.863339900970459,2.536137342453003
1772561956118005000,5.7190048828125,0.07226309180259705,1.2207107543945312,2.680818557739258
1772561956128072000,5.729072021484375,-0.4341127574443817,0.5383777022361755,2.764197587966919
1772561956138140200,5.73914013671875,-1.0240695476531982,0.2127244770526886,2.7294304370880127
1772561956148207000,5.74920703125,-1.4586105346679688,0.24852001667022705,2.4663381576538086
1772561956158274000,5.759274169921875,-1.5781899690628052,0.6755812764167786,1.9871927499771118
1772561956168341200,5.76934130859375,-1.308484435081482,1.2636017799377441,1.5094224214553833
1772561956178408200,5.779408203125,-0.8780599236488342,1.5352317094802856,1.086458444595337
1772561956188475100,5.78947509765625,-0.6390899419784546,1.6089147329330444,0.6802169680595398
1772561956198543000,5.799543212890625,-0.6428699493408203,1.5439921617507935,0.2036978304386139
1772561956208610000,5.809610107421875,-0.8917698264122009,1.2951542139053345,-0.3498290181159973
1772561956218677000,5.819677001953125,-1.272121787071228,0.899456799030304,-0.9939485788345337
1772561956228744000,5.829743896484375,-1.617771863937378,0.5231841206550598,-1.7786481380462646
1772561956238811100,5.83981103515625,-1.7365059852600098,0.27980726957321167,-2.614961862564087
1772561956248878000,5.849878173828125,-1.573310375213623,0.20249460637569427,-3.333775281906128
1772561956258946300,5.8599462890625,-1.266829252243042,0.144926056265831,-3.8557772636413574
1772561956269013200,5.87001318359375,-0.8618047833442688,0.1354619860649109,-3.9628260135650635
1772561956279080200,5.880080078125,-0.3465298116207123,-0.07063385844230652,-3.6213910579681396
1772561956289147100,5.890147216796875,-0.1987491399049759,-0.5383083820343018,-3.171316385269165
1772561956299214000,5.900214111328125,-0.28820082545280457,-1.0840548276901245,-2.632272720336914
1772561956309281000,5.910281005859375,-0.5853744745254517,-1.9501049518585205,-2.2838544845581055
1772561956319349000,5.920348876953125,-0.8101699948310852,-2.9673075675964355,-2.1890788078308105
1772561956329416000,5.930416015625,-0.6648535132408142,-3.881143569946289,-2.3200583457946777
1772561956339483100,5.940483154296875,-0.2749604880809784,-4.492556095123291,-2.707949161529541
1772561956349550000,5.950550048828125,0.026279792189598083,-4.416915416717529,-3.289954900741577
1772561956359617300,5.9606171875,0.11611425876617432,-3.5480458736419678,-3.8884835243225098
1772561956369685200,5.970685302734375,0.04206053912639618,-2.073430299758911,-4.218424320220947
1772561956379752200,5.980752197265625,-0.08358873426914215,-0.49238306283950806,-4.059262275695801
1772561956389819100,5.990819091796875,-0.19696961343288422,0.7201874256134033,-3.4497900009155273
1772561956399886000,6.000885986328125,-0.28186464309692383,1.2114793062210083,-2.5894978046417236
1772561956409953000,6.010953125,-0.4032405912876129,0.9222153425216675,-1.7219690084457397
1772561956420020200,6.021020263671875,-0.5739066004753113,0.14195102453231812,-0.9402280449867249
1772561956430088000,6.031087890625,-0.6590020060539246,-0.9862836003303528,-0.34935620427131653
1772561956440155100,6.041155029296875,-0.4957504868507385,-2.1720571517944336,0.07898449152708054
1772561956450222000,6.05122216796875,-0.21854202449321747,-3.048031806945801,0.4159492254257202
1772561956460289000,6.0612890625,-0.038025517016649246,-3.020594596862793,0.7006698250770569
1772561956470356200,6.071356201171875,-0.04315583035349846,-2.1247808933258057,0.8484909534454346
1772561956480423200,6.081423095703125,-0.161419078707695,-1.0037719011306763,0.6982471346855164
1772561956490491100,6.0914912109375,-0.30145689845085144,-0.12419135123491287,0.2074260711669922
1772561956500558000,6.10155810546875,-0.3105446696281433,0.400232195854187,-0.45917195081710815
1772561956510625000,6.111625,-0.08491551876068115,0.7403359413146973,-0.9251441955566406
1772561956520692200,6.121692138671875,0.19246043264865875,0.9206252694129944,-1.049828052520752
1772561956530759200,6.13175927734375,0.4096662402153015,1.0548741817474365,-0.7072259783744812
1772561956540826000,6.141826171875,0.650767982006073,0.9858378767967224,0.09177716076374054
1772561956550894000,6.15189404296875,1.0124045610427856,0.5150021314620972,1.0194011926651
1772561956560961000,6.1619609375,1.203886866569519,-0.5642027258872986,1.3984856605529785
1772561956571027700,6.17202783203125,1.161970853805542,-1.2873915433883667,1.231979250907898
1772561956581094700,6.1820947265625,0.9801080822944641,-0.7797907590866089,0.9953427314758301
1772561956591161600,6.19216162109375,0.717712938785553,0.48495396971702576,0.9037683606147766
1772561956601228800,6.202228759765625,0.9405767917633057,1.7957932949066162,1.0922787189483643
1772561956611296800,6.212296875,1.88748300075531,2.2946956157684326,1.5227340459823608
1772561956621363700,6.22236376953125,2.880216360092163,1.7081562280654907,2.251655101776123
1772561956631430700,6.2324306640625,3.323744535446167,0.7155315279960632,3.2802488803863525
1772561956641497600,6.24249755859375,3.2164409160614014,-0.36434510350227356,4.442510604858398
1772561956651564500,6.252564453125,2.7847821712493896,-1.398149013519287,5.466480255126953
1772561956661631500,6.262631591796875,1.924496054649353,-2.5911450386047363,5.670388221740723
1772561956671699700,6.27269970703125,0.9706728458404541,-2.9986000061035156,5.064080238342285
1772561956681766700,6.2827666015625,0.5201337933540344,-2.095827341079712,3.9188461303710938
1772561956691833900,6.292833740234375,0.5836677551269531,-0.5156615376472473,2.497748613357544
1772561956701900800,6.30290087890625,0.5605409741401672,0.9664003252983093,1.0570136308670044
1772561956711967700,6.3129677734375,0.26301875710487366,1.802507996559143,-0.08604232966899872
1772561956722035700,6.32303564453125,-0.08243203908205032,1.9262052774429321,-0.7693905234336853
1772561956732102700,6.3331025390625,-0.29604631662368774,1.3393532037734985,-1.0545610189437866
1772561956742169600,6.343169677734375,-0.36708492040634155,0.31212544441223145,-1.0674160718917847
1772561956752236500,6.353236572265625,-0.45527443289756775,-0.5182897448539734,-0.8700513243675232
1772561956762303500,6.363303466796875,-0.6080020666122437,-0.8458980917930603,-0.5820282697677612
1772561956772370700,6.37337060546875,-0.7478095293045044,-0.8605457544326782,-0.35741329193115234
1772561956782438700,6.383438720703125,-0.8307188749313354,-0.620908260345459,-0.2474987953901291
1772561956792505900,6.393505859375,-0.829341471195221,-0.0427916944026947,-0.18228116631507874
1772561956802572800,6.40357275390625,-0.7437509298324585,0.6278494596481323,-0.13967661559581757
1772561956812639700,6.4136396484375,-0.6534202098846436,0.9930122494697571,-0.2199895679950714
1772561956822706700,6.423706787109375,-0.6358780264854431,0.977732241153717,-0.41873690485954285
1772561956832773600,6.433773681640625,-0.7446843981742859,0.5699793696403503,-0.8643916249275208
1772561956842841600,6.443841552734375,-1.0155528783798218,0.055933933705091476,-1.5630927085876465
1772561956852908500,6.453908447265625,-1.2785605192184448,-0.024351051077246666,-2.323096752166748
1772561956862975500,6.4639755859375,-1.3949120044708252,0.37212660908699036,-2.9698615074157715
1772561956873042700,6.474042724609375,-1.2730408906936646,1.2463641166687012,-3.3273348808288574
1772561956883109600,6.484109619140625,-0.8507083654403687,2.0424723625183105,-3.2178194522857666
1772561956893176600,6.494176513671875,-0.5267627835273743,2.209587574005127,-2.953615665435791
1772561956903244800,6.504244873046875,-0.24317198991775513,1.8632723093032837,-2.554137945175171
1772561956913311700,6.514311767578125,-0.08749798685312271,1.0169423818588257,-2.1108298301696777
1772561956923378700,6.524378662109375,-0.17354337871074677,-0.024434085935354233,-1.7279233932495117
1772561956933445600,6.534445556640625,-0.3846055567264557,-0.78547602891922,-1.3844558000564575
1772561956943512600,6.5445126953125,-0.5391339063644409,-1.2138614654541016,-1.1109305620193481
1772561956953579800,6.554579833984375,-0.5790432095527649,-1.3932565450668335,-1.0342429876327515
1772561956963647500,6.5646474609375,-0.5106010437011719,-1.3522247076034546,-1.2605059146881104
1772561956973714700,6.574714599609375,-0.4419109523296356,-1.2565884590148926,-1.7887567281723022
1772561956983781600,6.58478173828125,-0.4349214732646942,-1.2240163087844849,-2.4156267642974854
1772561956993848600,6.5948486328125,-0.5447360873222351,-1.241402506828308,-2.963009834289551
1772561957003915500,6.60491552734375,-0.8143513202667236,-1.1397120952606201,-3.274308919906616
1772561957013982700,6.614982666015625,-1.1593306064605713,-0.889794111251831,-3.284756898880005
1772561957024050700,6.62505078125,-1.4614938497543335,-0.7458651661872864,-3.0986437797546387
1772561957034117600,6.63511767578125,-1.616109013557434,-0.7263053059577942,-2.7950375080108643
1772561957044184600,6.6451845703125,-1.6498392820358276,-0.780257523059845,-2.4355828762054443
1772561957054251800,6.655251708984375,-1.615081787109375,-0.9070671200752258,-2.0393550395965576
1772561957064318700,6.665318603515625,-1.5448824167251587,-1.0965019464492798,-1.6290509700775146
1772561957074386700,6.67538671875,-1.5452531576156616,-1.4573956727981567,-1.3257640600204468
1772561957084453600,6.68545361328125,-1.6542688608169556,-1.9166216850280762,-1.140501856803894
1772561957094520600,6.6955205078125,-1.6848961114883423,-2.3266947269439697,-1.1250534057617188
1772561957104587500,6.70558740234375,-1.4491699934005737,-2.366737127304077,-1.2813018560409546
1772561957114654500,6.715654541015625,-0.8927589058876038,-1.9214645624160767,-1.3683198690414429
1772561957124721700,6.7257216796875,-0.23935231566429138,-1.2416398525238037,-1.3128210306167603
1772561957134789600,6.73578955078125,0.26545944809913635,-0.5278399586677551,-0.920735239982605
1772561957144856600,6.745856689453125,0.6619503498077393,0.3380528390407562,-0.016386745497584343
1772561957154923800,6.755923828125,0.9121082425117493,1.2350538969039917,1.1464242935180664
1772561957164990700,6.76599072265625,0.9671605229377747,1.8777474164962769,2.1632251739501953
1772561957175057700,6.7760576171875,1.0596411228179932,2.1719534397125244,2.7965662479400635
1772561957185124600,6.78612451171875,1.400398850440979,1.898242473602295,2.914625644683838
1772561957195192600,6.796192626953125,2.037899971008301,1.141359567642212,2.6264026165008545
1772561957205259500,6.806259521484375,2.3005571365356445,0.0931018590927124,2.0818402767181396
1772561957215326500,6.816326416015625,2.0558950901031494,0.036842312663793564,2.06553316116333
1772561957225393700,6.8263935546875,2.1782243251800537,0.685231626033783,2.86692214012146
1772561957235460900,6.8364609375,2.789884090423584,0.8075913190841675,3.760697603225708
1772561957245527800,6.84652783203125,3.3787522315979004,0.7677299976348877,4.584958553314209
1772561957255595800,6.856595703125,3.5810062885284424,0.6378073692321777,5.425388336181641
1772561957265662700,6.866662841796875,3.2876758575439453,0.20801614224910736,6.170845031738281
1772561957275729700,6.876729736328125,2.4365298748016357,-0.18561957776546478,6.688548564910889
1772561957285796600,6.886796630859375,1.1614155769348145,-0.4577968120574951,6.6773223876953125
1772561957295863600,6.896863525390625,0.3555067777633667,-0.7071956992149353,5.825996398925781
1772561957305930500,6.906930419921875,0.23265445232391357,-0.7044800519943237,4.44349479675293
1772561957315998500,6.91699853515625,0.057067446410655975,-0.23796293139457703,2.925654172897339
1772561957326065700,6.927065673828125,-0.37087947130203247,0.611831784248352,1.5269508361816406
1772561957336132900,6.9371328125,-0.7154022455215454,1.4146119356155396,0.5024219155311584
1772561957346199800,6.94719970703125,-0.8008646368980408,1.5602601766586304,-0.20528337359428406
1772561957356266800,6.957266845703125,-0.6821302771568298,1.0786596536636353,-0.7637192010879517
1772561957366334700,6.967334716796875,-0.4716803729534149,0.2905747592449188,-1.096268892288208
1772561957376401700,6.977401611328125,-0.3114805817604065,-0.4367845952510834,-1.1125311851501465
1772561957386468600,6.987468505859375,-0.2945877015590668,-0.8742516040802002,-1.0149760246276855
1772561957396535600,6.99753564453125,-0.33381181955337524,-0.8266803622245789,-0.8373546600341797
1772561957406602500,7.0076025390625,-0.1719854325056076,-0.416800320148468,-0.525963544845581
1772561957416669700,7.017669677734375,0.1703902781009674,0.0355738028883934,-0.17193962633609772
1772561957426737700,7.027737548828125,0.5171980261802673,0.3050200343132019,0.0783950537443161
1772561957436804900,7.037804931640625,0.6834495663642883,0.30951759219169617,0.10216829925775528
1772561957446871800,7.047871826171875,0.735583484172821,0.2791542410850525,-0.043478697538375854
1772561957456938800,7.057938720703125,0.6492981314659119,0.217439204454422,-0.3560459017753601
1772561957467005700,7.068005615234375,0.17361581325531006,-0.128665030002594,-0.8252580761909485
1772561957477072600,7.07807275390625,-0.5531624555587769,-0.4263952374458313,-1.4490599632263184
1772561957487140600,7.088140625,-1.2002781629562378,-0.4572097957134247,-2.1299774646759033
1772561957497207600,7.09820751953125,-1.5165491104125977,-0.1614074409008026,-2.8164806365966797
1772561957507274800,7.108274658203125,-1.4739776849746704,0.28929078578948975,-3.408961296081543
1772561957517341700,7.118341796875,-1.151822805404663,0.8762668967247009,-3.674067258834839
1772561957527408600,7.12840869140625,-0.6937912106513977,1.1120280027389526,-3.521681547164917
1772561957537475600,7.1384755859375,-0.40479347109794617,0.7171965837478638,-3.318000316619873
1772561957547543800,7.148543701171875,-0.1846373975276947,-0.01509804092347622,-3.0820047855377197
1772561957557610800,7.15861083984375,-0.07486643642187119,-0.8077780604362488,-2.7964999675750732
1772561957567677700,7.168677734375,-0.2521439492702484,-1.5484713315963745,-2.5589752197265625
1772561957577745000,7.178744873046875,-0.5932754278182983,-2.062093734741211,-2.540271759033203
1772561957587811800,7.188811767578125,-0.749782145023346,-2.1890549659729004,-2.689645528793335
1772561957597879000,7.198879150390625,-0.5819270610809326,-1.9174774885177612,-2.9608712196350098
1772561957607947000,7.208947021484375,-0.20024725794792175,-1.329779863357544,-3.272608518600464
1772561957618014200,7.21901416015625,0.16174690425395966,-0.6505393385887146,-3.4963366985321045
1772561957628081200,7.2290810546875,0.4545252323150635,-0.06653705984354019,-3.5030906200408936
1772561957638148000,7.239148193359375,0.7107700705528259,0.4068933427333832,-3.2023284435272217
1772561957648215000,7.249215087890625,0.9488276839256287,0.7582841515541077,-2.693610191345215
1772561957658282000,7.259281982421875,1.066817045211792,0.6002172827720642,-2.076206922531128
1772561957668350000,7.269349853515625,0.9187474250793457,-0.044512368738651276,-1.4832059144973755
1772561957678417000,7.2794169921875,0.5651866793632507,-0.7776749730110168,-0.8902884721755981
1772561957688483800,7.28948388671875,0.25149232149124146,-1.227215051651001,-0.33680057525634766
1772561957698551000,7.299551025390625,0.13556838035583496,-1.3926101922988892,0.1797860860824585
1772561957708618000,7.309617919921875,0.20563995838165283,-1.3561862707138062,0.6602626442909241
1772561957718686200,7.319686279296875,0.2962372303009033,-1.2790212631225586,0.9786459803581238
1772561957728753200,7.329753173828125,0.3357994854450226,-1.2203832864761353,1.0931726694107056
1772561957738820000,7.339820068359375,0.29498225450515747,-1.0541589260101318,1.0121147632598877
1772561957748887000,7.349886962890625,0.18336768448352814,-0.7222980260848999,0.870599091053009
1772561957758954000,7.3599541015625,0.1042957603931427,-0.3507252633571625,0.8532757759094238
1772561957769021000,7.37002099609375,0.07974008470773697,0.15787860751152039,1.0476651191711426
1772561957779089000,7.3800888671875,-0.09871353954076767,0.7302659153938293,1.3509297370910645
1772561957789155800,7.39015576171875,-0.3325648307800293,1.3454854488372803,1.8296575546264648
1772561957799223000,7.40022314453125,-0.4830382168292999,1.8215993642807007,2.2540740966796875
1772561957809290000,7.4102900390625,-0.5580514669418335,2.029275417327881,2.1520144939422607
1772561957819357000,7.42035693359375,-0.6886518597602844,1.6621390581130981,1.1622898578643799
1772561957829423900,7.430423828125,-0.8299344778060913,2.0337696075439453,0.3650531470775604
1772561957839492000,7.4404921875,-0.5489422082901001,2.9811341762542725,0.5891701579093933
1772561957849559000,7.45055908203125,0.13660790026187897,3.2494194507598877,1.2425503730773926
1772561957859626000,7.4606259765625,0.9321431517601013,2.844787359237671,1.9199138879776
1772561957869693000,7.47069287109375,1.6127532720565796,1.9239521026611328,2.6923651695251465
1772561957879760100,7.480760009765625,2.077023983001709,1.0140409469604492,3.596635103225708
1772561957889827000,7.4908271484375,2.2603399753570557,0.29361191391944885,4.427932262420654
1772561957899895000,7.50089501953125,2.088747978210449,-0.37815582752227783,4.843724727630615
1772561957909962000,7.5109619140625,1.7195488214492798,-0.9797222018241882,4.730637073516846
1772561957920029000,7.52102880859375,1.3384997844696045,-1.2879501581192017,4.148212909698486
1772561957930095900,7.531095947265625,1.0062153339385986,-1.2358373403549194,3.160766363143921
1772561957940162800,7.541162841796875,0.7753831744194031,-0.7447088956832886,2.0449767112731934
1772561957950229800,7.551229736328125,0.6542215943336487,-0.029752349480986595,1.0548511743545532
1772561957960298000,7.561298095703125,0.4815256893634796,0.5771386623382568,0.29183417558670044
1772561957970365000,7.571364990234375,0.19630861282348633,0.9552054405212402,-0.1805793195962906
1772561957980432100,7.58143212890625,-0.0842687264084816,1.1368780136108398,-0.3172391653060913
1772561957990499000,7.5914990234375,-0.19765812158584595,1.1652257442474365,-0.2249690145254135
1772561958000566000,7.60156591796875,-0.14382313191890717,0.9285193681716919,-0.06318356841802597
1772561958010633000,7.611633056640625,-0.01852646842598915,0.5141134858131409,0.16396932303905487
1772561958020701000,7.621700927734375,-0.0014055385254323483,0.02865327149629593,0.36334526538848877
1772561958030767900,7.631767822265625,-0.14630787074565887,-0.3753219544887543,0.45401421189308167
1772561958040834800,7.641834716796875,-0.35342058539390564,-0.5669675469398499,0.36792778968811035
1772561958050902000,7.651902099609375,-0.504696786403656,-0.4706386923789978,0.14054811000823975
1772561958060969000,7.661968994140625,-0.5355961322784424,-0.18814653158187866,-0.22149372100830078
1772561958071036200,7.6720361328125,-0.45663538575172424,0.07772248983383179,-0.643514096736908
1772561958081104100,7.682104248046875,-0.3114584982395172,0.22226902842521667,-0.9897887110710144
1772561958091171000,7.692171142578125,-0.2020368129014969,0.25270575284957886,-1.1711136102676392
1772561958101238000,7.702238037109375,-0.17777328193187714,0.23688550293445587,-1.1710866689682007
1772561958111305000,7.712304931640625,-0.21292470395565033,0.19693203270435333,-1.0003169775009155
1772561958121372000,7.722371826171875,-0.24764646589756012,0.1688535213470459,-0.7172967791557312
1772561958131439900,7.73243994140625,-0.26120153069496155,0.15335305035114288,-0.38005027174949646
1772561958141506800,7.7425068359375,-0.25829973816871643,0.1507522016763687,-0.12507258355617523
1772561958151574000,7.752573974609375,-0.23942555487155914,0.18115749955177307,0.010573499836027622
1772561958161641000,7.762640869140625,-0.2232319414615631,0.1725698709487915,0.03964483365416527
1772561958171708200,7.772708251953125,-0.31675177812576294,0.061599284410476685,-0.023660318925976753
1772561958181775000,7.782775146484375,-0.47969701886177063,-0.04332446679472923,-0.10955391824245453
1772561958191843000,7.792843017578125,-0.5473038554191589,0.007040731608867645,-0.1596677154302597
1772561958201910000,7.802909912109375,-0.40927621722221375,0.10623282939195633,-0.24117082357406616
1772561958211977000,7.81297705078125,-0.1666843146085739,0.15662266314029694,-0.3285154700279236
1772561958222044000,7.8230439453125,0.005098083987832069,0.17104101181030273,-0.312301367521286
1772561958232111000,7.833111083984375,0.034498490393161774,0.11331520229578018,-0.22279642522335052
1772561958242178000,7.843177978515625,-0.029774772003293037,-0.03515709191560745,-0.08612087368965149
1772561958252246000,7.85324609375,-0.09259998798370361,-0.23700442910194397,0.06586440652608871
1772561958262313000,7.86331298828125,-0.172053262591362,-0.4949970841407776,0.1843218207359314
1772561958272380000,7.8733798828125,-0.20024575293064117,-0.7646695971488953,0.2676715552806854
1772561958282447000,7.883447021484375,-0.17241092026233673,-1.0247853994369507,0.3059912621974945
1772561958292514000,7.89351416015625,-0.13617008924484253,-1.2371150255203247,0.24895986914634705
1772561958302581000,7.9035810546875,-0.14330735802650452,-1.2644827365875244,0.1355542093515396
1772561958312649000,7.91364892578125,-0.22236108779907227,-1.1401407718658447,0.010573379695415497
1772561958322716000,7.9237158203125,-0.3542914390563965,-1.0473875999450684,-0.13950559496879578
1772561958332783000,7.933783203125,-0.5235965847969055,-0.9283305406570435,-0.29878032207489014
1772561958342850000,7.94385009765625,-0.6502841711044312,-0.7368106245994568,-0.44107353687286377
1772561958352917000,7.9539169921875,-0.6560666561126709,-0.6123647689819336,-0.6296941637992859
1772561958362984000,7.96398388671875,-0.6074426174163818,-0.5912400484085083,-0.8617838621139526
1772561958373052000,7.974052001953125,-0.6223459839820862,-0.7096559405326843,-1.0059725046157837
1772561958383119000,7.984119140625,-0.638054370880127,-1.0348371267318726,-0.7966301441192627
1772561958393186000,7.99418603515625,-0.6019560694694519,-1.6797616481781006,-0.29641690850257874
1772561958403253000,8.0042529296875,-0.6399985551834106,-2.6184983253479004,0.06022164970636368
1772561958413320200,8.0143203125,-0.9024551510810852,-3.253108501434326,0.06731454282999039
1772561958423387100,8.02438720703125,-1.163362979888916,-2.6926627159118652,-0.03213827684521675
1772561958433455000,8.034455078125,-1.2684260606765747,-0.9640271067619324,-0.08369385451078415
1772561958443522000,8.04452197265625,-1.0246740579605103,1.2261730432510376,0.264581561088562
1772561958453589000,8.054589111328125,-0.6242493987083435,2.6135330200195312,0.7199052572250366
1772561958463656000,8.064656005859375,-0.25422900915145874,2.814115047454834,1.2957109212875366
1772561958473723000,8.074722900390626,0.18306462466716766,2.0761139392852783,2.0689404010772705
1772561958483789800,8.084789794921875,0.715934157371521,0.8360421657562256,3.05918550491333
1772561958493858000,8.094858154296874,1.178462266921997,-0.4550016522407532,4.235061168670654
1772561958503925000,8.104925048828125,1.3769292831420898,-1.5116735696792603,5.3599724769592285
1772561958513992200,8.1149921875,1.4271284341812134,-2.0327751636505127,6.259759426116943
1772561958524059100,8.12505908203125,1.4009556770324707,-2.1175782680511475,6.861908435821533
1772561958534126000,8.1351259765625,1.2486889362335205,-1.8535451889038086,7.0183539390563965
1772561958544193000,8.145193115234376,1.0082409381866455,-1.437584400177002,6.477171897888184
1772561958554261000,8.155260986328125,0.7973743081092834,-0.9619891047477722,5.266075611114502
1772561958564328000,8.165327880859374,0.714030385017395,-0.30584850907325745,3.664584159851074
1772561958574394000,8.17539404296875,0.879162073135376,0.5547457933425903,2.0112318992614746
1772561958584461300,8.18546142578125,1.2520259618759155,1.3081353902816772,0.6326292753219604
1772561958594528300,8.1955283203125,1.466531753540039,1.5127873420715332,-0.28965383768081665
1772561958604595200,8.20559521484375,1.4423701763153076,1.1811074018478394,-0.7039687037467957
1772561958614663200,8.2156630859375,1.2918740510940552,0.540224552154541,-0.6931965947151184
1772561958624730000,8.225730224609375,1.0239142179489136,-0.23886771500110626,-0.45605725049972534
1772561958634797000,8.235797119140624,0.6525992155075073,-0.9371978640556335,-0.12116453051567078
1772561958644864000,8.245864013671875,0.18116401135921478,-1.3274070024490356,0.14389829337596893
1772561958654931000,8.255930908203124,-0.35867801308631897,-1.2629414796829224,0.18418245017528534
1772561958664999000,8.2659990234375,-0.8141829371452332,-0.6020373702049255,-0.050040703266859055
1772561958675066000,8.276066162109375,-1.1222732067108154,0.19492009282112122,-0.5830169916152954
1772561958685133300,8.28613330078125,-1.1702710390090942,1.146423578262329,-1.2125706672668457
1772561958695200300,8.2962001953125,-1.110404372215271,1.9797124862670898,-1.739214301109314
1772561958705267200,8.30626708984375,-1.090949535369873,2.4734508991241455,-2.1223347187042236
1772561958715334100,8.316334228515625,-1.2296382188796997,2.4716265201568604,-2.3092329502105713
1772561958725402000,8.326402099609375,-1.5627282857894897,2.003523111343384,-2.4084763526916504
1772561958735469000,8.336468994140626,-1.927529215812683,1.2439340353012085,-2.5887691974639893
1772561958745536000,8.346535888671875,-2.130300521850586,0.5181092619895935,-2.894035816192627
1772561958755603200,8.356603271484374,-2.034428834915161,-0.0012492691166698933,-3.2953999042510986
1772561958765670100,8.366670166015625,-1.6842280626296997,-0.3578396141529083,-3.6975533962249756
1772561958775737000,8.376737060546875,-1.1830072402954102,-0.6328246593475342,-4.004030227661133
1772561958785805300,8.386805419921876,-0.6824948191642761,-1.0048272609710693,-4.237011909484863
1772561958795872300,8.396872314453125,-0.3323539197444916,-1.4237011671066284,-4.474917888641357
1772561958805939200,8.406939208984374,-0.1700507551431656,-1.6467922925949097,-4.684584140777588
1772561958816006100,8.417006103515625,-0.1483011543750763,-1.8482944965362549,-4.8535685539245605
1772561958826073000,8.427072998046874,-0.2777635455131531,-2.073671340942383,-5.16037654876709
1772561958836140000,8.43714013671875,-0.2814561128616333,-1.939903736114502,-5.423020362854004
1772561958846208000,8.4472080078125,-0.0827438086271286,-1.409555435180664,-5.484188079833984
1772561958856275200,8.457275146484376,0.13591167330741882,-0.669891357421875,-5.297122955322266
1772561958866342100,8.467342041015625,0.2381964921951294,0.01274555642157793,-4.901360034942627
1772561958876409000,8.4774091796875,0.16244526207447052,0.23804795742034912,-4.432091236114502
1772561958886476000,8.48747607421875,0.026416324079036713,-0.06542376428842545,-3.9355547428131104
1772561958896543000,8.49754296875,-0.009871557354927063,-0.5160094499588013,-3.347853183746338
1772561958906611200,8.507611083984376,0.10187121480703354,-0.8164076209068298,-2.581430196762085
1772561958916678100,8.51767822265625,0.2639768719673157,-1.0004925727844238,-1.6844438314437866
1772561958926745000,8.5277451171875,0.34472283720970154,-1.2156336307525635,-0.897108256816864
1772561958936812300,8.537812255859375,0.3452189862728119,-1.48667573928833,-0.40041428804397583
1772561958946879200,8.547879150390624,0.35817471146583557,-1.6622059345245361,-0.1631671041250229
1772561958956946200,8.5579462890625,0.3959852159023285,-1.796237826347351,-0.14822357892990112
1772561958967014100,8.56801416015625,0.31901106238365173,-1.985730767250061,-0.36819058656692505
1772561958977081000,8.5780810546875,0.1276552379131317,-1.8971750736236572,-0.6354336738586426
1772561958987148000,8.58814794921875,-0.07818501442670822,-1.0175132751464844,-0.5254957675933838
1772561958997215000,8.598215087890624,-0.30229756236076355,0.510196328163147,0.14036470651626587
1772561959007282000,8.608281982421875,-0.5176274180412292,2.129624128341675,1.1045602560043335
1772561959017349000,8.61834912109375,-0.6417033076286316,3.064748525619507,1.9530651569366455
1772561959027417000,8.6284169921875,-0.5330511331558228,3.599797010421753,2.6727066040039062
1772561959037484300,8.638484375,-0.34533780813217163,3.127413749694824,2.6308348178863525
1772561959047551200,8.64855126953125,-0.5318917036056519,2.378999710083008,1.7723363637924194
1772561959057618200,8.6586181640625,-0.2761959135532379,2.9292056560516357,1.9953500032424927
1772561959067685000,8.66868505859375,0.48824450373649597,2.9266438484191895,2.897836208343506
1772561959077752000,8.678751953125,1.4953867197036743,2.3401172161102295,3.651768445968628
1772561959087820000,8.688820068359375,2.3749022483825684,1.886034607887268,4.682650089263916
1772561959097887000,8.698886962890626,2.336470365524292,0.9917742013931274,5.837591171264648
1772561959107954000,8.708953857421875,1.434576392173767,0.2504068911075592,6.771243095397949
1772561959118021000,8.719021240234374,0.2834520936012268,0.22140789031982422,7.288396835327148
1772561959128088300,8.72908837890625,-0.19192959368228912,0.8215017318725586,7.107861518859863
1772561959138155300,8.7391552734375,0.32755032181739807,1.4028847217559814,6.296781539916992
1772561959148222200,8.74922216796875,0.8860486149787903,1.4843930006027222,4.995896816253662
1772561959158289200,8.7592890625,0.9812803268432617,1.0624034404754639,3.5372352600097656
1772561959168356000,8.769356201171876,0.8186702728271484,0.49975860118865967,2.37125301361084
1772561959178423000,8.779423095703125,0.609725832939148,0.01794031821191311,1.7116492986679077
1772561959188490200,8.789490234375,0.3570481240749359,-0.49539557099342346,1.3370625972747803
1772561959198558200,8.79955810546875,0.050662100315093994,-0.7467968463897705,1.0149219036102295
1772561959208625200,8.809625244140625,-0.21453769505023956,-0.5230557322502136,0.6690165996551514
1772561959218692000,8.819692138671876,-0.3290432393550873,-0.038746558129787445,0.31018418073654175
1772561959228759000,8.829759033203125,-0.26730576157569885,0.3482455909252167,-0.017415981739759445
1772561959238826000,8.839825927734376,-0.13766120374202728,0.7107841372489929,-0.10517193377017975
1772561959248894200,8.849894287109375,0.00811987929046154,1.2745038270950317,0.2019166648387909
1772561959258961200,8.859961181640625,0.1794935017824173,1.7754082679748535,0.7338165044784546
1772561959269028000,8.870028076171875,0.335016131401062,1.817608118057251,1.163807988166809
1772561959279095300,8.88009521484375,0.4408067464828491,1.4309093952178955,1.2966078519821167
1772561959289162200,8.890162353515626,0.42718175053596497,0.8516778349876404,1.140396237373352
1772561959299229200,8.900229248046875,0.2679484188556671,0.2495693564414978,0.7518073320388794
1772561959309297200,8.910297119140624,0.054305750876665115,-0.1530715823173523,0.1928299367427826
1772561959319364000,8.920364013671875,-0.09718123823404312,-0.260686993598938,-0.4125686287879944
1772561959329431000,8.93043115234375,-0.0865226611495018,-0.05856933817267418,-0.899837851524353
1772561959339498000,8.940498046875,0.06196055933833122,0.36656785011291504,-1.2309305667877197
1772561959349565000,8.95056494140625,0.2017837017774582,0.6807100772857666,-1.4449621438980103
1772561959359632100,8.960632080078126,0.23887985944747925,0.6677197217941284,-1.6154695749282837
1772561959369700000,8.9707001953125,0.22166216373443604,0.3590599298477173,-1.774204969406128
1772561959379767300,8.980767333984375,0.13323217630386353,-0.0557074137032032,-1.9589332342147827
1772561959389834200,8.990834228515626,0.0003319093957543373,-0.31540778279304504,-2.068821907043457
1772561959399901200,9.000901123046875,-0.11275389790534973,-0.33628565073013306,-2.0674684047698975
1772561959409968000,9.010968017578126,-0.1830632984638214,-0.30885544419288635,-2.0193474292755127
1772561959420035000,9.02103515625,-0.209147110581398,-0.3649485409259796,-2.011864423751831
1772561959430103000,9.03110302734375,-0.15659014880657196,-0.49397504329681396,-2.0629897117614746
1772561959440170000,9.041169921875,-0.10853741317987442,-0.6881162524223328,-2.1907544136047363
1772561959450237000,9.05123681640625,-0.16897571086883545,-0.904761016368866,-2.353475570678711
1772561959460304100,9.06130419921875,-0.3032834827899933,-1.0396586656570435,-2.4850847721099854
1772561959470371000,9.07137109375,-0.4405584931373596,-1.0830116271972656,-2.5229108333587646
1772561959480438300,9.081438232421876,-0.5690621137619019,-1.0543168783187866,-2.419725179672241
1772561959490506200,9.09150634765625,-0.6236786842346191,-0.8932334780693054,-2.1409194469451904
1772561959500574200,9.10157421875,-0.6238717436790466,-0.6766236424446106,-1.7942814826965332
1772561959510641200,9.11164111328125,-0.6073724627494812,-0.55354905128479,-1.4376837015151978
1772561959520708000,9.1217080078125,-0.5781149864196777,-0.5898687243461609,-1.0602303743362427
1772561959530775000,9.131775146484374,-0.5918331742286682,-0.6192566752433777,-0.7512311935424805
1772561959540843000,9.141843017578125,-0.6718891263008118,-0.5190280675888062,-0.6136850714683533
1772561959550910200,9.15191015625,-0.7388350963592529,-0.4618149995803833,-0.6210932731628418
1772561959560977200,9.16197705078125,-0.6965936422348022,-0.524770200252533,-0.6630135178565979
1772561959571044400,9.17204443359375,-0.5074678659439087,-0.5232932567596436,-0.5771833062171936
1772561959581111600,9.182111572265624,-0.2683663070201874,-0.32191455364227295,-0.3500206768512726
1772561959591178500,9.192178466796875,-0.046669863164424896,0.11820492893457413,-0.11730290204286575
1772561959601246700,9.202246826171875,0.05359894782304764,0.5259029269218445,-0.25421175360679626
1772561959611313700,9.212313720703126,-0.06275864690542221,0.7377554774284363,-0.8414250016212463
1772561959621380600,9.222380615234375,-0.39722904562950134,0.9708515405654907,-1.6764612197875977
1772561959631447600,9.232447509765626,-0.6783652901649475,1.8436050415039062,-2.2801666259765625
1772561959641514500,9.242514404296875,-0.7271360158920288,3.39876127243042,-2.2857308387756348
1772561959651581400,9.25258154296875,-0.1745719015598297,4.256209373474121,-1.571527361869812
1772561959661649400,9.2626494140625,0.6230200529098511,3.2819583415985107,-0.8365671634674072
1772561959671716400,9.27271630859375,1.288295865058899,1.6581604480743408,-0.06885036081075668
1772561959681783600,9.282783447265626,1.5889695882797241,0.477321982383728,1.1768035888671875
1772561959691850500,9.2928505859375,1.3625428676605225,-0.48209139704704285,2.441518545150757
1772561959701917400,9.30291748046875,0.5882224440574646,-1.1269444227218628,3.0949606895446777
1772561959711984400,9.312984375,0.059662699699401855,-1.1881499290466309,3.0308520793914795
1772561959722052600,9.323052490234375,0.21260271966457367,-1.1167383193969727,2.113138198852539
1772561959732119600,9.33311962890625,0.5546963214874268,-0.817030668258667,0.7221000790596008
1772561959742186500,9.3431865234375,0.6691334247589111,-0.17137445509433746,-0.414886474609375
1772561959752253400,9.35325341796875,0.5179938077926636,0.6718113422393799,-0.9989590048789978
1772561959762320600,9.363320556640625,0.2938762605190277,1.2438702583312988,-1.1854063272476196
1772561959772388400,9.373388427734374,0.2585802972316742,1.143981695175171,-1.1862884759902954
1772561959782455600,9.38345556640625,0.46134912967681885,0.5215383172035217,-1.1125301122665405
1772561959792522500,9.3935224609375,0.741253137588501,-0.09821584075689316,-0.959423303604126
1772561959802589400,9.40358935546875,0.9756214022636414,-0.3872852027416229,-0.6604704260826111
1772561959812656400,9.413656494140625,1.1009094715118408,-0.30115944147109985,-0.18156349658966064
1772561959822723300,9.423723388671876,1.22785484790802,-0.03103635460138321,0.3608795404434204
1772561959832791600,9.43379150390625,1.4140452146530151,0.1567198932170868,0.8757017850875854
1772561959842858500,9.4438583984375,1.6196742057800293,0.21426601707935333,1.2500267028808594
1772561959852925400,9.453925537109376,1.7109922170639038,0.20850498974323273,1.4283851385116577
1772561959862992600,9.46399267578125,1.682585597038269,0.21709688007831573,1.4613417387008667
1772561959873059600,9.4740595703125,1.6559377908706665,0.2667810916900635,1.368955135345459
1772561959883126500,9.48412646484375,1.5953596830368042,0.2009860873222351,1.134196162223816
1772561959893194500,9.494194580078124,1.476745843887329,0.03988038748502731,0.7550076246261597
1772561959903261400,9.504261474609375,1.339575171470642,-0.08740486204624176,0.2630295753479004
1772561959913328400,9.514328369140625,1.1602622270584106,-0.09928809851408005,-0.2686507999897003
1772561959923395300,9.524395263671876,0.9184008836746216,-0.009744096547365189,-0.7944411039352417
1772561959933462300,9.534462158203125,0.721416175365448,0.1684674471616745,-1.270829439163208
1772561959943529700,9.54452978515625,0.5900376439094543,0.36420688033103943,-1.6820292472839355
1772561959953597400,9.554597412109375,0.5124027729034424,0.6153661608695984,-1.9586549997329712
1772561959963664600,9.56466455078125,0.45423102378845215,0.8918299674987793,-1.9562115669250488
1772561959973731600,9.574731689453126,0.3860715925693512,1.0053106546401978,-1.76551353931427
1772561959983798500,9.584798583984375,0.38091784715652466,1.079271912574768,-1.4913074970245361
1772561959993865500,9.594865478515626,0.40302279591560364,1.0373198986053467,-1.2059541940689087
1772561960003932400,9.604932373046875,0.45658907294273376,0.8701896071434021,-0.9815163612365723
1772561960014000400,9.61500048828125,0.5282800197601318,0.5721443891525269,-0.8608145117759705
1772561960024067300,9.6250673828125,0.668212354183197,0.2283685952425003,-0.7647106051445007
1772561960034134300,9.63513427734375,0.8887279629707336,-0.05974933132529259,-0.5962010622024536
1772561960044201500,9.645201416015626,1.1545480489730835,-0.2514039874076843,-0.32385554909706116
1772561960054268700,9.6552685546875,1.4319875240325928,-0.2748059630393982,0.023202085867524147
1772561960064335600,9.665335693359374,1.7171300649642944,-0.2046535164117813,0.3318967819213867
1772561960074403600,9.675403564453125,1.8644025325775146,-0.28843387961387634,0.5016099810600281
1772561960084470500,9.685470458984375,1.7507007122039795,-0.6722467541694641,0.5734615325927734
1772561960094537500,9.695537353515626,1.474719524383545,-1.3981521129608154,0.6224467158317566
1772561960104604400,9.7056044921875,1.1058738231658936,-2.3844947814941406,0.6599584221839905
1772561960114671400,9.71567138671875,0.8165590167045593,-3.4957268238067627,0.7642144560813904
1772561960124738600,9.725738525390625,0.7494074106216431,-4.007011413574219,0.9340890049934387
1772561960134806300,9.73580615234375,0.8430789709091187,-3.490598678588867,1.0056238174438477
1772561960144873500,9.74587353515625,0.9711916446685791,-1.5126566886901855,0.6514647006988525
1772561960154940700,9.755940673828125,0.8208457827568054,1.9950610399246216,-0.10710787773132324
1772561960165007600,9.766007568359376,0.31620553135871887,3.8449087142944336,-1.001119613647461
1772561960175074600,9.776074462890625,0.10960717499256134,4.123063564300537,-1.5824573040008545
1772561960185141500,9.7861416015625,-0.17062979936599731,3.1516573429107666,-2.178455114364624
1772561960195209500,9.79620947265625,-0.7513882517814636,2.056267499923706,-2.812662363052368
1772561960205276400,9.8062763671875,-1.0465190410614014,1.1382251977920532,-3.239797353744507
1772561960215343400,9.81634326171875,-1.1564364433288574,0.4522676169872284,-3.394770860671997
1772561960225410600,9.82641064453125,-1.1654943227767944,0.2865052819252014,-3.4098920822143555
1772561960235477500,9.8364775390625,-1.033476710319519,0.7062890529632568,-3.3959929943084717
1772561960245544400,9.84654443359375,-0.9866333603858948,0.9459575414657593,-3.2980921268463135
1772561960255612400,9.8566123046875,-0.9719168543815613,0.15930034220218658,-2.931525468826294
1772561960265679600,9.8666796875,-0.7292498350143433,-0.29488605260849,-1.9525401592254639
1772561960275746600,9.87674658203125,-0.4611816704273224,-0.3797195851802826,-0.9067811965942383
1772561960285813500,9.8868134765625,-0.36052483320236206,-0.5158366560935974,-0.26564329862594604
1772561960295880400,9.89688037109375,-0.3023661971092224,-0.6470305323600769,-0.07485882192850113
1772561960305947600,9.90694775390625,-0.23625905811786652,-0.7385851740837097,-0.15445616841316223
1772561960316015400,9.917015380859375,-0.1694725751876831,-0.802944540977478,-0.41393858194351196
1772561960326082600,9.92708251953125,-0.09184862673282623,-0.853065550327301,-0.7366255521774292
1772561960336149500,9.9371494140625,-0.03857767581939697,-0.7656689882278442,-0.9927037358283997
1772561960346216400,9.947216552734375,0.0010046237148344517,-0.46774807572364807,-1.078244924545288
1772561960356283400,9.957283447265626,0.04808425158262253,-0.027854371815919876,-1.0499861240386963
1772561960366351600,9.9673515625,-0.0038386040832847357,0.2641298174858093,-0.9405280947685242
1772561960376418600,9.97741845703125,-0.06351755559444427,0.4887727200984955,-0.6980646848678589
1772561960386485500,9.987485595703125,-0.0963740423321724,0.6425356268882751,-0.3352838158607483
1772561960396552400,9.997552490234375,-0.11822545528411865,0.7061039805412292,0.07004620134830475
1772561960406619600,10.00761962890625,-0.1700066179037094,0.6256173849105835,0.4836643934249878
1772561960416686600,10.0176865234375,-0.2271316796541214,0.3818521499633789,0.8276278376579285
1772561960426753500,10.02775341796875,-0.2691478729248047,0.13135257363319397,1.0815379619598389
1772561960436821500,10.037821533203125,-0.3288397789001465,-0.11816846579313278,1.2351609468460083
1772561960446888400,10.047888427734375,-0.44609156250953674,-0.38711872696876526,1.2941324710845947
1772561960456955400,10.057955322265625,-0.6035950779914856,-0.5664213299751282,1.24288809299469
1772561960467022300,10.068022216796875,-0.7579007148742676,-0.6036099791526794,1.1842836141586304
1772561960477089300,10.07808935546875,-0.8541336059570312,-0.5447706580162048,1.143689513206482
1772561960487157500,10.088157470703125,-0.8920575380325317,-0.4182044565677643,1.1193442344665527
1772561960497224400,10.098224365234374,-0.9650891423225403,0.08023910969495773,1.3433340787887573
1772561960507291600,10.108291748046875,-0.993190586566925,-0.1298970729112625,1.5530948638916016
1772561960517358600,10.118358642578125,-1.0043079853057861,-0.5774039626121521,1.7315242290496826
1772561960527425500,10.128425537109376,-1.0444873571395874,-0.5749685168266296,1.8626587390899658
1772561960537492500,10.138492431640625,-1.117921233177185,-0.18233436346054077,1.9139773845672607
1772561960547560400,10.148560546875,-1.1872025728225708,0.21878643333911896,1.9249845743179321
1772561960557627400,10.15862744140625,-1.1973090171813965,0.7201335430145264,1.8937797546386719
1772561960567694300,10.1686943359375,-0.9845331311225891,1.3642908334732056,1.682185173034668
1772561960577761500,10.178761474609376,-0.49513572454452515,1.7128753662109375,1.1450259685516357
1772561960587828500,10.188828369140625,-0.1027040183544159,1.6133583784103394,0.37948697805404663
1772561960597895400,10.1988955078125,0.04277603700757027,1.2141759395599365,-0.32847362756729126
1772561960607963400,10.20896337890625,0.12529274821281433,0.8531766533851624,-0.8400753736495972
1772561960618030300,10.2190302734375,0.2528630495071411,0.5280287265777588,-1.1169841289520264
1772561960628097300,10.22909716796875,0.42458951473236084,0.23740699887275696,-1.2427133321762085
1772561960638164500,10.23916455078125,0.5646032691001892,0.0010617454536259174,-1.268168330192566
1772561960648231400,10.2492314453125,0.6087930798530579,-0.1592075526714325,-1.1852627992630005
1772561960658298400,10.25929833984375,0.6231462955474854,-0.2590218186378479,-1.047045111656189
1772561960668366300,10.269366455078124,0.6178039908409119,-0.3313431441783905,-0.8816785216331482
1772561960678433500,10.27943359375,0.5118210315704346,-0.40442797541618347,-0.686698317527771
1772561960688500500,10.28950048828125,0.33821192383766174,-0.5471169352531433,-0.459928035736084
1772561960698567400,10.2995673828125,0.14966733753681183,-0.6243870854377747,-0.25057458877563477
1772561960708634400,10.30963427734375,-0.03482448309659958,-0.5911532640457153,-0.08791670203208923
1772561960718701300,10.319701416015626,-0.18261180818080902,-0.4371549189090729,0.03514263778924942
1772561960728769300,10.329769287109375,-0.283537358045578,-0.21943029761314392,0.1585170328617096
1772561960738836500,10.33983642578125,-0.33501946926116943,-0.07864858210086823,0.28907012939453125
1772561960748903400,10.3499033203125,-0.3224645256996155,-0.06087011471390724,0.4470600187778473
1772561960758970600,10.359970703125,-0.25248953700065613,-0.06767921894788742,0.6407129168510437
1772561960769037600,10.37003759765625,-0.1562788337469101,-0.051882676780223846,0.8463379740715027
1772561960779104500,10.3801044921875,-0.06376852095127106,0.0047645000740885735,1.0338679552078247
1772561960789172500,10.39017236328125,0.012894300743937492,0.07684855163097382,1.1777478456497192
1772561960799239400,10.400239501953125,0.050954870879650116,0.10416395217180252,1.2722128629684448
1772561960809306400,10.410306396484375,0.04317231476306915,0.05685662478208542,1.3183460235595703
1772561960819373300,10.420373291015625,0.008167726919054985,-0.0025619035586714745,1.3213155269622803
1772561960829440300,10.430440185546875,-0.03919712454080582,-0.07127518951892853,1.2642465829849243
1772561960839507500,10.440507568359376,-0.08549333363771439,-0.1855727732181549,1.161171555519104
1772561960849575400,10.450575439453125,-0.1332635134458542,-0.3003997504711151,1.0182043313980103
1772561960859642600,10.460642578125,-0.19638213515281677,-0.3716292977333069,0.8455671668052673
1772561960869709600,10.47070947265625,-0.25927695631980896,-0.3931708037853241,0.6487377285957336
1772561960879776500,10.480776611328125,-0.3253931999206543,-0.4145311117172241,0.4555394947528839
1772561960889843500,10.490843505859376,-0.38590875267982483,-0.477037638425827,0.3048064410686493
1772561960899910400,10.500910400390625,-0.4440278708934784,-0.5646247863769531,0.2073657363653183
1772561960909978400,10.510978271484374,-0.5052893757820129,-0.6412255764007568,0.16322782635688782
1772561960920045300,10.52104541015625,-0.5581590533256531,-0.7101516723632812,0.15312641859054565
1772561960930112300,10.5311123046875,-0.6159775853157043,-0.749845027923584,0.16419024765491486
1772561960940179500,10.541179443359376,-0.6849631071090698,-0.7464373707771301,0.20294655859470367
1772561960950246400,10.551246337890625,-0.7639101147651672,-0.7116466164588928,0.2594532370567322
1772561960960314600,10.561314697265624,-0.8394671082496643,-0.6848472952842712,0.31767192482948303
1772561960970381600,10.571381591796875,-0.8956174254417419,-0.6648988723754883,0.36937105655670166
1772561960980448500,10.581448486328124,-0.9033441543579102,-0.6215401887893677,0.4077311158180237
1772561960990515500,10.591515380859375,-0.8489365577697754,-0.5434259176254272,0.44547051191329956
1772561961000582400,10.60158251953125,-0.7433181405067444,-0.41066887974739075,0.49900829792022705
1772561961010649300,10.6116494140625,-0.6113574504852295,-0.23789045214653015,0.5567986369132996
1772561961020717300,10.62171728515625,-0.47217485308647156,-0.07243331521749496,0.6125394105911255
1772561961030784300,10.6317841796875,-0.35245031118392944,0.061948198825120926,0.6506348252296448
1772561961040851500,10.6418515625,-0.2656877040863037,0.16031594574451447,0.6645347476005554
1772561961050918400,10.65191845703125,-0.19973424077033997,0.2344820499420166,0.6501334309577942
1772561961060985300,10.6619853515625,-0.13762623071670532,0.2834216058254242,0.6222807765007019
1772561961071052300,10.67205224609375,-0.060427580028772354,0.30674102902412415,0.5966963171958923
1772561961081120500,10.68212060546875,0.023443173617124557,0.31131210923194885,0.5824225544929504
1772561961091187500,10.6921875,0.11978115886449814,0.3222654461860657,0.5807874202728271
1772561961101254400,10.70225439453125,0.22667601704597473,0.3411927819252014,0.5920823216438293
1772561961111321300,10.7123212890625,0.3391024172306061,0.34745651483535767,0.6027685403823853
1772561961121388500,10.722388427734375,0.4530242681503296,0.3599843978881836,0.5961841344833374
1772561961131455500,10.73245556640625,0.5667886734008789,0.38573476672172546,0.5532675385475159
1772561961141523500,10.7425234375,0.6722460985183716,0.36524972319602966,0.442786306142807
1772561961151590400,10.75259033203125,0.7675973773002625,0.2967558801174164,0.2996014356613159
1772561961161657300,10.7626572265625,0.842002809047699,0.21645823121070862,0.17687655985355377
1772561961171724300,10.772724365234374,0.8796008229255676,0.1519562005996704,0.0978722870349884
1772561961181791200,10.782791259765625,0.8771449327468872,0.1041724756360054,0.08223135024309158
1772561961191858200,10.792858154296875,0.8678725957870483,0.09335072338581085,0.08837712556123734
1772561961201926400,10.802926513671874,0.8535115122795105,0.09115813672542572,0.10077919811010361
1772561961211993300,10.812993408203125,0.8450213670730591,0.09422503411769867,0.10547968000173569
1772561961222060500,10.823060546875,0.8409342169761658,0.1023641973733902,0.1274513453245163
1772561961232127500,10.83312744140625,0.8396492600440979,0.11752370744943619,0.18031083047389984
1772561961242194400,10.8431943359375,0.850379228591919,0.18114222586154938,0.2597224712371826
1772561961252261400,10.853261474609376,0.902919352054596,0.3255854547023773,0.31951284408569336
1772561961262329300,10.863329345703125,0.999462366104126,0.479057639837265,0.3286758363246918
1772561961272396300,10.873396240234374,1.1012874841690063,0.5855896472930908,0.27257153391838074
1772561961282463200,10.883463134765625,1.1479170322418213,0.6476128101348877,0.15627387166023254
1772561961292530200,10.8935302734375,1.1268354654312134,0.6099680066108704,-0.034135207533836365
1772561961302597600,10.90359765625,1.0328807830810547,0.47899091243743896,-0.26762452721595764
1772561961312664600,10.91366455078125,0.883946418762207,0.3229387402534485,-0.5054211020469666
1772561961322732500,10.923732666015624,0.692431628704071,0.12594743072986603,-0.7111818790435791
1772561961332799500,10.933799560546875,0.5161543488502502,-0.16249263286590576,-0.928091824054718
1772561961342866400,10.943866455078124,0.4087584316730499,-0.3457842469215393,-1.097557783126831
1772561961352933400,10.953933349609375,0.3498229682445526,-0.39021268486976624,-1.1825170516967773
1772561961363000300,10.964000244140625,0.269792765378952,-0.3902965486049652,-1.173848271369934
1772561961373067300,10.9740673828125,0.18513061106204987,-0.403616338968277,-1.0966312885284424
