time,seconds_elapsed,z,y,x
1772562863484905700,0.05890576171875,-0.9716949462890625,-0.0117034912109375,0.048828125
1772562863494973700,0.0689736328125,-0.9717254638671875,-0.0147705078125,0.054229736328125
1772562863505040600,0.07904052734375,-0.98614501953125,-0.0133209228515625,0.0510406494140625
1772562863515107600,0.089107666015625,-1.003143310546875,-0.01324462890625,0.0443878173828125
1772562863525174500,0.099174560546875,-0.99969482421875,-0.0174560546875,0.0416107177734375
1772562863535241700,0.10924169921875,-0.997894287109375,-0.013458251953125,0.0422515869140625
1772562863545309700,0.119309814453125,-0.9994659423828125,-0.0155181884765625,0.049896240234375
1772562863555377000,0.129376953125,-0.9791412353515625,-0.013671875,0.050994873046875
1772562863565443800,0.13944384765625,-0.975250244140625,-0.0144195556640625,0.0516815185546875
1772562863575510800,0.1495107421875,-0.989776611328125,-0.0152435302734375,0.0445098876953125
1772562863585577700,0.15957763671875,-1.004058837890625,-0.0157623291015625,0.0417327880859375
1772562863595645700,0.169645751953125,-1.007720947265625,-0.0155181884765625,0.04345703125
1772562863605712600,0.179712646484375,-0.9889678955078125,-0.01177978515625,0.04595947265625
1772562863615779600,0.189779541015625,-0.980621337890625,-0.014862060546875,0.048614501953125
1772562863625846500,0.199846435546875,-0.984710693359375,-0.017852783203125,0.05084228515625
1772562863635914800,0.209914794921875,-0.9903106689453125,-0.0134124755859375,0.0451507568359375
1772562863645981700,0.219981689453125,-0.997955322265625,-0.015594482421875,0.0423736572265625
1772562863656049000,0.230048828125,-1.000396728515625,-0.011566162109375,0.04290771484375
1772562863666115800,0.24011572265625,-0.9968109130859375,-0.0147705078125,0.0478973388671875
1772562863676182800,0.250182861328125,-0.986175537109375,-0.0159149169921875,0.04791259765625
1772562863686250800,0.260250732421875,-0.9813385009765625,-0.0135955810546875,0.05084228515625
1772562863696317700,0.270317626953125,-0.989044189453125,-0.01629638671875,0.049774169921875
1772562863706384600,0.280384521484375,-0.997161865234375,-0.013641357421875,0.0478057861328125
1772562863716451600,0.29045166015625,-0.998870849609375,-0.0146636962890625,0.044952392578125
1772562863726518500,0.3005185546875,-0.9947509765625,-0.0148468017578125,0.044708251953125
1772562863736586800,0.310586669921875,-0.9889984130859375,-0.0147857666015625,0.0468597412109375
1772562863746653700,0.32065380859375,-0.98931884765625,-0.0157928466796875,0.0489501953125
1772562863756721000,0.330720947265625,-0.988922119140625,-0.014434814453125,0.0478057861328125
1772562863766787800,0.340787841796875,-0.993743896484375,-0.01568603515625,0.0461578369140625
1772562863776855800,0.350855712890625,-0.994232177734375,-0.01519775390625,0.044921875
1772562863786922800,0.3609228515625,-0.995452880859375,-0.0133819580078125,0.043975830078125
1772562863796989700,0.37098974609375,-0.9930877685546875,-0.01483154296875,0.0472564697265625
1772562863807056600,0.381056640625,-0.987823486328125,-0.0138702392578125,0.0485992431640625
1772562863817123600,0.39112353515625,-0.990692138671875,-0.01519775390625,0.048980712890625
1772562863827191600,0.401191650390625,-0.9910736083984375,-0.0147857666015625,0.047119140625
1772562863837258800,0.4112587890625,-0.9920501708984375,-0.013916015625,0.0453948974609375
1772562863847325700,0.42132568359375,-0.994232177734375,-0.0146942138671875,0.0449676513671875
1772562863857393000,0.431392822265625,-0.992767333984375,-0.0124969482421875,0.046478271484375
1772562863867459800,0.4414599609375,-0.9920196533203125,-0.0152740478515625,0.047454833984375
1772562863877527800,0.45152783203125,-0.98931884765625,-0.01513671875,0.0482330322265625
1772562863887594800,0.4615947265625,-0.9911956787109375,-0.015472412109375,0.0474853515625
1772562863897661700,0.47166162109375,-0.9926910400390625,-0.0163726806640625,0.0478515625
1772562863907728600,0.481728759765625,-0.99395751953125,-0.013397216796875,0.0458984375
1772562863917796600,0.491796630859375,-0.9931488037109375,-0.014190673828125,0.0466461181640625
1772562863927863600,0.501863525390625,-0.99151611328125,-0.0142669677734375,0.04583740234375
1772562863937930800,0.5119306640625,-0.990020751953125,-0.015960693359375,0.048065185546875
1772562863947997700,0.521997802734375,-0.9918060302734375,-0.014678955078125,0.04888916015625
1772562863958065000,0.53206494140625,-0.990936279296875,-0.0134429931640625,0.047882080078125
1772562863968132600,0.542132568359375,-0.9930267333984375,-0.01531982421875,0.045257568359375
1772562863978199000,0.552198974609375,-0.991943359375,-0.01470947265625,0.04827880859375
1772562863988266000,0.562265869140625,-0.9913177490234375,-0.0146484375,0.046051025390625
1772562863998333000,0.5723330078125,-0.990631103515625,-0.0159759521484375,0.047821044921875
1772562864008400000,0.58239990234375,-0.9904327392578125,-0.014434814453125,0.047210693359375
1772562864018468000,0.592468017578125,-0.993499755859375,-0.0155181884765625,0.0472869873046875
1772562864028535000,0.60253515625,-0.9919586181640625,-0.0154876708984375,0.0466766357421875
1772562864038602200,0.612602294921875,-0.9915313720703125,-0.0147247314453125,0.0466461181640625
1772562864048669200,0.622669189453125,-0.990997314453125,-0.0147247314453125,0.0453033447265625
1772562864058737200,0.632737060546875,-0.989715576171875,-0.0138092041015625,0.047210693359375
1772562864068804000,0.64280419921875,-0.9921875,-0.01287841796875,0.047515869140625
1772562864078871000,0.65287109375,-0.9915618896484375,-0.01312255859375,0.0467681884765625
1772562864088938000,0.66293798828125,-0.990692138671875,-0.013458251953125,0.0452728271484375
1772562864099005000,0.6730048828125,-0.992919921875,-0.0140228271484375,0.04754638671875
1772562864109073200,0.6830732421875,-0.9910430908203125,-0.01483154296875,0.049285888671875
1772562864119140000,0.69314013671875,-0.9922637939453125,-0.0147705078125,0.04736328125
1772562864129207000,0.70320703125,-0.9914703369140625,-0.013458251953125,0.0460205078125
1772562864139274200,0.713274169921875,-0.9922637939453125,-0.01318359375,0.048309326171875
1772562864149341200,0.723341064453125,-0.99212646484375,-0.016204833984375,0.0453033447265625
1772562864159409200,0.7334091796875,-0.99114990234375,-0.015228271484375,0.046661376953125
1772562864169476000,0.74347607421875,-0.9903106689453125,-0.014892578125,0.0468902587890625
1772562864179543000,0.75354296875,-0.992095947265625,-0.0141448974609375,0.0483856201171875
1772562864189610000,0.76360986328125,-0.9915618896484375,-0.01513671875,0.0478363037109375
1772562864199678200,0.77367822265625,-0.9917449951171875,-0.01556396484375,0.0469512939453125
1772562864209745200,0.7837451171875,-0.9914398193359375,-0.014434814453125,0.047515869140625
1772562864219812000,0.79381201171875,-0.9911346435546875,-0.014373779296875,0.0414886474609375
1772562864229879000,0.803879150390625,-0.973968505859375,-0.0141143798828125,0.0406036376953125
1772562864239946200,0.8139462890625,-1.0093231201171875,-0.01708984375,0.0537567138671875
1772562864250014000,0.824013916015625,-1.0258636474609375,-0.0135345458984375,0.0591583251953125
1772562864260081200,0.8340810546875,-0.9718170166015625,-0.0157928466796875,0.0557861328125
1772562864270148000,0.844148193359375,-0.9526824951171875,-0.01434326171875,0.0483856201171875
1772562864280215000,0.854215087890625,-0.9985809326171875,-0.01025390625,0.040802001953125
1772562864290282000,0.864281982421875,-1.0217742919921875,-0.0172119140625,0.0374755859375
1772562864300350200,0.87435009765625,-1.0121917724609375,-0.017669677734375,0.0406036376953125
1772562864310417200,0.884417236328125,-0.987457275390625,-0.01495361328125,0.0490264892578125
1772562864320484000,0.894484130859375,-0.95806884765625,-0.0182647705078125,0.055511474609375
1772562864330551000,0.904551025390625,-0.977630615234375,-0.0116729736328125,0.0552978515625
1772562864340619000,0.914618896484375,-1.00244140625,-0.0120391845703125,0.045654296875
1772562864350686000,0.92468603515625,-1.0035247802734375,-0.0152435302734375,0.0389556884765625
1772562864360753200,0.934753173828125,-1.0081634521484375,-0.0128021240234375,0.039642333984375
1772562864370820000,0.944820068359375,-0.9953155517578125,-0.017181396484375,0.0440826416015625
1772562864380887000,0.954886962890625,-0.9790802001953125,-0.0164337158203125,0.0542449951171875
1772562864390955000,0.964955078125,-0.9776458740234375,-0.0146636962890625,0.0532989501953125
1772562864401022200,0.975022216796875,-0.984375,-0.0147705078125,0.0472564697265625
1772562864411089200,0.985089111328125,-0.999298095703125,-0.0132904052734375,0.0417633056640625
1772562864421156000,0.995156005859375,-1.0077667236328125,-0.013427734375,0.0418701171875
1772562864431223000,1.00522314453125,-0.9965972900390625,-0.0137786865234375,0.044952392578125
1772562864441291000,1.015291015625,-0.9842529296875,-0.0146331787109375,0.050537109375
1772562864451358000,1.02535791015625,-0.9801177978515625,-0.0153656005859375,0.0527496337890625
1772562864461425200,1.035425048828125,-0.983489990234375,-0.0157623291015625,0.050384521484375
1772562864471492000,1.0454921875,-0.99310302734375,-0.0167083740234375,0.0451812744140625
1772562864481560000,1.05556005859375,-1.0010528564453125,-0.0144805908203125,0.04364013671875
1772562864491627000,1.065626953125,-1.0023956298828125,-0.0143890380859375,0.0445098876953125
1772562864501694000,1.07569384765625,-0.9918975830078125,-0.0138702392578125,0.0489044189453125
1772562864511761200,1.08576123046875,-0.9825286865234375,-0.0160064697265625,0.049407958984375
1772562864521828000,1.095828125,-0.9840850830078125,-0.0181427001953125,0.051116943359375
1772562864531896000,1.10589599609375,-0.9909515380859375,-0.015380859375,0.048858642578125
1772562864541963000,1.115962890625,-0.9981536865234375,-0.0149383544921875,0.0455474853515625
1772562864552030200,1.1260302734375,-0.9996795654296875,-0.01220703125,0.043914794921875
1772562864562097200,1.13609716796875,-0.9929656982421875,-0.013458251953125,0.0470428466796875
1772562864572165000,1.1461650390625,-0.987640380859375,-0.0155029296875,0.0484771728515625
1772562864582232000,1.156232177734375,-0.987152099609375,-0.0152130126953125,0.0481414794921875
1772562864592299000,1.166299072265625,-0.9894561767578125,-0.0159149169921875,0.0499114990234375
1772562864602366000,1.176365966796875,-0.99383544921875,-0.0149993896484375,0.046661376953125
1772562864612433200,1.18643310546875,-0.9971160888671875,-0.0144195556640625,0.0436553955078125
1772562864622501000,1.196501220703125,-0.9940185546875,-0.0153961181640625,0.0453033447265625
1772562864632568000,1.206568115234375,-0.990814208984375,-0.01385498046875,0.0460968017578125
1772562864642635000,1.216635009765625,-0.990936279296875,-0.0152587890625,0.0487518310546875
1772562864652702200,1.2267021484375,-0.992034912109375,-0.013275146484375,0.048797607421875
1772562864662770000,1.23677001953125,-0.9930877685546875,-0.015106201171875,0.0482940673828125
1772562864672837000,1.246837158203125,-0.9922332763671875,-0.0168609619140625,0.04571533203125
1772562864682904000,1.256904052734375,-0.9917755126953125,-0.015533447265625,0.0464630126953125
1772562864692971000,1.266970947265625,-0.991973876953125,-0.013824462890625,0.0460968017578125
1772562864703038000,1.277037841796875,-0.9917144775390625,-0.01434326171875,0.0472869873046875
1772562864713106200,1.287106201171875,-0.9916839599609375,-0.015625,0.0465240478515625
1772562864723173000,1.297173095703125,-0.9929656982421875,-0.015777587890625,0.0451507568359375
1772562864733240000,1.307239990234375,-0.993621826171875,-0.0158843994140625,0.0447540283203125
1772562864743307000,1.31730712890625,-0.992340087890625,-0.0175933837890625,0.04827880859375
1772562864753374200,1.327374267578125,-0.9907989501953125,-0.0163116455078125,0.0487823486328125
1772562864763442000,1.33744189453125,-0.9916839599609375,-0.0137786865234375,0.0480194091796875
1772562864773509000,1.347509033203125,-0.9895782470703125,-0.014617919921875,0.0472869873046875
1772562864783576000,1.357576171875,-0.9912261962890625,-0.015777587890625,0.046234130859375
1772562864793643000,1.36764306640625,-0.9939422607421875,-0.014251708984375,0.0448760986328125
1772562864803711200,1.377711181640625,-0.9930877685546875,-0.016143798828125,0.047943115234375
1772562864813778200,1.387778076171875,-0.99176025390625,-0.017242431640625,0.0491790771484375
1772562864823845000,1.39784521484375,-0.99078369140625,-0.0165863037109375,0.0460052490234375
1772562864833912000,1.407912109375,-0.9905853271484375,-0.01513671875,0.04705810546875
1772562864843979000,1.41797900390625,-0.9936370849609375,-0.014251708984375,0.04571533203125
1772562864854047000,1.428046875,-0.9942169189453125,-0.014892578125,0.047088623046875
1772562864864114000,1.438114013671875,-0.9933929443359375,-0.015350341796875,0.0464935302734375
1772562864874181000,1.44818115234375,-0.992095947265625,-0.0160064697265625,0.0460662841796875
1772562864884248000,1.458248046875,-0.9903411865234375,-0.0153656005859375,0.0479888916015625
1772562864894316300,1.46831640625,-0.9901580810546875,-0.0161590576171875,0.0482177734375
1772562864904383200,1.47838330078125,-0.9907989501953125,-0.0151214599609375,0.047119140625
1772562864914450200,1.4884501953125,-0.9938201904296875,-0.015106201171875,0.047576904296875
1772562864924517000,1.49851708984375,-0.9930267333984375,-0.0150299072265625,0.0458526611328125
1772562864934584000,1.508583984375,-0.9915008544921875,-0.0139617919921875,0.0475616455078125
1772562864944652000,1.518652099609375,-0.99041748046875,-0.0154876708984375,0.0477294921875
1772562864954719000,1.528718994140625,-0.9889984130859375,-0.014801025390625,0.0488128662109375
1772562864964786200,1.5387861328125,-0.991943359375,-0.014984130859375,0.049468994140625
1772562864974853000,1.54885302734375,-0.9913787841796875,-0.01409912109375,0.0477294921875
1772562864984920000,1.558920166015625,-0.9924774169921875,-0.014007568359375,0.04461669921875
1772562864994988000,1.568988037109375,-0.9931793212890625,-0.01611328125,0.0461273193359375
1772562865005055200,1.57905517578125,-0.9917755126953125,-0.0147705078125,0.047088623046875
1772562865015122200,1.5891220703125,-0.990966796875,-0.0148162841796875,0.045928955078125
1772562865025189000,1.599189208984375,-0.991119384765625,-0.0157470703125,0.0465087890625
1772562865035257000,1.609257080078125,-0.9901885986328125,-0.0138397216796875,0.0476531982421875
1772562865045324000,1.619323974609375,-0.99102783203125,-0.0160064697265625,0.0461273193359375
1772562865055391000,1.629390869140625,-0.99090576171875,-0.0153656005859375,0.046875
1772562865065458200,1.639458251953125,-0.9928131103515625,-0.0141754150390625,0.0482635498046875
1772562865075525000,1.649525146484375,-0.992401123046875,-0.0144195556640625,0.0467376708984375
1772562865085593000,1.659593017578125,-0.99127197265625,-0.0154266357421875,0.0464935302734375
1772562865095660000,1.669659912109375,-0.9900360107421875,-0.016326904296875,0.0476837158203125
1772562865105727200,1.679727294921875,-0.9916534423828125,-0.015838623046875,0.0469818115234375
1772562865115794200,1.689794189453125,-0.9921875,-0.0149688720703125,0.0479736328125
1772562865125862100,1.699862060546875,-0.992889404296875,-0.014678955078125,0.0468597412109375
1772562865135929000,1.70992919921875,-0.9918212890625,-0.014892578125,0.0475616455078125
1772562865145996000,1.71999609375,-0.9923095703125,-0.0142364501953125,0.04571533203125
1772562865156063000,1.73006298828125,-0.9933319091796875,-0.0144805908203125,0.0471038818359375
1772562865166130200,1.740130126953125,-0.9913177490234375,-0.0166473388671875,0.046722412109375
1772562865176198000,1.750197998046875,-0.9913787841796875,-0.0159912109375,0.04827880859375
1772562865186265000,1.76026513671875,-0.9908294677734375,-0.013336181640625,0.0473175048828125
1772562865196332000,1.77033203125,-0.9916534423828125,-0.0148773193359375,0.0471038818359375
1772562865206399000,1.78039892578125,-0.9913482666015625,-0.0158233642578125,0.046478271484375
1772562865216467200,1.79046728515625,-0.9937744140625,-0.0144805908203125,0.046905517578125
1772562865226534100,1.8005341796875,-0.9921417236328125,-0.0158233642578125,0.04931640625
1772562865236601000,1.81060107421875,-0.991668701171875,-0.014495849609375,0.04730224609375
1772562865246668000,1.82066796875,-0.9914398193359375,-0.013153076171875,0.047515869140625
1772562865256735000,1.83073486328125,-0.9913330078125,-0.0138092041015625,0.048187255859375
1772562865266803000,1.840802978515625,-0.991668701171875,-0.0147705078125,0.0464935302734375
1772562865276870000,1.850869873046875,-0.9920654296875,-0.0151824951171875,0.047119140625
1772562865286937000,1.86093701171875,-0.9938812255859375,-0.0133056640625,0.0468292236328125
1772562865297004000,1.871004150390625,-0.992340087890625,-0.014434814453125,0.0468292236328125
1772562865307072300,1.881072265625,-0.99163818359375,-0.013824462890625,0.046661376953125
1772562865317139200,1.89113916015625,-0.9924774169921875,-0.01513671875,0.047119140625
1772562865327206100,1.9012060546875,-0.9923248291015625,-0.014923095703125,0.0475616455078125
1772562865337273000,1.911273193359375,-0.9921417236328125,-0.0165252685546875,0.0461578369140625
1772562865347340000,1.921340087890625,-0.99188232421875,-0.013702392578125,0.04632568359375
1772562865357408000,1.931407958984375,-0.991607666015625,-0.0151824951171875,0.0454254150390625
1772562865367475000,1.941474853515625,-0.9915313720703125,-0.015625,0.0467071533203125
1772562865377542100,1.951542236328125,-0.992462158203125,-0.0148468017578125,0.0471954345703125
1772562865387609000,1.961609130859375,-0.9923553466796875,-0.0161590576171875,0.0460357666015625
1772562865397677000,1.971677001953125,-0.99298095703125,-0.0165252685546875,0.04644775390625
1772562865407744300,1.981744140625,-0.99224853515625,-0.0161590576171875,0.047760009765625
1772562865417811200,1.991811279296875,-0.9915008544921875,-0.015045166015625,0.0460968017578125
1772562865427878100,2.001878173828125,-0.9930267333984375,-0.013763427734375,0.0476531982421875
1772562865437945000,2.011945068359375,-0.99169921875,-0.0141448974609375,0.047454833984375
1772562865448013000,2.022012939453125,-0.99114990234375,-0.0150604248046875,0.0471649169921875
1772562865458080000,2.032080078125,-0.9909820556640625,-0.0148468017578125,0.0478363037109375
1772562865468147000,2.04214697265625,-0.991424560546875,-0.0145416259765625,0.0465240478515625
1772562865478214100,2.052214111328125,-0.99188232421875,-0.0137786865234375,0.047637939453125
1772562865488281000,2.062281005859375,-0.99285888671875,-0.0141754150390625,0.0463104248046875
1772562865498349300,2.072349365234375,-0.9917449951171875,-0.013916015625,0.04571533203125
1772562865508416300,2.082416259765625,-0.991973876953125,-0.0135498046875,0.0442657470703125
1772562865518483200,2.092483154296875,-0.9925994873046875,-0.0158233642578125,0.047454833984375
1772562865528550100,2.102550048828125,-0.9918670654296875,-0.0156707763671875,0.0478668212890625
1772562865538618000,2.1126181640625,-0.99267578125,-0.0157928466796875,0.04736328125
1772562865548685000,2.12268505859375,-0.992156982421875,-0.0152435302734375,0.0452117919921875
1772562865558752000,2.132751953125,-0.9921722412109375,-0.014801025390625,0.04644775390625
1772562865568819000,2.14281884765625,-0.99334716796875,-0.01593017578125,0.04718017578125
1772562865578887000,2.152886962890625,-0.9933319091796875,-0.0149078369140625,0.045074462890625
1772562865588953900,2.162953857421875,-0.9923248291015625,-0.015472412109375,0.0474853515625
1772562865599021300,2.173021240234375,-0.991455078125,-0.0165557861328125,0.0482025146484375
1772562865609088300,2.183088134765625,-0.990234375,-0.0161285400390625,0.0467529296875
1772562865619155200,2.1931552734375,-0.992462158203125,-0.0143585205078125,0.046478271484375
1772562865629223200,2.20322314453125,-0.9915008544921875,-0.01416015625,0.0473785400390625
1772562865639290000,2.2132900390625,-0.9907684326171875,-0.013153076171875,0.0464935302734375
1772562865649357000,2.223357177734375,-0.992584228515625,-0.014404296875,0.04559326171875
1772562865659424000,2.233424072265625,-0.9906463623046875,-0.0155487060546875,0.0489349365234375
1772562865669491000,2.243490966796875,-0.990814208984375,-0.01544189453125,0.046905517578125
1772562865679559000,2.253558837890625,-0.990570068359375,-0.0166473388671875,0.04730224609375
1772562865689625900,2.2636259765625,-0.992950439453125,-0.015594482421875,0.0460968017578125
1772562865699693000,2.273693115234375,-0.99267578125,-0.014892578125,0.0463409423828125
1772562865709760300,2.28376025390625,-0.9944305419921875,-0.012176513671875,0.0472869873046875
1772562865719828200,2.293828125,-0.9931182861328125,-0.016448974609375,0.0466156005859375
1772562865729895200,2.303895263671875,-0.9922637939453125,-0.0151214599609375,0.0475921630859375
1772562865739962000,2.313962158203125,-0.9921417236328125,-0.015228271484375,0.0475616455078125
1772562865750029000,2.324029052734375,-0.9919281005859375,-0.01483154296875,0.04742431640625
1772562865760097000,2.334096923828125,-0.990814208984375,-0.0143890380859375,0.046844482421875
1772562865770164000,2.3441640625,-0.9912109375,-0.0152130126953125,0.047027587890625
1772562865780231000,2.35423095703125,-0.993072509765625,-0.0158538818359375,0.0464324951171875
1772562865790298000,2.364298095703125,-0.99322509765625,-0.013702392578125,0.04632568359375
1772562865800365000,2.374364990234375,-0.9915618896484375,-0.0133056640625,0.047119140625
1772562865810433000,2.38443310546875,-0.992095947265625,-0.015045166015625,0.047271728515625
1772562865820500200,2.394500244140625,-0.9915924072265625,-0.01458740234375,0.04705810546875
1772562865830567200,2.404567138671875,-0.991546630859375,-0.0141143798828125,0.046112060546875
1772562865840634000,2.414634033203125,-0.9907073974609375,-0.0146942138671875,0.047821044921875
1772562865850701000,2.424701171875,-0.9898834228515625,-0.01556396484375,0.047210693359375
1772562865860769000,2.43476904296875,-0.99151611328125,-0.01513671875,0.0457611083984375
1772562865870836000,2.4448359375,-0.9927978515625,-0.0146942138671875,0.0467681884765625
1772562865880903000,2.45490283203125,-0.9905548095703125,-0.0149993896484375,0.04620361328125
1772562865890970000,2.46497021484375,-0.9914093017578125,-0.0147552490234375,0.046417236328125
1772562865901038000,2.4750380859375,-0.9920501708984375,-0.0151824951171875,0.0466461181640625
1772562865911105300,2.485105224609375,-0.9925537109375,-0.01446533203125,0.04754638671875
1772562865921172200,2.495172119140625,-0.9917755126953125,-0.015472412109375,0.0483245849609375
1772562865931239200,2.5052392578125,-0.990478515625,-0.0157623291015625,0.0470428466796875
1772562865941307100,2.51530712890625,-0.992340087890625,-0.015899658203125,0.047821044921875
1772562865951374000,2.5253740234375,-0.990570068359375,-0.0158843994140625,0.0464019775390625
1772562865961441000,2.53544091796875,-0.992584228515625,-0.0152435302734375,0.0474090576171875
1772562865971508000,2.545508056640625,-0.9918670654296875,-0.015472412109375,0.04632568359375
1772562865981575400,2.555575439453125,-0.9922943115234375,-0.0155029296875,0.0462799072265625
1772562865991643400,2.565643310546875,-0.99212646484375,-0.0138397216796875,0.04779052734375
1772562866001710300,2.57571044921875,-0.991912841796875,-0.0157012939453125,0.0477447509765625
1772562866011777300,2.58577734375,-0.9919586181640625,-0.0136260986328125,0.0473785400390625
1772562866021844500,2.595844482421875,-0.9933624267578125,-0.0148468017578125,0.047088623046875
1772562866031912400,2.605912353515625,-0.9922332763671875,-0.0147705078125,0.0467071533203125
1772562866041979400,2.6159794921875,-0.9938201904296875,-0.014801025390625,0.0483856201171875
1772562866052046300,2.62604638671875,-0.9914093017578125,-0.0154571533203125,0.0440521240234375
1772562866062113300,2.63611328125,-0.9913482666015625,-0.014923095703125,0.046112060546875
1772562866072180200,2.64618017578125,-0.9922332763671875,-0.0149993896484375,0.0474853515625
1772562866082248400,2.65624853515625,-0.9919891357421875,-0.01507568359375,0.046722412109375
1772562866092315400,2.6663154296875,-0.9925994873046875,-0.0148773193359375,0.0460357666015625
1772562866102382300,2.67638232421875,-0.9916229248046875,-0.0139007568359375,0.0467071533203125
1772562866112449300,2.68644921875,-0.9919281005859375,-0.0147247314453125,0.0485687255859375
1772562866122517200,2.696517333984375,-0.9921875,-0.0146026611328125,0.0450439453125
1772562866132584400,2.70658447265625,-0.9906005859375,-0.013885498046875,0.0466156005859375
1772562866142651400,2.7166513671875,-0.990936279296875,-0.015350341796875,0.046966552734375
1772562866152718300,2.72671826171875,-0.9926605224609375,-0.0149078369140625,0.045318603515625
1772562866162785300,2.736785400390625,-0.9923553466796875,-0.014984130859375,0.047882080078125
1772562866172853500,2.746853515625,-0.990264892578125,-0.01513671875,0.047027587890625
1772562866182920400,2.75692041015625,-0.992706298828125,-0.013885498046875,0.04754638671875
1772562866192987400,2.7669873046875,-0.992462158203125,-0.01519775390625,0.0461273193359375
1772562866203054300,2.777054443359375,-0.9925384521484375,-0.015899658203125,0.04766845703125
1772562866213122300,2.787122314453125,-0.9920806884765625,-0.015838623046875,0.0450897216796875
1772562866223189200,2.797189208984375,-0.9926300048828125,-0.0136566162109375,0.04656982421875
1772562866233256400,2.80725634765625,-0.9922637939453125,-0.01348876953125,0.0482177734375
1772562866243323400,2.817323486328125,-0.99163818359375,-0.0154266357421875,0.04736328125
1772562866253390300,2.827390380859375,-0.9923095703125,-0.014678955078125,0.048004150390625
1772562866263458600,2.83745849609375,-0.9911651611328125,-0.0140533447265625,0.0476226806640625
1772562866273525500,2.847525390625,-0.9910888671875,-0.014068603515625,0.04779052734375
1772562866283592400,2.857592529296875,-0.99066162109375,-0.01483154296875,0.0474700927734375
1772562866293659400,2.867659423828125,-0.99127197265625,-0.014923095703125,0.047149658203125
1772562866303727400,2.877727294921875,-0.9918975830078125,-0.01507568359375,0.0463714599609375
1772562866313794300,2.887794189453125,-0.9919891357421875,-0.013763427734375,0.046783447265625
1772562866323861200,2.897861328125,-0.991851806640625,-0.0152740478515625,0.0455169677734375
1772562866333928400,2.907928466796875,-0.9918975830078125,-0.014862060546875,0.0487823486328125
1772562866343995400,2.917995361328125,-0.989837646484375,-0.0150299072265625,0.04833984375
1772562866354063400,2.9280634765625,-0.992919921875,-0.014068603515625,0.0466461181640625
1772562866364130300,2.93813037109375,-0.99151611328125,-0.01434326171875,0.0467071533203125
1772562866374197500,2.948197509765625,-0.99163818359375,-0.0144805908203125,0.0474395751953125
1772562866384264400,2.958264404296875,-0.9932708740234375,-0.01446533203125,0.0473785400390625
1772562866394332400,2.96833251953125,-0.9925994873046875,-0.014404296875,0.046844482421875
1772562866404399400,2.9783994140625,-0.9922637939453125,-0.014801025390625,0.049041748046875
1772562866414466300,2.98846630859375,-0.9922637939453125,-0.0154876708984375,0.0475006103515625
1772562866424533200,2.998533203125,-0.992034912109375,-0.014862060546875,0.04766845703125
1772562866434600400,3.008600341796875,-0.9915313720703125,-0.013946533203125,0.0477142333984375
1772562866444668400,3.01866845703125,-0.9918670654296875,-0.015472412109375,0.0473785400390625
1772562866454735400,3.0287353515625,-0.993316650390625,-0.0156402587890625,0.0467681884765625
1772562866464802300,3.03880224609375,-0.9912109375,-0.0140838623046875,0.047119140625
1772562866474869500,3.048869384765625,-0.992462158203125,-0.0151824951171875,0.0478973388671875
1772562866484937500,3.0589375,-0.9927978515625,-0.015838623046875,0.0478515625
1772562866495004400,3.06900439453125,-0.9912567138671875,-0.0156402587890625,0.0470733642578125
1772562866505071400,3.0790712890625,-0.9923553466796875,-0.0142974853515625,0.04815673828125
1772562866515138300,3.08913818359375,-0.9910736083984375,-0.0140533447265625,0.0464019775390625
1772562866525205200,3.099205322265625,-0.99212646484375,-0.0154266357421875,0.0452880859375
1772562866535273200,3.109273193359375,-0.9902801513671875,-0.0147247314453125,0.0463104248046875
1772562866545340400,3.11934033203125,-0.991943359375,-0.016082763671875,0.046722412109375
1772562866555407400,3.129407470703125,-0.991180419921875,-0.0146942138671875,0.0475921630859375
1772562866565474300,3.139474365234375,-0.992340087890625,-0.015228271484375,0.046356201171875
1772562866575542500,3.14954248046875,-0.992889404296875,-0.0134735107421875,0.0470733642578125
1772562866585609500,3.159609375,-0.992462158203125,-0.0137481689453125,0.0472259521484375
1772562866595676400,3.169676513671875,-0.9916839599609375,-0.014617919921875,0.046356201171875
1772562866605743400,3.179743408203125,-0.9922027587890625,-0.0147705078125,0.0465087890625
1772562866615810300,3.189810302734375,-0.99188232421875,-0.0162353515625,0.0465087890625
1772562866625878300,3.199878173828125,-0.993377685546875,-0.0152587890625,0.047882080078125
1772562866635945200,3.2099453125,-0.9911041259765625,-0.013946533203125,0.0477752685546875
1772562866646012400,3.220012451171875,-0.9917755126953125,-0.015594482421875,0.0476837158203125
1772562866656079400,3.230079345703125,-0.9923858642578125,-0.014312744140625,0.0458221435546875
1772562866666147600,3.240147705078125,-0.9924468994140625,-0.01446533203125,0.047149658203125
1772562866676214500,3.250214599609375,-0.993194580078125,-0.0146026611328125,0.0487823486328125
1772562866686281500,3.260281494140625,-0.99139404296875,-0.014739990234375,0.04754638671875
1772562866696348400,3.270348388671875,-0.9913482666015625,-0.01593017578125,0.047943115234375
1772562866706416400,3.28041650390625,-0.9929656982421875,-0.0140380859375,0.0469207763671875
1772562866716483300,3.2904833984375,-0.9926910400390625,-0.0131378173828125,0.04815673828125
1772562866726550300,3.30055029296875,-0.99005126953125,-0.0139312744140625,0.0472564697265625
1772562866736617200,3.3106171875,-0.990692138671875,-0.01495361328125,0.047607421875
1772562866746684400,3.320684326171875,-0.9910736083984375,-0.0157928466796875,0.046722412109375
1772562866756752400,3.33075244140625,-0.992431640625,-0.0144195556640625,0.046905517578125
1772562866766819600,3.340819580078125,-0.9928741455078125,-0.0145111083984375,0.048583984375
1772562866776886500,3.350886474609375,-0.990692138671875,-0.0146636962890625,0.0480194091796875
1772562866786953500,3.360953369140625,-0.991241455078125,-0.0147857666015625,0.0479583740234375
1772562866797020400,3.3710205078125,-0.9939727783203125,-0.015838623046875,0.04693603515625
1772562866807088400,3.38108837890625,-0.994415283203125,-0.014801025390625,0.0458831787109375
1772562866817155300,3.3911552734375,-0.9942779541015625,-0.0155792236328125,0.047576904296875
1772562866827222300,3.40122216796875,-0.9917449951171875,-0.0152130126953125,0.048431396484375
1772562866837289200,3.411289306640625,-0.993194580078125,-0.0147247314453125,0.0475921630859375
1772562866847357200,3.421357177734375,-0.992156982421875,-0.0151214599609375,0.0470733642578125
1772562866857424400,3.43142431640625,-0.992950439453125,-0.015594482421875,0.048248291015625
1772562866867491600,3.44149169921875,-0.9927520751953125,-0.0143280029296875,0.0479278564453125
1772562866877558500,3.45155859375,-0.991790771484375,-0.0165557861328125,0.047576904296875
1772562866887626500,3.46162646484375,-0.9914398193359375,-0.0151214599609375,0.0480499267578125
1772562866897693400,3.471693359375,-0.992523193359375,-0.0161285400390625,0.0470733642578125
1772562866907760400,3.481760498046875,-0.99249267578125,-0.01507568359375,0.0477142333984375
1772562866917827300,3.491827392578125,-0.9925689697265625,-0.0152587890625,0.0484466552734375
1772562866927894300,3.501894287109375,-0.991729736328125,-0.014862060546875,0.04791259765625
1772562866937962200,3.511962158203125,-0.9915618896484375,-0.0150604248046875,0.0461578369140625
1772562866948029200,3.522029296875,-0.992340087890625,-0.0155487060546875,0.047027587890625
1772562866958096400,3.532096435546875,-0.9922943115234375,-0.016204833984375,0.0474853515625
1772562866968163600,3.54216357421875,-0.99267578125,-0.013763427734375,0.04742431640625
1772562866978231600,3.5522314453125,-0.99212646484375,-0.0143280029296875,0.0475006103515625
1772562866988298800,3.562298828125,-0.992279052734375,-0.0156402587890625,0.0467376708984375
1772562866998365700,3.57236572265625,-0.991729736328125,-0.0144195556640625,0.047576904296875
1772562867008432600,3.5824326171875,-0.9915924072265625,-0.0151519775390625,0.048004150390625
1772562867018499600,3.59249951171875,-0.9932708740234375,-0.0147857666015625,0.0457763671875
1772562867028567600,3.602567626953125,-0.9917755126953125,-0.0148162841796875,0.047882080078125
1772562867038634500,3.612634521484375,-0.991851806640625,-0.015411376953125,0.0480499267578125
1772562867048701400,3.622701416015625,-0.99139404296875,-0.015289306640625,0.0472869873046875
1772562867058768400,3.632768310546875,-0.9915924072265625,-0.0159912109375,0.0470428466796875
1772562867068836600,3.642836669921875,-0.9913787841796875,-0.0148773193359375,0.0463714599609375
1772562867078903600,3.652903564453125,-0.992950439453125,-0.015869140625,0.0475311279296875
1772562867088970800,3.662970703125,-0.9923248291015625,-0.013580322265625,0.046905517578125
1772562867099037700,3.67303759765625,-0.9915313720703125,-0.0148468017578125,0.0458831787109375
1772562867109104600,3.683104736328125,-0.9912261962890625,-0.0157012939453125,0.0474395751953125
1772562867119172600,3.693172607421875,-0.99200439453125,-0.0153045654296875,0.0463714599609375
1772562867129239600,3.703239501953125,-0.991302490234375,-0.014373779296875,0.0462188720703125
1772562867139306500,3.713306396484375,-0.9918670654296875,-0.014312744140625,0.045440673828125
1772562867149373400,3.72337353515625,-0.9924774169921875,-0.014862060546875,0.046875
1772562867159441700,3.733441650390625,-0.99200439453125,-0.0145416259765625,0.04754638671875
1772562867169508600,3.743508544921875,-0.99176025390625,-0.0131683349609375,0.0460052490234375
1772562867179575800,3.753575927734375,-0.9925689697265625,-0.0137786865234375,0.0455474853515625
1772562867189642800,3.763642822265625,-0.9930877685546875,-0.0146331787109375,0.046905517578125
1772562867199709700,3.773709716796875,-0.9921417236328125,-0.0132904052734375,0.0470428466796875
1772562867209777700,3.783777587890625,-0.9920654296875,-0.0140533447265625,0.046295166015625
1772562867219844600,3.7938447265625,-0.9918365478515625,-0.0157928466796875,0.046356201171875
1772562867229911600,3.80391162109375,-0.99212646484375,-0.0147705078125,0.047027587890625
1772562867239978500,3.813978515625,-0.9902801513671875,-0.01470947265625,0.0457611083984375
1772562867250046700,3.824046630859375,-0.9898681640625,-0.0143280029296875,0.045654296875
1772562867260113700,3.83411376953125,-0.990814208984375,-0.0153350830078125,0.045745849609375
1772562867270180600,3.8441806640625,-0.991058349609375,-0.0150604248046875,0.0469818115234375
1772562867280247800,3.854247802734375,-0.991058349609375,-0.0122222900390625,0.0476531982421875
1772562867290314800,3.864314697265625,-0.9941864013671875,-0.014190673828125,0.0463409423828125
1772562867300382700,3.8743828125,-0.9918212890625,-0.0146484375,0.046905517578125
1772562867310449700,3.88444970703125,-0.9914398193359375,-0.0145263671875,0.0472869873046875
1772562867320516600,3.8945166015625,-0.9922637939453125,-0.016754150390625,0.0464019775390625
1772562867330583600,3.90458349609375,-0.9911346435546875,-0.0152130126953125,0.046966552734375
1772562867340651500,3.914651611328125,-0.990753173828125,-0.0144805908203125,0.045989990234375
1772562867350718700,3.92471875,-0.991973876953125,-0.015350341796875,0.0469207763671875
1772562867360785700,3.93478564453125,-0.9922943115234375,-0.0151824951171875,0.045989990234375
1772562867370852600,3.9448525390625,-0.991546630859375,-0.0148468017578125,0.0460205078125
1772562867380919800,3.954919921875,-0.99072265625,-0.0157928466796875,0.044189453125
1772562867390987500,3.964987548828125,-0.9925689697265625,-0.0145416259765625,0.0471649169921875
1772562867401054700,3.9750546875,-0.992218017578125,-0.016143798828125,0.046966552734375
1772562867411121700,3.98512158203125,-0.992767333984375,-0.015777587890625,0.048614501953125
1772562867421188600,3.995188720703125,-0.9910125732421875,-0.015380859375,0.047210693359375
1772562867431256600,4.005256591796875,-0.9928131103515625,-0.014801025390625,0.046600341796875
1772562867441323500,4.015323486328125,-0.9921722412109375,-0.01422119140625,0.045928955078125
1772562867451390500,4.025390380859375,-0.9922943115234375,-0.0144500732421875,0.0463104248046875
1772562867461457700,4.035457763671875,-0.99334716796875,-0.014739990234375,0.046112060546875
1772562867471525600,4.045525634765625,-0.9935150146484375,-0.0129547119140625,0.0466156005859375
1772562867481592600,4.055592529296875,-0.992462158203125,-0.014434814453125,0.047210693359375
1772562867491659500,4.065659423828125,-0.99151611328125,-0.0149078369140625,0.045654296875
1772562867501726700,4.075726806640625,-0.99090576171875,-0.01513671875,0.047760009765625
1772562867511793700,4.085793701171875,-0.9907684326171875,-0.014434814453125,0.0460205078125
1772562867521861600,4.095861572265625,-0.9917144775390625,-0.013916015625,0.0466766357421875
1772562867531928600,4.105928466796875,-0.9923248291015625,-0.0147705078125,0.0462188720703125
1772562867541995500,4.11599560546875,-0.991485595703125,-0.0140380859375,0.0459442138671875
1772562867552062500,4.1260625,-0.991668701171875,-0.013641357421875,0.0458221435546875
1772562867562129700,4.136129638671875,-0.993408203125,-0.014556884765625,0.0464019775390625
1772562867572197600,4.14619775390625,-0.99212646484375,-0.014678955078125,0.046417236328125
1772562867582264600,4.1562646484375,-0.99102783203125,-0.01458740234375,0.0475311279296875
1772562867592331500,4.16633154296875,-0.99151611328125,-0.0137786865234375,0.0473480224609375
1772562867602398700,4.176398681640625,-0.9916839599609375,-0.013702392578125,0.0462188720703125
1772562867612466700,4.186466796875,-0.99365234375,-0.014617919921875,0.0472869873046875
1772562867622533600,4.19653369140625,-0.99188232421875,-0.0146484375,0.0467681884765625
1772562867632600600,4.2066005859375,-0.991851806640625,-0.0150909423828125,0.0474090576171875
1772562867642667500,4.21666748046875,-0.991790771484375,-0.0154876708984375,0.046142578125
1772562867652735700,4.22673583984375,-0.992950439453125,-0.014678955078125,0.047637939453125
1772562867662802700,4.236802734375,-0.9918060302734375,-0.014190673828125,0.0475006103515625
1772562867672869600,4.24686962890625,-0.9927825927734375,-0.015960693359375,0.047515869140625
1772562867682936600,4.2569365234375,-0.9920501708984375,-0.01458740234375,0.04791259765625
1772562867693003800,4.267003662109375,-0.992889404296875,-0.013702392578125,0.04620361328125
1772562867703071500,4.277071533203125,-0.991180419921875,-0.0154571533203125,0.0480804443359375
1772562867713138700,4.287138671875,-0.9897918701171875,-0.01458740234375,0.048187255859375
1772562867723205600,4.29720556640625,-0.9919891357421875,-0.0140380859375,0.0467529296875
1772562867733272600,4.3072724609375,-0.993896484375,-0.0153045654296875,0.047088623046875
1772562867743339500,4.317339599609375,-0.992523193359375,-0.015716552734375,0.04638671875
1772562867753407700,4.32740771484375,-0.9925384521484375,-0.015167236328125,0.04693603515625
1772562867763474700,4.337474609375,-0.9913482666015625,-0.014617919921875,0.0459442138671875
1772562867773541600,4.347541748046875,-0.990447998046875,-0.0131072998046875,0.0465850830078125
1772562867783608600,4.357608642578125,-0.992156982421875,-0.015228271484375,0.04681396484375
1772562867793676500,4.367676513671875,-0.9913787841796875,-0.0146942138671875,0.04766845703125
1772562867803743500,4.377743408203125,-0.9923248291015625,-0.01513671875,0.0464019775390625
1772562867813810700,4.387810791015625,-0.9912872314453125,-0.01513671875,0.046142578125
1772562867823877600,4.397877685546875,-0.9913482666015625,-0.0160675048828125,0.0474700927734375
1772562867833945600,4.407945556640625,-0.991363525390625,-0.0157318115234375,0.047821044921875
1772562867844012800,4.4180126953125,-0.9920654296875,-0.0147247314453125,0.0484466552734375
1772562867854079700,4.428079833984375,-0.992584228515625,-0.0162506103515625,0.0470123291015625
1772562867864146700,4.438146728515625,-0.991455078125,-0.01397705078125,0.048309326171875
1772562867874213600,4.448213623046875,-0.9912872314453125,-0.0140228271484375,0.0480499267578125
1772562867884281600,4.458281494140625,-0.9909210205078125,-0.0141448974609375,0.04705810546875
1772562867894348500,4.4683486328125,-0.9914703369140625,-0.014129638671875,0.0475311279296875
1772562867904415500,4.47841552734375,-0.9926605224609375,-0.0151519775390625,0.047393798828125
1772562867914482700,4.488482666015625,-0.991363525390625,-0.0141448974609375,0.0478515625
1772562867924550700,4.498550537109375,-0.990264892578125,-0.0156097412109375,0.0461883544921875
1772562867934617600,4.50861767578125,-0.9917144775390625,-0.014739990234375,0.0467071533203125
1772562867944684500,4.5186845703125,-0.991912841796875,-0.0144195556640625,0.04754638671875
1772562867954751700,4.528751708984375,-0.9927215576171875,-0.0143585205078125,0.0466156005859375
1772562867964818700,4.538818603515625,-0.991973876953125,-0.01416015625,0.0467681884765625
1772562867974886700,4.54888671875,-0.9922637939453125,-0.0141754150390625,0.0466766357421875
1772562867984953300,4.558953369140625,-0.992340087890625,-0.0152587890625,0.046173095703125
1772562867995020300,4.569020263671875,-0.9924468994140625,-0.0132293701171875,0.045867919921875
1772562868005087500,4.57908740234375,-0.994415283203125,-0.014678955078125,0.0467071533203125
1772562868015155200,4.5891552734375,-0.99249267578125,-0.014495849609375,0.0471649169921875
1772562868025222400,4.599222412109375,-0.990386962890625,-0.0147857666015625,0.046417236328125
1772562868035289300,4.609289306640625,-0.9915008544921875,-0.013336181640625,0.0475616455078125
1772562868045356300,4.619356201171875,-0.991424560546875,-0.01470947265625,0.0474395751953125
1772562868055423200,4.62942333984375,-0.99176025390625,-0.0164031982421875,0.047393798828125
1772562868065491500,4.639491455078125,-0.99127197265625,-0.01507568359375,0.04718017578125
1772562868075558400,4.649558349609375,-0.991455078125,-0.0150299072265625,0.04595947265625
1772562868085625300,4.659625244140625,-0.991424560546875,-0.0150146484375,0.049102783203125
1772562868095692300,4.6696923828125,-0.9926300048828125,-0.0143280029296875,0.0472412109375
1772562868105760300,4.67976025390625,-0.991119384765625,-0.014801025390625,0.0467529296875
1772562868115827200,4.6898271484375,-0.9920196533203125,-0.014373779296875,0.047271728515625
1772562868125894400,4.699894287109375,-0.99224853515625,-0.0148468017578125,0.04644775390625
1772562868135961300,4.70996142578125,-0.99163818359375,-0.0139617919921875,0.047576904296875
1772562868146028300,4.7200283203125,-0.9911956787109375,-0.0142059326171875,0.0468902587890625
1772562868156096500,4.730096435546875,-0.9906158447265625,-0.015838623046875,0.04730224609375
1772562868166163500,4.74016357421875,-0.992095947265625,-0.01544189453125,0.0475616455078125
1772562868176230400,4.75023046875,-0.9927825927734375,-0.0156402587890625,0.0454864501953125
1772562868186297300,4.76029736328125,-0.9908905029296875,-0.01531982421875,0.04833984375
1772562868196365300,4.770365234375,-0.991973876953125,-0.01513671875,0.0460968017578125
1772562868206432300,4.780432373046875,-0.9930572509765625,-0.014801025390625,0.046630859375
1772562868216499500,4.79049951171875,-0.9923095703125,-0.0136871337890625,0.047637939453125
1772562868226566400,4.80056640625,-0.990325927734375,-0.0151214599609375,0.0472259521484375
1772562868236633300,4.81063330078125,-0.9925994873046875,-0.0167999267578125,0.04718017578125
1772562868246701600,4.82070166015625,-0.99383544921875,-0.0149078369140625,0.0483551025390625
1772562868256768500,4.8307685546875,-0.9925537109375,-0.0153045654296875,0.0477447509765625
1772562868266835500,4.84083544921875,-0.992034912109375,-0.0152435302734375,0.0454864501953125
1772562868276902400,4.85090234375,-0.9911651611328125,-0.0138397216796875,0.047271728515625
1772562868286970400,4.860970458984375,-0.9921417236328125,-0.0141754150390625,0.047393798828125
1772562868297036300,4.871036376953125,-0.9926605224609375,-0.014312744140625,0.0468292236328125
1772562868307103500,4.881103515625,-0.9916839599609375,-0.01544189453125,0.0460662841796875
1772562868317170400,4.89117041015625,-0.9919281005859375,-0.014984130859375,0.046844482421875
1772562868327237400,4.9012373046875,-0.990631103515625,-0.014404296875,0.0468597412109375
1772562868337304300,4.91130419921875,-0.9927978515625,-0.0158233642578125,0.048095703125
1772562868347372300,4.921372314453125,-0.9908905029296875,-0.013916015625,0.0466461181640625
1772562868357439200,4.931439208984375,-0.9905853271484375,-0.0147247314453125,0.0461273193359375
1772562868367506200,4.941506103515625,-0.9937896728515625,-0.015350341796875,0.0474090576171875
1772562868377573400,4.951573486328125,-0.992156982421875,-0.01483154296875,0.049346923828125
1772562868387641300,4.961641357421875,-0.9908294677734375,-0.014678955078125,0.04681396484375
1772562868397708300,4.971708251953125,-0.9933319091796875,-0.013916015625,0.0479583740234375
1772562868407775500,4.981775390625,-0.992431640625,-0.0147552490234375,0.0487213134765625
1772562868417842400,4.991842529296875,-0.99176025390625,-0.0147705078125,0.047027587890625
1772562868427909400,5.001909423828125,-0.9917144775390625,-0.01446533203125,0.0478057861328125
1772562868437977300,5.011977294921875,-0.992279052734375,-0.01416015625,0.0451202392578125
1772562868448044300,5.022044189453125,-0.9914398193359375,-0.014862060546875,0.047454833984375
1772562868458111200,5.032111328125,-0.9922027587890625,-0.0145416259765625,0.0478973388671875
1772562868468178200,5.04217822265625,-0.9923248291015625,-0.0152740478515625,0.045379638671875
1772562868478246400,5.052246337890625,-0.99249267578125,-0.01373291015625,0.047637939453125
1772562868488313300,5.062313232421875,-0.99163818359375,-0.0135650634765625,0.0475006103515625
1772562868498380500,5.072380615234375,-0.991363525390625,-0.0150604248046875,0.04730224609375
1772562868508447500,5.082447509765625,-0.99237060546875,-0.016143798828125,0.047760009765625
1772562868518514400,5.092514404296875,-0.9917144775390625,-0.0149078369140625,0.0472564697265625
1772562868528582400,5.10258251953125,-0.9913482666015625,-0.013824462890625,0.044708251953125
1772562868538649300,5.1126494140625,-0.9925384521484375,-0.01318359375,0.046234130859375
1772562868548716300,5.12271630859375,-0.9929351806640625,-0.01544189453125,0.047271728515625
1772562868558783200,5.132783203125,-0.990966796875,-0.0135955810546875,0.0477294921875
1772562868568851500,5.1428515625,-0.9892730712890625,-0.015350341796875,0.0454559326171875
1772562868578918400,5.15291845703125,-0.9915771484375,-0.015106201171875,0.0450592041015625
1772562868588985300,5.1629853515625,-0.9920654296875,-0.01666259765625,0.0468902587890625
1772562868599052500,5.173052490234375,-0.99346923828125,-0.0145416259765625,0.046417236328125
1772562868609119500,5.183119384765625,-0.9901123046875,-0.013824462890625,0.0476837158203125
1772562868619187500,5.1931875,-0.9913177490234375,-0.015106201171875,0.047882080078125
1772562868629254400,5.20325439453125,-0.9926300048828125,-0.0149078369140625,0.0479736328125
1772562868639321300,5.2133212890625,-0.991973876953125,-0.0156402587890625,0.0476531982421875
1772562868649388300,5.22338818359375,-0.991424560546875,-0.014190673828125,0.04779052734375
1772562868659455200,5.233455322265625,-0.9931793212890625,-0.01495361328125,0.046661376953125
1772562868669523500,5.2435234375,-0.9925689697265625,-0.0145263671875,0.0460662841796875
1772562868679591400,5.25359130859375,-0.9913330078125,-0.01373291015625,0.0471954345703125
1772562868689658400,5.263658447265625,-0.992431640625,-0.0154266357421875,0.0472412109375
1772562868699725300,5.273725341796875,-0.9923858642578125,-0.01385498046875,0.0471343994140625
1772562868709792300,5.283792236328125,-0.992645263671875,-0.0145263671875,0.046295166015625
1772562868719860200,5.293860107421875,-0.9902801513671875,-0.014862060546875,0.047271728515625
1772562868729927400,5.303927490234375,-0.99029541015625,-0.0146484375,0.047088623046875
1772562868739994400,5.313994384765625,-0.9911346435546875,-0.0151519775390625,0.0470123291015625
1772562868750061300,5.324061279296875,-0.993072509765625,-0.0164794921875,0.0479278564453125
1772562868760129500,5.334129638671875,-0.9915313720703125,-0.0154876708984375,0.0469207763671875
1772562868770196500,5.344196533203125,-0.992584228515625,-0.014892578125,0.0456390380859375
1772562868780263400,5.354263427734375,-0.9927978515625,-0.0156097412109375,0.0464019775390625
1772562868790330400,5.364330322265625,-0.9916839599609375,-0.0136871337890625,0.0482330322265625
1772562868800397300,5.374397216796875,-0.9912109375,-0.0140380859375,0.0475311279296875
1772562868810465300,5.38446533203125,-0.9920196533203125,-0.01385498046875,0.047332763671875
1772562868820532200,5.3945322265625,-0.992218017578125,-0.0130767822265625,0.0447845458984375
1772562868830599400,5.404599365234375,-0.9922943115234375,-0.015411376953125,0.0469970703125
1772562868840666400,5.414666259765625,-0.99114990234375,-0.01446533203125,0.0468902587890625
1772562868850734600,5.424734619140625,-0.990692138671875,-0.014434814453125,0.048187255859375
1772562868860801500,5.434801513671875,-0.992340087890625,-0.015045166015625,0.047698974609375
1772562868870868500,5.444868408203125,-0.9917144775390625,-0.0160064697265625,0.0471954345703125
1772562868880935400,5.454935302734375,-0.991424560546875,-0.0152435302734375,0.0487518310546875
1772562868891002400,5.46500244140625,-0.99127197265625,-0.0149383544921875,0.0468902587890625
1772562868901070300,5.4750703125,-0.993133544921875,-0.0149688720703125,0.047393798828125
1772562868911137300,5.48513720703125,-0.9915618896484375,-0.014801025390625,0.0473785400390625
1772562868921204200,5.495204345703125,-0.990966796875,-0.0155792236328125,0.046142578125
1772562868931271400,5.505271484375,-0.9915618896484375,-0.01446533203125,0.0467987060546875
1772562868941339400,5.51533935546875,-0.99249267578125,-0.01446533203125,0.0468597412109375
1772562868951406600,5.525406494140625,-0.992218017578125,-0.01416015625,0.0465545654296875
1772562868961473500,5.5354736328125,-0.9923095703125,-0.0156097412109375,0.0477142333984375
1772562868971540500,5.54554052734375,-0.9919281005859375,-0.0150909423828125,0.0481109619140625
1772562868981607400,5.555607421875,-0.9914093017578125,-0.01361083984375,0.047393798828125
1772562868991675600,5.565675537109375,-0.9925384521484375,-0.0146026611328125,0.047332763671875
1772562869001742600,5.57574267578125,-0.990478515625,-0.0139312744140625,0.0463104248046875
1772562869011809500,5.5858095703125,-0.9909820556640625,-0.0149688720703125,0.0473785400390625
1772562869021876500,5.59587646484375,-0.99224853515625,-0.0158233642578125,0.0475921630859375
1772562869031944400,5.6059443359375,-0.9909820556640625,-0.01483154296875,0.046142578125
1772562869042011600,5.61601171875,-0.991485595703125,-0.0145263671875,0.0457916259765625
1772562869052078800,5.626078857421875,-0.99237060546875,-0.014984130859375,0.048492431640625
1772562869062145800,5.636145751953125,-0.99310302734375,-0.0147552490234375,0.0474090576171875
1772562869072212700,5.646212646484375,-0.9932098388671875,-0.0171051025390625,0.04681396484375
1772562869082280700,5.65628076171875,-0.9932708740234375,-0.01531982421875,0.0476837158203125
1772562869092347600,5.66634765625,-0.9905548095703125,-0.014617919921875,0.047088623046875
1772562869102414600,5.67641455078125,-0.9911346435546875,-0.0142669677734375,0.047271728515625
1772562869112481500,5.6864814453125,-0.9915771484375,-0.0147857666015625,0.048187255859375
1772562869122549500,5.696549560546875,-0.991241455078125,-0.0151214599609375,0.0469818115234375
1772562869132616400,5.706616455078125,-0.992218017578125,-0.013336181640625,0.04583740234375
1772562869142683400,5.716683349609375,-0.991455078125,-0.0146942138671875,0.0468292236328125
1772562869152750800,5.726750732421875,-0.991302490234375,-0.015167236328125,0.046478271484375
1772562869162817800,5.73681787109375,-0.9929351806640625,-0.013702392578125,0.0476226806640625
1772562869172885800,5.7468857421875,-0.992095947265625,-0.01446533203125,0.046966552734375
1772562869182952700,5.75695263671875,-0.9914093017578125,-0.013824462890625,0.0466766357421875
1772562869193019600,5.76701953125,-0.992584228515625,-0.0134124755859375,0.0471649169921875
1772562869203086600,5.777086669921875,-0.9920654296875,-0.0153961181640625,0.0477142333984375
1772562869213154600,5.787154541015625,-0.9915313720703125,-0.0145721435546875,0.0475616455078125
1772562869223221500,5.797221435546875,-0.991790771484375,-0.0133056640625,0.04681396484375
1772562869233288400,5.807288330078125,-0.9912872314453125,-0.0147247314453125,0.0475006103515625
1772562869243355400,5.81735546875,-0.99237060546875,-0.0149383544921875,0.0485992431640625
1772562869253422800,5.8274228515625,-0.9908905029296875,-0.014007568359375,0.0472412109375
1772562869263490600,5.837490478515625,-0.9919586181640625,-0.014373779296875,0.047698974609375
1772562869273557800,5.847557861328125,-0.991668701171875,-0.0159912109375,0.046051025390625
1772562869283624700,5.857624755859375,-0.990264892578125,-0.01507568359375,0.046173095703125
1772562869293691600,5.867691650390625,-0.9911041259765625,-0.016143798828125,0.0486602783203125
1772562869303759600,5.877759521484375,-0.9895782470703125,-0.01361083984375,0.048095703125
1772562869313826600,5.88782666015625,-0.9919891357421875,-0.0140228271484375,0.047637939453125
1772562869323893500,5.8978935546875,-0.99151611328125,-0.013458251953125,0.0466156005859375
1772562869333960400,5.90796044921875,-0.9921875,-0.014678955078125,0.0471343994140625
1772562869344027400,5.91802734375,-0.9928741455078125,-0.016326904296875,0.0467529296875
1772562869354095600,5.928095703125,-0.99090576171875,-0.0150146484375,0.046356201171875
1772562869364162600,5.93816259765625,-0.9913177490234375,-0.015289306640625,0.0472259521484375
1772562869374229800,5.948229736328125,-0.9912872314453125,-0.014984130859375,0.0467681884765625
1772562869384296700,5.958296630859375,-0.993499755859375,-0.0149383544921875,0.047607421875
1772562869394363600,5.96836376953125,-0.993682861328125,-0.015350341796875,0.04620361328125
1772562869404431600,5.978431640625,-0.9916534423828125,-0.0147552490234375,0.046844482421875
1772562869414498600,5.98849853515625,-0.991180419921875,-0.01495361328125,0.047515869140625
1772562869424565500,5.9985654296875,-0.9893646240234375,-0.0144805908203125,0.047576904296875
1772562869434632400,6.008632568359375,-0.9925079345703125,-0.0142364501953125,0.0457763671875
1772562869444700700,6.01870068359375,-0.9910888671875,-0.0144805908203125,0.0488128662109375
1772562869454767600,6.028767578125,-0.991790771484375,-0.0136871337890625,0.0467071533203125
1772562869464834800,6.038834716796875,-0.992767333984375,-0.0153045654296875,0.047943115234375
1772562869474901800,6.04890185546875,-0.99346923828125,-0.015228271484375,0.0473785400390625
1772562869484968700,6.05896875,-0.994110107421875,-0.0143280029296875,0.0473480224609375
1772562869495036700,6.06903662109375,-0.9925689697265625,-0.0152130126953125,0.0480194091796875
1772562869505103600,6.079103515625,-0.9918212890625,-0.0150299072265625,0.0484466552734375
1772562869515170600,6.089170654296875,-0.992034912109375,-0.01519775390625,0.0474700927734375
1772562869525237500,6.099237548828125,-0.991180419921875,-0.0141448974609375,0.045562744140625
1772562869535305700,6.1093056640625,-0.99169921875,-0.01458740234375,0.0448760986328125
1772562869545372700,6.11937255859375,-0.99188232421875,-0.014801025390625,0.0457000732421875
1772562869555439600,6.129439697265625,-0.9922027587890625,-0.0149993896484375,0.0460205078125
1772562869565506800,6.1395068359375,-0.991363525390625,-0.014862060546875,0.046875
1772562869575574500,6.149574462890625,-0.9927978515625,-0.015380859375,0.04736328125
1772562869585641700,6.159641845703125,-0.99078369140625,-0.0148773193359375,0.046630859375
1772562869595708700,6.169708740234375,-0.9925537109375,-0.0162506103515625,0.04736328125
1772562869605775600,6.179775634765625,-0.9926605224609375,-0.0153350830078125,0.0455780029296875
1772562869615842600,6.189842529296875,-0.993377685546875,-0.0157470703125,0.0467987060546875
1772562869625910500,6.19991064453125,-0.9924468994140625,-0.01513671875,0.046783447265625
1772562869635977500,6.2099775390625,-0.99298095703125,-0.0154266357421875,0.047332763671875
1772562869646044700,6.220044677734375,-0.9919281005859375,-0.0149078369140625,0.0465087890625
1772562869656111600,6.230111572265625,-0.9926910400390625,-0.014739990234375,0.047882080078125
1772562869666178800,6.2401787109375,-0.990264892578125,-0.014434814453125,0.045806884765625
1772562869676246500,6.25024658203125,-0.9926910400390625,-0.0139312744140625,0.0474395751953125
1772562869686313700,6.260313720703125,-0.9921875,-0.0152587890625,0.0481109619140625
1772562869696380700,6.270380615234375,-0.991302490234375,-0.0142364501953125,0.04638671875
1772562869706447600,6.280447509765625,-0.99273681640625,-0.015045166015625,0.04815673828125
1772562869716515600,6.290515625,-0.991424560546875,-0.0139923095703125,0.0470123291015625
1772562869726582500,6.30058251953125,-0.9918212890625,-0.01422119140625,0.0462493896484375
1772562869736649500,6.3106494140625,-0.99169921875,-0.0142669677734375,0.0467376708984375
1772562869746716700,6.320716552734375,-0.9906768798828125,-0.0144500732421875,0.0469512939453125
1772562869756784600,6.33078466796875,-0.9906158447265625,-0.014129638671875,0.047607421875
1772562869766851600,6.3408515625,-0.991851806640625,-0.015655517578125,0.0469512939453125
1772562869776918500,6.35091845703125,-0.9918212890625,-0.015167236328125,0.0475311279296875
1772562869786985700,6.36098583984375,-0.9919586181640625,-0.0142822265625,0.0481414794921875
1772562869797052700,6.371052734375,-0.9930572509765625,-0.01544189453125,0.04681396484375
1772562869807120600,6.38112060546875,-0.9903411865234375,-0.0162811279296875,0.0466156005859375
1772562869817187600,6.3911875,-0.9916229248046875,-0.0150604248046875,0.0455169677734375
1772562869827254500,6.401254638671875,-0.991912841796875,-0.0131988525390625,0.044647216796875
1772562869837321500,6.411321533203125,-0.991912841796875,-0.0137786865234375,0.0461273193359375
1772562869847388400,6.421388427734375,-0.9905242919921875,-0.0159454345703125,0.0464935302734375
1772562869857456600,6.43145654296875,-0.9907073974609375,-0.0151824951171875,0.0469970703125
1772562869867523600,6.441523681640625,-0.99224853515625,-0.01495361328125,0.0471649169921875
1772562869877590800,6.4515908203125,-0.991912841796875,-0.0146942138671875,0.0459747314453125
1772562869887657700,6.46165771484375,-0.9912261962890625,-0.013397216796875,0.0457000732421875
1772562869897725700,6.4717255859375,-0.99139404296875,-0.0150604248046875,0.048980712890625
1772562869907792600,6.481792724609375,-0.9919891357421875,-0.0145263671875,0.0483856201171875
1772562869917859600,6.491859619140625,-0.9919891357421875,-0.0144500732421875,0.047210693359375
1772562869927926500,6.501926513671875,-0.9911651611328125,-0.0133056640625,0.0469207763671875
1772562869937994800,6.511994873046875,-0.9930572509765625,-0.015472412109375,0.0457305908203125
1772562869948061700,6.522061767578125,-0.9930877685546875,-0.0135650634765625,0.0453338623046875
1772562869958128600,6.532128662109375,-0.99322509765625,-0.0137939453125,0.04864501953125
1772562869968195600,6.542195556640625,-0.9923095703125,-0.0164947509765625,0.046295166015625
1772562869978262800,6.5522626953125,-0.9919281005859375,-0.0132904052734375,0.0460662841796875
1772562869988330000,6.562330078125,-0.9920501708984375,-0.015167236328125,0.0478057861328125
1772562869998397200,6.572397216796875,-0.9911041259765625,-0.0149383544921875,0.04742431640625
1772562870008464100,6.582464111328125,-0.9925994873046875,-0.014312744140625,0.04541015625
1772562870018531000,6.592531005859375,-0.9894866943359375,-0.0135955810546875,0.04571533203125
1772562870028598000,6.602597900390625,-0.992095947265625,-0.0146026611328125,0.0477447509765625
1772562870038666000,6.612666015625,-0.9912567138671875,-0.014556884765625,0.04620361328125
1772562870048733000,6.62273291015625,-0.9917449951171875,-0.013336181640625,0.048248291015625
1772562870058799900,6.6327998046875,-0.9912109375,-0.015106201171875,0.04852294921875
1772562870068867000,6.6428671875,-0.9911041259765625,-0.014801025390625,0.04656982421875
1772562870078934800,6.652934814453125,-0.991973876953125,-0.01458740234375,0.04632568359375
1772562870089002000,6.663001953125,-0.993377685546875,-0.0155792236328125,0.0459442138671875
1772562870099069000,6.67306884765625,-0.9912872314453125,-0.0133514404296875,0.04779052734375
1772562870109136100,6.68313623046875,-0.9909210205078125,-0.0157318115234375,0.04864501953125
1772562870119203000,6.693203125,-0.99114990234375,-0.0167083740234375,0.0480499267578125
1772562870129271000,6.70327099609375,-0.9915313720703125,-0.0153350830078125,0.047515869140625
1772562870139338000,6.713337890625,-0.9911651611328125,-0.0144195556640625,0.047119140625
1772562870149405000,6.723405029296875,-0.9910736083984375,-0.0150909423828125,0.048675537109375
1772562870159471900,6.733471923828125,-0.992431640625,-0.0150299072265625,0.0469207763671875
1772562870169539800,6.743539794921875,-0.9912872314453125,-0.013763427734375,0.0469512939453125
1772562870179607000,6.75360693359375,-0.9926910400390625,-0.0150299072265625,0.0456390380859375
1772562870189674000,6.763674072265625,-0.993072509765625,-0.0152130126953125,0.0469818115234375
1772562870199741000,6.773740966796875,-0.990875244140625,-0.0135040283203125,0.0463714599609375
1772562870209809200,6.78380908203125,-0.9918975830078125,-0.0165557861328125,0.0468597412109375
1772562870219876000,6.7938759765625,-0.9911956787109375,-0.015716552734375,0.04705810546875
1772562870229943000,6.803943115234375,-0.9918975830078125,-0.014892578125,0.047119140625
1772562870240010000,6.814010009765625,-0.991729736328125,-0.0144500732421875,0.047515869140625
1772562870250077000,6.824076904296875,-0.990997314453125,-0.0142059326171875,0.0468902587890625
1772562870260145000,6.834144775390625,-0.9912109375,-0.014129638671875,0.048553466796875
1772562870270211800,6.8442119140625,-0.9921722412109375,-0.01409912109375,0.0475311279296875
1772562870280279000,6.854279052734375,-0.990814208984375,-0.014404296875,0.0476226806640625
1772562870290346000,6.864345947265625,-0.99078369140625,-0.0155181884765625,0.0460357666015625
1772562870300413000,6.874412841796875,-0.9927520751953125,-0.0144500732421875,0.045440673828125
1772562870310481200,6.884481201171875,-0.9927520751953125,-0.014312744140625,0.0482025146484375
1772562870320548000,6.894548095703125,-0.9915618896484375,-0.0151519775390625,0.047607421875
1772562870330615000,6.904614990234375,-0.9918212890625,-0.01690673828125,0.047332763671875
1772562870340682000,6.914681884765625,-0.9928131103515625,-0.01513671875,0.04864501953125
1772562870350750000,6.92475,-0.99139404296875,-0.0139312744140625,0.0458526611328125
1772562870360817000,6.93481689453125,-0.99176025390625,-0.0155792236328125,0.04510498046875
1772562870370883800,6.9448837890625,-0.991546630859375,-0.0157928466796875,0.0469207763671875
1772562870380951000,6.954950927734375,-0.9917449951171875,-0.01495361328125,0.0472412109375
1772562870391018000,6.96501806640625,-0.991485595703125,-0.0149383544921875,0.046630859375
1772562870401086200,6.975086181640625,-0.9923553466796875,-0.013824462890625,0.0467987060546875
1772562870411153200,6.985153076171875,-0.992767333984375,-0.015472412109375,0.0460357666015625
1772562870421220000,6.99522021484375,-0.99261474609375,-0.0141448974609375,0.0468902587890625
1772562870431287000,7.005287109375,-0.9932861328125,-0.0160064697265625,0.0467987060546875
1772562870441355000,7.01535498046875,-0.99249267578125,-0.0146026611328125,0.0492095947265625
1772562870451422000,7.025421875,-0.9929656982421875,-0.014251708984375,0.0463714599609375
1772562870461489000,7.035489013671875,-0.991790771484375,-0.01416015625,0.0448150634765625
1772562870471555800,7.045555908203125,-0.99139404296875,-0.0150909423828125,0.04681396484375
1772562870481623000,7.055623046875,-0.9919586181640625,-0.0165863037109375,0.04620361328125
1772562870491691000,7.06569091796875,-0.991363525390625,-0.0149688720703125,0.0467376708984375
1772562870501758200,7.07575830078125,-0.9921722412109375,-0.015838623046875,0.0477294921875
1772562870511825200,7.0858251953125,-0.991851806640625,-0.014373779296875,0.04644775390625
1772562870521892000,7.09589208984375,-0.9921417236328125,-0.0130767822265625,0.04638671875
1772562870531960000,7.1059599609375,-0.992279052734375,-0.014923095703125,0.0478515625
1772562870542027000,7.116027099609375,-0.9925384521484375,-0.0140533447265625,0.046630859375
1772562870552094000,7.126093994140625,-0.9926910400390625,-0.0132293701171875,0.048095703125
1772562870562161000,7.136160888671875,-0.9934844970703125,-0.01434326171875,0.0483551025390625
1772562870572228900,7.146228759765625,-0.992279052734375,-0.015289306640625,0.045074462890625
1772562870582295800,7.1562958984375,-0.992156982421875,-0.0146942138671875,0.0459136962890625
1772562870592363000,7.166363037109375,-0.990325927734375,-0.01385498046875,0.04693603515625
1772562870602430200,7.17643017578125,-0.9925537109375,-0.0142822265625,0.0459136962890625
1772562870612497200,7.1864970703125,-0.9925079345703125,-0.01409912109375,0.04803466796875
1772562870622565000,7.196565185546875,-0.9909210205078125,-0.0152740478515625,0.0467071533203125
1772562870632632000,7.206632080078125,-0.991455078125,-0.014129638671875,0.045562744140625
1772562870642699000,7.216698974609375,-0.9921112060546875,-0.01507568359375,0.0479888916015625
1772562870652766000,7.226765869140625,-0.9918212890625,-0.01507568359375,0.048492431640625
1772562870662833000,7.2368330078125,-0.9921875,-0.01513671875,0.0474090576171875
1772562870672900900,7.24690087890625,-0.9917144775390625,-0.01513671875,0.0457916259765625
1772562870682967800,7.2569677734375,-0.990753173828125,-0.0156402587890625,0.045166015625
1772562870693035000,7.267034912109375,-0.99169921875,-0.015289306640625,0.046630859375
1772562870703102200,7.277102294921875,-0.9918060302734375,-0.014129638671875,0.046875
1772562870713170200,7.287170166015625,-0.99151611328125,-0.0143585205078125,0.0458831787109375
1772562870723237000,7.297237060546875,-0.9907684326171875,-0.0137939453125,0.048065185546875
1772562870733304000,7.307303955078125,-0.9907379150390625,-0.0151824951171875,0.0483245849609375
1772562870743371000,7.31737109375,-0.9925689697265625,-0.012939453125,0.04638671875
1772562870753439000,7.32743896484375,-0.991241455078125,-0.014312744140625,0.0483856201171875
1772562870763506000,7.337505859375,-0.993408203125,-0.01483154296875,0.0450592041015625
1772562870773572900,7.34757275390625,-0.99298095703125,-0.0158843994140625,0.0473175048828125
1772562870783639800,7.357639892578125,-0.9931640625,-0.015411376953125,0.047760009765625
1772562870793707000,7.36770703125,-0.9919891357421875,-0.0147857666015625,0.0469970703125
1772562870803775000,7.37777490234375,-0.9922637939453125,-0.014312744140625,0.0483551025390625
1772562870813842200,7.38784228515625,-0.99151611328125,-0.0152740478515625,0.0470733642578125
1772562870823909000,7.3979091796875,-0.99176025390625,-0.015411376953125,0.047821044921875
1772562870833976000,7.40797607421875,-0.991668701171875,-0.01483154296875,0.0475006103515625
1772562870844043000,7.41804296875,-0.9926300048828125,-0.0145416259765625,0.045867919921875
1772562870854111000,7.428111083984375,-0.9923858642578125,-0.0146484375,0.047149658203125
1772562870864178000,7.438177978515625,-0.99224853515625,-0.01507568359375,0.04644775390625
1772562870874244900,7.448244873046875,-0.990631103515625,-0.013885498046875,0.0469207763671875
1772562870884311800,7.458311767578125,-0.99176025390625,-0.013946533203125,0.0451507568359375
1772562870894380000,7.468380126953125,-0.990814208984375,-0.01611328125,0.0460357666015625
1772562870904447000,7.478447021484375,-0.991455078125,-0.0146026611328125,0.0455169677734375
1772562870914514200,7.48851416015625,-0.9923858642578125,-0.0139617919921875,0.0463409423828125
1772562870924581000,7.4985810546875,-0.9922027587890625,-0.015869140625,0.0479278564453125
1772562870934648000,7.50864794921875,-0.9904327392578125,-0.0146026611328125,0.0467071533203125
1772562870944716000,7.518716064453125,-0.991241455078125,-0.0152740478515625,0.0471343994140625
1772562870954783000,7.528782958984375,-0.99169921875,-0.0129852294921875,0.0465850830078125
1772562870964850000,7.538849853515625,-0.9918670654296875,-0.0142059326171875,0.0471649169921875
1772562870974916900,7.548916748046875,-0.9920806884765625,-0.015167236328125,0.04791259765625
1772562870984985600,7.558985595703125,-0.993255615234375,-0.014923095703125,0.048065185546875
1772562870995052500,7.569052490234375,-0.9903411865234375,-0.0133514404296875,0.047027587890625
1772562871005119500,7.579119384765625,-0.9921875,-0.0149383544921875,0.0467529296875
1772562871015186400,7.5891865234375,-0.9918212890625,-0.015228271484375,0.0460205078125
1772562871025253600,7.599253662109375,-0.9926910400390625,-0.015167236328125,0.046600341796875
1772562871035321600,7.609321533203125,-0.9929962158203125,-0.0155029296875,0.047149658203125
1772562871045388800,7.619388916015625,-0.992431640625,-0.0137176513671875,0.0463104248046875
1772562871055455700,7.629455810546875,-0.991668701171875,-0.015045166015625,0.046875
1772562871065522700,7.639522705078125,-0.9910125732421875,-0.013885498046875,0.0470733642578125
1772562871075590700,7.649590576171875,-0.994049072265625,-0.0141143798828125,0.0468597412109375
1772562871085657600,7.65965771484375,-0.9914093017578125,-0.014068603515625,0.0454559326171875
1772562871095724500,7.669724609375,-0.9904937744140625,-0.01519775390625,0.0468597412109375
1772562871105791500,7.67979150390625,-0.991363525390625,-0.0147857666015625,0.04644775390625
1772562871115858400,7.6898583984375,-0.9933013916015625,-0.0142364501953125,0.0465240478515625
1772562871125926700,7.6999267578125,-0.99224853515625,-0.01507568359375,0.047119140625
1772562871135993600,7.70999365234375,-0.9895477294921875,-0.01336669921875,0.0476531982421875
1772562871146060800,7.720060791015625,-0.990203857421875,-0.0146331787109375,0.0477294921875
1772562871156127700,7.730127685546875,-0.991363525390625,-0.0150299072265625,0.046234130859375
1772562871166195700,7.74019580078125,-0.9913787841796875,-0.013580322265625,0.047637939453125
1772562871176262700,7.7502626953125,-0.991455078125,-0.014404296875,0.0458526611328125
1772562871186329600,7.76032958984375,-0.9919891357421875,-0.01373291015625,0.0455322265625
1772562871196396500,7.770396484375,-0.9913482666015625,-0.015350341796875,0.0485992431640625
1772562871206463500,7.78046337890625,-0.9911651611328125,-0.016265869140625,0.044952392578125
1772562871216531500,7.790531494140625,-0.9910430908203125,-0.015167236328125,0.04736328125
1772562871226598700,7.8005986328125,-0.9906158447265625,-0.0148773193359375,0.04876708984375
1772562871236665600,7.81066552734375,-0.990753173828125,-0.0144805908203125,0.04718017578125
1772562871246732800,7.82073291015625,-0.9914703369140625,-0.0134429931640625,0.0475921630859375
1772562871256800800,7.83080078125,-0.9906005859375,-0.01507568359375,0.046142578125
1772562871266867700,7.84086767578125,-0.9922637939453125,-0.01373291015625,0.0468597412109375
1772562871276934700,7.8509345703125,-0.9917449951171875,-0.015106201171875,0.04705810546875
1772562871287001600,7.861001708984375,-0.992767333984375,-0.01513671875,0.046295166015625
1772562871297068500,7.871068603515625,-0.9914398193359375,-0.014923095703125,0.045928955078125
1772562871307136500,7.881136474609375,-0.9912872314453125,-0.01507568359375,0.047607421875
1772562871317203500,7.891203369140625,-0.9927215576171875,-0.0153350830078125,0.047515869140625
1772562871327270400,7.9012705078125,-0.9922027587890625,-0.0154876708984375,0.0469818115234375
1772562871337337900,7.911337890625,-0.9925384521484375,-0.0152740478515625,0.0458221435546875
1772562871347405600,7.921405517578125,-0.9924163818359375,-0.0141448974609375,0.047454833984375
1772562871357472800,7.93147265625,-0.9922332763671875,-0.0147247314453125,0.046539306640625
1772562871367539700,7.941539794921875,-0.9919586181640625,-0.0153350830078125,0.0467529296875
1772562871377606700,7.951606689453125,-0.9903411865234375,-0.01416015625,0.04693603515625
1772562871387673600,7.961673583984375,-0.991119384765625,-0.0142822265625,0.0452880859375
1772562871397741600,7.971741455078125,-0.99078369140625,-0.0148773193359375,0.0454254150390625
1772562871407808500,7.98180859375,-0.9912567138671875,-0.015838623046875,0.048614501953125
1772562871417875500,7.99187548828125,-0.991546630859375,-0.014801025390625,0.04718017578125
1772562871427942400,8.0019423828125,-0.9906463623046875,-0.0148468017578125,0.0475311279296875
1772562871438010600,8.0120107421875,-0.9908447265625,-0.0138702392578125,0.0474700927734375
1772562871448077600,8.02207763671875,-0.9914398193359375,-0.014068603515625,0.0455322265625
1772562871458144800,8.032144775390625,-0.9928436279296875,-0.0156097412109375,0.0457916259765625
1772562871468211700,8.042211669921874,-0.993408203125,-0.014678955078125,0.0476531982421875
1772562871478278700,8.052278564453125,-0.991241455078125,-0.014373779296875,0.047393798828125
1772562871488346600,8.0623466796875,-0.9918975830078125,-0.0154571533203125,0.047607421875
1772562871498413600,8.07241357421875,-0.9904327392578125,-0.0169677734375,0.047882080078125
1772562871508480500,8.08248046875,-0.9923248291015625,-0.0153045654296875,0.0470123291015625
1772562871518547500,8.09254736328125,-0.99224853515625,-0.0149078369140625,0.0469818115234375
1772562871528615700,8.10261572265625,-0.991424560546875,-0.0142364501953125,0.0464630126953125
1772562871538682600,8.1126826171875,-0.9923248291015625,-0.0149078369140625,0.0469970703125
1772562871548749600,8.12274951171875,-0.9906005859375,-0.01446533203125,0.0462646484375
1772562871558816800,8.132816650390625,-0.9910888671875,-0.01446533203125,0.0457916259765625
1772562871568883700,8.1428837890625,-0.9915313720703125,-0.0142822265625,0.04705810546875
1772562871578951700,8.15295166015625,-0.9921417236328125,-0.0131072998046875,0.0489959716796875
1772562871589018600,8.1630185546875,-0.992919921875,-0.0146331787109375,0.04791259765625
1772562871599085600,8.17308544921875,-0.9926300048828125,-0.0153961181640625,0.0477294921875
1772562871609152500,8.183152587890625,-0.9915924072265625,-0.0133209228515625,0.0486297607421875
1772562871619220700,8.193220703125,-0.9913482666015625,-0.0150909423828125,0.048614501953125
1772562871629287700,8.20328759765625,-0.99072265625,-0.0145111083984375,0.048492431640625
1772562871639354600,8.213354736328125,-0.99261474609375,-0.01336669921875,0.0472412109375
1772562871649421600,8.223421630859375,-0.9915313720703125,-0.0153045654296875,0.0466766357421875
1772562871659488800,8.23348876953125,-0.9930572509765625,-0.0149688720703125,0.047332763671875
1772562871669556700,8.243556640625,-0.9923095703125,-0.013641357421875,0.046234130859375
1772562871679623700,8.253623779296875,-0.9933319091796875,-0.0151824951171875,0.046875
1772562871689690600,8.263690673828124,-0.9911956787109375,-0.0142059326171875,0.0488433837890625
1772562871699757600,8.273757568359375,-0.9921112060546875,-0.01507568359375,0.046173095703125
1772562871709824500,8.283824462890625,-0.9938812255859375,-0.0153045654296875,0.0458526611328125
1772562871719892700,8.293892822265626,-0.9934234619140625,-0.0144500732421875,0.0485992431640625
1772562871729959700,8.303959716796875,-0.992431640625,-0.014617919921875,0.046356201171875
1772562871740026600,8.314026611328124,-0.992462158203125,-0.0148162841796875,0.0471038818359375
1772562871750093800,8.32409375,-0.9936981201171875,-0.014373779296875,0.046661376953125
1772562871760161500,8.33416162109375,-0.9922332763671875,-0.014495849609375,0.0469970703125
1772562871770228700,8.344228759765626,-0.9931488037109375,-0.0140380859375,0.0454559326171875
1772562871780295700,8.354295654296875,-0.992401123046875,-0.01287841796875,0.0466461181640625
1772562871790362600,8.364362548828124,-0.990753173828125,-0.01507568359375,0.0489959716796875
1772562871800429600,8.3744296875,-0.9920196533203125,-0.0160980224609375,0.0485382080078125
1772562871810497500,8.38449755859375,-0.9921875,-0.015533447265625,0.04803466796875
1772562871820564500,8.394564453125,-0.9910125732421875,-0.0145111083984375,0.0457000732421875
1772562871830631700,8.404631591796875,-0.990966796875,-0.017059326171875,0.0452880859375
1772562871840698600,8.41469873046875,-0.990203857421875,-0.0141143798828125,0.046478271484375
1772562871850766600,8.4247666015625,-0.991485595703125,-0.0152587890625,0.0473785400390625
1772562871860833500,8.43483349609375,-0.99151611328125,-0.0149078369140625,0.0476531982421875
1772562871870900700,8.444900634765625,-0.992431640625,-0.0132293701171875,0.0467071533203125
1772562871880967700,8.4549677734375,-0.9927520751953125,-0.015777587890625,0.0455169677734375
1772562871891034600,8.46503466796875,-0.9903717041015625,-0.01318359375,0.048095703125
1772562871901102600,8.4751025390625,-0.992645263671875,-0.0146942138671875,0.0487213134765625
1772562871911169500,8.48516943359375,-0.9922027587890625,-0.0142822265625,0.0487823486328125
1772562871921236500,8.495236572265625,-0.9909515380859375,-0.0142974853515625,0.0466156005859375
1772562871931303700,8.5053037109375,-0.993133544921875,-0.014129638671875,0.0446319580078125
1772562871941371600,8.51537158203125,-0.9920654296875,-0.014190673828125,0.0453338623046875
1772562871951438600,8.5254384765625,-0.991790771484375,-0.015167236328125,0.045928955078125
1772562871961505500,8.535505615234374,-0.990936279296875,-0.0147247314453125,0.0457000732421875
1772562871971572700,8.54557275390625,-0.9907989501953125,-0.0155029296875,0.046722412109375
1772562871981639700,8.5556396484375,-0.992523193359375,-0.0157623291015625,0.0458831787109375
1772562871991707400,8.565707275390626,-0.9911956787109375,-0.01361083984375,0.046173095703125
1772562872001774300,8.5757744140625,-0.99285888671875,-0.0151214599609375,0.047271728515625
1772562872011841300,8.58584130859375,-0.991607666015625,-0.0132904052734375,0.0478057861328125
1772562872021908200,8.595908203125,-0.9925079345703125,-0.013946533203125,0.0462646484375
1772562872031976200,8.60597607421875,-0.99285888671875,-0.014739990234375,0.047760009765625
1772562872042043100,8.616043212890625,-0.9911956787109375,-0.013214111328125,0.0468902587890625
1772562872052110000,8.626110107421875,-0.9910736083984375,-0.0146026611328125,0.046295166015625
1772562872062177300,8.63617724609375,-0.992279052734375,-0.014801025390625,0.046844482421875
1772562872072244200,8.646244140625,-0.992767333984375,-0.014404296875,0.04669189453125
1772562872082312200,8.656312255859374,-0.9930572509765625,-0.0139312744140625,0.0455169677734375
1772562872092379100,8.666379150390625,-0.9911346435546875,-0.0136260986328125,0.0465240478515625
1772562872102446300,8.6764462890625,-0.9914703369140625,-0.015045166015625,0.047271728515625
1772562872112513300,8.68651318359375,-0.9925079345703125,-0.013885498046875,0.0478973388671875
1772562872122581200,8.696581298828125,-0.993743896484375,-0.0135040283203125,0.047882080078125
1772562872132648200,8.706648193359374,-0.99468994140625,-0.0157012939453125,0.0470123291015625
1772562872142715100,8.716715087890625,-0.99273681640625,-0.01507568359375,0.047149658203125
1772562872152782000,8.726781982421874,-0.9913330078125,-0.0150909423828125,0.047271728515625
1772562872162849300,8.736849365234375,-0.9908599853515625,-0.0146026611328125,0.0475616455078125
1772562872172917200,8.746917236328125,-0.9931640625,-0.013671875,0.0457305908203125
1772562872182984200,8.756984130859376,-0.9915771484375,-0.0145416259765625,0.048675537109375
1772562872193051100,8.767051025390625,-0.9894256591796875,-0.013519287109375,0.04876708984375
1772562872203118300,8.777118408203124,-0.9926605224609375,-0.0146331787109375,0.0455474853515625
1772562872213185300,8.787185302734375,-0.9913330078125,-0.0160369873046875,0.0462493896484375
1772562872223253200,8.797253173828125,-0.9918060302734375,-0.014556884765625,0.0483245849609375
1772562872233320200,8.8073203125,-0.9929046630859375,-0.0150299072265625,0.047515869140625
1772562872243387100,8.81738720703125,-0.990966796875,-0.0139007568359375,0.046600341796875
1772562872253454300,8.827454345703124,-0.991973876953125,-0.0136260986328125,0.0479278564453125
1772562872263522000,8.83752197265625,-0.9917144775390625,-0.01580810546875,0.046417236328125
1772562872273589200,8.84758935546875,-0.99163818359375,-0.01513671875,0.0451507568359375
1772562872283656200,8.85765625,-0.9928741455078125,-0.0141754150390625,0.0458984375
1772562872293722000,8.86772216796875,-0.99090576171875,-0.01593017578125,0.0462188720703125
1772562872303790000,8.8777900390625,-0.9903717041015625,-0.014678955078125,0.047027587890625
1772562872313857300,8.887857177734375,-0.991455078125,-0.0157470703125,0.0460357666015625
1772562872323924200,8.89792431640625,-0.99090576171875,-0.0151824951171875,0.0463714599609375
1772562872333991200,8.9079912109375,-0.9908905029296875,-0.0153656005859375,0.0473480224609375
1772562872344059100,8.91805908203125,-0.991790771484375,-0.014404296875,0.04791259765625
1772562872354126300,8.928126220703126,-0.9920654296875,-0.0148162841796875,0.0472412109375
1772562872364193300,8.938193359375,-0.9919281005859375,-0.01434326171875,0.0462493896484375
1772562872374260200,8.94826025390625,-0.9926605224609375,-0.0144500732421875,0.04779052734375
1772562872384327200,8.9583271484375,-0.992218017578125,-0.015167236328125,0.0481719970703125
1772562872394395100,8.96839501953125,-0.991485595703125,-0.0146331787109375,0.04632568359375
1772562872404462000,8.978462158203126,-0.9920806884765625,-0.01513671875,0.0465240478515625
1772562872414529300,8.988529296875,-0.992340087890625,-0.01458740234375,0.046295166015625
1772562872424596200,8.99859619140625,-0.992034912109375,-0.0146942138671875,0.0447845458984375
1772562872434664200,9.008664306640625,-0.9922332763671875,-0.014862060546875,0.04779052734375
1772562872444731100,9.018731201171875,-0.991912841796875,-0.01513671875,0.049224853515625
1772562872454798300,9.02879833984375,-0.9921875,-0.015289306640625,0.047454833984375
1772562872464865300,9.038865234375,-0.9918212890625,-0.01507568359375,0.048919677734375
1772562872474932200,9.04893212890625,-0.9910736083984375,-0.0129547119140625,0.0471649169921875
1772562872485000200,9.059000244140625,-0.993072509765625,-0.01446533203125,0.047088623046875
1772562872495067100,9.069067138671874,-0.991943359375,-0.0137786865234375,0.0468597412109375
1772562872505134000,9.079134033203125,-0.9921417236328125,-0.0154876708984375,0.046966552734375
1772562872515201000,9.089200927734375,-0.992706298828125,-0.01434326171875,0.0480499267578125
1772562872525268200,9.099268310546876,-0.9918060302734375,-0.014678955078125,0.04718017578125
1772562872535336200,9.109336181640625,-0.990997314453125,-0.01495361328125,0.046875
1772562872545403100,9.119403076171874,-0.991790771484375,-0.0161895751953125,0.0469970703125
1772562872555470300,9.12947021484375,-0.9906768798828125,-0.0153350830078125,0.047607421875
1772562872565537300,9.139537353515625,-0.99249267578125,-0.014801025390625,0.0474700927734375
1772562872575605200,9.149605224609376,-0.9921112060546875,-0.0150909423828125,0.04669189453125
1772562872585672200,9.159672119140625,-0.992401123046875,-0.015625,0.046661376953125
1772562872595739100,9.1697392578125,-0.9929046630859375,-0.0162200927734375,0.0469818115234375
1772562872605806000,9.17980615234375,-0.9918975830078125,-0.0155487060546875,0.04742431640625
1772562872615873000,9.189873046875,-0.9903411865234375,-0.0153045654296875,0.0480499267578125
1772562872625941200,9.199941162109376,-0.991668701171875,-0.01416015625,0.048370361328125
1772562872636008200,9.21000830078125,-0.992340087890625,-0.0151519775390625,0.0477752685546875
1772562872646075100,9.2200751953125,-0.9919586181640625,-0.01373291015625,0.0473175048828125
1772562872656142300,9.230142333984375,-0.9914398193359375,-0.015777587890625,0.0458984375
1772562872666210000,9.2402099609375,-0.991058349609375,-0.0146942138671875,0.045745849609375
1772562872676278000,9.250278076171876,-0.992919921875,-0.015625,0.0460357666015625
1772562872686345200,9.26034521484375,-0.99139404296875,-0.014892578125,0.0474853515625
1772562872696412400,9.270412353515624,-0.9942169189453125,-0.015472412109375,0.0464019775390625
1772562872706480400,9.28048046875,-0.9919891357421875,-0.0159759521484375,0.0466156005859375
1772562872716547300,9.29054736328125,-0.99212646484375,-0.0155792236328125,0.0474853515625
1772562872726614300,9.3006142578125,-0.993011474609375,-0.0156097412109375,0.0442657470703125
1772562872736681200,9.31068115234375,-0.9927978515625,-0.0142974853515625,0.04705810546875
1772562872746749200,9.320749267578124,-0.9916534423828125,-0.0155029296875,0.0477447509765625
1772562872756816100,9.330816162109375,-0.9905548095703125,-0.0160980224609375,0.045989990234375
1772562872766883000,9.340883056640624,-0.9912567138671875,-0.0162506103515625,0.046630859375
1772562872776950000,9.350949951171875,-0.9916839599609375,-0.015716552734375,0.047088623046875
1772562872787017200,9.361017333984375,-0.990814208984375,-0.0149078369140625,0.0475311279296875
1772562872797085200,9.371085205078124,-0.992767333984375,-0.0146026611328125,0.0460662841796875
1772562872807152400,9.38115234375,-0.993133544921875,-0.01458740234375,0.04803466796875
1772562872817219300,9.39121923828125,-0.9909820556640625,-0.0146331787109375,0.047515869140625
1772562872827286300,9.401286376953125,-0.9917144775390625,-0.01544189453125,0.0474090576171875
1772562872837353200,9.411353271484375,-0.9923095703125,-0.015533447265625,0.0486907958984375
1772562872847421200,9.421421142578126,-0.991241455078125,-0.014862060546875,0.0469818115234375
1772562872857488100,9.431488037109375,-0.991607666015625,-0.014556884765625,0.0487060546875
1772562872867555000,9.44155517578125,-0.9927215576171875,-0.0150299072265625,0.0469970703125
1772562872877622000,9.4516220703125,-0.99310302734375,-0.0149688720703125,0.0461578369140625
1772562872887690200,9.461690185546875,-0.991485595703125,-0.0159454345703125,0.04693603515625
1772562872897757200,9.471757080078126,-0.99224853515625,-0.01544189453125,0.0476837158203125
1772562872907824400,9.481824462890625,-0.990325927734375,-0.014495849609375,0.04791259765625
1772562872917891300,9.491891357421874,-0.9893951416015625,-0.0145111083984375,0.045166015625
1772562872927958300,9.501958251953125,-0.9912261962890625,-0.015167236328125,0.0449676513671875
1772562872938026200,9.512026123046875,-0.9906158447265625,-0.0146331787109375,0.04766845703125
1772562872948093200,9.52209326171875,-0.993927001953125,-0.015350341796875,0.0464630126953125
1772562872958160100,9.53216015625,-0.9912872314453125,-0.016357421875,0.047119140625
1772562872968227000,9.54222705078125,-0.99212646484375,-0.0150299072265625,0.0462646484375
1772562872978295300,9.55229541015625,-0.991363525390625,-0.0142364501953125,0.0467681884765625
1772562872988362200,9.5623623046875,-0.9902801513671875,-0.0141754150390625,0.0462646484375
1772562872998429200,9.57242919921875,-0.990692138671875,-0.0148468017578125,0.0460052490234375
1772562873008496400,9.582496337890625,-0.9913482666015625,-0.01434326171875,0.046539306640625
1772562873018563300,9.592563232421876,-0.9922637939453125,-0.0146942138671875,0.048126220703125
1772562873028631300,9.60263134765625,-0.99249267578125,-0.0152587890625,0.0472564697265625
1772562873038698200,9.6126982421875,-0.990875244140625,-0.0165863037109375,0.048187255859375
1772562873048765200,9.62276513671875,-0.9912261962890625,-0.015380859375,0.047027587890625
1772562873058832100,9.63283203125,-0.990478515625,-0.0146026611328125,0.0467071533203125
1772562873068900400,9.642900390625,-0.99237060546875,-0.0155181884765625,0.0464019775390625
1772562873078967300,9.65296728515625,-0.991668701171875,-0.0146942138671875,0.045989990234375
1772562873089034200,9.6630341796875,-0.9906005859375,-0.014739990234375,0.045562744140625
1772562873099101200,9.67310107421875,-0.9918365478515625,-0.0160980224609375,0.0485687255859375
1772562873109168400,9.68316845703125,-0.9911346435546875,-0.01385498046875,0.0463714599609375
1772562873119236400,9.693236328125,-0.990570068359375,-0.0138397216796875,0.0467071533203125
1772562873129303300,9.70330322265625,-0.9917144775390625,-0.0133056640625,0.047271728515625
1772562873139370200,9.713370361328124,-0.992523193359375,-0.013702392578125,0.0470123291015625
1772562873149437200,9.723437255859375,-0.9923248291015625,-0.015716552734375,0.047088623046875
1772562873159504100,9.733504150390624,-0.9923248291015625,-0.0153350830078125,0.0461578369140625
1772562873169572400,9.743572265625,-0.9920196533203125,-0.0145416259765625,0.04742431640625
1772562873179639300,9.753639404296875,-0.990753173828125,-0.014739990234375,0.0466461181640625
1772562873189706200,9.763706298828126,-0.9918975830078125,-0.0132293701171875,0.0467529296875
1772562873199773200,9.773773193359375,-0.9921722412109375,-0.0137176513671875,0.0459136962890625
1772562873209841200,9.783841064453124,-0.99310302734375,-0.01385498046875,0.047119140625
1772562873219908400,9.793908447265625,-0.9926605224609375,-0.0142669677734375,0.04852294921875
1772562873229975300,9.803975341796875,-0.992218017578125,-0.0140838623046875,0.046875
1772562873240042200,9.814042236328126,-0.9921875,-0.0150146484375,0.048797607421875
1772562873250109200,9.824109130859375,-0.99285888671875,-0.01507568359375,0.0481414794921875
1772562873260177200,9.83417724609375,-0.9923858642578125,-0.014617919921875,0.04705810546875
1772562873270244400,9.844244384765625,-0.992584228515625,-0.0138702392578125,0.0462493896484375
1772562873280311300,9.854311279296875,-0.9923248291015625,-0.014801025390625,0.04510498046875
1772562873290378200,9.864378173828126,-0.9915618896484375,-0.015960693359375,0.0464324951171875
1772562873300446200,9.8744462890625,-0.990020751953125,-0.0142822265625,0.0471343994140625
1772562873310513200,9.88451318359375,-0.99066162109375,-0.01495361328125,0.046600341796875
1772562873320580400,9.894580322265625,-0.9905548095703125,-0.014495849609375,0.04656982421875
1772562873330647300,9.904647216796874,-0.9909210205078125,-0.0163116455078125,0.047210693359375
1772562873340714200,9.91471435546875,-0.9918670654296875,-0.0152130126953125,0.047515869140625
1772562873350782200,9.9247822265625,-0.9919891357421875,-0.016021728515625,0.045806884765625
1772562873360849200,9.93484912109375,-0.99310302734375,-0.0139617919921875,0.046661376953125
1772562873370916400,9.944916259765625,-0.993133544921875,-0.01446533203125,0.048309326171875
1772562873380983300,9.9549833984375,-0.9908599853515625,-0.015655517578125,0.0478057861328125
1772562873391050200,9.96505029296875,-0.992584228515625,-0.0144500732421875,0.0472259521484375
1772562873401118200,9.9751181640625,-0.9922332763671875,-0.01483154296875,0.0469818115234375
1772562873411185200,9.98518505859375,-0.9912872314453125,-0.0143890380859375,0.0486907958984375
1772562873421252400,9.99525244140625,-0.99212646484375,-0.0155029296875,0.046356201171875
1772562873431319300,10.0053193359375,-0.992279052734375,-0.01348876953125,0.0472564697265625
1772562873441387300,10.01538720703125,-0.9914093017578125,-0.0147552490234375,0.0473785400390625
1772562873451454200,10.0254541015625,-0.9930877685546875,-0.014312744140625,0.0474090576171875
1772562873461521200,10.035521240234376,-0.9929351806640625,-0.0142822265625,0.0467529296875
1772562873471588000,10.045588134765625,-0.99188232421875,-0.016357421875,0.0458831787109375
1772562873481655300,10.0556552734375,-0.9906768798828125,-0.0147247314453125,0.0467681884765625
1772562873491723300,10.06572314453125,-0.99212646484375,-0.014312744140625,0.048095703125
1772562873501790200,10.075790283203125,-0.9905853271484375,-0.014678955078125,0.045654296875
1772562873511857200,10.085857177734376,-0.992401123046875,-0.01434326171875,0.047088623046875
1772562873521924400,10.09592431640625,-0.99273681640625,-0.01495361328125,0.0467529296875
1772562873531992300,10.105992431640624,-0.9908294677734375,-0.0155181884765625,0.0472564697265625
1772562873542059300,10.116059326171875,-0.9920806884765625,-0.0151519775390625,0.048309326171875
1772562873552126200,10.126126220703124,-0.992340087890625,-0.014678955078125,0.0474853515625
1772562873562193200,10.136193115234375,-0.9912567138671875,-0.0137481689453125,0.0461273193359375
1772562873572260000,10.146260009765625,-0.9926300048828125,-0.0145263671875,0.0472869873046875
1772562873582328300,10.156328369140626,-0.9917144775390625,-0.015167236328125,0.047698974609375
1772562873592395300,10.166395263671875,-0.9920501708984375,-0.01446533203125,0.0472259521484375
1772562873602462200,10.176462158203124,-0.991729736328125,-0.016082763671875,0.04742431640625
1772562873612529200,10.186529052734375,-0.9912567138671875,-0.0142822265625,0.046783447265625
1772562873622597000,10.19659716796875,-0.992156982421875,-0.01568603515625,0.048828125
1772562873632664300,10.206664306640626,-0.9913177490234375,-0.014892578125,0.0481414794921875
1772562873642731300,10.216731201171875,-0.99139404296875,-0.0163726806640625,0.047088623046875
1772562873652798200,10.226798095703124,-0.9914093017578125,-0.0146026611328125,0.0461883544921875
1772562873662865200,10.236865234375,-0.99163818359375,-0.0147552490234375,0.04644775390625
1772562873672933400,10.246933349609375,-0.99261474609375,-0.0144805908203125,0.04815673828125
1772562873683000300,10.257000244140626,-0.9933624267578125,-0.0144500732421875,0.046966552734375
1772562873693067300,10.2670673828125,-0.992034912109375,-0.01556396484375,0.046417236328125
1772562873703134200,10.27713427734375,-0.9913177490234375,-0.0151214599609375,0.04595947265625
1772562873713202200,10.2872021484375,-0.99224853515625,-0.01446533203125,0.0472869873046875
1772562873723269000,10.29726904296875,-0.991119384765625,-0.015106201171875,0.0474700927734375
1772562873733336300,10.30733642578125,-0.990875244140625,-0.0142822265625,0.04669189453125
1772562873743403300,10.3174033203125,-0.9922943115234375,-0.0145263671875,0.0460357666015625
1772562873753470200,10.32747021484375,-0.990936279296875,-0.01385498046875,0.0469207763671875
1772562873763538400,10.337538330078125,-0.9914703369140625,-0.0147552490234375,0.0475616455078125
1772562873773605400,10.34760546875,-0.9911956787109375,-0.0151824951171875,0.048492431640625
1772562873783672300,10.35767236328125,-0.99273681640625,-0.01470947265625,0.04791259765625
1772562873793739300,10.3677392578125,-0.992584228515625,-0.0154876708984375,0.0478515625
1772562873803806200,10.37780615234375,-0.9918365478515625,-0.0148162841796875,0.04736328125
1772562873813874200,10.387874267578125,-0.9920501708984375,-0.015106201171875,0.045654296875
1772562873823941000,10.397941162109374,-0.9901580810546875,-0.0140838623046875,0.0466766357421875
1772562873834008300,10.40800830078125,-0.991790771484375,-0.0146484375,0.045440673828125
1772562873844075300,10.4180751953125,-0.9918060302734375,-0.015045166015625,0.04486083984375
1772562873854143200,10.428143310546876,-0.9911651611328125,-0.0149688720703125,0.047882080078125
1772562873864210400,10.43821044921875,-0.990997314453125,-0.01513671875,0.045684814453125
1772562873874277400,10.44827734375,-0.991546630859375,-0.0143280029296875,0.0459747314453125
1772562873884344300,10.45834423828125,-0.9918060302734375,-0.0131378173828125,0.0464019775390625
1772562873894411300,10.468411376953124,-0.9922332763671875,-0.014678955078125,0.046478271484375
1772562873904479200,10.478479248046876,-0.99176025390625,-0.015625,0.0460968017578125
1772562873914546200,10.488546142578125,-0.993072509765625,-0.0135955810546875,0.0485992431640625
1772562873924613000,10.498613037109376,-0.9920654296875,-0.0139312744140625,0.0456085205078125
1772562873934680300,10.508680419921875,-0.9902496337890625,-0.0159912109375,0.0468292236328125
1772562873944748300,10.518748291015624,-0.9920501708984375,-0.0162353515625,0.04803466796875
1772562873954815200,10.528815185546875,-0.9934539794921875,-0.0160369873046875,0.0462799072265625
1772562873964882200,10.538882080078125,-0.9921875,-0.01422119140625,0.0477294921875
1772562873974949400,10.548949462890626,-0.991790771484375,-0.014862060546875,0.0471954345703125
1772562873985016300,10.559016357421875,-0.9928436279296875,-0.0149993896484375,0.04608154296875
1772562873995084300,10.569084228515624,-0.9930572509765625,-0.0151214599609375,0.0473175048828125
1772562874005151200,10.579151123046875,-0.990325927734375,-0.016571044921875,0.0450897216796875
1772562874015218200,10.58921826171875,-0.9919281005859375,-0.015380859375,0.04742431640625
1772562874025285000,10.59928515625,-0.993438720703125,-0.014923095703125,0.0485076904296875
1772562874035353000,10.60935302734375,-0.990814208984375,-0.0150909423828125,0.0470733642578125
1772562874045420300,10.619420166015624,-0.991790771484375,-0.0128021240234375,0.0463104248046875
1772562874055487200,10.6294873046875,-0.9918670654296875,-0.0140533447265625,0.045684814453125
1772562874065554200,10.63955419921875,-0.99163818359375,-0.014373779296875,0.0480499267578125
1772562874075621000,10.64962109375,-0.992340087890625,-0.0149383544921875,0.0477294921875
1772562874085689300,10.659689453125,-0.9928436279296875,-0.0148773193359375,0.0474853515625
1772562874095756300,10.66975634765625,-0.9920654296875,-0.014404296875,0.04644775390625
1772562874105823200,10.6798232421875,-0.9929046630859375,-0.0155181884765625,0.046661376953125
1772562874115890200,10.68989013671875,-0.9928131103515625,-0.0161285400390625,0.04638671875
1772562874125957400,10.699957275390625,-0.993499755859375,-0.0143280029296875,0.0473480224609375
1772562874136025000,10.710025146484375,-0.99273681640625,-0.0131072998046875,0.047210693359375
1772562874146092300,10.72009228515625,-0.9928741455078125,-0.0142974853515625,0.04632568359375
1772562874156159200,10.7301591796875,-0.9918975830078125,-0.014434814453125,0.04656982421875
1772562874166226200,10.74022607421875,-0.990936279296875,-0.0146636962890625,0.0454559326171875
1772562874176294100,10.750294189453125,-0.9930419921875,-0.0136871337890625,0.04669189453125
1772562874186361300,10.760361328125,-0.9930419921875,-0.0136566162109375,0.047027587890625
1772562874196428300,10.77042822265625,-0.9927825927734375,-0.01519775390625,0.045867919921875
1772562874206495200,10.7804951171875,-0.991485595703125,-0.0157928466796875,0.0469512939453125
1772562874216562200,10.790562255859374,-0.990570068359375,-0.0142364501953125,0.0478057861328125
1772562874226630100,10.800630126953125,-0.991729736328125,-0.0159454345703125,0.0447998046875
1772562874236697000,10.810697021484375,-0.9915771484375,-0.0141754150390625,0.047210693359375
1772562874246764300,10.820764404296876,-0.990997314453125,-0.0140380859375,0.0462493896484375
1772562874256831200,10.830831298828125,-0.99090576171875,-0.0163726806640625,0.04632568359375
1772562874266899200,10.840899169921874,-0.99053955078125,-0.0157470703125,0.0467987060546875
1772562874276966100,10.850966064453125,-0.9922027587890625,-0.0156402587890625,0.04779052734375
1772562874287033300,10.861033447265624,-0.99237060546875,-0.0163726806640625,0.0471343994140625
1772562874297100300,10.871100341796875,-0.992523193359375,-0.0147857666015625,0.046051025390625
1772562874307167200,10.881167236328125,-0.9920501708984375,-0.01348876953125,0.0474090576171875
1772562874317235200,10.891235107421876,-0.9916534423828125,-0.0143280029296875,0.0477447509765625
1772562874327302100,10.90130224609375,-0.991485595703125,-0.0146331787109375,0.046844482421875
1772562874337369000,10.911369140625,-0.99273681640625,-0.0149383544921875,0.0466766357421875
1772562874347436300,10.921436279296875,-0.992340087890625,-0.0145721435546875,0.0471649169921875
1772562874357504300,10.931504150390625,-0.99176025390625,-0.0151519775390625,0.0456085205078125
1772562874367571200,10.9415712890625,-0.992156982421875,-0.0148162841796875,0.0462188720703125
1772562874377638100,10.95163818359375,-0.990814208984375,-0.0143890380859375,0.04656982421875
1772562874387705300,10.961705322265624,-0.9919891357421875,-0.0151519775390625,0.047515869140625
1772562874397772300,10.971772216796875,-0.9928741455078125,-0.014862060546875,0.0471343994140625
1772562874407840300,10.98184033203125,-0.9915008544921875,-0.0147857666015625,0.0481719970703125
1772562874417907200,10.9919072265625,-0.9914093017578125,-0.014678955078125,0.04656982421875
1772562874427974100,11.00197412109375,-0.991455078125,-0.0144805908203125,0.0467681884765625
1772562874438041000,11.012041015625,-0.9936370849609375,-0.01580810546875,0.0478515625
1772562874448109000,11.022109130859375,-0.99237060546875,-0.0146942138671875,0.048095703125
1772562874458176300,11.03217626953125,-0.9904022216796875,-0.0146331787109375,0.045318603515625
1772562874468243200,11.0422431640625,-0.9936065673828125,-0.01513671875,0.04522705078125
1772562874478310100,11.05231005859375,-0.993438720703125,-0.0153045654296875,0.0470733642578125
1772562874488377000,11.062377197265626,-0.9923553466796875,-0.01495361328125,0.0491180419921875
1772562874498445300,11.0724453125,-0.99224853515625,-0.0144195556640625,0.0475006103515625
1772562874508512300,11.08251220703125,-0.9907684326171875,-0.01666259765625,0.0462188720703125
1772562874518579200,11.0925791015625,-0.9907073974609375,-0.0142364501953125,0.0471649169921875
1772562874528646100,11.102646240234375,-0.9915924072265625,-0.0140228271484375,0.0462188720703125
1772562874538714000,11.112714111328126,-0.99169921875,-0.0145263671875,0.0448455810546875
1772562874548781000,11.122781005859375,-0.9913177490234375,-0.0138702392578125,0.046173095703125
1772562874558848300,11.13284814453125,-0.99200439453125,-0.0147857666015625,0.0478363037109375
1772562874568915200,11.142915283203125,-0.9917144775390625,-0.0152587890625,0.0469818115234375
1772562874578982100,11.152982177734375,-0.9927825927734375,-0.015411376953125,0.0464019775390625
1772562874589050400,11.16305029296875,-0.99200439453125,-0.01416015625,0.046478271484375
1772562874599117300,11.173117431640625,-0.9925384521484375,-0.0156097412109375,0.0474700927734375
1772562874609184300,11.183184326171874,-0.992706298828125,-0.0145416259765625,0.0471649169921875
1772562874619251200,11.193251220703125,-0.99090576171875,-0.0148162841796875,0.047210693359375
1772562874629318100,11.203318115234374,-0.9926910400390625,-0.0154876708984375,0.045013427734375
1772562874639386000,11.21338623046875,-0.9914398193359375,-0.0146026611328125,0.0480804443359375
1772562874649453000,11.223453125,-0.9916229248046875,-0.0143890380859375,0.0476531982421875
1772562874659520300,11.233520263671876,-0.9917755126953125,-0.0150299072265625,0.045928955078125
1772562874669587200,11.243587158203125,-0.9908905029296875,-0.0166778564453125,0.04766845703125
1772562874679655400,11.253655517578125,-0.99224853515625,-0.0166778564453125,0.046295166015625
1772562874689722400,11.263722412109376,-0.990997314453125,-0.0140533447265625,0.04705810546875
1772562874699789300,11.273789306640625,-0.99322509765625,-0.0161895751953125,0.0468902587890625
1772562874709856300,11.283856201171876,-0.9915313720703125,-0.0151519775390625,0.045806884765625
1772562874719923200,11.293923095703125,-0.9939727783203125,-0.0155029296875,0.047454833984375
1772562874729991200,11.3039912109375,-0.99298095703125,-0.0159454345703125,0.0476531982421875
1772562874740058000,11.31405810546875,-0.990997314453125,-0.0155029296875,0.0462188720703125
1772562874750125000,11.324125,-0.9914398193359375,-0.0161895751953125,0.0447845458984375
1772562874760192300,11.334192138671876,-0.99188232421875,-0.0144195556640625,0.0471649169921875
1772562874770260000,11.344260009765625,-0.9919891357421875,-0.016204833984375,0.0463104248046875
1772562874780327400,11.354327392578124,-0.9921112060546875,-0.015838623046875,0.0477447509765625
1772562874790394400,11.364394287109375,-0.9927978515625,-0.014312744140625,0.0470428466796875
1772562874800461300,11.37446142578125,-0.9920806884765625,-0.014862060546875,0.0474853515625
1772562874810528300,11.3845283203125,-0.9908599853515625,-0.0145111083984375,0.0478973388671875
1772562874820596200,11.39459619140625,-0.9914703369140625,-0.0144805908203125,0.047882080078125
1772562874830663200,11.4046630859375,-0.9906005859375,-0.0151519775390625,0.04693603515625
1772562874840730000,11.414730224609375,-0.992034912109375,-0.0147705078125,0.0482330322265625
1772562874850797000,11.424797119140624,-0.9929656982421875,-0.01507568359375,0.0463104248046875
1772562874860865000,11.434864990234376,-0.9903106689453125,-0.016204833984375,0.04620361328125
1772562874870932200,11.44493212890625,-0.99298095703125,-0.0146942138671875,0.0472869873046875
1772562874880999200,11.454999267578126,-0.9926605224609375,-0.0147247314453125,0.0467071533203125
1772562874891066400,11.46506640625,-0.9908447265625,-0.0151824951171875,0.0467376708984375
1772562874901133300,11.47513330078125,-0.990936279296875,-0.013702392578125,0.047393798828125
1772562874911201300,11.485201171875,-0.9916229248046875,-0.015472412109375,0.0489959716796875
1772562874921268200,11.495268310546875,-0.9918975830078125,-0.01483154296875,0.047149658203125
1772562874931335200,11.505335205078126,-0.989715576171875,-0.01458740234375,0.046722412109375
1772562874941402000,11.515402099609375,-0.9917449951171875,-0.0136871337890625,0.047210693359375
1772562874951470000,11.525469970703124,-0.9914093017578125,-0.0152435302734375,0.0477447509765625
1772562874961537000,11.535537109375,-0.992767333984375,-0.013824462890625,0.04638671875
1772562874971604200,11.545604248046875,-0.9930419921875,-0.0146636962890625,0.0472564697265625
1772562874981671200,11.555671142578126,-0.991119384765625,-0.0159912109375,0.0462493896484375
1772562874991738400,11.56573828125,-0.9905548095703125,-0.014190673828125,0.04754638671875
1772562875001806300,11.575806396484374,-0.9910125732421875,-0.0140533447265625,0.047393798828125
1772562875011873300,11.585873291015625,-0.9917449951171875,-0.015380859375,0.04693603515625
1772562875021940200,11.595940185546874,-0.99237060546875,-0.01470947265625,0.047943115234375
1772562875032007200,11.606007080078125,-0.991455078125,-0.01422119140625,0.0486297607421875
1772562875042074000,11.61607421875,-0.9916534423828125,-0.014068603515625,0.0463409423828125
1772562875052142000,11.62614208984375,-0.9915008544921875,-0.014404296875,0.0466766357421875
1772562875062209000,11.636208984375,-0.9928436279296875,-0.0135650634765625,0.0467529296875
1772562875072276200,11.646276123046874,-0.9918670654296875,-0.0150299072265625,0.0454559326171875
1772562875082343200,11.65634326171875,-0.9927825927734375,-0.0149993896484375,0.045562744140625
1772562875092411400,11.666411376953125,-0.99200439453125,-0.01495361328125,0.04791259765625
1772562875102478300,11.676478271484376,-0.9920501708984375,-0.0157928466796875,0.045623779296875
1772562875112545300,11.686545166015625,-0.9930877685546875,-0.01611328125,0.0465850830078125
1772562875122612200,11.6966123046875,-0.9904632568359375,-0.0152130126953125,0.0458526611328125
1772562875132679200,11.70667919921875,-0.9920654296875,-0.0147705078125,0.0455474853515625
1772562875142747100,11.7167470703125,-0.9919281005859375,-0.0162506103515625,0.0485076904296875
1772562875152814000,11.72681396484375,-0.9918975830078125,-0.01495361328125,0.0469970703125
1772562875162881000,11.736881103515625,-0.9920501708984375,-0.013641357421875,0.04583740234375
1772562875172948200,11.7469482421875,-0.992156982421875,-0.0148162841796875,0.0474700927734375
1772562875183016200,11.75701611328125,-0.993408203125,-0.0147247314453125,0.0471954345703125
1772562875193083400,11.76708349609375,-0.9926300048828125,-0.0150909423828125,0.0475006103515625
1772562875203150300,11.777150390625,-0.992919921875,-0.0150909423828125,0.048248291015625
1772562875213217300,11.78721728515625,-0.9912109375,-0.01470947265625,0.0481719970703125
1772562875223284200,11.7972841796875,-0.991729736328125,-0.0142669677734375,0.048095703125
1772562875233352200,11.807352294921875,-0.9930267333984375,-0.0151214599609375,0.047882080078125
1772562875243419100,11.817419189453124,-0.990447998046875,-0.0161285400390625,0.0467681884765625
1772562875253486000,11.827486083984375,-0.99163818359375,-0.0153656005859375,0.047698974609375
1772562875263553000,11.837552978515625,-0.99078369140625,-0.0137481689453125,0.0460968017578125
1772562875273621200,11.847621337890626,-0.9913330078125,-0.0153350830078125,0.0484771728515625
1772562875283688200,11.857688232421875,-0.9918670654296875,-0.013519287109375,0.0467987060546875
1772562875293755400,11.86775537109375,-0.9925994873046875,-0.0140380859375,0.0469207763671875
1772562875303822300,11.877822265625,-0.9931488037109375,-0.0153961181640625,0.04754638671875
1772562875313889300,11.88788916015625,-0.9918365478515625,-0.01422119140625,0.04571533203125
1772562875323957200,11.897957275390626,-0.991546630859375,-0.0136260986328125,0.045257568359375
1772562875334024200,11.908024169921875,-0.992401123046875,-0.0133819580078125,0.0453643798828125
1772562875344091100,11.918091064453124,-0.9918975830078125,-0.01556396484375,0.046600341796875
1772562875354158000,11.928157958984375,-0.9916229248046875,-0.015899658203125,0.0465240478515625
1772562875364225000,11.93822509765625,-0.99169921875,-0.015380859375,0.0464019775390625
1772562875374293000,11.94829296875,-0.99151611328125,-0.014129638671875,0.04638671875
1772562875384360200,11.958360107421875,-0.99188232421875,-0.013458251953125,0.0478363037109375
1772562875394427400,11.968427490234374,-0.9913787841796875,-0.016143798828125,0.04632568359375
1772562875404494300,11.978494384765625,-0.991455078125,-0.015869140625,0.0467987060546875
1772562875414562300,11.988562255859375,-0.9931640625,-0.0152130126953125,0.0457305908203125
1772562875424629200,11.998629150390625,-0.9920501708984375,-0.0151824951171875,0.0466766357421875
1772562875434696200,12.0086962890625,-0.9906005859375,-0.0143585205078125,0.0458526611328125
1772562875444763100,12.01876318359375,-0.9898223876953125,-0.0155181884765625,0.0465545654296875
1772562875454830000,12.028830078125,-0.990325927734375,-0.01593017578125,0.0475006103515625
1772562875464898000,12.03889794921875,-0.992156982421875,-0.0159149169921875,0.04815673828125
1772562875474965000,12.048965087890625,-0.9919281005859375,-0.0143280029296875,0.0482177734375
1772562875485032400,12.059032470703125,-0.991851806640625,-0.01483154296875,0.0469207763671875
1772562875495099400,12.069099365234376,-0.9915008544921875,-0.015228271484375,0.045013427734375
1772562875505167400,12.07916748046875,-0.99163818359375,-0.0143585205078125,0.046661376953125
1772562875515234300,12.089234375,-0.9922943115234375,-0.016021728515625,0.0455780029296875
1772562875525301200,12.09930126953125,-0.9912109375,-0.0137939453125,0.047119140625
1772562875535368200,12.1093681640625,-0.990875244140625,-0.015045166015625,0.04718017578125
1772562875545435100,12.11943505859375,-0.9902496337890625,-0.0142822265625,0.0467071533203125
1772562875555503000,12.129503173828125,-0.991455078125,-0.014617919921875,0.0469207763671875
1772562875565570000,12.139570068359374,-0.9907684326171875,-0.015167236328125,0.047515869140625
1772562875575637000,12.149636962890625,-0.99285888671875,-0.0141754150390625,0.046966552734375
1772562875585704200,12.1597041015625,-0.9923248291015625,-0.015777587890625,0.0467987060546875
1772562875595771400,12.169771484375,-0.99169921875,-0.01422119140625,0.0479736328125
1772562875605839400,12.17983935546875,-0.9910430908203125,-0.014892578125,0.0471343994140625
1772562875615906300,12.18990625,-0.9921112060546875,-0.0145721435546875,0.045867919921875
1772562875625973200,12.19997314453125,-0.9922332763671875,-0.0158843994140625,0.0471038818359375
1772562875636040200,12.210040283203124,-0.99224853515625,-0.013336181640625,0.0483551025390625
1772562875646108200,12.220108154296875,-0.9907989501953125,-0.0150299072265625,0.0456390380859375
1772562875656175000,12.230175048828125,-0.9926910400390625,-0.0150146484375,0.0465850830078125
1772562875666242000,12.240241943359376,-0.9919281005859375,-0.0152130126953125,0.047607421875
1772562875676309000,12.25030908203125,-0.9930419921875,-0.0148468017578125,0.0465240478515625
1772562875686376200,12.260376220703124,-0.99310302734375,-0.014007568359375,0.0487518310546875
1772562875696444200,12.270444091796875,-0.9921722412109375,-0.0153656005859375,0.0465850830078125
1772562875706511400,12.280511474609375,-0.9921722412109375,-0.0161590576171875,0.0458221435546875
1772562875716578300,12.290578369140626,-0.9918212890625,-0.0137176513671875,0.046844482421875
1772562875726645200,12.300645263671875,-0.9921112060546875,-0.0156707763671875,0.0465087890625
1772562875736713200,12.310713134765624,-0.9918670654296875,-0.0141143798828125,0.0469512939453125
1772562875746780200,12.3207802734375,-0.9918212890625,-0.0137786865234375,0.0468292236328125
1772562875756847000,12.33084716796875,-0.992706298828125,-0.013916015625,0.046661376953125
1772562875766914000,12.3409140625,-0.9915008544921875,-0.0160675048828125,0.048370361328125
1772562875776981000,12.35098095703125,-0.99267578125,-0.015228271484375,0.046600341796875
1772562875787049200,12.36104931640625,-0.991241455078125,-0.0162200927734375,0.0463104248046875
1772562875797116200,12.3711162109375,-0.9915618896484375,-0.0154876708984375,0.0448760986328125
1772562875807183400,12.381183349609374,-0.993011474609375,-0.01446533203125,0.0472869873046875
1772562875817250300,12.391250244140625,-0.991790771484375,-0.014556884765625,0.0486907958984375
1772562875827318300,12.401318359375,-0.9929351806640625,-0.0140838623046875,0.04559326171875
1772562875837385200,12.41138525390625,-0.99224853515625,-0.0157470703125,0.0465240478515625
1772562875847452200,12.4214521484375,-0.9918212890625,-0.014251708984375,0.0481719970703125
1772562875857519000,12.43151904296875,-0.9908599853515625,-0.0128326416015625,0.0480194091796875
1772562875867586000,12.4415859375,-0.9911346435546875,-0.016021728515625,0.046905517578125
1772562875877654300,12.451654296875,-0.990447998046875,-0.01593017578125,0.0464935302734375
1772562875887721200,12.46172119140625,-0.9912109375,-0.0159912109375,0.0467529296875
1772562875897788200,12.4717880859375,-0.993133544921875,-0.0147857666015625,0.0462188720703125
1772562875907855400,12.48185546875,-0.9923248291015625,-0.0161285400390625,0.0467681884765625
1772562875917922300,12.49192236328125,-0.9917449951171875,-0.0156097412109375,0.0457611083984375
1772562875927990300,12.501990234375,-0.991790771484375,-0.0150909423828125,0.0467071533203125
1772562875938057200,12.51205712890625,-0.9922332763671875,-0.0142669677734375,0.0480194091796875
1772562875948124200,12.522124267578125,-0.9922943115234375,-0.015716552734375,0.0465850830078125
1772562875958191000,12.532191162109376,-0.9918975830078125,-0.01617431640625,0.0466766357421875
1772562875968259000,12.542259033203125,-0.9928436279296875,-0.0145416259765625,0.0457305908203125
1772562875978326300,12.552326171875,-0.9915313720703125,-0.0134429931640625,0.047332763671875
1772562875988393000,12.56239306640625,-0.9920654296875,-0.0155487060546875,0.04669189453125
1772562875998460200,12.572460205078125,-0.9913330078125,-0.01519775390625,0.0469970703125
1772562876008527000,12.582527099609376,-0.9918365478515625,-0.015777587890625,0.0473175048828125
1772562876018595300,12.59259521484375,-0.992584228515625,-0.01422119140625,0.046295166015625
1772562876028662300,12.602662353515624,-0.99102783203125,-0.014404296875,0.048126220703125
1772562876038729200,12.612729248046875,-0.9971923828125,-0.0137481689453125,0.04522705078125
1772562876048796200,12.622796142578125,-1.02874755859375,-0.008453369140625,0.02911376953125
1772562876058864000,12.632864013671876,-1.0046844482421875,-0.02197265625,0.0381927490234375
1772562876068931000,12.64293115234375,-0.999359130859375,-0.01641845703125,0.0638885498046875
1772562876078998000,12.652998046875,-0.9339599609375,-0.014617919921875,0.07952880859375
1772562876089065000,12.66306494140625,-0.9058074951171875,-0.018463134765625,0.0679931640625
1772562876099132200,12.673132080078124,-0.987823486328125,-0.0148162841796875,0.0500030517578125
1772562876109200100,12.6832001953125,-1.050994873046875,-0.0125274658203125,0.0377044677734375
1772562876119267300,12.693267333984375,-1.028289794921875,-0.0152435302734375,0.03912353515625
1772562876129334300,12.703334228515626,-0.9713592529296875,-0.0128936767578125,0.045684814453125
1772562876139401200,12.713401123046875,-0.9677581787109375,-0.019744873046875,0.04559326171875
