time,seconds_elapsed,z,y,x
1772696850902373600,0.06237353515625,-0.891815185546875,0.032318115234375,0.008453369140625
1772696850912344600,0.072344482421875,-0.9281005859375,0.0531768798828125,0.0153350830078125
1772696850922315500,0.0823154296875,-0.96966552734375,0.021209716796875,-0.041656494140625
1772696850932286500,0.092286376953125,-0.98443603515625,-0.011138916015625,-0.0647735595703125
1772696850942257400,0.10225732421875,-0.96771240234375,0.0074005126953125,-0.065826416015625
1772696850952228600,0.112228515625,-0.9587249755859375,0.0160369873046875,-0.05810546875
1772696850962199600,0.122199462890625,-0.9843902587890625,0.0091552734375,-0.0385589599609375
1772696850972169700,0.132169677734375,-1.0022735595703125,-0.001556396484375,-0.0333709716796875
1772696850982140400,0.142140380859375,-0.998992919921875,-0.011444091796875,-0.03985595703125
1772696850992111400,0.152111328125,-0.96929931640625,-0.0207366943359375,-0.0408477783203125
1772696851002082600,0.16208251953125,-0.9520416259765625,-0.03033447265625,-0.0448760986328125
1772696851012053500,0.172053466796875,-0.961029052734375,-0.0399627685546875,-0.06512451171875
1772696851022024700,0.182024658203125,-0.955902099609375,-0.046356201171875,-0.070465087890625
1772696851031995600,0.19199560546875,-0.9428558349609375,-0.05279541015625,-0.070831298828125
1772696851041966300,0.20196630859375,-0.9384765625,-0.054718017578125,-0.0717620849609375
1772696851051936500,0.2119365234375,-0.9477081298828125,-0.0604095458984375,-0.0766143798828125
1772696851061907500,0.221907470703125,-0.9476318359375,-0.0601043701171875,-0.0733642578125
1772696851071878400,0.23187841796875,-0.9488372802734375,-0.0459442138671875,-0.043731689453125
1772696851081849600,0.241849609375,-0.9685516357421875,-0.0444793701171875,-0.0489654541015625
1772696851091820500,0.251820556640625,-0.960357666015625,-0.0666046142578125,-0.0108795166015625
1772696851101791700,0.261791748046875,-0.9797515869140625,-0.08160400390625,-0.0220184326171875
1772696851111762400,0.271762451171875,-1.0091094970703125,-0.078155517578125,-0.031005859375
1772696851121733400,0.2817333984375,-1.017669677734375,-0.07025146484375,-0.0395965576171875
1772696851131703600,0.29170361328125,-1.030975341796875,-0.0684051513671875,-0.0529632568359375
1772696851141674500,0.301674560546875,-1.0221710205078125,-0.0714111328125,-0.073577880859375
1772696851151645400,0.3116455078125,-0.999481201171875,-0.0674896240234375,-0.0795440673828125
1772696851161616600,0.32161669921875,-1.0028228759765625,-0.069000244140625,-0.075439453125
1772696851171587600,0.331587646484375,-1.0213470458984375,-0.0770416259765625,-0.0567474365234375
1772696851181558500,0.34155859375,-1.027008056640625,-0.0792083740234375,-0.0310516357421875
1772696851191529500,0.351529541015625,-1.0084228515625,-0.0899505615234375,-0.0109710693359375
1772696851201500400,0.36150048828125,-0.997711181640625,-0.0838775634765625,-0.008636474609375
1772696851211471600,0.3714716796875,-0.9998779296875,-0.0839080810546875,-0.007293701171875
1772696851221441500,0.381441650390625,-1.009979248046875,-0.0893707275390625,-0.0240631103515625
1772696851231412500,0.39141259765625,-1.01031494140625,-0.09954833984375,-0.0256500244140625
1772696851241384000,0.401384033203125,-1.0146026611328125,-0.1063232421875,-0.013458251953125
1772696851251355100,0.411355224609375,-1.011444091796875,-0.099884033203125,-0.015228271484375
1772696851261326000,0.421326171875,-1.0101165771484375,-0.0970306396484375,-0.0193023681640625
1772696851271297300,0.43129736328125,-1.021575927734375,-0.1060028076171875,-0.020965576171875
1772696851281268200,0.441268310546875,-1.02484130859375,-0.106719970703125,-0.0196380615234375
1772696851291239200,0.4512392578125,-1.0208282470703125,-0.1001129150390625,-0.0122528076171875
1772696851301209000,0.461208984375,-1.011322021484375,-0.1019134521484375,0.0065460205078125
1772696851311180000,0.471179931640625,-1.0068206787109375,-0.1004180908203125,0.0150299072265625
1772696851321151200,0.481151123046875,-1.0028533935546875,-0.0977020263671875,0.0101165771484375
1772696851331122200,0.4911220703125,-0.9979705810546875,-0.100555419921875,-0.0000152587890625
1772696851341093000,0.501093017578125,-0.987335205078125,-0.1046295166015625,-0.003753662109375
1772696851351064300,0.511064208984375,-0.9696502685546875,-0.100250244140625,-0.00604248046875
1772696851361035000,0.521034912109375,-0.9657440185546875,-0.0979766845703125,-0.007080078125
1772696851371006200,0.531006103515625,-0.9731292724609375,-0.106292724609375,-0.0073089599609375
1772696851380976000,0.54097607421875,-0.974273681640625,-0.1092071533203125,-0.009307861328125
1772696851390947000,0.550947021484375,-0.9689178466796875,-0.10455322265625,-0.006317138671875
1772696851400918300,0.560918212890625,-0.9578399658203125,-0.102630615234375,0.00360107421875
1772696851410889200,0.57088916015625,-0.9494781494140625,-0.1040191650390625,0.01409912109375
1772696851420860200,0.580860107421875,-0.9445037841796875,-0.10467529296875,0.0208587646484375
1772696851430831000,0.5908310546875,-0.9347381591796875,-0.106292724609375,0.0277862548828125
1772696851440802000,0.600802001953125,-0.9329833984375,-0.1097412109375,0.0397796630859375
1772696851450773200,0.610773193359375,-0.9549713134765625,-0.1146240234375,0.0479278564453125
1772696851460743200,0.6207431640625,-0.974212646484375,-0.1107330322265625,0.056610107421875
1772696851470714000,0.630714111328125,-0.9817962646484375,-0.1074371337890625,0.0535430908203125
1772696851480685300,0.640685302734375,-0.98419189453125,-0.1092071533203125,0.0394744873046875
1772696851490656300,0.65065625,-0.98699951171875,-0.1128387451171875,0.02423095703125
1772696851500627000,0.660626953125,-1.00677490234375,-0.1185150146484375,0.017364501953125
1772696851510598100,0.67059814453125,-1.0112457275390625,-0.1152801513671875,0.012359619140625
1772696851520569000,0.680569091796875,-1.006439208984375,-0.11663818359375,0.0062713623046875
1772696851530540300,0.690540283203125,-1.0124053955078125,-0.1222991943359375,0.007537841796875
1772696851540511200,0.70051123046875,-1.019683837890625,-0.12908935546875,0.013458251953125
1772696851550481200,0.710481201171875,-1.020172119140625,-0.1414642333984375,0.0119781494140625
1772696851560452000,0.7204521484375,-1.0224456787109375,-0.1552734375,0.0119781494140625
1772696851570423000,0.730423095703125,-1.0315399169921875,-0.1682891845703125,0.0098114013671875
1772696851580394000,0.74039404296875,-1.0363311767578125,-0.169647216796875,0.0063018798828125
1772696851590365200,0.750365234375,-1.0387115478515625,-0.1515655517578125,0.0095672607421875
1772696851600336100,0.760336181640625,-1.0397491455078125,-0.1360626220703125,0.009674072265625
1772696851610307300,0.770307373046875,-1.030120849609375,-0.1297149658203125,0.00799560546875
1772696851620277200,0.78027734375,-1.0337066650390625,-0.1282806396484375,0.0118408203125
1772696851630248200,0.790248291015625,-1.04815673828125,-0.129058837890625,-0.0001373291015625
1772696851640219100,0.80021923828125,-1.041290283203125,-0.131256103515625,-0.003173828125
1772696851650190000,0.810190185546875,-1.032562255859375,-0.1304931640625,-0.0140380859375
1772696851660161300,0.820161376953125,-1.03179931640625,-0.124298095703125,-0.0270843505859375
1772696851670132200,0.83013232421875,-1.0301513671875,-0.1178436279296875,-0.0352630615234375
1772696851680103200,0.840103271484375,-1.02606201171875,-0.114410400390625,-0.043670654296875
1772696851690074000,0.85007421875,-1.02166748046875,-0.1106109619140625,-0.046600341796875
1772696851700045000,0.860045166015625,-1.0170745849609375,-0.0979766845703125,-0.04095458984375
1772696851710015000,0.870014892578125,-1.0063934326171875,-0.08966064453125,-0.038970947265625
1772696851719986200,0.879986083984375,-1.0031280517578125,-0.085845947265625,-0.03961181640625
1772696851729957000,0.88995703125,-1.0042724609375,-0.0758514404296875,-0.041107177734375
1772696851739928300,0.89992822265625,-0.9976806640625,-0.0597686767578125,-0.0395355224609375
1772696851749899300,0.909899169921875,-0.9901885986328125,-0.049224853515625,-0.037811279296875
1772696851759870000,0.919869873046875,-0.9910736083984375,-0.0472564697265625,-0.0361480712890625
1772696851769841200,0.929841064453125,-0.9908599853515625,-0.0419464111328125,-0.0310516357421875
1772696851779812000,0.93981201171875,-0.988128662109375,-0.038604736328125,-0.0251617431640625
1772696851789782000,0.949781982421875,-0.987457275390625,-0.03900146484375,-0.021392822265625
1772696851799753200,0.959753173828125,-0.9834442138671875,-0.0424652099609375,-0.015716552734375
1772696851809724200,0.96972412109375,-0.9710540771484375,-0.0487823486328125,-0.0049285888671875
1772696851819695400,0.9796953125,-0.9618988037109375,-0.0579833984375,0.00732421875
1772696851829666000,0.989666015625,-0.9676361083984375,-0.0710601806640625,0.0189208984375
1772696851839637000,0.999636962890625,-0.9730987548828125,-0.0860748291015625,0.0312652587890625
1772696851849608200,1.009608154296875,-0.9772491455078125,-0.09771728515625,0.0501861572265625
1772696851859579100,1.0195791015625,-0.983612060546875,-0.0966644287109375,0.0492095947265625
1772696851869549000,1.029549072265625,-0.9897613525390625,-0.1017913818359375,0.0491485595703125
1772696851879520300,1.039520263671875,-0.989013671875,-0.107696533203125,0.0488739013671875
1772696851889491200,1.0494912109375,-0.9896240234375,-0.103607177734375,0.040740966796875
1772696851899462100,1.059462158203125,-0.994293212890625,-0.0929107666015625,0.0249176025390625
1772696851909433000,1.06943310546875,-0.9927215576171875,-0.0758056640625,0.0113983154296875
1772696851919404000,1.079404052734375,-0.9861907958984375,-0.047821044921875,0.0151214599609375
1772696851929375200,1.089375244140625,-0.996826171875,-0.0415802001953125,0.014007568359375
1772696851939346200,1.09934619140625,-0.998199462890625,-0.035430908203125,0.0009918212890625
1772696851949316400,1.10931640625,-0.9872283935546875,-0.015472412109375,0.0068817138671875
1772696851959287000,1.119287109375,-0.983489990234375,-0.006866455078125,0.0106353759765625
1772696851969258000,1.129258056640625,-0.9813995361328125,0.0124969482421875,0.010101318359375
1772696851979229200,1.139229248046875,-0.9770965576171875,0.0239410400390625,0.0011749267578125
1772696851989200100,1.1492001953125,-0.9721527099609375,0.0205078125,-0.0034332275390625
1772696851999171300,1.15917138671875,-0.974090576171875,0.0251007080078125,-0.001800537109375
1772696852009142300,1.169142333984375,-0.974578857421875,0.0238800048828125,-0.0045166015625
1772696852019113000,1.179113037109375,-0.9738311767578125,0.016632080078125,-0.00189208984375
1772696852029083100,1.189083251953125,-0.9822235107421875,0.0055999755859375,0.0044708251953125
1772696852039054000,1.19905419921875,-0.990631103515625,-0.013702392578125,0.0032806396484375
1772696852049025000,1.20902490234375,-0.9956817626953125,-0.0330657958984375,0.0045166015625
1772696852058996200,1.218996337890625,-0.99798583984375,-0.0510101318359375,0.009063720703125
1772696852068967200,1.22896728515625,-0.994171142578125,-0.0670928955078125,0.0135498046875
1772696852078938400,1.2389384765625,-0.99432373046875,-0.075469970703125,0.015533447265625
1772696852088909000,1.248908935546875,-0.9987640380859375,-0.0779266357421875,0.0193939208984375
1772696852098880000,1.2588798828125,-0.998687744140625,-0.0822601318359375,0.0206451416015625
1772696852108851200,1.268851318359375,-1.0007476806640625,-0.0869598388671875,0.022674560546875
1772696852118821000,1.278821044921875,-1.0048370361328125,-0.0903778076171875,0.0245513916015625
1772696852128792000,1.2887919921875,-1.006011962890625,-0.092193603515625,0.0269622802734375
1772696852138763300,1.29876318359375,-1.0035858154296875,-0.09295654296875,0.0272674560546875
1772696852148734200,1.308734130859375,-1.0056304931640625,-0.0889434814453125,0.0261688232421875
1772696852158705200,1.318705078125,-1.0059814453125,-0.0850830078125,0.029632568359375
1772696852168676000,1.328676025390625,-1.008209228515625,-0.083343505859375,0.0330352783203125
1772696852178647000,1.33864697265625,-1.015106201171875,-0.0760498046875,0.0379180908203125
1772696852188617200,1.3486171875,-1.0079803466796875,-0.066558837890625,0.0370025634765625
1772696852198588200,1.358588134765625,-0.9990081787109375,-0.058074951171875,0.03436279296875
1772696852208559000,1.36855908203125,-0.99615478515625,-0.056915283203125,0.0309906005859375
1772696852218530300,1.3785302734375,-0.9920501708984375,-0.05694580078125,0.028228759765625
1772696852228501000,1.3885009765625,-0.990142822265625,-0.0547637939453125,0.0264434814453125
1772696852238472000,1.398471923828125,-0.9926910400390625,-0.0507049560546875,0.020904541015625
1772696852248443100,1.408443115234375,-0.989898681640625,-0.050323486328125,0.0221099853515625
1772696852258414000,1.4184140625,-0.9886474609375,-0.060150146484375,0.0117645263671875
1772696852268385000,1.428385009765625,-0.9892120361328125,-0.0612030029296875,0.00604248046875
1772696852278355200,1.438355224609375,-0.9927520751953125,-0.05792236328125,0.0080413818359375
1772696852288326100,1.448326171875,-0.9969329833984375,-0.0648040771484375,0.006378173828125
1772696852298296800,1.458296875,-1.0026702880859375,-0.0701141357421875,0.0033416748046875
1772696852308268000,1.46826806640625,-1.0050201416015625,-0.0745086669921875,0.0019989013671875
1772696852318239000,1.478239013671875,-0.999298095703125,-0.0763397216796875,0.0027313232421875
1772696852328210200,1.488210205078125,-1.0035247802734375,-0.0778045654296875,0.0044403076171875
1772696852338181000,1.49818115234375,-1.017852783203125,-0.0918121337890625,-0.0021209716796875
1772696852348151800,1.50815185546875,-1.009033203125,-0.0941314697265625,0.003021240234375
1772696852358122000,1.5181220703125,-1.00634765625,-0.0892333984375,0.00347900390625
1772696852368093000,1.528093017578125,-1.007659912109375,-0.0933990478515625,0.00177001953125
1772696852378064000,1.53806396484375,-1.0050811767578125,-0.09912109375,0.003021240234375
1772696852388035000,1.54803515625,-1.0016937255859375,-0.095611572265625,0.00537109375
1772696852398006000,1.558006103515625,-0.9981231689453125,-0.090545654296875,0.0059967041015625
1772696852407977200,1.567977294921875,-0.9977569580078125,-0.089935302734375,0.009429931640625
1772696852417948000,1.577947998046875,-1.0004119873046875,-0.094390869140625,0.0121307373046875
1772696852427918800,1.5879189453125,-0.9992523193359375,-0.09808349609375,0.0140228271484375
1772696852437889000,1.597888916015625,-1.0008697509765625,-0.0970306396484375,0.0189971923828125
1772696852447860000,1.60785986328125,-1.0035552978515625,-0.093963623046875,0.0207061767578125
1772696852457831000,1.617830810546875,-1.00042724609375,-0.0901336669921875,0.0232696533203125
1772696852467802000,1.627802001953125,-0.9926605224609375,-0.0868988037109375,0.024658203125
1772696852477773000,1.63777294921875,-0.9891510009765625,-0.08612060546875,0.0252532958984375
1772696852487744000,1.647743896484375,-0.9847564697265625,-0.0860748291015625,0.025390625
1772696852497715000,1.65771484375,-0.98089599609375,-0.085418701171875,0.030059814453125
1772696852507686100,1.66768603515625,-0.976776123046875,-0.0841522216796875,0.0348052978515625
1772696852517656000,1.677656005859375,-0.9720001220703125,-0.0811767578125,0.03350830078125
1772696852527627000,1.687626953125,-0.9716796875,-0.075225830078125,0.0306549072265625
1772696852537598200,1.69759814453125,-0.969146728515625,-0.0712127685546875,0.0274200439453125
1772696852547569200,1.707569091796875,-0.96307373046875,-0.068572998046875,0.0195465087890625
1772696852557539800,1.717539794921875,-0.958282470703125,-0.06597900390625,0.00579833984375
1772696852567511000,1.727510986328125,-0.9552001953125,-0.064605712890625,-0.010467529296875
1772696852577482000,1.73748193359375,-0.9599609375,-0.062957763671875,-0.0216217041015625
1772696852587453200,1.747453125,-0.9683990478515625,-0.063720703125,-0.029449462890625
1772696852597423000,1.757423095703125,-0.978118896484375,-0.06585693359375,-0.034210205078125
1772696852607394000,1.76739404296875,-0.986907958984375,-0.0611572265625,-0.0345001220703125
1772696852617365200,1.777365234375,-0.9969024658203125,-0.0492706298828125,-0.0343170166015625
1772696852627336000,1.7873359375,-1.0049896240234375,-0.0418701171875,-0.0392913818359375
1772696852637307000,1.797306884765625,-1.0105133056640625,-0.0417633056640625,-0.04339599609375
1772696852647278000,1.807278076171875,-1.0146026611328125,-0.0440826416015625,-0.04852294921875
1772696852657249000,1.8172490234375,-1.017242431640625,-0.037353515625,-0.0360565185546875
1772696852667220200,1.82722021484375,-1.01983642578125,-0.0316009521484375,-0.034027099609375
1772696852677191000,1.83719091796875,-1.0168914794921875,-0.0354156494140625,-0.038238525390625
1772696852687161000,1.8471611328125,-1.017578125,-0.040435791015625,-0.0315399169921875
1772696852697132000,1.857132080078125,-1.014495849609375,-0.043701171875,-0.0226593017578125
1772696852707103000,1.86710302734375,-1.014739990234375,-0.0548858642578125,-0.0184783935546875
1772696852717074000,1.877073974609375,-1.017730712890625,-0.070709228515625,-0.01416015625
1772696852727045000,1.887045166015625,-1.017913818359375,-0.08209228515625,-0.0103607177734375
1772696852737016000,1.89701611328125,-1.0099029541015625,-0.0864410400390625,-0.00958251953125
1772696852746987000,1.906987060546875,-1.0018310546875,-0.088470458984375,-0.007904052734375
1772696852756958000,1.9169580078125,-0.994720458984375,-0.0931854248046875,-0.005462646484375
1772696852766928000,1.926927978515625,-0.9919586181640625,-0.0950775146484375,-0.00274658203125
1772696852776899000,1.936899169921875,-0.9865875244140625,-0.0936126708984375,0.00091552734375
1772696852786870000,1.9468701171875,-0.9779205322265625,-0.0900421142578125,-0.0005340576171875
1772696852796841000,1.956841064453125,-0.9753570556640625,-0.0867919921875,-0.00140380859375
1772696852806812200,1.966812255859375,-0.975250244140625,-0.084625244140625,-0.0046844482421875
1772696852816782800,1.976782958984375,-0.97625732421875,-0.07794189453125,-0.009552001953125
1772696852826754000,1.986754150390625,-0.9786529541015625,-0.069244384765625,-0.0147247314453125
1772696852836724000,1.996723876953125,-0.985321044921875,-0.0621490478515625,-0.0195770263671875
1772696852846695000,2.00669482421875,-0.9913330078125,-0.053253173828125,-0.02313232421875
1772696852856666000,2.016666015625,-0.996795654296875,-0.0440521240234375,-0.027374267578125
1772696852866637000,2.026636962890625,-1.003265380859375,-0.0404205322265625,-0.0319976806640625
1772696852876608300,2.036608154296875,-1.00494384765625,-0.0385894775390625,-0.035430908203125
1772696852886579000,2.046578857421875,-1.010772705078125,-0.03759765625,-0.037567138671875
1772696852896550000,2.0565498046875,-1.019073486328125,-0.0379638671875,-0.0392303466796875
1772696852906521000,2.06652099609375,-1.0202178955078125,-0.0432281494140625,-0.038970947265625
1772696852916492000,2.076491943359375,-1.019073486328125,-0.0510101318359375,-0.0366973876953125
1772696852926462000,2.0864619140625,-1.016021728515625,-0.058868408203125,-0.0311126708984375
1772696852936433200,2.09643310546875,-1.0167999267578125,-0.068634033203125,-0.0255889892578125
1772696852946404000,2.106404052734375,-1.01953125,-0.075531005859375,-0.0182647705078125
1772696852956375000,2.116375,-1.016632080078125,-0.0776824951171875,-0.011993408203125
1772696852966346000,2.126345947265625,-1.010528564453125,-0.0808258056640625,-0.006988525390625
1772696852976317000,2.13631689453125,-1.0069580078125,-0.083709716796875,-0.000030517578125
1772696852986288000,2.1462880859375,-1.0038604736328125,-0.0842132568359375,0.0052337646484375
1772696852996259000,2.156259033203125,-0.996826171875,-0.081512451171875,0.007080078125
1772696853006229000,2.16622900390625,-0.9898223876953125,-0.078399658203125,0.0095367431640625
1772696853016200200,2.1762001953125,-0.9866485595703125,-0.0791473388671875,0.0098114013671875
1772696853026171000,2.1861708984375,-0.9877777099609375,-0.0827789306640625,0.0100250244140625
1772696853036142000,2.19614208984375,-0.9892578125,-0.0857391357421875,0.0079498291015625
1772696853046113000,2.206113037109375,-0.98944091796875,-0.0828704833984375,0.0077362060546875
1772696853056084000,2.216083984375,-0.9877471923828125,-0.0785064697265625,0.0101470947265625
1772696853066055200,2.22605517578125,-0.9880828857421875,-0.075286865234375,0.009307861328125
1772696853076025900,2.23602587890625,-0.987548828125,-0.0718231201171875,0.0100860595703125
1772696853085996000,2.24599609375,-0.9882965087890625,-0.06524658203125,0.0105438232421875
1772696853095967000,2.255967041015625,-0.9880218505859375,-0.0609283447265625,0.0088958740234375
1772696853105938000,2.26593798828125,-0.9888153076171875,-0.0617523193359375,0.0076904296875
1772696853115909000,2.2759091796875,-0.9888153076171875,-0.0633087158203125,0.0033111572265625
1772696853125880000,2.285880126953125,-0.98895263671875,-0.062652587890625,-0.001953125
1772696853135851000,2.29585107421875,-0.9868011474609375,-0.062744140625,-0.0044708251953125
1772696853145822000,2.305822021484375,-0.986846923828125,-0.0637664794921875,-0.009674072265625
1772696853155793000,2.31579296875,-0.9899444580078125,-0.0644073486328125,-0.0109710693359375
1772696853165763000,2.32576318359375,-0.9851226806640625,-0.066619873046875,-0.0098876953125
1772696853175734000,2.335734130859375,-0.98150634765625,-0.0696868896484375,-0.00775146484375
1772696853185705000,2.345705078125,-0.9854888916015625,-0.0724945068359375,-0.00714111328125
1772696853195676200,2.35567626953125,-0.9879150390625,-0.0730133056640625,-0.00634765625
1772696853205647000,2.365647216796875,-0.9929962158203125,-0.07464599609375,-0.003631591796875
1772696853215618000,2.3756181640625,-0.9968109130859375,-0.078887939453125,-0.0034027099609375
1772696853225589000,2.385589111328125,-0.998748779296875,-0.079315185546875,-0.00421142578125
1772696853235562800,2.395562744140625,-1.0039520263671875,-0.07672119140625,0.0000152587890625
1772696853245533000,2.405532958984375,-1.002899169921875,-0.0760345458984375,0.001922607421875
1772696853255504000,2.41550390625,-1.001739501953125,-0.076751708984375,0.00201416015625
1772696853265474800,2.425474853515625,-1.0027313232421875,-0.081146240234375,0.016571044921875
1772696853275446000,2.435446044921875,-1.0039520263671875,-0.0830535888671875,0.020416259765625
1772696853285417000,2.4454169921875,-1.0048828125,-0.0865478515625,0.0150909423828125
1772696853295388000,2.455387939453125,-1.001495361328125,-0.0873565673828125,0.0165863037109375
1772696853305358800,2.46535888671875,-0.9933624267578125,-0.0865325927734375,0.021697998046875
1772696853315329800,2.475329833984375,-0.9894256591796875,-0.084625244140625,0.0234527587890625
1772696853325300000,2.485300048828125,-0.99139404296875,-0.0859375,0.0234222412109375
1772696853335271000,2.49527099609375,-0.992279052734375,-0.088623046875,0.02166748046875
1772696853345241900,2.505241943359375,-0.99407958984375,-0.088653564453125,0.0190582275390625
1772696853355212800,2.515212890625,-0.99481201171875,-0.087860107421875,0.0113067626953125
1772696853365183700,2.525183837890625,-0.9943389892578125,-0.08892822265625,0.0040130615234375
1772696853375155000,2.535155029296875,-0.995758056640625,-0.0881195068359375,-0.0005340576171875
1772696853385126000,2.5451259765625,-0.9942626953125,-0.0840606689453125,-0.0042266845703125
1772696853395096800,2.555096923828125,-0.9939422607421875,-0.0809326171875,-0.008575439453125
1772696853405067000,2.56506689453125,-0.991424560546875,-0.07757568359375,-0.011016845703125
1772696853415038000,2.575037841796875,-0.9875640869140625,-0.071807861328125,-0.008575439453125
1772696853425009000,2.5850087890625,-0.9856109619140625,-0.0690460205078125,-0.0112152099609375
1772696853434979800,2.594979736328125,-0.9841156005859375,-0.065338134765625,-0.011260986328125
1772696853444950800,2.60495068359375,-0.986328125,-0.0644073486328125,-0.01220703125
1772696853454922000,2.614921875,-0.9899139404296875,-0.06500244140625,-0.0130615234375
1772696853464893000,2.624892822265625,-0.9921112060546875,-0.06573486328125,-0.012603759765625
1772696853474864000,2.634864013671875,-0.9902191162109375,-0.063232421875,-0.0163116455078125
1772696853484834000,2.644833984375,-0.984527587890625,-0.059967041015625,-0.015380859375
1772696853494804700,2.6548046875,-0.983154296875,-0.0606231689453125,-0.0130157470703125
1772696853504776000,2.66477587890625,-0.98333740234375,-0.0638885498046875,-0.01031494140625
1772696853514747000,2.674746826171875,-0.9909515380859375,-0.0687713623046875,-0.0059356689453125
1772696853524717800,2.6847177734375,-0.993499755859375,-0.07177734375,-0.002410888671875
1772696853534689000,2.69468896484375,-0.9929656982421875,-0.0716705322265625,-0.0018768310546875
1772696853544660000,2.704659912109375,-0.99322509765625,-0.073822021484375,-0.0038604736328125
1772696853554631000,2.714630859375,-0.9940032958984375,-0.07659912109375,-0.0050811767578125
1772696853564600800,2.724600830078125,-0.996612548828125,-0.0811614990234375,-0.0067901611328125
1772696853574571800,2.73457177734375,-0.9964599609375,-0.0845947265625,-0.0096282958984375
1772696853584543000,2.74454296875,-0.994140625,-0.082794189453125,-0.0105133056640625
1772696853594514000,2.754513916015625,-0.9959259033203125,-0.0810394287109375,-0.0114593505859375
1772696853604484900,2.76448486328125,-0.998931884765625,-0.083648681640625,-0.0120391845703125
1772696853614456000,2.7744560546875,-0.9989776611328125,-0.0834503173828125,-0.0137481689453125
1772696853624426800,2.7844267578125,-0.9961090087890625,-0.0824127197265625,-0.012908935546875
1772696853634398000,2.79439794921875,-0.9933013916015625,-0.0828094482421875,-0.011566162109375
1772696853644368000,2.804367919921875,-0.99517822265625,-0.082916259765625,-0.011505126953125
1772696853654338800,2.8143388671875,-0.9945068359375,-0.086395263671875,-0.009674072265625
1772696853664310000,2.82431005859375,-0.992523193359375,-0.085357666015625,-0.0089111328125
1772696853674281000,2.834281005859375,-0.9935455322265625,-0.0819244384765625,-0.0069732666015625
1772696853684252000,2.844251953125,-0.993408203125,-0.0778350830078125,-0.0047760009765625
1772696853694222800,2.854222900390625,-0.9927215576171875,-0.07452392578125,-0.0034637451171875
1772696853704193800,2.86419384765625,-0.9937744140625,-0.072845458984375,-0.007843017578125
1772696853714165000,2.8741650390625,-0.992584228515625,-0.071319580078125,-0.0099945068359375
1772696853724135000,2.884135009765625,-0.995849609375,-0.0719451904296875,-0.013397216796875
1772696853734105900,2.89410595703125,-0.9916229248046875,-0.0707550048828125,-0.013824462890625
1772696853744077000,2.9040771484375,-0.993743896484375,-0.0679473876953125,-0.0143890380859375
1772696853754047700,2.9140478515625,-0.99835205078125,-0.06884765625,-0.0139617919921875
1772696853764019000,2.92401904296875,-0.9981689453125,-0.0705718994140625,-0.013031005859375
1772696853773990000,2.933989990234375,-0.999542236328125,-0.072052001953125,-0.0155029296875
1772696853783960800,2.9439609375,-1.0002288818359375,-0.071929931640625,-0.015594482421875
1772696853793932000,2.95393212890625,-1.0029144287109375,-0.0734100341796875,-0.0146942138671875
1772696853803903000,2.963903076171875,-1.0074615478515625,-0.077545166015625,-0.014251708984375
1772696853813873000,2.973872802734375,-1.005828857421875,-0.0817108154296875,-0.0126800537109375
1772696853823843800,2.98384375,-1.0021514892578125,-0.0814361572265625,-0.0149078369140625
1772696853833814800,2.993814697265625,-0.998199462890625,-0.08489990234375,-0.018341064453125
1772696853843786000,3.003785888671875,-0.9937896728515625,-0.0845947265625,-0.0197601318359375
1772696853853757000,3.0137568359375,-0.993988037109375,-0.0844268798828125,-0.0218353271484375
1772696853863727900,3.023727783203125,-0.9936676025390625,-0.08343505859375,-0.02545166015625
1772696853873699000,3.033698974609375,-0.986907958984375,-0.0823516845703125,-0.0285491943359375
1772696853883669000,3.0436689453125,-0.9828643798828125,-0.0805206298828125,-0.0300140380859375
1772696853893639700,3.0536396484375,-0.986175537109375,-0.077545166015625,-0.0293731689453125
1772696853903611000,3.06361083984375,-0.990142822265625,-0.0768280029296875,-0.0302581787109375
1772696853913581800,3.073581787109375,-0.992584228515625,-0.0772705078125,-0.03021240234375
1772696853923553000,3.083552978515625,-0.9954071044921875,-0.0786590576171875,-0.030517578125
1772696853933524000,3.09352392578125,-0.99810791015625,-0.0826416015625,-0.0293121337890625
1772696853943495000,3.103494873046875,-0.9954986572265625,-0.0859375,-0.0290069580078125
1772696853953465900,3.1134658203125,-0.991546630859375,-0.0882568359375,-0.0303955078125
1772696853963436800,3.123436767578125,-0.9888153076171875,-0.0888824462890625,-0.0265045166015625
1772696853973406700,3.13340673828125,-0.99151611328125,-0.089202880859375,-0.025390625
1772696853983378000,3.1433779296875,-0.992919921875,-0.088043212890625,-0.0208282470703125
1772696853993348900,3.153348876953125,-0.99810791015625,-0.084686279296875,-0.01806640625
1772696854003320000,3.163320068359375,-0.993011474609375,-0.083221435546875,-0.014801025390625
1772696854013291000,3.173291015625,-0.98712158203125,-0.0797119140625,-0.0137481689453125
1772696854023261700,3.18326171875,-0.984161376953125,-0.0747833251953125,-0.0114593505859375
1772696854033233000,3.19323291015625,-0.9845428466796875,-0.0728912353515625,-0.013092041015625
1772696854043203800,3.203203857421875,-0.9824981689453125,-0.07171630859375,-0.0180206298828125
1772696854053173800,3.213173828125,-0.972412109375,-0.068634033203125,-0.021148681640625
1772696854063145000,3.22314501953125,-0.972259521484375,-0.0642547607421875,-0.022674560546875
1772696854073116000,3.233115966796875,-0.975616455078125,-0.0661163330078125,-0.0247650146484375
1772696854083086800,3.2430869140625,-0.974273681640625,-0.0688018798828125,-0.02490234375
1772696854093057800,3.253057861328125,-0.971649169921875,-0.066253662109375,-0.0262908935546875
1772696854103029000,3.263029052734375,-0.972564697265625,-0.0615081787109375,-0.0251007080078125
1772696854113000000,3.273,-0.9750518798828125,-0.0602264404296875,-0.023956298828125
1772696854122971000,3.282970947265625,-0.9764556884765625,-0.06158447265625,-0.0226287841796875
1772696854132941000,3.292941162109375,-0.9830474853515625,-0.0632781982421875,-0.021484375
1772696854142912000,3.302912109375,-0.993865966796875,-0.0675201416015625,-0.025054931640625
1772696854152882700,3.312882568359375,-0.99456787109375,-0.0781097412109375,-0.0215606689453125
1772696854162854000,3.32285400390625,-0.9972686767578125,-0.0852813720703125,-0.0167236328125
1772696854172824800,3.332824951171875,-1.003814697265625,-0.091094970703125,-0.017608642578125
1772696854182796000,3.342796142578125,-1.0072784423828125,-0.1006622314453125,-0.015289306640625
1772696854192767000,3.35276708984375,-1.00848388671875,-0.10595703125,-0.0123138427734375
1772696854202738000,3.362738037109375,-1.01123046875,-0.105987548828125,-0.0093841552734375
1772696854212708000,3.3727080078125,-1.0121002197265625,-0.1033477783203125,-0.008453369140625
1772696854222678800,3.3826787109375,-1.0143585205078125,-0.0988616943359375,-0.0107269287109375
1772696854232649700,3.392649658203125,-1.0147705078125,-0.0948333740234375,-0.0105743408203125
1772696854242621400,3.402621337890625,-1.01129150390625,-0.0937042236328125,-0.0136566162109375
1772696854252592400,3.41259228515625,-1.0107269287109375,-0.092529296875,-0.015625
1772696854262563600,3.4225634765625,-1.00701904296875,-0.0938873291015625,-0.0143280029296875
1772696854272534300,3.4325341796875,-1.006256103515625,-0.09405517578125,-0.0129852294921875
1772696854282505500,3.44250537109375,-1.0030670166015625,-0.0928802490234375,-0.010986328125
1772696854292475400,3.452475341796875,-1.0029449462890625,-0.08941650390625,-0.0098876953125
1772696854302446300,3.4624462890625,-1.0039825439453125,-0.086669921875,-0.0088653564453125
1772696854312417500,3.47241748046875,-0.999969482421875,-0.0830078125,-0.010223388671875
1772696854322388500,3.482388427734375,-0.995208740234375,-0.0796356201171875,-0.0095672607421875
1772696854332359400,3.492359375,-0.9918060302734375,-0.0757293701171875,-0.010162353515625
1772696854342330400,3.502330322265625,-0.992645263671875,-0.0722808837890625,-0.006866455078125
1772696854352301300,3.51230126953125,-0.9933624267578125,-0.07342529296875,-0.0056915283203125
1772696854362272500,3.5222724609375,-0.9983367919921875,-0.0767669677734375,-0.00848388671875
1772696854372242400,3.532242431640625,-1.0006256103515625,-0.078338623046875,-0.0108489990234375
1772696854382213400,3.54221337890625,-1.0001678466796875,-0.0778045654296875,-0.0140533447265625
1772696854392184600,3.5521845703125,-0.9989166259765625,-0.079559326171875,-0.0173797607421875
1772696854402155500,3.562155517578125,-1.002197265625,-0.08074951171875,-0.0217742919921875
1772696854412126200,3.572126220703125,-1.0039215087890625,-0.08392333984375,-0.02581787109375
1772696854422097400,3.582097412109375,-1.007171630859375,-0.0867919921875,-0.0290069580078125
1772696854432068400,3.592068359375,-1.0089263916015625,-0.0880126953125,-0.03125
1772696854442039600,3.60203955078125,-1.0107421875,-0.0890350341796875,-0.0319366455078125
1772696854452009500,3.612009521484375,-1.008544921875,-0.090667724609375,-0.0300750732421875
1772696854461980400,3.62198046875,-1.0041351318359375,-0.0931396484375,-0.02655029296875
1772696854471951400,3.631951416015625,-0.99700927734375,-0.0941314697265625,-0.0218353271484375
1772696854481922300,3.64192236328125,-0.9938812255859375,-0.0953826904296875,-0.0172119140625
1772696854491893200,3.651893310546875,-0.9963531494140625,-0.0996856689453125,-0.0201416015625
1772696854501864400,3.661864501953125,-0.9830169677734375,-0.0972442626953125,-0.013458251953125
1772696854511835400,3.67183544921875,-0.9794769287109375,-0.0929718017578125,-0.010711669921875
1772696854521806600,3.681806640625,-0.9822540283203125,-0.0906219482421875,-0.0074462890625
1772696854531776500,3.691776611328125,-0.9799346923828125,-0.088775634765625,-0.0054779052734375
1772696854541747500,3.70174755859375,-0.9781646728515625,-0.088470458984375,-0.0048370361328125
1772696854551718400,3.711718505859375,-0.9783477783203125,-0.08917236328125,-0.0039520263671875
1772696854561689300,3.721689453125,-0.975677490234375,-0.0870819091796875,-0.002838134765625
1772696854571660300,3.731660400390625,-0.973114013671875,-0.083953857421875,-0.0016632080078125
1772696854581631500,3.741631591796875,-0.9735870361328125,-0.08123779296875,-0.00048828125
1772696854591602400,3.7516025390625,-0.9732208251953125,-0.0790252685546875,-0.0026702880859375
1772696854601573400,3.761573486328125,-0.9744110107421875,-0.0825653076171875,-0.00213623046875
1772696854611543300,3.771543212890625,-0.9814605712890625,-0.08331298828125,0.0060577392578125
1772696854621514200,3.78151416015625,-0.9932403564453125,-0.086761474609375,0.0026092529296875
1772696854631485400,3.7914853515625,-0.9942779541015625,-0.0885009765625,-0.0055999755859375
1772696854641456400,3.801456298828125,-0.9969940185546875,-0.084625244140625,-0.0057525634765625
1772696854651427600,3.811427490234375,-0.9995880126953125,-0.0831146240234375,-0.01165771484375
1772696854661398500,3.8213984375,-1.0023345947265625,-0.08465576171875,-0.0191802978515625
1772696854671369200,3.831369140625,-1.0043182373046875,-0.0859527587890625,-0.0206451416015625
1772696854681340400,3.84134033203125,-1.0014190673828125,-0.0845947265625,-0.025665283203125
1772696854691310300,3.851310302734375,-1.006317138671875,-0.0843505859375,-0.0291900634765625
1772696854701281300,3.86128125,-1.006317138671875,-0.087615966796875,-0.026153564453125
1772696854711252500,3.87125244140625,-0.998779296875,-0.0872344970703125,-0.022796630859375
1772696854721223400,3.881223388671875,-0.9959259033203125,-0.08514404296875,-0.0182037353515625
1772696854731194600,3.891194580078125,-1.003631591796875,-0.090850830078125,-0.020477294921875
1772696854741165300,3.901165283203125,-1.000732421875,-0.0961151123046875,-0.0187835693359375
1772696854751136300,3.91113623046875,-0.9957733154296875,-0.096405029296875,-0.0167694091796875
1772696854761107500,3.921107421875,-0.98944091796875,-0.0933685302734375,-0.0134124755859375
1772696854771077400,3.931077392578125,-0.9905853271484375,-0.09600830078125,-0.014190673828125
1772696854781048300,3.94104833984375,-0.9834136962890625,-0.0978546142578125,-0.0143585205078125
1772696854791019500,3.95101953125,-0.97625732421875,-0.0933990478515625,-0.0127410888671875
1772696854800990500,3.960990478515625,-0.98712158203125,-0.0869140625,-0.0128631591796875
1772696854810961400,3.97096142578125,-0.9972381591796875,-0.0914459228515625,-0.01556396484375
1772696854820932400,3.980932373046875,-0.9906768798828125,-0.0917816162109375,-0.0143890380859375
1772696854830903300,3.9909033203125,-0.991485595703125,-0.08758544921875,-0.0157928466796875
1772696854840874500,4.00087451171875,-0.991729736328125,-0.08734130859375,-0.0162811279296875
1772696854850845400,4.010845458984375,-0.9959259033203125,-0.0882720947265625,-0.01470947265625
1772696854860815400,4.0208154296875,-0.9949798583984375,-0.0919342041015625,-0.0197601318359375
1772696854870786300,4.030786376953125,-0.9834442138671875,-0.0882568359375,-0.01739501953125
1772696854880757200,4.04075732421875,-0.982635498046875,-0.0844879150390625,-0.014190673828125
1772696854890728400,4.050728515625,-0.9861602783203125,-0.0836334228515625,-0.01123046875
1772696854900699400,4.060699462890625,-0.9969329833984375,-0.0875701904296875,-0.0084686279296875
1772696854910670300,4.07067041015625,-0.996307373046875,-0.0908660888671875,-0.0070037841796875
1772696854920641500,4.0806416015625,-0.992431640625,-0.0883331298828125,-0.004974365234375
1772696854930612200,4.0906123046875,-0.9962005615234375,-0.0847015380859375,-0.0087127685546875
1772696854940582400,4.10058251953125,-0.9937591552734375,-0.084808349609375,-0.010589599609375
1772696854950553300,4.11055322265625,-0.9904937744140625,-0.086517333984375,-0.014862060546875
1772696854960524300,4.120524169921875,-0.99151611328125,-0.088043212890625,-0.01751708984375
1772696854970495500,4.13049560546875,-0.99456787109375,-0.0910186767578125,-0.0184326171875
1772696854980466400,4.140466552734375,-0.998565673828125,-0.0951995849609375,-0.0216522216796875
1772696854990437600,4.150437744140625,-1.00042724609375,-0.0958709716796875,-0.02276611328125
1772696855000408300,4.160408203125,-0.997589111328125,-0.0944671630859375,-0.02587890625
1772696855010379300,4.170379150390625,-0.9930877685546875,-0.0923309326171875,-0.0266571044921875
1772696855020349400,4.180349365234375,-0.993011474609375,-0.089202880859375,-0.02642822265625
1772696855030320400,4.1903203125,-0.9959716796875,-0.088958740234375,-0.0272979736328125
1772696855040291300,4.200291259765625,-0.995758056640625,-0.08917236328125,-0.025726318359375
1772696855050262500,4.210262451171875,-0.994110107421875,-0.085601806640625,-0.02276611328125
1772696855060233500,4.2202333984375,-0.9946136474609375,-0.08050537109375,-0.01934814453125
1772696855070204400,4.230204345703125,-0.9957427978515625,-0.079376220703125,-0.01849365234375
1772696855080175400,4.24017529296875,-0.9898223876953125,-0.076995849609375,-0.01751708984375
1772696855090146300,4.250146240234375,-0.988861083984375,-0.0740203857421875,-0.017974853515625
1772696855100116500,4.260116455078125,-0.98870849609375,-0.0762786865234375,-0.019073486328125
1772696855110087400,4.27008740234375,-0.99053955078125,-0.0798797607421875,-0.0216827392578125
1772696855120058400,4.280058349609375,-0.990966796875,-0.0818939208984375,-0.0226287841796875
1772696855130029300,4.290029296875,-0.9946746826171875,-0.083648681640625,-0.0225982666015625
1772696855140000300,4.300000244140625,-0.9981231689453125,-0.0850830078125,-0.0173492431640625
1772696855149971500,4.309971435546875,-0.9996337890625,-0.0828094482421875,-0.01300048828125
1772696855159942400,4.3199423828125,-0.9979705810546875,-0.0802459716796875,-0.0103607177734375
1772696855169913300,4.329913330078125,-0.993072509765625,-0.0764007568359375,-0.0111236572265625
1772696855179883500,4.339883544921875,-0.9889678955078125,-0.0762939453125,-0.01141357421875
1772696855189854500,4.3498544921875,-0.9863128662109375,-0.077392578125,-0.0136566162109375
1772696855199825400,4.359825439453125,-0.988067626953125,-0.079345703125,-0.0150146484375
1772696855209796400,4.36979638671875,-0.99188232421875,-0.083770751953125,-0.0165252685546875
1772696855219767300,4.379767333984375,-0.9935760498046875,-0.087066650390625,-0.015625
1772696855229738500,4.389738525390625,-0.9913330078125,-0.0884246826171875,-0.013916015625
1772696855239706600,4.39970654296875,-0.9893341064453125,-0.08734130859375,-0.012603759765625
1772696855249677300,4.40967724609375,-0.990386962890625,-0.0892486572265625,-0.0113677978515625
1772696855259647500,4.4196474609375,-0.9881591796875,-0.0899658203125,-0.011627197265625
1772696855269618400,4.429618408203125,-0.9882659912109375,-0.08978271484375,-0.012908935546875
1772696855279589400,4.43958935546875,-0.987640380859375,-0.089874267578125,-0.0156097412109375
1772696855289560600,4.449560546875,-0.98944091796875,-0.08868408203125,-0.0180511474609375
1772696855299531500,4.459531494140625,-0.99334716796875,-0.085540771484375,-0.020416259765625
1772696855309502700,4.469502685546875,-0.9958648681640625,-0.0832672119140625,-0.0188446044921875
1772696855319473400,4.479473388671875,-0.996978759765625,-0.081512451171875,-0.020050048828125
1772696855329444400,4.4894443359375,-0.99639892578125,-0.080596923828125,-0.0206298828125
1772696855339415600,4.49941552734375,-0.9947509765625,-0.0786895751953125,-0.0222320556640625
1772696855349385500,4.509385498046875,-0.995330810546875,-0.0764617919921875,-0.0216827392578125
1772696855359356400,4.5193564453125,-0.991607666015625,-0.07489013671875,-0.018829345703125
1772696855369327600,4.52932763671875,-0.99346923828125,-0.07611083984375,-0.018280029296875
1772696855379298600,4.539298583984375,-0.997161865234375,-0.078948974609375,-0.0161285400390625
1772696855389269500,4.54926953125,-0.9964599609375,-0.08111572265625,-0.01397705078125
1772696855399240400,4.559240478515625,-0.989990234375,-0.0830078125,-0.0129852294921875
1772696855409211600,4.569211669921875,-0.986480712890625,-0.0840606689453125,-0.0111083984375
1772696855419181600,4.579181640625,-0.9849853515625,-0.086151123046875,-0.010772705078125
1772696855429152500,4.589152587890625,-0.9876708984375,-0.0838470458984375,-0.008636474609375
1772696855439123700,4.599123779296875,-0.9902801513671875,-0.08441162109375,-0.00506591796875
1772696855449094700,4.6090947265625,-0.992706298828125,-0.0879974365234375,-0.003692626953125
1772696855459065300,4.6190654296875,-0.9962158203125,-0.0897064208984375,-0.0051422119140625
1772696855469036500,4.62903662109375,-0.9983978271484375,-0.0900421142578125,-0.0082550048828125
1772696855479007500,4.639007568359375,-0.9999237060546875,-0.0904693603515625,-0.01312255859375
1772696855488978700,4.648978759765625,-1.0004119873046875,-0.0904541015625,-0.018585205078125
1772696855498949600,4.65894970703125,-1.0010223388671875,-0.0880889892578125,-0.021575927734375
1772696855508919600,4.66891943359375,-0.998779296875,-0.0866546630859375,-0.02337646484375
1772696855518890500,4.678890380859375,-0.9959716796875,-0.0845489501953125,-0.0233001708984375
1772696855528861400,4.688861328125,-0.9962158203125,-0.0815582275390625,-0.02325439453125
1772696855538832400,4.698832275390625,-0.99267578125,-0.082122802734375,-0.021820068359375
1772696855548803600,4.708803466796875,-0.9922943115234375,-0.0841064453125,-0.0193939208984375
1772696855558774500,4.7187744140625,-0.9957275390625,-0.0839080810546875,-0.0139312744140625
1772696855568745700,4.728745849609375,-0.9954986572265625,-0.0809173583984375,-0.0076904296875
1772696855578716400,4.73871630859375,-0.9924774169921875,-0.07940673828125,-0.0050506591796875
1772696855588686600,4.7486865234375,-0.9905853271484375,-0.0806732177734375,-0.0021820068359375
1772696855598657500,4.758657470703125,-0.9915618896484375,-0.0832672119140625,0.0004730224609375
1772696855608628500,4.76862841796875,-0.993072509765625,-0.085113525390625,-0.0011444091796875
1772696855618599400,4.778599365234375,-0.993865966796875,-0.0861053466796875,-0.002288818359375
1772696855628570600,4.788570556640625,-0.995941162109375,-0.088897705078125,-0.0027008056640625
1772696855638541600,4.79854150390625,-0.9967193603515625,-0.0903167724609375,-0.003875732421875
1772696855648512500,4.808512451171875,-0.995880126953125,-0.0895843505859375,-0.004425048828125
1772696855658483500,4.8184833984375,-0.995208740234375,-0.0896453857421875,-0.0090484619140625
1772696855668453400,4.828453369140625,-0.9948272705078125,-0.0927734375,-0.0125732421875
1772696855678424600,4.838424560546875,-0.9985198974609375,-0.095123291015625,-0.0121002197265625
1772696855688395500,4.8483955078125,-0.9996337890625,-0.0957794189453125,-0.01025390625
1772696855698366500,4.858366455078125,-0.99786376953125,-0.0933685302734375,-0.012115478515625
1772696855708337700,4.868337646484375,-0.993499755859375,-0.0905914306640625,-0.015380859375
1772696855718308400,4.878308349609375,-0.9900360107421875,-0.088287353515625,-0.0169219970703125
1772696855728279600,4.888279541015625,-0.98773193359375,-0.0888519287109375,-0.0191192626953125
1772696855738250500,4.89825048828125,-0.98590087890625,-0.0882568359375,-0.0179595947265625
1772696855748221700,4.9082216796875,-0.986724853515625,-0.087860107421875,-0.01910400390625
1772696855758191600,4.918191650390625,-0.9869384765625,-0.089508056640625,-0.0187530517578125
1772696855768162600,4.92816259765625,-0.9892425537109375,-0.0905914306640625,-0.0186309814453125
1772696855778133500,4.938133544921875,-0.9918060302734375,-0.0889129638671875,-0.0185394287109375
1772696855788104400,4.9481044921875,-0.9971923828125,-0.0874786376953125,-0.015899658203125
1772696855798075400,4.958075439453125,-0.9988861083984375,-0.087646484375,-0.0132904052734375
1772696855808046600,4.968046630859375,-0.997589111328125,-0.08587646484375,-0.0136260986328125
1772696855818017500,4.978017578125,-0.9987030029296875,-0.0844879150390625,-0.01446533203125
1772696855827988700,4.98798876953125,-0.998382568359375,-0.0871429443359375,-0.016937255859375
1772696855837958700,4.997958740234375,-0.9970245361328125,-0.08984375,-0.016326904296875
1772696855847929600,5.0079296875,-0.9962005615234375,-0.090362548828125,-0.01702880859375
1772696855857900500,5.017900634765625,-0.99578857421875,-0.0916595458984375,-0.01861572265625
1772696855867871500,5.02787158203125,-0.9925384521484375,-0.0932769775390625,-0.0180206298828125
1772696855877842400,5.037842529296875,-0.989288330078125,-0.0934906005859375,-0.0195159912109375
1772696855887813600,5.047813720703125,-0.9842071533203125,-0.0916748046875,-0.020416259765625
1772696855897784600,5.05778466796875,-0.9786376953125,-0.088226318359375,-0.02069091796875
1772696855907755500,5.067755615234375,-0.97808837890625,-0.0854949951171875,-0.022705078125
1772696855917725400,5.077725341796875,-0.9810791015625,-0.08477783203125,-0.0269775390625
1772696855927696400,5.0876962890625,-0.9864349365234375,-0.0852813720703125,-0.0283355712890625
1772696855937667600,5.09766748046875,-0.98724365234375,-0.0872344970703125,-0.0302276611328125
1772696855947638500,5.107638427734375,-0.9845733642578125,-0.0896759033203125,-0.0290985107421875
1772696855957609500,5.117609375,-0.9875030517578125,-0.091888427734375,-0.02459716796875
1772696855967580700,5.12758056640625,-0.9915771484375,-0.094970703125,-0.01861572265625
1772696855977551400,5.13755126953125,-0.9935302734375,-0.095306396484375,-0.012664794921875
1772696855987522600,5.1475224609375,-0.9982757568359375,-0.096527099609375,-0.00872802734375
1772696855997492500,5.157492431640625,-1.0013427734375,-0.0989990234375,-0.006988525390625
1772696856007463400,5.16746337890625,-1.0036468505859375,-0.1008148193359375,-0.0087127685546875
1772696856017434600,5.1774345703125,-1.003448486328125,-0.1015472412109375,-0.0103759765625
1772696856027405600,5.187405517578125,-0.999847412109375,-0.0987548828125,-0.0160980224609375
1772696856037376500,5.19737646484375,-0.99493408203125,-0.0960693359375,-0.017822265625
1772696856047347500,5.207347412109375,-0.991668701171875,-0.0948028564453125,-0.021575927734375
1772696856057318400,5.217318359375,-0.9904327392578125,-0.094024658203125,-0.025360107421875
1772696856067289600,5.22728955078125,-0.99139404296875,-0.0963897705078125,-0.0301513671875
1772696856077259500,5.237259521484375,-0.9938201904296875,-0.0965423583984375,-0.0315704345703125
1772696856087230500,5.24723046875,-0.99407958984375,-0.0958099365234375,-0.0316009521484375
1772696856097201700,5.25720166015625,-0.993743896484375,-0.09295654296875,-0.033538818359375
1772696856107172600,5.267172607421875,-0.9891510009765625,-0.0894317626953125,-0.035003662109375
1772696856117143600,5.2771435546875,-0.987274169921875,-0.0871124267578125,-0.0286865234375
1772696856127114500,5.287114501953125,-0.9876708984375,-0.0860137939453125,-0.0268707275390625
1772696856137085400,5.29708544921875,-0.98590087890625,-0.0865936279296875,-0.0240936279296875
1772696856147056600,5.307056640625,-0.9862518310546875,-0.084716796875,-0.021942138671875
1772696856157026600,5.317026611328125,-0.9903564453125,-0.0856781005859375,-0.0232086181640625
1772696856166996500,5.32699658203125,-0.9905242919921875,-0.08697509765625,-0.0244293212890625
1772696856176967700,5.3369677734375,-0.9917755126953125,-0.086334228515625,-0.023681640625
1772696856186938600,5.346938720703125,-0.9905548095703125,-0.083740234375,-0.0243377685546875
1772696856196909300,5.356909423828125,-0.988525390625,-0.08355712890625,-0.0254974365234375
1772696856206880500,5.366880615234375,-0.992431640625,-0.082550048828125,-0.024078369140625
1772696856216851500,5.3768515625,-0.998260498046875,-0.0828857421875,-0.0201873779296875
1772696856226822700,5.38682275390625,-0.99957275390625,-0.0856475830078125,-0.019073486328125
1772696856236792600,5.39679248046875,-1.00030517578125,-0.0865631103515625,-0.01947021484375
1772696856246762000,5.406761962890625,-1.0003204345703125,-0.0877532958984375,-0.01953125
1772696856256733200,5.416733154296875,-0.9994049072265625,-0.0894622802734375,-0.0198211669921875
1772696856266704100,5.4267041015625,-0.99517822265625,-0.088714599609375,-0.0213623046875
1772696856276675000,5.436675048828125,-0.991363525390625,-0.0884857177734375,-0.022003173828125
1772696856286646000,5.44664599609375,-0.989166259765625,-0.0905609130859375,-0.022216796875
1772696856296617000,5.456616943359375,-0.985870361328125,-0.0904693603515625,-0.020263671875
1772696856306588200,5.466588134765625,-0.9881439208984375,-0.088104248046875,-0.019073486328125
1772696856316558000,5.47655810546875,-0.9920654296875,-0.08746337890625,-0.01763916015625
1772696856326529000,5.486529052734375,-0.99005126953125,-0.084716796875,-0.0166015625
1772696856336500200,5.496500244140625,-0.989288330078125,-0.0789031982421875,-0.0146942138671875
1772696856346471200,5.50647119140625,-0.992523193359375,-0.0772247314453125,-0.013671875
1772696856356441900,5.51644189453125,-0.9947509765625,-0.0810699462890625,-0.01617431640625
1772696856366413000,5.5264130859375,-0.99517822265625,-0.081939697265625,-0.01678466796875
1772696856376384000,5.536384033203125,-0.9950714111328125,-0.0822601318359375,-0.017425537109375
1772696856386355200,5.546355224609375,-0.99371337890625,-0.081634521484375,-0.0174713134765625
1772696856396325000,5.5563251953125,-0.992584228515625,-0.0829010009765625,-0.015777587890625
1772696856406296000,5.566296142578125,-0.992401123046875,-0.084869384765625,-0.01385498046875
1772696856416267300,5.576267333984375,-0.9934844970703125,-0.084075927734375,-0.01373291015625
1772696856426238000,5.586238037109375,-0.99456787109375,-0.0827178955078125,-0.0137481689453125
1772696856436209000,5.596208984375,-0.9978485107421875,-0.085479736328125,-0.0123291015625
1772696856446180000,5.60618017578125,-0.998504638671875,-0.08642578125,-0.0111846923828125
1772696856456151000,5.616151123046875,-0.997161865234375,-0.0839080810546875,-0.0117034912109375
1772696856466122200,5.626122314453125,-0.9967803955078125,-0.0838775634765625,-0.011322021484375
1772696856476093000,5.636093017578125,-0.9936065673828125,-0.0855865478515625,-0.011077880859375
1772696856486063000,5.64606298828125,-0.99200439453125,-0.0859375,-0.0107421875
1772696856496034000,5.656033935546875,-0.9911346435546875,-0.08575439453125,-0.0097198486328125
1772696856506005000,5.6660048828125,-0.9906463623046875,-0.0838623046875,-0.0084991455078125
1772696856515976000,5.675975830078125,-0.994598388671875,-0.082275390625,-0.0045013427734375
1772696856525947100,5.685947021484375,-0.9955902099609375,-0.081939697265625,-0.0017242431640625
1772696856535918000,5.69591796875,-0.9980621337890625,-0.08251953125,-0.0006256103515625
1772696856545889000,5.705888916015625,-1.0004425048828125,-0.0831146240234375,-0.0018463134765625
1772696856555860000,5.71585986328125,-0.9996795654296875,-0.083587646484375,-0.0026397705078125
1772696856565830000,5.725829833984375,-0.996490478515625,-0.081817626953125,-0.005126953125
1772696856575801000,5.735801025390625,-0.992828369140625,-0.0799407958984375,-0.00640869140625
1772696856585772000,5.74577197265625,-0.992156982421875,-0.0798187255859375,-0.008087158203125
1772696856595743200,5.7557431640625,-0.9939727783203125,-0.0824432373046875,-0.01007080078125
1772696856605714200,5.765714111328125,-0.9957275390625,-0.08526611328125,-0.0109405517578125
1772696856615684900,5.775684814453125,-0.99853515625,-0.0854339599609375,-0.014190673828125
1772696856625656000,5.785656005859375,-0.998779296875,-0.084991455078125,-0.01556396484375
1772696856635627000,5.795626953125,-0.995635986328125,-0.0837860107421875,-0.015045166015625
1772696856645597000,5.805596923828125,-0.9970855712890625,-0.0826416015625,-0.0133056640625
1772696856655568100,5.815568115234375,-0.9943084716796875,-0.0848846435546875,-0.010406494140625
1772696856665539000,5.8255390625,-0.9952850341796875,-0.084381103515625,-0.00994873046875
1772696856675510300,5.83551025390625,-0.996917724609375,-0.0840301513671875,-0.0062713623046875
1772696856685481000,5.84548095703125,-0.99871826171875,-0.0858154296875,-0.004913330078125
1772696856695452000,5.855451904296875,-0.998321533203125,-0.0872039794921875,-0.0075531005859375
1772696856705423000,5.865423095703125,-0.9974212646484375,-0.0885467529296875,-0.0084686279296875
1772696856715394000,5.87539404296875,-0.99505615234375,-0.089874267578125,-0.0080413818359375
1772696856725364000,5.885364013671875,-0.9926300048828125,-0.0910797119140625,-0.008880615234375
1772696856735335200,5.895335205078125,-0.990203857421875,-0.0925140380859375,-0.00823974609375
1772696856745306000,5.90530615234375,-0.99053955078125,-0.092620849609375,-0.00830078125
1772696856755277000,5.915277099609375,-0.9938507080078125,-0.0936126708984375,-0.007598876953125
1772696856765248000,5.925248046875,-0.9920501708984375,-0.09283447265625,-0.0081634521484375
1772696856775219000,5.935218994140625,-0.9918060302734375,-0.089324951171875,-0.0101776123046875
1772696856785190100,5.945190185546875,-0.99249267578125,-0.0859832763671875,-0.0101318359375
1772696856795161000,5.9551611328125,-0.9910736083984375,-0.088043212890625,-0.0115203857421875
1772696856805131000,5.965131103515625,-0.9953460693359375,-0.0916900634765625,-0.013397216796875
1772696856815102200,5.975102294921875,-0.9973602294921875,-0.0897979736328125,-0.0167388916015625
1772696856825073000,5.985072998046875,-0.9951629638671875,-0.0886993408203125,-0.0213165283203125
1772696856835044000,5.995044189453125,-0.9943084716796875,-0.090087890625,-0.018341064453125
1772696856845015000,6.00501513671875,-0.99725341796875,-0.090911865234375,-0.018310546875
1772696856854986000,6.014986083984375,-0.99395751953125,-0.0906219482421875,-0.0201873779296875
1772696856864957200,6.024957275390625,-0.96746826171875,-0.0839691162109375,-0.0128326416015625
1772696856874927900,6.034927978515625,-0.997894287109375,-0.0785064697265625,-0.01007080078125
1772696856884898000,6.04489794921875,-1.0196685791015625,-0.1037445068359375,-0.029327392578125
1772696856894869000,6.054868896484375,-0.98406982421875,-0.1017608642578125,-0.0108184814453125
1772696856904840000,6.06483984375,-0.9897308349609375,-0.0901336669921875,-0.013092041015625
1772696856914811100,6.07481103515625,-0.9974365234375,-0.092437744140625,-0.01531982421875
1772696856924782000,6.084781982421875,-0.99481201171875,-0.0962982177734375,-0.01617431640625
1772696856934753300,6.094753173828125,-0.988555908203125,-0.09332275390625,-0.0145721435546875
1772696856944724000,6.104723876953125,-0.9979705810546875,-0.0899810791015625,-0.0159454345703125
1772696856954695000,6.11469482421875,-0.998687744140625,-0.091827392578125,-0.0175018310546875
1772696856964665000,6.1246650390625,-0.9895172119140625,-0.0951080322265625,-0.0151214599609375
1772696856974636000,6.134635986328125,-0.987457275390625,-0.0876922607421875,-0.0177459716796875
1772696856984607000,6.14460693359375,-0.992706298828125,-0.0872802734375,-0.0172119140625
1772696856994578200,6.154578125,-0.982421875,-0.09478759765625,-0.0205535888671875
1772696857004549000,6.164549072265625,-0.983367919921875,-0.0926361083984375,-0.0189971923828125
1772696857014520000,6.17452001953125,-0.9958953857421875,-0.0937042236328125,-0.01495361328125
1772696857024491000,6.184490966796875,-0.9935150146484375,-0.0997314453125,-0.0107574462890625
1772696857034462000,6.1944619140625,-0.990631103515625,-0.10162353515625,-0.0137176513671875
1772696857044433200,6.20443310546875,-0.9901580810546875,-0.1021728515625,-0.0160980224609375
1772696857054403000,6.214403076171875,-0.9935760498046875,-0.1020660400390625,-0.0125579833984375
1772696857064374000,6.2243740234375,-0.996734619140625,-0.0975341796875,-0.01263427734375
1772696857074345200,6.23434521484375,-0.9961090087890625,-0.0947265625,-0.0124053955078125
1772696857084316000,6.24431591796875,-0.995452880859375,-0.0933074951171875,-0.01617431640625
1772696857094287000,6.254287109375,-0.9930267333984375,-0.0909881591796875,-0.0169525146484375
1772696857104258000,6.264258056640625,-0.9882354736328125,-0.087921142578125,-0.0207977294921875
1772696857114229000,6.27422900390625,-0.984954833984375,-0.086761474609375,-0.0257720947265625
1772696857124200200,6.2842001953125,-0.9805450439453125,-0.0837554931640625,-0.0302734375
1772696857134170000,6.294170166015625,-0.9805908203125,-0.08489990234375,-0.03143310546875
1772696857144141000,6.30414111328125,-0.9853057861328125,-0.08782958984375,-0.0320587158203125
1772696857154112000,6.314112060546875,-0.9886474609375,-0.0899810791015625,-0.0334930419921875
1772696857164083000,6.3240830078125,-0.989654541015625,-0.0908203125,-0.0343170166015625
1772696857174054100,6.33405419921875,-0.987030029296875,-0.0911712646484375,-0.033111572265625
1772696857184025000,6.344025146484375,-0.98736572265625,-0.0888824462890625,-0.02996826171875
1772696857193996000,6.35399609375,-0.98809814453125,-0.0874786376953125,-0.02801513671875
1772696857203967000,6.363967041015625,-0.990081787109375,-0.0871124267578125,-0.0240478515625
1772696857213937200,6.373937255859375,-0.992919921875,-0.0887451171875,-0.019989013671875
1772696857223907800,6.383907958984375,-0.9924468994140625,-0.08966064453125,-0.01513671875
1772696857233879000,6.393879150390625,-0.9967041015625,-0.09100341796875,-0.0125885009765625
1772696857243850800,6.403850830078125,-0.998138427734375,-0.094024658203125,-0.012847900390625
1772696857253821700,6.41382177734375,-0.99603271484375,-0.0946807861328125,-0.0121612548828125
1772696857263792600,6.423792724609375,-0.994384765625,-0.0942535400390625,-0.0156707763671875
1772696857273763600,6.433763671875,-0.99346923828125,-0.0948028564453125,-0.0201873779296875
1772696857283734500,6.443734619140625,-0.992645263671875,-0.0957489013671875,-0.0223846435546875
1772696857293704700,6.45370458984375,-0.99700927734375,-0.0964813232421875,-0.0217742919921875
1772696857303675600,6.463675537109375,-1.000823974609375,-0.0986328125,-0.0198211669921875
1772696857313646600,6.473646484375,-1.000946044921875,-0.0971527099609375,-0.017913818359375
1772696857323617800,6.48361767578125,-1.0019073486328125,-0.0974578857421875,-0.01885986328125
1772696857333588500,6.49358837890625,-1.0001983642578125,-0.097930908203125,-0.022064208984375
1772696857343559700,6.5035595703125,-0.997283935546875,-0.0951690673828125,-0.02581787109375
1772696857353530600,6.513530517578125,-0.9938201904296875,-0.093658447265625,-0.0252532958984375
1772696857363501600,6.52350146484375,-0.993560791015625,-0.0954437255859375,-0.0261383056640625
1772696857373471700,6.5334716796875,-0.9942169189453125,-0.09735107421875,-0.0253143310546875
1772696857383442700,6.543442626953125,-0.9929046630859375,-0.095550537109375,-0.023956298828125
1772696857393413600,6.55341357421875,-0.989837646484375,-0.0944976806640625,-0.0211181640625
1772696857403384600,6.563384521484375,-0.9877777099609375,-0.09320068359375,-0.0192718505859375
1772696857413355500,6.57335546875,-0.9870758056640625,-0.0921630859375,-0.0172119140625
1772696857423326700,6.58332666015625,-0.986297607421875,-0.0913543701171875,-0.0162811279296875
1772696857433297700,6.593297607421875,-0.9879150390625,-0.0890045166015625,-0.0160980224609375
1772696857443268600,6.6032685546875,-0.988433837890625,-0.0884246826171875,-0.0156097412109375
1772696857453238800,6.61323876953125,-0.98870849609375,-0.08941650390625,-0.0152740478515625
1772696857463209700,6.623209716796875,-0.99169921875,-0.0908660888671875,-0.0164642333984375
1772696857473180400,6.633180419921875,-0.99169921875,-0.09234619140625,-0.01837158203125
1772696857483151600,6.643151611328125,-0.9945526123046875,-0.092742919921875,-0.01873779296875
1772696857493122600,6.65312255859375,-0.9946136474609375,-0.091949462890625,-0.0204925537109375
1772696857503093800,6.66309375,-0.9912261962890625,-0.092071533203125,-0.02178955078125
1772696857513064700,6.673064697265625,-0.9915008544921875,-0.0909881591796875,-0.0225677490234375
1772696857523035600,6.68303564453125,-0.987579345703125,-0.0901031494140625,-0.02166748046875
1772696857533005800,6.693005859375,-0.9856719970703125,-0.09075927734375,-0.0240631103515625
1772696857542976500,6.7029765625,-0.9851226806640625,-0.0911865234375,-0.0249786376953125
1772696857552947700,6.71294775390625,-0.986175537109375,-0.089874267578125,-0.02532958984375
1772696857562918700,6.722918701171875,-0.988189697265625,-0.0902252197265625,-0.0270233154296875
1772696857572889600,6.7328896484375,-0.9862213134765625,-0.0897674560546875,-0.027496337890625
1772696857582860800,6.74286083984375,-0.98419189453125,-0.089019775390625,-0.0257568359375
1772696857592831500,6.75283154296875,-0.981231689453125,-0.087738037109375,-0.02313232421875
1772696857602802700,6.762802734375,-0.9859771728515625,-0.0861968994140625,-0.0208587646484375
1772696857612772600,6.772772705078125,-0.9925689697265625,-0.0887298583984375,-0.01708984375
1772696857622743600,6.78274365234375,-0.9977874755859375,-0.092010498046875,-0.0169677734375
1772696857632714800,6.79271484375,-1.0009918212890625,-0.0932464599609375,-0.0184783935546875
1772696857642685700,6.802685791015625,-0.9990081787109375,-0.0948486328125,-0.0206451416015625
1772696857652656600,6.81265673828125,-0.9992523193359375,-0.0948028564453125,-0.0246429443359375
1772696857662627600,6.822627685546875,-0.9979095458984375,-0.0944061279296875,-0.02764892578125
1772696857672598500,6.8325986328125,-0.9977569580078125,-0.0938568115234375,-0.0300750732421875
1772696857682569700,6.84256982421875,-0.999176025390625,-0.093048095703125,-0.0295257568359375
1772696857692539600,6.85253955078125,-0.996246337890625,-0.094451904296875,-0.028076171875
1772696857702510600,6.862510498046875,-0.996185302734375,-0.093475341796875,-0.0277252197265625
1772696857712481800,6.872481689453125,-1.0033416748046875,-0.097747802734375,-0.0289306640625
1772696857722452700,6.88245263671875,-0.9952239990234375,-0.09735107421875,-0.0281982421875
1772696857732423400,6.89242333984375,-0.9864044189453125,-0.08599853515625,-0.0225830078125
1772696857742394600,6.90239453125,-0.9860992431640625,-0.0820770263671875,-0.01959228515625
1772696857752365600,6.912365478515625,-0.9862518310546875,-0.0850067138671875,-0.0175933837890625
1772696857762336800,6.922336669921875,-0.983917236328125,-0.087310791015625,-0.01739501953125
1772696857772306700,6.932306640625,-0.9853973388671875,-0.0868682861328125,-0.0173797607421875
1772696857782277600,6.942277587890625,-0.989471435546875,-0.0865325927734375,-0.014862060546875
1772696857792248800,6.952248779296875,-0.9940643310546875,-0.0870361328125,-0.0141448974609375
1772696857802219500,6.962219482421875,-0.9937591552734375,-0.0885162353515625,-0.0167388916015625
1772696857812190500,6.9721904296875,-0.9910888671875,-0.088470458984375,-0.0175628662109375
1772696857822161700,6.98216162109375,-0.9923553466796875,-0.089263916015625,-0.0174560546875
1772696857832132600,6.992132568359375,-0.9929351806640625,-0.089385986328125,-0.0170745849609375
1772696857842103800,7.002103759765625,-0.99298095703125,-0.08978271484375,-0.017608642578125
1772696857852073700,7.01207373046875,-0.991180419921875,-0.089202880859375,-0.016571044921875
1772696857862044700,7.022044677734375,-0.9956817626953125,-0.0897064208984375,-0.01629638671875
1772696857872015600,7.032015625,-0.99774169921875,-0.0900115966796875,-0.01519775390625
1772696857881986600,7.041986572265625,-0.9975433349609375,-0.0882568359375,-0.01654052734375
1772696857891957800,7.051957763671875,-0.9983978271484375,-0.08990478515625,-0.0160675048828125
1772696857901928700,7.0619287109375,-0.9973297119140625,-0.0870513916015625,-0.01947021484375
1772696857911899600,7.071899658203125,-0.992919921875,-0.0869293212890625,-0.0210418701171875
1772696857921870600,7.08187060546875,-0.9920196533203125,-0.0861663818359375,-0.0218963623046875
1772696857931840800,7.0918408203125,-0.991455078125,-0.08636474609375,-0.022552490234375
1772696857941811500,7.1018115234375,-0.994598388671875,-0.0886993408203125,-0.022979736328125
1772696857951782700,7.11178271484375,-0.9958038330078125,-0.0904693603515625,-0.0233306884765625
1772696857961753600,7.121753662109375,-0.994659423828125,-0.0910186767578125,-0.0232391357421875
1772696857971724800,7.131724853515625,-0.9928131103515625,-0.0891876220703125,-0.021728515625
1772696857981695700,7.14169580078125,-0.9919586181640625,-0.08758544921875,-0.020965576171875
1772696857991666400,7.15166650390625,-0.9912261962890625,-0.0854644775390625,-0.0195770263671875
1772696858001637600,7.1616376953125,-0.991424560546875,-0.086944580078125,-0.0171966552734375
1772696858011607600,7.171607666015625,-0.992706298828125,-0.0870513916015625,-0.0154571533203125
1772696858021578500,7.18157861328125,-0.997314453125,-0.08642578125,-0.0159912109375
1772696858031549700,7.1915498046875,-0.9983062744140625,-0.0889739990234375,-0.0164794921875
1772696858041520600,7.201520751953125,-0.9991455078125,-0.088409423828125,-0.0153350830078125
1772696858051491800,7.211491943359375,-0.996917724609375,-0.0821990966796875,-0.0150909423828125
1772696858061462500,7.221462646484375,-0.9960479736328125,-0.074615478515625,-0.0137481689453125
1772696858071433500,7.23143359375,-0.99432373046875,-0.071746826171875,-0.0188751220703125
1772696858081404700,7.24140478515625,-0.989654541015625,-0.066925048828125,-0.036834716796875
1772696858091374600,7.25137451171875,-0.9942626953125,-0.0759429931640625,-0.02166748046875
1772696858101345500,7.261345458984375,-0.9957122802734375,-0.082427978515625,-0.0025634765625
1772696858111316700,7.271316650390625,-1.0032501220703125,-0.082061767578125,-0.020782470703125
1772696858121287700,7.28128759765625,-0.999298095703125,-0.0782318115234375,-0.0257415771484375
1772696858131258600,7.291258544921875,-0.99114990234375,-0.0755615234375,-0.0162353515625
1772696858141229600,7.3012294921875,-0.9894256591796875,-0.0849609375,-0.016571044921875
1772696858151200500,7.311200439453125,-0.993499755859375,-0.0855865478515625,-0.016876220703125
1772696858161171700,7.321171630859375,-0.9953765869140625,-0.07952880859375,-0.01019287109375
1772696858171142700,7.331142578125,-0.988433837890625,-0.079010009765625,-0.0089874267578125
1772696858181112600,7.341112548828125,-0.9914703369140625,-0.08026123046875,-0.0091705322265625
1772696858191083800,7.351083740234375,-0.9947967529296875,-0.082977294921875,-0.0127410888671875
1772696858201054500,7.361054443359375,-0.9889678955078125,-0.0823211669921875,-0.0140380859375
1772696858211025700,7.371025634765625,-0.986846923828125,-0.07965087890625,-0.0150299072265625
1772696858220996600,7.38099658203125,-0.9886474609375,-0.078643798828125,-0.0142822265625
1772696858230967800,7.3909677734375,-0.98577880859375,-0.0794525146484375,-0.013580322265625
1772696858240938800,7.400938720703125,-0.9849853515625,-0.079925537109375,-0.01336669921875
1772696858250908700,7.41090869140625,-0.9873809814453125,-0.0806427001953125,-0.014190673828125
1772696858260880000,7.4208798828125,-0.9940185546875,-0.084808349609375,-0.0156097412109375
1772696858270850600,7.4308505859375,-0.9954376220703125,-0.086212158203125,-0.0137481689453125
1772696858280821800,7.44082177734375,-0.9950408935546875,-0.0824127197265625,-0.013885498046875
1772696858290792700,7.450792724609375,-0.9962921142578125,-0.0809783935546875,-0.0135345458984375
1772696858300763600,7.460763671875,-1.0002899169921875,-0.0828857421875,-0.0114288330078125
1772696858310734800,7.47073486328125,-1.0035400390625,-0.085540771484375,-0.008331298828125
1772696858320705500,7.48070556640625,-1.0034332275390625,-0.083587646484375,-0.0069580078125
1772696858330675700,7.49067578125,-1.0034332275390625,-0.082672119140625,-0.0109405517578125
1772696858340646700,7.500646728515625,-1.00714111328125,-0.08697509765625,-0.01202392578125
1772696858350617600,7.51061767578125,-1.0038299560546875,-0.0897979736328125,-0.0100555419921875
1772696858360588800,7.5205888671875,-0.999053955078125,-0.089447021484375,-0.0140380859375
1772696858370559700,7.530559814453125,-0.9972076416015625,-0.0880279541015625,-0.0146026611328125
1772696858380530700,7.54053076171875,-0.9954071044921875,-0.0881500244140625,-0.01348876953125
1772696858390501600,7.550501708984375,-0.9947509765625,-0.0879669189453125,-0.0139617919921875
1772696858400472600,7.56047265625,-0.9954986572265625,-0.0876007080078125,-0.0143585205078125
1772696858410442500,7.5704423828125,-0.991302490234375,-0.088958740234375,-0.01177978515625
1772696858420413700,7.58041357421875,-0.9895477294921875,-0.0878753662109375,-0.0102386474609375
1772696858430384600,7.590384521484375,-0.98443603515625,-0.0851593017578125,-0.0095367431640625
1772696858440355800,7.60035595703125,-0.989227294921875,-0.08050537109375,-0.0078277587890625
1772696858450326800,7.610326904296875,-0.992828369140625,-0.079559326171875,-0.0090179443359375
1772696858460297500,7.62029736328125,-0.9959716796875,-0.079132080078125,-0.010955810546875
1772696858470268700,7.6302685546875,-0.9970703125,-0.0782928466796875,-0.0128173828125
1772696858480239600,7.640239501953125,-0.99810791015625,-0.0785980224609375,-0.0152587890625
1772696858490209500,7.65020947265625,-0.9976043701171875,-0.0822601318359375,-0.017242431640625
1772696858500180700,7.6601806640625,-0.99835205078125,-0.0844879150390625,-0.016387939453125
1772696858510151700,7.670151611328125,-1.00469970703125,-0.0836029052734375,-0.0163726806640625
1772696858520123000,7.680122802734375,-1.00390625,-0.0818939208984375,-0.0182342529296875
1772696858530093600,7.690093505859375,-1.0016021728515625,-0.0823516845703125,-0.0152587890625
1772696858540064500,7.700064453125,-1.0031280517578125,-0.0853118896484375,-0.0158538818359375
1772696858550035700,7.71003564453125,-1.0035247802734375,-0.08416748046875,-0.01568603515625
1772696858560006700,7.720006591796875,-1.0088653564453125,-0.08013916015625,-0.0286102294921875
1772696858569976600,7.7299765625,-1.011199951171875,-0.0965576171875,-0.0131683349609375
1772696858579947800,7.73994775390625,-1.001983642578125,-0.101287841796875,0.0047760009765625
1772696858589918700,7.749918701171875,-0.999267578125,-0.090545654296875,-0.0145263671875
1772696858599889700,7.7598896484375,-0.9902191162109375,-0.0903472900390625,-0.013092041015625
1772696858609860600,7.769860595703125,-0.9857330322265625,-0.0912628173828125,-0.012664794921875
1772696858619831800,7.779831787109375,-0.983123779296875,-0.0929718017578125,-0.0137176513671875
1772696858629802800,7.789802734375,-0.977447509765625,-0.0974884033203125,-0.01513671875
1772696858639773700,7.799773681640625,-0.979766845703125,-0.0897674560546875,-0.0163116455078125
1772696858649744000,7.809743896484375,-0.98114013671875,-0.085784912109375,-0.018768310546875
1772696858659714800,7.81971484375,-0.9792022705078125,-0.0924530029296875,-0.0194091796875
1772696858669685500,7.829685546875,-0.980224609375,-0.0960845947265625,-0.0207366943359375
1772696858679656700,7.83965673828125,-0.9802398681640625,-0.0992889404296875,-0.014129638671875
1772696858689627600,7.849627685546875,-0.9844818115234375,-0.0999603271484375,-0.0203399658203125
1772696858699598800,7.859598876953125,-0.983642578125,-0.09918212890625,-0.014892578125
1772696858709569800,7.86956982421875,-0.991546630859375,-0.100006103515625,-0.0146484375
1772696858719540500,7.87954052734375,-0.99603271484375,-0.1009063720703125,-0.0125732421875
1772696858729511000,7.889510986328125,-0.9993896484375,-0.0982208251953125,-0.0097503662109375
1772696858739481600,7.899481689453125,-0.99774169921875,-0.0976409912109375,-0.0133819580078125
1772696858749452500,7.90945263671875,-0.993682861328125,-0.1082916259765625,-0.01220703125
1772696858759423700,7.919423828125,-0.9964599609375,-0.10418701171875,-0.0097198486328125
1772696858769394700,7.929394775390625,-1.000762939453125,-0.1015167236328125,-0.0140380859375
1772696858779366000,7.939365966796875,-0.9956207275390625,-0.1046142578125,-0.01824951171875
1772696858789336600,7.949336669921875,-0.9923248291015625,-0.1053619384765625,-0.0203857421875
1772696858799307500,7.9593076171875,-0.994964599609375,-0.1068878173828125,-0.0216827392578125
1772696858809277700,7.969277587890625,-0.9928131103515625,-0.1078033447265625,-0.022064208984375
1772696858819248600,7.97924853515625,-0.9900360107421875,-0.108612060546875,-0.0233306884765625
1772696858829219600,7.989219482421875,-0.9903106689453125,-0.1062774658203125,-0.022308349609375
1772696858839190800,7.999190673828125,-0.98907470703125,-0.1037445068359375,-0.0198516845703125
1772696858849161700,8.00916162109375,-0.98614501953125,-0.10107421875,-0.017547607421875
1772696858859132700,8.019132568359375,-0.9879608154296875,-0.100799560546875,-0.0166168212890625
1772696858869103600,8.029103515625,-0.98773193359375,-0.0982666015625,-0.0158538818359375
1772696858879073500,8.039073486328125,-0.9866485595703125,-0.094390869140625,-0.015380859375
1772696858889044700,8.049044677734376,-0.9915008544921875,-0.0930328369140625,-0.01385498046875
1772696858899015700,8.059015625,-0.993377685546875,-0.096923828125,-0.0135650634765625
1772696858908986600,8.068986572265626,-0.9923248291015625,-0.0997772216796875,-0.01324462890625
1772696858918957800,8.078957763671875,-0.9906768798828125,-0.10113525390625,-0.0132904052734375
1772696858928928500,8.088928466796874,-0.9914398193359375,-0.103363037109375,-0.0143890380859375
1772696858938899700,8.098899658203125,-0.99114990234375,-0.106109619140625,-0.0148162841796875
1772696858948870700,8.10887060546875,-0.9914398193359375,-0.10748291015625,-0.014739990234375
1772696858958840600,8.118840576171875,-0.992401123046875,-0.10760498046875,-0.0144805908203125
1772696858968811800,8.128811767578124,-0.99200439453125,-0.107818603515625,-0.0140228271484375
1772696858978782700,8.13878271484375,-0.9921417236328125,-0.10748291015625,-0.013397216796875
1772696858988754000,8.14875390625,-0.988067626953125,-0.1066436767578125,-0.014862060546875
1772696858998724600,8.158724609375,-0.98492431640625,-0.104095458984375,-0.0156097412109375
1772696859008695600,8.168695556640625,-0.9864959716796875,-0.101593017578125,-0.0153045654296875
1772696859018666800,8.178666748046876,-0.9888458251953125,-0.102020263671875,-0.015869140625
1772696859028637700,8.1886376953125,-0.9886016845703125,-0.1019744873046875,-0.0160675048828125
1772696859038607600,8.198607666015626,-0.98828125,-0.1014404296875,-0.0162200927734375
1772696859048578800,8.208578857421875,-0.988555908203125,-0.102752685546875,-0.0174102783203125
1772696859058549800,8.2185498046875,-0.9863128662109375,-0.104705810546875,-0.017547607421875
1772696859068520700,8.228520751953125,-0.9892425537109375,-0.1039581298828125,-0.0191802978515625
1772696859078491600,8.23849169921875,-0.989776611328125,-0.104583740234375,-0.0167083740234375
1772696859088462600,8.248462646484375,-0.99267578125,-0.10467529296875,-0.014801025390625
1772696859098433800,8.258433837890625,-0.9933624267578125,-0.101898193359375,-0.0140838623046875
1772696859108404700,8.26840478515625,-0.9947967529296875,-0.1003570556640625,-0.0142059326171875
1772696859118374700,8.278374755859375,-0.996917724609375,-0.103179931640625,-0.0142822265625
1772696859128345600,8.288345703125,-0.9979095458984375,-0.105133056640625,-0.01336669921875
1772696859138316500,8.298316650390625,-0.9982757568359375,-0.1047515869140625,-0.0141448974609375
1772696859148287700,8.308287841796876,-0.9987335205078125,-0.1054840087890625,-0.016357421875
1772696859158258700,8.3182587890625,-0.997802734375,-0.1039276123046875,-0.01702880859375
1772696859168229600,8.328229736328124,-0.996185302734375,-0.1046142578125,-0.0188446044921875
1772696859178200800,8.338200927734375,-0.98876953125,-0.1025238037109375,-0.0170745849609375
1772696859188171500,8.348171630859374,-0.98834228515625,-0.1018218994140625,-0.0149078369140625
1772696859198141700,8.3581416015625,-0.9871063232421875,-0.103363037109375,-0.0156097412109375
1772696859208112600,8.368112548828124,-0.9874725341796875,-0.1052398681640625,-0.014739990234375
1772696859218083600,8.37808349609375,-0.991241455078125,-0.1086883544921875,-0.0135040283203125
1772696859228054800,8.3880546875,-0.994598388671875,-0.1128387451171875,-0.01214599609375
1772696859238025700,8.398025634765625,-0.9930877685546875,-0.1138153076171875,-0.0111083984375
1772696859247996700,8.40799658203125,-0.9876861572265625,-0.111846923828125,-0.0104827880859375
1772696859257967600,8.417967529296876,-0.9839630126953125,-0.1072845458984375,-0.0061492919921875
1772696859267938600,8.4279384765625,-0.986114501953125,-0.10443115234375,-0.0030975341796875
1772696859277908500,8.437908447265626,-0.9880828857421875,-0.103607177734375,-0.0018310546875
1772696859287879700,8.447879638671875,-0.9911651611328125,-0.103851318359375,-0.00115966796875
1772696859297850600,8.4578505859375,-0.9925994873046875,-0.103240966796875,-0.002655029296875
1772696859307821800,8.46782177734375,-0.990142822265625,-0.1016998291015625,-0.006103515625
1772696859317792800,8.477792724609374,-0.9864501953125,-0.1016387939453125,-0.0128326416015625
1772696859327763500,8.487763427734375,-0.9853363037109375,-0.1008453369140625,-0.0180816650390625
1772696859337734700,8.497734619140624,-0.98809814453125,-0.0992279052734375,-0.0221710205078125
1772696859347705600,8.50770556640625,-0.98626708984375,-0.096435546875,-0.0211181640625
1772696859357675500,8.517675537109374,-0.985107421875,-0.0955657958984375,-0.0179901123046875
1772696859367646700,8.527646728515625,-0.9865875244140625,-0.094573974609375,-0.0175628662109375
1772696859377617700,8.53761767578125,-0.9891204833984375,-0.0947723388671875,-0.0176239013671875
1772696859387588900,8.5475888671875,-0.9934234619140625,-0.095947265625,-0.018310546875
1772696859397559600,8.5575595703125,-0.99609375,-0.09613037109375,-0.015899658203125
1772696859407530500,8.567530517578126,-0.9952392578125,-0.0958251953125,-0.01434326171875
1772696859417501700,8.577501708984375,-0.9940185546875,-0.095489501953125,-0.0124053955078125
1772696859427472600,8.58747265625,-0.9952850341796875,-0.096099853515625,-0.01043701171875
1772696859437442600,8.597442626953125,-0.9970550537109375,-0.096221923828125,-0.0092010498046875
1772696859447413800,8.607413818359374,-0.9984588623046875,-0.0961456298828125,-0.0082244873046875
1772696859457384700,8.617384765625,-0.997039794921875,-0.0954437255859375,-0.0101165771484375
1772696859467355600,8.627355712890624,-0.998687744140625,-0.0943756103515625,-0.0091552734375
1772696859477326600,8.63732666015625,-0.995758056640625,-0.095123291015625,-0.009063720703125
1772696859487297500,8.647297607421875,-0.9858245849609375,-0.0943145751953125,-0.007232666015625
1772696859497268700,8.657268798828126,-0.98699951171875,-0.0945892333984375,-0.0092010498046875
1772696859507238700,8.66723876953125,-0.988494873046875,-0.09613037109375,-0.0112762451171875
1772696859517209600,8.677209716796876,-0.987640380859375,-0.094970703125,-0.0076141357421875
1772696859527180500,8.6871806640625,-0.987701416015625,-0.0912628173828125,-0.0014801025390625
1772696859537151500,8.6971513671875,-0.9835357666015625,-0.09326171875,-0.0024261474609375
1772696859547122700,8.707122802734375,-0.980743408203125,-0.093994140625,-0.005279541015625
1772696859557093600,8.71709375,-0.9826202392578125,-0.093597412109375,-0.00640869140625
1772696859567064800,8.72706494140625,-0.98773193359375,-0.0942535400390625,-0.0085296630859375
1772696859577035800,8.737035888671874,-0.9928436279296875,-0.0956878662109375,-0.0129547119140625
1772696859587006500,8.74700634765625,-0.9999542236328125,-0.0936431884765625,-0.0138702392578125
1772696859596976600,8.7569765625,-1.0010833740234375,-0.08673095703125,-0.0066070556640625
1772696859606947600,8.766947509765625,-1.0077972412109375,-0.0853424072265625,0.00128173828125
1772696859616918500,8.77691845703125,-1.0112152099609375,-0.0876617431640625,0.0015106201171875
1772696859626889700,8.7868896484375,-0.9964599609375,-0.0885772705078125,-0.0057525634765625
1772696859636860700,8.796860595703125,-0.9873809814453125,-0.0870819091796875,-0.009063720703125
1772696859646831900,8.806831787109376,-0.99322509765625,-0.088623046875,-0.0094451904296875
1772696859656802600,8.816802490234375,-1.0002899169921875,-0.0911407470703125,-0.0087738037109375
1772696859666773500,8.8267734375,-1.0064544677734375,-0.087127685546875,0.0001220703125
1772696859676743700,8.83674365234375,-1.00787353515625,-0.0889434814453125,-0.0038604736328125
1772696859686714600,8.846714599609374,-1.0046844482421875,-0.088653564453125,-0.003662109375
1772696859696685600,8.856685546875,-0.994293212890625,-0.0796356201171875,0.00079345703125
1772696859706656800,8.86665673828125,-0.983428955078125,-0.0810089111328125,-0.0033416748046875
1772696859716627700,8.876627685546875,-0.9834747314453125,-0.0883941650390625,-0.00897216796875
1772696859726598700,8.8865986328125,-1.00439453125,-0.095703125,-0.014495849609375
1772696859736569600,8.896569580078125,-1.0000152587890625,-0.091949462890625,-0.0181732177734375
1772696859746539500,8.90653955078125,-0.9976806640625,-0.0740509033203125,-0.0186767578125
1772696859756510700,8.9165107421875,-0.9904022216796875,-0.0671234130859375,-0.0149993896484375
1772696859766481700,8.926481689453125,-0.9813079833984375,-0.069091796875,-0.0214691162109375
1772696859776452600,8.93645263671875,-0.9791412353515625,-0.0771636962890625,-0.0255889892578125
1772696859786423800,8.946423828125,-0.98858642578125,-0.08563232421875,-0.017730712890625
1772696859796394500,8.95639453125,-1.0068206787109375,-0.093017578125,-0.0126495361328125
1772696859806365700,8.96636572265625,-1.0069732666015625,-0.096221923828125,-0.0169830322265625
1772696859816336600,8.976336669921874,-0.9918060302734375,-0.090087890625,-0.01318359375
1772696859826306600,8.986306640625,-0.9853057861328125,-0.0882110595703125,-0.0122833251953125
1772696859836277800,8.99627783203125,-0.98931884765625,-0.0892333984375,-0.0133209228515625
1772696859846248700,9.006248779296875,-0.9942779541015625,-0.0861663818359375,-0.0118408203125
1772696859856219600,9.0162197265625,-1.0019683837890625,-0.0854644775390625,-0.008331298828125
1772696859866190600,9.026190673828125,-0.9971160888671875,-0.084197998046875,-0.013336181640625
1772696859876161500,9.03616162109375,-0.9951171875,-0.081390380859375,-0.0176239013671875
1772696859886132700,9.0461328125,-0.9951934814453125,-0.07763671875,-0.0233154296875
1772696859896103700,9.056103759765625,-0.9965667724609375,-0.07818603515625,-0.02764892578125
1772696859906073600,9.066073486328126,-0.9996185302734375,-0.0815887451171875,-0.0286712646484375
1772696859916044800,9.076044921875,-1.003387451171875,-0.0835113525390625,-0.0287017822265625
1772696859926015500,9.086015380859376,-1.001739501953125,-0.0817413330078125,-0.026092529296875
1772696859935986700,9.095986572265625,-0.996856689453125,-0.0807952880859375,-0.0231781005859375
1772696859945957600,9.10595751953125,-0.9962310791015625,-0.08563232421875,-0.0250244140625
1772696859955928600,9.115928466796875,-0.9970245361328125,-0.0878448486328125,-0.0242767333984375
1772696859965899800,9.125899658203124,-0.998779296875,-0.0869293212890625,-0.0213165283203125
1772696859975870700,9.13587060546875,-0.9934844970703125,-0.0873870849609375,-0.018280029296875
1772696859985840600,9.145840576171874,-0.9879608154296875,-0.083984375,-0.01385498046875
1772696859995811600,9.1558115234375,-0.9925079345703125,-0.0820465087890625,-0.015899658203125
1772696860005782500,9.165782470703125,-0.991729736328125,-0.0806121826171875,-0.0184478759765625
1772696860015753700,9.175753662109376,-0.9842376708984375,-0.076995849609375,-0.0196075439453125
1772696860025724700,9.185724609375,-0.9774932861328125,-0.0682525634765625,-0.01617431640625
1772696860035695600,9.195695556640626,-0.9841461181640625,-0.0688934326171875,-0.0129547119140625
1772696860045666800,9.205666748046875,-0.929107666015625,-0.0537261962890625,0.005859375
1772696860055637500,9.215637451171874,-0.996917724609375,-0.0695343017578125,-0.0025634765625
1772696860065607400,9.225607421875,-1.007965087890625,-0.0856781005859375,-0.030426025390625
1772696860075578600,9.23557861328125,-1.00933837890625,-0.0904541015625,-0.0363311767578125
1772696860085549600,9.245549560546875,-1.011199951171875,-0.0875396728515625,-0.017181396484375
1772696860095520800,9.255520751953124,-1.0142364501953125,-0.0931396484375,-0.025054931640625
1772696860105491700,9.26549169921875,-1.02178955078125,-0.093597412109375,-0.027984619140625
1772696860115462700,9.275462646484375,-1.0200042724609375,-0.0933074951171875,-0.03125
1772696860125433600,9.28543359375,-1.01544189453125,-0.0954742431640625,-0.0339508056640625
1772696860135404500,9.295404541015625,-1.0131378173828125,-0.09344482421875,-0.029541015625
1772696860145374500,9.30537451171875,-0.992034912109375,-0.075653076171875,-0.0276947021484375
1772696860155345700,9.315345703125,-0.963714599609375,-0.0489349365234375,-0.0230712890625
