time,seconds_elapsed,z,y,x
1772457908197223400,0.061223388671875,-0.9328765869140625,-0.3209075927734375,0.0393218994140625
1772457908207291400,0.07129150390625,-0.92840576171875,-0.3236541748046875,0.0360870361328125
1772457908217359600,0.081359619140625,-0.9100494384765625,-0.32452392578125,0.035919189453125
1772457908227427600,0.091427490234375,-0.9066925048828125,-0.3257904052734375,0.037750244140625
1772457908237496300,0.101496337890625,-0.9233551025390625,-0.318115234375,0.0360565185546875
1772457908247564300,0.111564208984375,-0.9241943359375,-0.3086090087890625,0.039031982421875
1772457908257632500,0.121632568359375,-0.9102935791015625,-0.30206298828125,0.0516204833984375
1772457908267700500,0.131700439453125,-0.8965911865234375,-0.296478271484375,0.070068359375
1772457908277768400,0.1417685546875,-0.888641357421875,-0.28955078125,0.0826568603515625
1772457908287836400,0.15183642578125,-0.8994140625,-0.2814178466796875,0.082000732421875
1772457908297904400,0.161904296875,-0.9133148193359375,-0.2702789306640625,0.0826873779296875
1772457908307972400,0.171972412109375,-0.9052886962890625,-0.2596893310546875,0.0928802490234375
1772457908318040300,0.182040283203125,-0.906463623046875,-0.2579803466796875,0.1005096435546875
1772457908328108300,0.1921083984375,-0.923583984375,-0.25518798828125,0.09814453125
1772457908338177500,0.202177490234375,-0.9429473876953125,-0.2549591064453125,0.089569091796875
1772457908348245500,0.21224560546875,-0.9702606201171875,-0.2529296875,0.0732574462890625
1772457908358313200,0.222313232421875,-0.997650146484375,-0.2462005615234375,0.0538330078125
1772457908368381400,0.23238134765625,-1.0117340087890625,-0.242156982421875,0.04541015625
1772457908378449400,0.242449462890625,-1.0190277099609375,-0.2402496337890625,0.039581298828125
1772457908388517400,0.252517333984375,-1.028717041015625,-0.2371063232421875,0.0325775146484375
1772457908398585300,0.26258544921875,-1.0428924560546875,-0.2363433837890625,0.0204925537109375
1772457908408653600,0.272653564453125,-1.056915283203125,-0.233001708984375,0.00714111328125
1772457908418721500,0.282721435546875,-1.0590362548828125,-0.231414794921875,0.0048828125
1772457908428789500,0.29278955078125,-1.04217529296875,-0.2374420166015625,0.0169525146484375
1772457908438858200,0.302858154296875,-1.025146484375,-0.2438812255859375,0.0290985107421875
1772457908448926500,0.312926513671875,-1.0163421630859375,-0.2483673095703125,0.029083251953125
1772457908458994400,0.322994384765625,-1.01348876953125,-0.2511444091796875,0.0258331298828125
1772457908469062400,0.3330625,-1.0006866455078125,-0.2541351318359375,0.024688720703125
1772457908479130400,0.34313037109375,-0.981903076171875,-0.2603607177734375,0.025238037109375
1772457908489198300,0.3531982421875,-0.96466064453125,-0.267333984375,0.02685546875
1772457908499266300,0.363266357421875,-0.9636383056640625,-0.2710113525390625,0.0207061767578125
1772457908509334300,0.373334228515625,-0.9677886962890625,-0.2679443359375,0.0138397216796875
1772457908519402500,0.383402587890625,-0.970123291015625,-0.2654266357421875,0.0072021484375
1772457908529470500,0.393470458984375,-0.9698028564453125,-0.26043701171875,0.0018310546875
1772457908539538400,0.403538330078125,-0.966766357421875,-0.25897216796875,-0.0018768310546875
1772457908549607200,0.413607177734375,-0.959716796875,-0.2556304931640625,-0.002288818359375
1772457908559675400,0.42367529296875,-0.953369140625,-0.2458953857421875,-0.004638671875
1772457908569743400,0.433743408203125,-0.9532470703125,-0.227996826171875,-0.0091400146484375
1772457908579811300,0.443811279296875,-0.948089599609375,-0.212066650390625,-0.0020599365234375
1772457908589879300,0.45387939453125,-0.9359130859375,-0.2030029296875,0.0148773193359375
1772457908599947500,0.463947509765625,-0.9251251220703125,-0.197601318359375,0.0368499755859375
1772457908610015500,0.474015380859375,-0.9221343994140625,-0.1970062255859375,0.0488433837890625
1772457908620083500,0.48408349609375,-0.92218017578125,-0.1989898681640625,0.054931640625
1772457908630151200,0.494151123046875,-0.9184112548828125,-0.20391845703125,0.0570068359375
1772457908640219400,0.504219482421875,-0.9085845947265625,-0.2081146240234375,0.0559234619140625
1772457908650288400,0.514288330078125,-0.900909423828125,-0.21417236328125,0.0496368408203125
1772457908660356400,0.5243564453125,-0.8998260498046875,-0.215118408203125,0.0373077392578125
1772457908670424600,0.534424560546875,-0.901519775390625,-0.2178802490234375,0.0222625732421875
1772457908680492300,0.5444921875,-0.9146270751953125,-0.2225189208984375,0.0035247802734375
1772457908690560300,0.554560302734375,-0.9246368408203125,-0.2213592529296875,-0.0141448974609375
1772457908700628200,0.564628173828125,-0.9324493408203125,-0.2194671630859375,-0.0281982421875
1772457908710696400,0.574696533203125,-0.940765380859375,-0.2203216552734375,-0.0359039306640625
1772457908720764400,0.584764404296875,-0.9585723876953125,-0.2224273681640625,-0.040863037109375
1772457908730832400,0.594832275390625,-0.9739532470703125,-0.22357177734375,-0.0412445068359375
1772457908740900400,0.604900390625,-0.9779815673828125,-0.2251739501953125,-0.033355712890625
1772457908750968600,0.614968505859375,-0.9788970947265625,-0.231781005859375,-0.0137786865234375
1772457908761037300,0.625037353515625,-0.9831695556640625,-0.243316650390625,0.00482177734375
1772457908771105300,0.635105224609375,-0.99359130859375,-0.2530975341796875,0.0090179443359375
1772457908781173500,0.645173583984375,-1.007080078125,-0.262481689453125,0
1772457908791241500,0.655241455078125,-1.00921630859375,-0.2745819091796875,-0.00537109375
1772457908801309400,0.665309326171875,-0.9967803955078125,-0.2847442626953125,-0.00177001953125
1772457908811377400,0.67537744140625,-0.9730072021484375,-0.297027587890625,0.0061492919921875
1772457908821445400,0.6854453125,-0.9530487060546875,-0.3098297119140625,0.0121307373046875
1772457908831513300,0.695513427734375,-0.9368743896484375,-0.3201446533203125,0.01715087890625
1772457908841581300,0.705581298828125,-0.9305267333984375,-0.3341522216796875,0.015594482421875
1772457908851649300,0.715649169921875,-0.9428863525390625,-0.341644287109375,0.0052337646484375
1772457908861718500,0.725718505859375,-0.944366455078125,-0.342041015625,-0.0050506591796875
1772457908871786200,0.7357861328125,-0.9311676025390625,-0.344696044921875,-0.0037078857421875
1772457908881854200,0.745854248046875,-0.9213714599609375,-0.3473052978515625,0.008087158203125
1772457908891922400,0.75592236328125,-0.9206695556640625,-0.348297119140625,0.00872802734375
1772457908901990400,0.765990478515625,-0.932647705078125,-0.3473052978515625,-0.0015716552734375
1772457908912058400,0.776058349609375,-0.9388427734375,-0.3361968994140625,-0.005615234375
1772457908922126300,0.786126220703125,-0.9398040771484375,-0.3246917724609375,-0.0041351318359375
1772457908932194600,0.796194580078125,-0.9493408203125,-0.3129119873046875,0.001312255859375
1772457908942262500,0.806262451171875,-0.9607086181640625,-0.291748046875,0.0048370361328125
1772457908952330200,0.816330322265625,-0.9638214111328125,-0.2770233154296875,0.0157012939453125
1772457908962398200,0.826398193359375,-0.963531494140625,-0.2652740478515625,0.03155517578125
1772457908972467500,0.836467529296875,-0.9642486572265625,-0.253997802734375,0.040283203125
1772457908982535400,0.846535400390625,-0.9692840576171875,-0.2444915771484375,0.040069580078125
1772457908992603400,0.856603271484375,-0.9700927734375,-0.2389984130859375,0.036895751953125
1772457909002671400,0.86667138671875,-0.9642181396484375,-0.2378387451171875,0.03778076171875
1772457909012739300,0.8767392578125,-0.9575042724609375,-0.2393035888671875,0.039703369140625
1772457909022807300,0.886807373046875,-0.952972412109375,-0.2404022216796875,0.034576416015625
1772457909032875300,0.896875244140625,-0.95379638671875,-0.241973876953125,0.0241546630859375
1772457909042943500,0.906943603515625,-0.957611083984375,-0.24761962890625,0.01019287109375
1772457909053011500,0.917011474609375,-0.9678192138671875,-0.257049560546875,-0.004730224609375
1772457909063079400,0.927079345703125,-0.9658355712890625,-0.2662811279296875,-0.0168914794921875
1772457909073148400,0.9371484375,-0.9539337158203125,-0.2749481201171875,-0.016082763671875
1772457909083216400,0.94721630859375,-0.9437255859375,-0.280914306640625,-0.010101318359375
1772457909093284400,0.957284423828125,-0.9353790283203125,-0.2867431640625,-0.004180908203125
1772457909103352300,0.967352294921875,-0.93914794921875,-0.289947509765625,-0.00836181640625
1772457909113420500,0.977420654296875,-0.9549407958984375,-0.2906494140625,-0.01861572265625
1772457909123488500,0.987488525390625,-0.963134765625,-0.28912353515625,-0.0203704833984375
1772457909133556500,0.997556396484375,-0.954193115234375,-0.288299560546875,-0.0149078369140625
1772457909143624200,1.007624267578125,-0.9373779296875,-0.284942626953125,-0.0096435546875
1772457909153692400,1.0176923828125,-0.9239349365234375,-0.281463623046875,-0.004302978515625
1772457909163760400,1.027760498046875,-0.9178466796875,-0.278778076171875,-0.00347900390625
1772457909173829400,1.037829345703125,-0.91412353515625,-0.2758331298828125,-0.0013580322265625
1772457909183897600,1.047897705078125,-0.9167327880859375,-0.2708587646484375,-0.002197265625
1772457909193965300,1.05796533203125,-0.919708251953125,-0.2666015625,-0.0025177001953125
1772457909204033300,1.068033203125,-0.9229736328125,-0.2689056396484375,0.00079345703125
1772457909214101200,1.078101318359375,-0.920745849609375,-0.2635650634765625,0.001312255859375
1772457909224169500,1.08816943359375,-0.9221954345703125,-0.2625885009765625,0.0056610107421875
1772457909234237400,1.098237548828125,-0.92364501953125,-0.263671875,0.008392333984375
1772457909244305400,1.108305419921875,-0.925018310546875,-0.2633056640625,0.0128021240234375
1772457909254373400,1.118373291015625,-0.9344635009765625,-0.262664794921875,0.0196685791015625
1772457909264441000,1.128441162109375,-0.9479217529296875,-0.26251220703125,0.023590087890625
1772457909274509000,1.138509033203125,-0.9568634033203125,-0.265106201171875,0.0278167724609375
1772457909284578000,1.148578125,-0.9615478515625,-0.2679595947265625,0.0265655517578125
1772457909294646000,1.15864599609375,-0.9667816162109375,-0.2736968994140625,0.026519775390625
1772457909304714000,1.1687138671875,-0.9778594970703125,-0.278167724609375,0.02459716796875
1772457909314782200,1.1787822265625,-0.994842529296875,-0.2805633544921875,0.0235443115234375
1772457909324850200,1.18885009765625,-1.0098114013671875,-0.279571533203125,0.0203704833984375
1772457909334918100,1.198918212890625,-1.0249481201171875,-0.2754364013671875,0.0234375
1772457909344985900,1.20898583984375,-1.0400848388671875,-0.274566650390625,0.0251617431640625
1772457909355054000,1.21905419921875,-1.0553741455078125,-0.2769317626953125,0.024810791015625
1772457909365122000,1.2291220703125,-1.0706024169921875,-0.280670166015625,0.0252685546875
1772457909375190000,1.23918994140625,-1.0751800537109375,-0.298492431640625,0.033660888671875
1772457909385258000,1.249258056640625,-1.057159423828125,-0.30767822265625,0.0324249267578125
1772457909395327000,1.259326904296875,-1.0469818115234375,-0.303375244140625,0.011016845703125
1772457909405395000,1.26939501953125,-1.0564117431640625,-0.29876708984375,-0.007415771484375
1772457909415463000,1.279462890625,-1.0732269287109375,-0.299346923828125,-0.0150146484375
1772457909425531100,1.28953125,-1.0927276611328125,-0.292999267578125,-0.0168609619140625
1772457909435599000,1.29959912109375,-1.0955810546875,-0.2825927734375,-0.0121307373046875
1772457909445667000,1.3096669921875,-1.0743865966796875,-0.2701873779296875,0.004730224609375
1772457909455735000,1.319735107421875,-1.044769287109375,-0.2635040283203125,0.018157958984375
1772457909465803300,1.32980322265625,-1.0254974365234375,-0.2629852294921875,0.0242156982421875
1772457909475871000,1.33987109375,-1.0151824951171875,-0.2607269287109375,0.0236663818359375
1772457909485939000,1.34993896484375,-1.0137176513671875,-0.2609100341796875,0.017120361328125
1772457909496008200,1.36000830078125,-1.0015106201171875,-0.25653076171875,0.008331298828125
1772457909506076200,1.370076171875,-0.9864654541015625,-0.250518798828125,0.0104522705078125
1772457909516144000,1.38014404296875,-0.975311279296875,-0.2467193603515625,0.0147247314453125
1772457909526212000,1.390212158203125,-0.9569549560546875,-0.2435150146484375,0.021087646484375
1772457909536280000,1.400280029296875,-0.9427490234375,-0.2358551025390625,0.0176544189453125
1772457909546348000,1.41034814453125,-0.94818115234375,-0.2315216064453125,0.011749267578125
1772457909556416000,1.420416015625,-0.954193115234375,-0.22479248046875,0.0109405517578125
1772457909566484000,1.43048388671875,-0.9500732421875,-0.2200775146484375,0.007537841796875
1772457909576552200,1.44055224609375,-0.9500579833984375,-0.217681884765625,0.0003509521484375
1772457909586620200,1.4506201171875,-0.948333740234375,-0.21478271484375,-0.005096435546875
1772457909596688100,1.460688232421875,-0.94122314453125,-0.2130889892578125,-0.003692626953125
1772457909606757000,1.470757080078125,-0.9256134033203125,-0.2163848876953125,0.0085906982421875
1772457909616825000,1.4808251953125,-0.911895751953125,-0.2240142822265625,0.0175628662109375
1772457909626893000,1.49089306640625,-0.904388427734375,-0.2303619384765625,0.02532958984375
1772457909636961000,1.5009609375,-0.8945159912109375,-0.2333221435546875,0.037506103515625
1772457909647029200,1.511029296875,-0.882537841796875,-0.2408599853515625,0.0489044189453125
1772457909657097200,1.52109716796875,-0.8704833984375,-0.2454071044921875,0.06103515625
1772457909667165000,1.5311650390625,-0.8549652099609375,-0.2503662109375,0.06561279296875
1772457909677233000,1.54123291015625,-0.849609375,-0.260894775390625,0.0675811767578125
1772457909687301000,1.551301025390625,-0.86395263671875,-0.27032470703125,0.06427001953125
1772457909697369000,1.561369140625,-0.8888397216796875,-0.2747344970703125,0.0576629638671875
1772457909707437000,1.57143701171875,-0.9060821533203125,-0.274505615234375,0.04962158203125
1772457909717506000,1.581506103515625,-0.9193267822265625,-0.2767791748046875,0.0462799072265625
1772457909727574000,1.591573974609375,-0.926239013671875,-0.2785491943359375,0.0479888916015625
1772457909737642000,1.60164208984375,-0.926361083984375,-0.276947021484375,0.0540924072265625
1772457909747710000,1.6117099609375,-0.93695068359375,-0.2747039794921875,0.0591888427734375
1772457909757778200,1.621778076171875,-0.94677734375,-0.2704315185546875,0.0682525634765625
1772457909767846100,1.63184619140625,-0.94842529296875,-0.267608642578125,0.08001708984375
1772457909777914000,1.6419140625,-0.947265625,-0.26373291015625,0.091064453125
1772457909787982000,1.651982177734375,-0.948577880859375,-0.265472412109375,0.1077728271484375
1772457909798050000,1.662050048828125,-0.941436767578125,-0.26904296875,0.1244964599609375
1772457909808118000,1.672117919921875,-0.931732177734375,-0.2723541259765625,0.1374053955078125
1772457909818186000,1.68218603515625,-0.92889404296875,-0.2812347412109375,0.1498870849609375
1772457909828255000,1.6922548828125,-0.9301910400390625,-0.288055419921875,0.1563262939453125
1772457909838323200,1.7023232421875,-0.932861328125,-0.2906951904296875,0.16009521484375
1772457909848391200,1.71239111328125,-0.9318084716796875,-0.29315185546875,0.17047119140625
1772457909858459000,1.722458984375,-0.9232330322265625,-0.2982330322265625,0.1756744384765625
1772457909868526800,1.73252685546875,-0.9156951904296875,-0.3028564453125,0.177093505859375
1772457909878595000,1.742594970703125,-0.90972900390625,-0.3031005859375,0.1776123046875
1772457909888663000,1.7526630859375,-0.90325927734375,-0.299407958984375,0.1754302978515625
1772457909898731000,1.76273095703125,-0.9037017822265625,-0.2948455810546875,0.16949462890625
1772457909908799200,1.77279931640625,-0.910308837890625,-0.2860260009765625,0.1629180908203125
1772457909918867200,1.7828671875,-0.9234619140625,-0.268707275390625,0.153228759765625
1772457909928936000,1.79293603515625,-0.94232177734375,-0.2518768310546875,0.1459503173828125
1772457909939004000,1.80300390625,-0.9554901123046875,-0.2408599853515625,0.143798828125
1772457909949072100,1.813072021484375,-0.9728546142578125,-0.23065185546875,0.143218994140625
1772457909959140000,1.82314013671875,-0.9945831298828125,-0.2191925048828125,0.1393280029296875
1772457909969208000,1.8332080078125,-1.0184173583984375,-0.2120819091796875,0.1335601806640625
1772457909979276000,1.843276123046875,-1.027801513671875,-0.206390380859375,0.1307525634765625
1772457909989344000,1.853343994140625,-1.0198516845703125,-0.2108306884765625,0.1345062255859375
1772457909999412000,1.863411865234375,-0.988677978515625,-0.223114013671875,0.139495849609375
1772457910009480000,1.87347998046875,-0.9550018310546875,-0.239837646484375,0.137481689453125
1772457910019548000,1.8835478515625,-0.9348907470703125,-0.2543487548828125,0.1331024169921875
1772457910029616000,1.8936162109375,-0.9177398681640625,-0.2665252685546875,0.1247100830078125
1772457910039685000,1.90368505859375,-0.9073028564453125,-0.274993896484375,0.1203765869140625
1772457910049752800,1.9137529296875,-0.898590087890625,-0.2859344482421875,0.1191864013671875
1772457910059821000,1.923821044921875,-0.8946685791015625,-0.29638671875,0.115570068359375
1772457910069889000,1.933888916015625,-0.8945465087890625,-0.30419921875,0.109588623046875
1772457910079957000,1.94395703125,-0.896026611328125,-0.310089111328125,0.10125732421875
1772457910090025000,1.95402490234375,-0.9032440185546875,-0.31494140625,0.0936737060546875
1772457910100093200,1.96409326171875,-0.90411376953125,-0.3217315673828125,0.091217041015625
1772457910110161200,1.9741611328125,-0.9018402099609375,-0.33001708984375,0.08953857421875
1772457910120229000,1.98422900390625,-0.90362548828125,-0.336944580078125,0.0847015380859375
1772457910130296800,1.994296875,-0.9058380126953125,-0.3421630859375,0.080474853515625
1772457910140366000,2.004365966796875,-0.9114227294921875,-0.3471832275390625,0.0782928466796875
1772457910150434000,2.01443408203125,-0.9198760986328125,-0.3514862060546875,0.0714874267578125
1772457910160502000,2.024501953125,-0.9245147705078125,-0.3529815673828125,0.0681610107421875
1772457910170570200,2.0345703125,-0.92950439453125,-0.354827880859375,0.0655517578125
1772457910180638000,2.044637939453125,-0.9260406494140625,-0.3531646728515625,0.0637054443359375
1772457910190706000,2.054705810546875,-0.928375244140625,-0.3515777587890625,0.0662841796875
1772457910200774000,2.06477392578125,-0.93438720703125,-0.3493499755859375,0.0662078857421875
1772457910210842000,2.074842041015625,-0.94049072265625,-0.3462371826171875,0.0613250732421875
1772457910220910000,2.08491015625,-0.9449310302734375,-0.3422088623046875,0.057281494140625
1772457910230978000,2.09497802734375,-0.955535888671875,-0.346954345703125,0.0504608154296875
1772457910241046000,2.1050458984375,-0.97711181640625,-0.352294921875,0.0391998291015625
1772457910251115000,2.115114990234375,-0.986419677734375,-0.3501434326171875,0.028594970703125
1772457910261183000,2.125182861328125,-0.9808197021484375,-0.342742919921875,0.03387451171875
1772457910271251000,2.1352509765625,-0.9637603759765625,-0.34027099609375,0.053955078125
1772457910281319000,2.14531884765625,-0.95159912109375,-0.33203125,0.07537841796875
1772457910291387000,2.155386962890625,-0.94586181640625,-0.3248443603515625,0.089202880859375
1772457910301455000,2.165455078125,-0.9440155029296875,-0.3185272216796875,0.09674072265625
1772457910311523000,2.175523193359375,-0.9343414306640625,-0.3177642822265625,0.1010284423828125
1772457910321590800,2.1855908203125,-0.9404144287109375,-0.32177734375,0.0993499755859375
1772457910331658800,2.19565869140625,-0.954620361328125,-0.3238525390625,0.0954742431640625
1772457910341727000,2.20572705078125,-0.95263671875,-0.3311920166015625,0.1043853759765625
1772457910351796000,2.2157958984375,-0.9254913330078125,-0.3498077392578125,0.128814697265625
1772457910361864000,2.225864013671875,-0.8939666748046875,-0.363861083984375,0.1295318603515625
1772457910371932000,2.235931884765625,-0.8955535888671875,-0.368560791015625,0.10382080078125
1772457910381999900,2.245999755859375,-0.9167938232421875,-0.3715972900390625,0.0824737548828125
1772457910392067800,2.25606787109375,-0.947845458984375,-0.3798065185546875,0.0730743408203125
1772457910402135800,2.2661357421875,-0.9581756591796875,-0.3846893310546875,0.06915283203125
1772457910412204000,2.2762041015625,-0.9507598876953125,-0.386993408203125,0.0682220458984375
1772457910422272000,2.28627197265625,-0.9517364501953125,-0.3848114013671875,0.06414794921875
1772457910432340000,2.296340087890625,-0.9597320556640625,-0.3800201416015625,0.0545806884765625
1772457910442408000,2.306407958984375,-0.96160888671875,-0.3765106201171875,0.0513153076171875
1772457910452476000,2.316475830078125,-0.9560546875,-0.37237548828125,0.0537109375
1772457910462545000,2.326544921875,-0.9476165771484375,-0.37066650390625,0.056427001953125
1772457910472612900,2.33661279296875,-0.935028076171875,-0.36566162109375,0.0585784912109375
1772457910482681000,2.34668115234375,-0.932037353515625,-0.3633575439453125,0.0580902099609375
1772457910492749000,2.3567490234375,-0.9407958984375,-0.35845947265625,0.0570220947265625
1772457910502817000,2.366817138671875,-0.9427490234375,-0.35479736328125,0.056304931640625
1772457910512884700,2.376884765625,-0.9326019287109375,-0.35528564453125,0.0623779296875
1772457910522953000,2.386952880859375,-0.9159698486328125,-0.35760498046875,0.0690460205078125
1772457910533021000,2.39702099609375,-0.9008636474609375,-0.3614959716796875,0.07342529296875
1772457910543089000,2.4070888671875,-0.8911285400390625,-0.3671112060546875,0.0753326416015625
1772457910553156900,2.417156982421875,-0.879486083984375,-0.36822509765625,0.0784454345703125
1772457910563226000,2.42722607421875,-0.869140625,-0.3661041259765625,0.079315185546875
1772457910573293800,2.4372939453125,-0.8677978515625,-0.360992431640625,0.0806884765625
1772457910583361800,2.44736181640625,-0.87188720703125,-0.35137939453125,0.0822601318359375
1772457910593430000,2.457429931640625,-0.8853912353515625,-0.3462371826171875,0.0797882080078125
1772457910603498000,2.467498046875,-0.904937744140625,-0.337249755859375,0.0746002197265625
1772457910613566000,2.47756591796875,-0.9220428466796875,-0.3289337158203125,0.0653228759765625
1772457910623634000,2.487634033203125,-0.9274749755859375,-0.323028564453125,0.0611724853515625
1772457910633702100,2.4977021484375,-0.9286651611328125,-0.3193817138671875,0.06231689453125
1772457910643769900,2.507769775390625,-0.926483154296875,-0.31768798828125,0.0633697509765625
1772457910653837800,2.517837890625,-0.9337158203125,-0.311126708984375,0.0581512451171875
1772457910663905800,2.52790576171875,-0.9566497802734375,-0.306915283203125,0.0453643798828125
1772457910673975000,2.53797509765625,-0.985748291015625,-0.2964324951171875,0.02996826171875
1772457910684043000,2.54804296875,-1.0000152587890625,-0.28631591796875,0.01324462890625
1772457910694111000,2.558111083984375,-1.007354736328125,-0.279998779296875,0.0022125244140625
1772457910704178700,2.5681787109375,-1.006439208984375,-0.275115966796875,-0.0087127685546875
1772457910714247000,2.578246826171875,-1.007568359375,-0.2725067138671875,-0.0183258056640625
1772457910724315000,2.58831494140625,-1.01824951171875,-0.2678680419921875,-0.030914306640625
1772457910734382800,2.5983828125,-1.0263214111328125,-0.2644805908203125,-0.0397491455078125
1772457910744451000,2.608451171875,-1.02752685546875,-0.2640228271484375,-0.0420379638671875
1772457910754519000,2.61851904296875,-1.0115203857421875,-0.2628326416015625,-0.0325469970703125
1772457910764587000,2.6285869140625,-0.983978271484375,-0.2635650634765625,-0.0139617919921875
1772457910774655000,2.638655029296875,-0.95477294921875,-0.2675018310546875,0.0046539306640625
1772457910784724000,2.648723876953125,-0.933074951171875,-0.2674102783203125,0.0124359130859375
1772457910794792000,2.6587919921875,-0.934417724609375,-0.2711181640625,0.00439453125
1772457910804860000,2.66885986328125,-0.940155029296875,-0.2706146240234375,-0.0024566650390625
1772457910814928000,2.678927978515625,-0.9313507080078125,-0.2733001708984375,0.0018463134765625
1772457910824996000,2.68899609375,-0.924346923828125,-0.278106689453125,0.0128631591796875
1772457910835063800,2.699063720703125,-0.908905029296875,-0.2819976806640625,0.025421142578125
1772457910845131800,2.7091318359375,-0.8904876708984375,-0.2902984619140625,0.033294677734375
1772457910855199700,2.71919970703125,-0.873321533203125,-0.303131103515625,0.04107666015625
1772457910865268000,2.72926806640625,-0.8580474853515625,-0.3216400146484375,0.0397796630859375
1772457910875336000,2.7393359375,-0.8415069580078125,-0.3389892578125,0.02801513671875
1772457910885405000,2.749405029296875,-0.821990966796875,-0.35101318359375,0.0102996826171875
1772457910895473000,2.759472900390625,-0.8014373779296875,-0.3603973388671875,-0.007171630859375
1772457910905540900,2.769540771484375,-0.7993621826171875,-0.368621826171875,-0.0279998779296875
1772457910915608800,2.77960888671875,-0.8214263916015625,-0.3704681396484375,-0.053924560546875
1772457910925676800,2.7896767578125,-0.866912841796875,-0.3701324462890625,-0.080352783203125
1772457910935745000,2.7997451171875,-0.9263458251953125,-0.3664398193359375,-0.1151885986328125
1772457910945813000,2.80981298828125,-0.982208251953125,-0.3560028076171875,-0.1451568603515625
1772457910955881000,2.819880859375,-1.0232391357421875,-0.3460845947265625,-0.1604461669921875
1772457910965949000,2.829948974609375,-1.0389251708984375,-0.34356689453125,-0.153167724609375
1772457910976017000,2.840016845703125,-1.0191192626953125,-0.3406982421875,-0.127410888671875
1772457910986086000,2.8500859375,-0.9730072021484375,-0.3415985107421875,-0.091644287109375
1772457910996153900,2.86015380859375,-0.920440673828125,-0.3491363525390625,-0.0533599853515625
1772457911006222000,2.87022216796875,-0.876434326171875,-0.364288330078125,-0.0223541259765625
1772457911016290000,2.8802900390625,-0.850341796875,-0.3792877197265625,-0.0023651123046875
1772457911026358000,2.89035791015625,-0.844940185546875,-0.3852081298828125,0.0072021484375
1772457911036425700,2.90042578125,-0.8397369384765625,-0.387298583984375,0.0170745849609375
1772457911046494000,2.910493896484375,-0.839447021484375,-0.39129638671875,0.0229339599609375
1772457911056562000,2.92056201171875,-0.844696044921875,-0.395660400390625,0.0186920166015625
1772457911066630000,2.9306298828125,-0.843536376953125,-0.404754638671875,0.013031005859375
1772457911076697900,2.94069775390625,-0.853729248046875,-0.4149322509765625,0.004302978515625
1772457911086766000,2.95076611328125,-0.86285400390625,-0.4213409423828125,0.000030517578125
1772457911096834800,2.960834716796875,-0.865020751953125,-0.4274749755859375,-0.004638671875
1772457911106902800,2.97090283203125,-0.8718719482421875,-0.4299774169921875,-0.009124755859375
1772457911116971000,2.980970947265625,-0.8756103515625,-0.430328369140625,-0.016448974609375
1772457911127039000,2.9910390625,-0.873016357421875,-0.4289703369140625,-0.01776123046875
1772457911137107000,3.00110693359375,-0.8725738525390625,-0.428436279296875,-0.016387939453125
1772457911147175000,3.0111748046875,-0.8806610107421875,-0.4292144775390625,-0.0183563232421875
1772457911157243100,3.0212431640625,-0.8982086181640625,-0.42431640625,-0.025604248046875
1772457911167310800,3.031310791015625,-0.9179229736328125,-0.4198150634765625,-0.030975341796875
1772457911177378800,3.04137890625,-0.9334869384765625,-0.4136505126953125,-0.0275115966796875
1772457911187446800,3.05144677734375,-0.9436492919921875,-0.4035797119140625,-0.017059326171875
1772457911197516000,3.06151611328125,-0.9515838623046875,-0.391937255859375,-0.00567626953125
1772457911207584000,3.071583984375,-0.96014404296875,-0.381988525390625,0.005096435546875
1772457911217652000,3.08165185546875,-0.9600982666015625,-0.378753662109375,0.0128936767578125
1772457911227720000,3.091719970703125,-0.966156005859375,-0.3807220458984375,0.01812744140625
1772457911237788000,3.101787841796875,-0.9763031005859375,-0.377899169921875,0.0162200927734375
1772457911247855900,3.11185595703125,-0.9815673828125,-0.37371826171875,0.0160675048828125
1772457911257923800,3.121923828125,-0.988067626953125,-0.37615966796875,0.016937255859375
1772457911267992800,3.131992919921875,-0.9999237060546875,-0.384185791015625,0.0213775634765625
1772457911278060800,3.142060791015625,-1.004364013671875,-0.3976287841796875,0.0274200439453125
1772457911288128500,3.15212841796875,-0.998199462890625,-0.41204833984375,0.027099609375
1772457911298197800,3.16219775390625,-0.983367919921875,-0.4145965576171875,0.0168304443359375
1772457911308265700,3.172265625,-0.9686431884765625,-0.41705322265625,0.0068359375
1772457911318333700,3.182333740234375,-0.9626922607421875,-0.4230499267578125,-0.0012359619140625
1772457911328401700,3.192401611328125,-0.95989990234375,-0.427337646484375,-0.0084075927734375
1772457911338469600,3.2024697265625,-0.9644012451171875,-0.4257965087890625,-0.0179443359375
1772457911348537600,3.21253759765625,-0.9690399169921875,-0.4123077392578125,-0.0307464599609375
1772457911358605600,3.22260546875,-0.972198486328125,-0.39276123046875,-0.0400543212890625
1772457911368673500,3.232673583984375,-0.9885711669921875,-0.37664794921875,-0.0461578369140625
1772457911378741800,3.24274169921875,-1.0131988525390625,-0.359100341796875,-0.0465087890625
1772457911388809700,3.252809814453125,-1.020050048828125,-0.344696044921875,-0.040191650390625
1772457911398877700,3.262877685546875,-1.0067596435546875,-0.3412933349609375,-0.0225830078125
1772457911408946700,3.27294677734375,-0.9793243408203125,-0.34466552734375,0.00244140625
1772457911419014700,3.2830146484375,-0.9547576904296875,-0.3494720458984375,0.02301025390625
1772457911429082600,3.29308251953125,-0.932403564453125,-0.35687255859375,0.0383758544921875
1772457911439150600,3.303150634765625,-0.91571044921875,-0.364044189453125,0.04412841796875
1772457911449218800,3.31321875,-0.9051971435546875,-0.3704833984375,0.0408172607421875
1772457911459286800,3.323286865234375,-0.906158447265625,-0.3705291748046875,0.0345611572265625
1772457911469354800,3.333354736328125,-0.9160919189453125,-0.3675384521484375,0.028717041015625
1772457911479422500,3.34342236328125,-0.92279052734375,-0.356475830078125,0.0274200439453125
1772457911489490700,3.35349072265625,-0.9308319091796875,-0.3447265625,0.02685546875
1772457911499558700,3.36355859375,-0.9371337890625,-0.32916259765625,0.02349853515625
1772457911509627600,3.373627685546875,-0.9546051025390625,-0.315093994140625,0.02435302734375
1772457911519696000,3.38369580078125,-0.966156005859375,-0.297454833984375,0.0226287841796875
1772457911529763600,3.393763671875,-0.96234130859375,-0.28619384765625,0.0233306884765625
1772457911539831600,3.40383154296875,-0.9554901123046875,-0.2809600830078125,0.027374267578125
1772457911549899500,3.4138994140625,-0.9452362060546875,-0.2765045166015625,0.03289794921875
1772457911559967700,3.4239677734375,-0.935272216796875,-0.2760772705078125,0.0448455810546875
1772457911570035700,3.43403564453125,-0.9386138916015625,-0.2790374755859375,0.0510406494140625
1772457911580103700,3.444103759765625,-0.9322509765625,-0.2749786376953125,0.0553741455078125
1772457911590171600,3.454171630859375,-0.90887451171875,-0.2788848876953125,0.070098876953125
1772457911600239900,3.464239990234375,-0.880645751953125,-0.2917938232421875,0.0894622802734375
1772457911610308600,3.47430859375,-0.8556976318359375,-0.305908203125,0.103057861328125
1772457911620376600,3.48437646484375,-0.831756591796875,-0.3235321044921875,0.110748291015625
1772457911630444800,3.49444482421875,-0.8099212646484375,-0.340240478515625,0.118621826171875
1772457911640512800,3.5045126953125,-0.79632568359375,-0.3565826416015625,0.1310577392578125
1772457911650580700,3.514580810546875,-0.7827301025390625,-0.3735809326171875,0.1475982666015625
1772457911660648700,3.524648681640625,-0.77203369140625,-0.390533447265625,0.1668243408203125
1772457911670716700,3.534716552734375,-0.7666168212890625,-0.3994903564453125,0.16986083984375
1772457911680784600,3.54478466796875,-0.76104736328125,-0.4005889892578125,0.16351318359375
1772457911690852600,3.5548525390625,-0.7505035400390625,-0.3979339599609375,0.14794921875
1772457911700920600,3.564920654296875,-0.7528839111328125,-0.395965576171875,0.1223602294921875
1772457911710988800,3.57498876953125,-0.77667236328125,-0.3885040283203125,0.0911865234375
1772457911721057500,3.5850576171875,-0.8176422119140625,-0.3739471435546875,0.058868408203125
1772457911731125500,3.59512548828125,-0.86407470703125,-0.3536224365234375,0.040924072265625
1772457911741193700,3.60519384765625,-0.908538818359375,-0.3284759521484375,0.0252685546875
1772457911751261700,3.61526171875,-0.9491424560546875,-0.3049774169921875,0.0181732177734375
1772457911761329700,3.62532958984375,-0.988677978515625,-0.2879180908203125,0.02532958984375
1772457911771397600,3.635397705078125,-1.0025482177734375,-0.2749786376953125,0.0428314208984375
1772457911781465900,3.6454658203125,-0.994873046875,-0.2628326416015625,0.0681304931640625
1772457911791533800,3.655533935546875,-0.9821624755859375,-0.2608489990234375,0.1003570556640625
1772457911801601500,3.6656015625,-0.9748687744140625,-0.262969970703125,0.1294708251953125
1772457911811669500,3.67566943359375,-0.9596710205078125,-0.2665252685546875,0.147430419921875
1772457911821738800,3.68573876953125,-0.9396514892578125,-0.27789306640625,0.155914306640625
1772457911831806700,3.695806640625,-0.929107666015625,-0.2900390625,0.16094970703125
1772457911841874700,3.705874755859375,-0.92120361328125,-0.30340576171875,0.1551971435546875
1772457911851942700,3.715942626953125,-0.9162750244140625,-0.3211669921875,0.1411590576171875
1772457911862010600,3.7260107421875,-0.9234466552734375,-0.3361053466796875,0.1181640625
1772457911872078600,3.73607861328125,-0.9353179931640625,-0.3445892333984375,0.0899658203125
1772457911882146600,3.746146484375,-0.939239501953125,-0.3561248779296875,0.074554443359375
1772457911892214800,3.75621484375,-0.9368438720703125,-0.364654541015625,0.0684051513671875
1772457911902282800,3.76628271484375,-0.925750732421875,-0.37396240234375,0.071929931640625
1772457911912350700,3.776350830078125,-0.9163970947265625,-0.38470458984375,0.0787353515625
1772457911922419700,3.786419677734375,-0.9203948974609375,-0.394256591796875,0.0739593505859375
1772457911932487700,3.79648779296875,-0.9298858642578125,-0.40093994140625,0.0641937255859375
1772457911942555600,3.8065556640625,-0.939727783203125,-0.4061279296875,0.0548095703125
1772457911952623600,3.81662353515625,-0.9467010498046875,-0.4090576171875,0.0476531982421875
1772457911962691800,3.82669189453125,-0.9561309814453125,-0.4100189208984375,0.0428924560546875
1772457911972759800,3.836759765625,-0.9661865234375,-0.412994384765625,0.036163330078125
1772457911982827800,3.846827880859375,-0.9839324951171875,-0.4133758544921875,0.0254669189453125
1772457911992895500,3.8568955078125,-0.9984893798828125,-0.41094970703125,0.01165771484375
1772457912002963700,3.866963623046875,-1.0102081298828125,-0.4063720703125,0.0040283203125
1772457912013031700,3.87703173828125,-1.0172882080078125,-0.399566650390625,0.0051116943359375
1772457912023099600,3.887099609375,-1.00897216796875,-0.395111083984375,0.006072998046875
1772457912033169000,3.8971689453125,-1.0066070556640625,-0.394439697265625,0.008941650390625
1772457912043236600,3.907236572265625,-1.007904052734375,-0.3875274658203125,0.0150146484375
1772457912053304600,3.9173046875,-0.99932861328125,-0.38299560546875,0.0258636474609375
1772457912063372500,3.92737255859375,-0.98248291015625,-0.3809356689453125,0.0358123779296875
1772457912073440800,3.937440673828125,-0.9611358642578125,-0.381439208984375,0.044708251953125
1772457912083508700,3.9475087890625,-0.9498138427734375,-0.38751220703125,0.0484466552734375
1772457912093576700,3.95757666015625,-0.941253662109375,-0.396331787109375,0.051849365234375
1772457912103644700,3.967644775390625,-0.9389190673828125,-0.413909912109375,0.06207275390625
1772457912113713000,3.977712890625,-0.93170166015625,-0.432830810546875,0.0750732421875
1772457912123779800,3.98777978515625,-0.9185333251953125,-0.4399566650390625,0.0748443603515625
1772457912133847800,3.997847900390625,-0.912384033203125,-0.4405517578125,0.063201904296875
1772457912143915800,4.007915771484375,-0.9291229248046875,-0.442169189453125,0.0504302978515625
1772457912153983500,4.0179833984375,-0.950439453125,-0.4412078857421875,0.0380401611328125
1772457912164051700,4.0280517578125,-0.9623870849609375,-0.4403533935546875,0.033538818359375
1772457912174119700,4.03811962890625,-0.96270751953125,-0.4341583251953125,0.0275421142578125
1772457912184188700,4.048188720703125,-0.964141845703125,-0.4225921630859375,0.0182037353515625
1772457912194257000,4.0582568359375,-0.9697113037109375,-0.413421630859375,0.0092315673828125
1772457912204324600,4.06832470703125,-0.977752685546875,-0.4051666259765625,0.0036163330078125
1772457912214392600,4.078392578125,-0.9764556884765625,-0.39990234375,0.015167236328125
1772457912224460500,4.08846044921875,-0.9558258056640625,-0.397430419921875,0.030792236328125
1772457912234528800,4.09852880859375,-0.9298553466796875,-0.398529052734375,0.046844482421875
1772457912244596700,4.1085966796875,-0.9138641357421875,-0.3990325927734375,0.056884765625
1772457912254664700,4.118664794921875,-0.8983917236328125,-0.3978424072265625,0.066192626953125
1772457912264732400,4.128732421875,-0.88525390625,-0.3970184326171875,0.074005126953125
1772457912274800600,4.138800537109375,-0.875396728515625,-0.392669677734375,0.0743865966796875
1772457912284868400,4.148868408203125,-0.8758697509765625,-0.382171630859375,0.071136474609375
1772457912294937300,4.158937255859375,-0.8857269287109375,-0.363128662109375,0.063720703125
1772457912305005300,4.16900537109375,-0.9013671875,-0.33831787109375,0.061370849609375
1772457912315073500,4.179073486328125,-0.9097137451171875,-0.314483642578125,0.0620574951171875
1772457912325141500,4.1891416015625,-0.911041259765625,-0.2968597412109375,0.0592193603515625
1772457912335209500,4.19920947265625,-0.912353515625,-0.28631591796875,0.0479278564453125
1772457912345277200,4.209277099609375,-0.92449951171875,-0.2802734375,0.033599853515625
1772457912355345400,4.219345458984375,-0.94659423828125,-0.2741851806640625,0.016998291015625
1772457912365413400,4.229413330078125,-0.9621429443359375,-0.269012451171875,0.0021209716796875
1772457912375481300,4.2394814453125,-0.9669342041015625,-0.2697601318359375,-0.003631591796875
1772457912385549600,4.249549560546875,-0.955902099609375,-0.2671661376953125,-0.0045318603515625
1772457912395618600,4.25961865234375,-0.9432525634765625,-0.2673797607421875,-0.008758544921875
1772457912405686300,4.269686279296875,-0.9320526123046875,-0.2662353515625,-0.006103515625
1772457912415754200,4.279754150390625,-0.9224090576171875,-0.2627716064453125,-0.0029449462890625
1772457912425822500,4.289822509765625,-0.9156036376953125,-0.2594757080078125,0.004913330078125
1772457912435890400,4.299890380859375,-0.91357421875,-0.256103515625,0.0092010498046875
1772457912445958400,4.30995849609375,-0.9080047607421875,-0.2520751953125,0.0106658935546875
1772457912456026400,4.3200263671875,-0.898895263671875,-0.2539215087890625,0.010284423828125
1772457912466094600,4.330094482421875,-0.8832550048828125,-0.2605438232421875,0.01312255859375
1772457912476162600,4.34016259765625,-0.8628692626953125,-0.26678466796875,0.013885498046875
1772457912486230300,4.350230224609375,-0.843048095703125,-0.2768402099609375,0.0116119384765625
1772457912496298200,4.36029833984375,-0.8324127197265625,-0.292022705078125,0.00372314453125
1772457912506367500,4.370367431640625,-0.8339996337890625,-0.302154541015625,-0.0019073486328125
1772457912516435500,4.380435546875,-0.8271484375,-0.3102874755859375,-0.0047760009765625
1772457912526503400,4.39050341796875,-0.808563232421875,-0.3233642578125,-0.0003814697265625
1772457912536571400,4.4005712890625,-0.7913360595703125,-0.338775634765625,0.0036468505859375
1772457912546639400,4.410639404296875,-0.780120849609375,-0.3513946533203125,0.0018463134765625
1772457912556707300,4.420707275390625,-0.7783050537109375,-0.3616790771484375,-0.00579833984375
1772457912566775300,4.430775390625,-0.787353515625,-0.369873046875,-0.0192108154296875
1772457912576843500,4.440843505859375,-0.8032684326171875,-0.371795654296875,-0.034088134765625
1772457912586911500,4.450911376953125,-0.8155670166015625,-0.3689422607421875,-0.0439910888671875
1772457912596979500,4.4609794921875,-0.8243560791015625,-0.365081787109375,-0.0474853515625
1772457912607048400,4.47104833984375,-0.842254638671875,-0.3574981689453125,-0.046539306640625
1772457912617116400,4.481116455078125,-0.8741607666015625,-0.3439178466796875,-0.05126953125
1772457912627184400,4.491184326171875,-0.9170684814453125,-0.3290557861328125,-0.0611419677734375
1772457912637252400,4.50125244140625,-0.9633331298828125,-0.3211212158203125,-0.0598297119140625
1772457912647320600,4.511320556640625,-0.9980926513671875,-0.316802978515625,-0.0518798828125
1772457912657388500,4.521388427734375,-1.02008056640625,-0.3122406005859375,-0.0403594970703125
1772457912667456500,4.53145654296875,-1.0302734375,-0.314208984375,-0.028045654296875
1772457912677524200,4.541524169921875,-1.0334625244140625,-0.32232666015625,-0.0185394287109375
1772457912687592400,4.551592529296875,-1.0307159423828125,-0.33599853515625,-0.0144500732421875
1772457912697660400,4.561660400390625,-1.022491455078125,-0.3451080322265625,-0.00958251953125
1772457912707729400,4.5717294921875,-1.007415771484375,-0.3587646484375,-0.005462646484375
1772457912717797600,4.581797607421875,-0.984893798828125,-0.3731536865234375,-0.0000762939453125
1772457912727865300,4.591865234375,-0.96246337890625,-0.3858184814453125,0.0025634765625
1772457912737933300,4.601933349609375,-0.9472198486328125,-0.39501953125,0.00531005859375
1772457912748001300,4.612001220703125,-0.94091796875,-0.3999786376953125,0.0046234130859375
1772457912758069500,4.622069580078125,-0.9309234619140625,-0.4004974365234375,0.0051727294921875
1772457912768137500,4.632137451171875,-0.9177398681640625,-0.402923583984375,0.0041351318359375
1772457912778205400,4.642205322265625,-0.9120635986328125,-0.4083709716796875,0.004852294921875
1772457912788273400,4.6522734375,-0.9153289794921875,-0.4124298095703125,-0.0002288818359375
1772457912798341600,4.662341552734375,-0.9173736572265625,-0.4134674072265625,-0.0052947998046875
1772457912808410400,4.672410400390625,-0.9224700927734375,-0.410186767578125,-0.0045166015625
1772457912818478300,4.682478271484375,-0.9213104248046875,-0.4038238525390625,0.00408935546875
1772457912828546600,4.692546630859375,-0.916748046875,-0.39874267578125,0.0100860595703125
1772457912838614500,4.702614501953125,-0.9117279052734375,-0.3933258056640625,0.015594482421875
1772457912848682500,4.7126826171875,-0.9070587158203125,-0.387115478515625,0.021209716796875
1772457912858750500,4.72275048828125,-0.913848876953125,-0.378173828125,0.024627685546875
1772457912868818400,4.732818359375,-0.923309326171875,-0.370391845703125,0.0278472900390625
1772457912878886400,4.742886474609375,-0.9266510009765625,-0.36376953125,0.033294677734375
1772457912888954400,4.752954345703125,-0.9278411865234375,-0.3609466552734375,0.0356903076171875
1772457912899022300,4.763022216796875,-0.932098388671875,-0.355743408203125,0.042266845703125
1772457912909091600,4.773091552734375,-0.928466796875,-0.3521575927734375,0.0444183349609375
1772457912919159300,4.7831591796875,-0.9327545166015625,-0.34808349609375,0.044097900390625
1772457912929227300,4.793227294921875,-0.9374847412109375,-0.344146728515625,0.0355072021484375
1772457912939295500,4.80329541015625,-0.937774658203125,-0.3419036865234375,0.02813720703125
1772457912949363500,4.813363525390625,-0.9388885498046875,-0.3384857177734375,0.0207977294921875
1772457912959431400,4.823431396484375,-0.9393463134765625,-0.33575439453125,0.016448974609375
1772457912969499400,4.83349951171875,-0.94140625,-0.3344268798828125,0.0089111328125
1772457912979567600,4.843567626953125,-0.953277587890625,-0.331787109375,0.00286865234375
1772457912989635600,4.853635498046875,-0.9568939208984375,-0.3265380859375,-0.0018157958984375
1772457912999703300,4.863703369140625,-0.954254150390625,-0.321136474609375,-0.0028076171875
1772457913009772500,4.8737724609375,-0.9530792236328125,-0.318450927734375,-0.0038909912109375
1772457913019840500,4.883840576171875,-0.9503021240234375,-0.3194732666015625,-0.0105133056640625
1772457913029908500,4.893908447265625,-0.94989013671875,-0.322784423828125,-0.0174102783203125
1772457913039976400,4.9039765625,-0.95587158203125,-0.33294677734375,-0.0209503173828125
1772457913050044400,4.91404443359375,-0.9701690673828125,-0.342987060546875,-0.019989013671875
1772457913060112400,4.9241123046875,-0.975921630859375,-0.356964111328125,-0.012115478515625
1772457913070180400,4.934180419921875,-0.965118408203125,-0.372711181640625,-0.005035400390625
1772457913080248300,4.944248291015625,-0.9579315185546875,-0.3805084228515625,-0.0093841552734375
1772457913090316500,4.954316650390625,-0.961151123046875,-0.3823699951171875,-0.0257720947265625
1772457913100384500,4.964384521484375,-0.9781951904296875,-0.384185791015625,-0.0444793701171875
1772457913110452500,4.974452392578125,-1.0001983642578125,-0.3801422119140625,-0.0587921142578125
1772457913120521500,4.984521484375,-1.0169677734375,-0.367706298828125,-0.0696258544921875
1772457913130589400,4.99458935546875,-1.025848388671875,-0.35150146484375,-0.073211669921875
1772457913140657400,5.004657470703125,-1.0254669189453125,-0.33587646484375,-0.0752105712890625
1772457913150725400,5.014725341796875,-1.03631591796875,-0.32025146484375,-0.0706634521484375
1772457913160793600,5.024793701171875,-1.049224853515625,-0.3028106689453125,-0.0608673095703125
1772457913170861600,5.034861572265625,-1.0509796142578125,-0.286468505859375,-0.0428314208984375
1772457913180929500,5.044929443359375,-1.0293121337890625,-0.2752532958984375,-0.0168914794921875
1772457913190997200,5.054997314453125,-1.000030517578125,-0.2686920166015625,0.01214599609375
1772457913201065500,5.0650654296875,-0.9759063720703125,-0.2618865966796875,0.039764404296875
1772457913211133400,5.075133544921875,-0.9593353271484375,-0.260406494140625,0.0610504150390625
1772457913221202400,5.085202392578125,-0.953033447265625,-0.26055908203125,0.0782623291015625
1772457913231270400,5.0952705078125,-0.951751708984375,-0.2645111083984375,0.0858154296875
1772457913241338400,5.10533837890625,-0.9429931640625,-0.2738494873046875,0.0909423828125
1772457913251406300,5.11540625,-0.92974853515625,-0.2863006591796875,0.0966033935546875
1772457913261474300,5.125474365234375,-0.9010772705078125,-0.2963714599609375,0.10052490234375
1772457913271542300,5.135542236328125,-0.8728790283203125,-0.302215576171875,0.1077117919921875
1772457913281610200,5.1456103515625,-0.8646240234375,-0.3070068359375,0.1104278564453125
1772457913291678200,5.15567822265625,-0.857269287109375,-0.3029937744140625,0.11053466796875
1772457913301746400,5.165746337890625,-0.860687255859375,-0.29736328125,0.1063385009765625
1772457913311814400,5.175814453125,-0.87310791015625,-0.2925872802734375,0.09613037109375
1772457913321883100,5.185883056640625,-0.8952789306640625,-0.285736083984375,0.0857391357421875
1772457913331951400,5.195951416015625,-0.9227752685546875,-0.2703399658203125,0.0756072998046875
1772457913342019300,5.206019287109375,-0.9486541748046875,-0.2523193359375,0.0736846923828125
1772457913352087300,5.21608740234375,-0.9651947021484375,-0.2330169677734375,0.076629638671875
1772457913362155300,5.2261552734375,-0.971832275390625,-0.2158966064453125,0.0815582275390625
1772457913372223500,5.236223388671875,-0.986328125,-0.2029266357421875,0.0902557373046875
1772457913382291200,5.246291259765625,-0.9977569580078125,-0.194732666015625,0.09649658203125
1772457913392359200,5.256359130859375,-0.998809814453125,-0.1937408447265625,0.10101318359375
1772457913402427100,5.26642724609375,-0.986572265625,-0.201751708984375,0.1082763671875
1772457913412495400,5.276495361328125,-0.9679107666015625,-0.20904541015625,0.1131744384765625
1772457913422564400,5.286564453125,-0.9445343017578125,-0.21588134765625,0.118560791015625
1772457913432632300,5.29663232421875,-0.9250946044921875,-0.224517822265625,0.1251983642578125
1772457913442700000,5.306699951171875,-0.913055419921875,-0.232177734375,0.1340484619140625
1772457913452768300,5.316768310546875,-0.90228271484375,-0.240203857421875,0.1338348388671875
1772457913462836200,5.326836181640625,-0.8905029296875,-0.251861572265625,0.1319122314453125
1772457913472904200,5.336904296875,-0.8765869140625,-0.2679443359375,0.1383056640625
1772457913482972200,5.34697216796875,-0.86236572265625,-0.2841644287109375,0.1495819091796875
1772457913493040400,5.357040283203125,-0.8525390625,-0.2979888916015625,0.156646728515625
1772457913503108400,5.3671083984375,-0.84698486328125,-0.3053131103515625,0.1602783203125
1772457913513176300,5.37717626953125,-0.8502960205078125,-0.3135528564453125,0.15997314453125
1772457913523245300,5.387245361328125,-0.859283447265625,-0.3187408447265625,0.1533203125
1772457913533313300,5.397313232421875,-0.867095947265625,-0.31903076171875,0.140411376953125
1772457913543381200,5.40738134765625,-0.882781982421875,-0.3159942626953125,0.1218109130859375
1772457913553449200,5.41744921875,-0.90460205078125,-0.3105010986328125,0.1008148193359375
1772457913563517400,5.427517333984375,-0.9318389892578125,-0.3003997802734375,0.0777587890625
1772457913573585200,5.437585205078125,-0.9568328857421875,-0.290985107421875,0.059417724609375
1772457913583653000,5.447653076171875,-0.9851531982421875,-0.2807464599609375,0.047149658203125
1772457913593721000,5.45772119140625,-1.0050048828125,-0.26605224609375,0.041900634765625
1772457913603789300,5.467789306640625,-1.0046844482421875,-0.2550201416015625,0.051513671875
1772457913613857300,5.477857177734375,-0.9934844970703125,-0.2451019287109375,0.0735626220703125
1772457913623926300,5.48792626953125,-0.9819488525390625,-0.238189697265625,0.1009521484375
1772457913633994200,5.497994140625,-0.96893310546875,-0.2337646484375,0.1219482421875
1772457913644062200,5.508062255859375,-0.9555816650390625,-0.23333740234375,0.1404571533203125
1772457913654130200,5.518130126953125,-0.9349517822265625,-0.2386627197265625,0.1531829833984375
1772457913664198100,5.5281982421875,-0.9172821044921875,-0.2450714111328125,0.160247802734375
1772457913674266400,5.538266357421875,-0.9010772705078125,-0.250213623046875,0.1607513427734375
1772457913684334300,5.548334228515625,-0.8879547119140625,-0.2574462890625,0.1547393798828125
1772457913694402300,5.55840234375,-0.8840179443359375,-0.2653961181640625,0.1483612060546875
1772457913704470300,5.56847021484375,-0.8827667236328125,-0.270233154296875,0.140380859375
1772457913714538200,5.578538330078125,-0.8818817138671875,-0.2732086181640625,0.1313934326171875
1772457913724607200,5.588607177734375,-0.881927490234375,-0.2747802734375,0.12445068359375
1772457913734675200,5.59867529296875,-0.8845672607421875,-0.2777252197265625,0.1237030029296875
1772457913744743400,5.608743408203125,-0.8948516845703125,-0.2797698974609375,0.1242828369140625
1772457913754811400,5.618811279296875,-0.9097137451171875,-0.2761383056640625,0.122802734375
1772457913764879000,5.628879150390625,-0.91656494140625,-0.2707366943359375,0.126373291015625
1772457913774947000,5.638947021484375,-0.9209747314453125,-0.2696685791015625,0.1266326904296875
1772457913785015300,5.649015380859375,-0.92828369140625,-0.2692413330078125,0.119903564453125
1772457913795083300,5.659083251953125,-0.9439239501953125,-0.27215576171875,0.11053466796875
1772457913805151200,5.669151123046875,-0.956390380859375,-0.2727203369140625,0.1027679443359375
1772457913815219200,5.67921923828125,-0.959808349609375,-0.27587890625,0.0989532470703125
1772457913825288200,5.6892880859375,-0.9696502685546875,-0.2779693603515625,0.0924835205078125
1772457913835356200,5.699356201171875,-0.98052978515625,-0.2741546630859375,0.0854339599609375
1772457913845424000,5.709424072265625,-0.9986572265625,-0.2722015380859375,0.08099365234375
1772457913855492400,5.719492431640625,-1.014617919921875,-0.2701416015625,0.0809478759765625
1772457913865560300,5.729560302734375,-1.026031494140625,-0.2630157470703125,0.084442138671875
1772457913875628300,5.739628173828125,-1.037841796875,-0.2589569091796875,0.09130859375
1772457913885696300,5.7496962890625,-1.0521240234375,-0.2560272216796875,0.092376708984375
1772457913895764200,5.75976416015625,-1.067138671875,-0.256561279296875,0.08941650390625
1772457913905832200,5.769832275390625,-1.0726776123046875,-0.2628326416015625,0.084564208984375
1772457913915900200,5.779900146484375,-1.06378173828125,-0.2726287841796875,0.0852508544921875
1772457913925969400,5.789969482421875,-1.04864501953125,-0.2833709716796875,0.0904083251953125
1772457913936037400,5.800037353515625,-1.031768798828125,-0.2931671142578125,0.0978851318359375
1772457913946105300,5.810105224609375,-1.01141357421875,-0.30267333984375,0.102813720703125
1772457913956173000,5.820173095703125,-0.9982147216796875,-0.3115081787109375,0.1024169921875
1772457913966241300,5.8302412109375,-0.992401123046875,-0.3191070556640625,0.1032257080078125
1772457913976309200,5.840309326171875,-0.9910125732421875,-0.3223419189453125,0.104400634765625
1772457913986377200,5.850377197265625,-0.986358642578125,-0.3256683349609375,0.1061553955078125
1772457913996445200,5.860445068359375,-0.97296142578125,-0.3281097412109375,0.1129913330078125
1772457914006513400,5.870513427734375,-0.9630584716796875,-0.328033447265625,0.11480712890625
1772457914016581400,5.880581298828125,-0.956298828125,-0.3293914794921875,0.119171142578125
1772457914026650000,5.890650146484375,-0.9493560791015625,-0.3323822021484375,0.1193084716796875
1772457914036718300,5.90071826171875,-0.941192626953125,-0.3370819091796875,0.1206512451171875
1772457914046786300,5.910786376953125,-0.93389892578125,-0.3465118408203125,0.118743896484375
1772457914056854300,5.920854248046875,-0.9256591796875,-0.351593017578125,0.1192779541015625
1772457914066922200,5.930922119140625,-0.912994384765625,-0.358184814453125,0.1206512451171875
1772457914076990500,5.940990478515625,-0.903656005859375,-0.36474609375,0.12615966796875
1772457914087058400,5.951058349609375,-0.904754638671875,-0.3683013916015625,0.12957763671875
1772457914097126100,5.961126220703125,-0.9087371826171875,-0.37103271484375,0.130706787109375
1772457914107194000,5.971194091796875,-0.9084014892578125,-0.37457275390625,0.1246795654296875
1772457914117262300,5.981262451171875,-0.909271240234375,-0.3797760009765625,0.1196746826171875
1772457914127331300,5.991331298828125,-0.90264892578125,-0.3778228759765625,0.11798095703125
1772457914137399300,6.0013994140625,-0.89727783203125,-0.3800506591796875,0.1209564208984375
1772457914147467300,6.01146728515625,-0.899688720703125,-0.373443603515625,0.1255035400390625
1772457914157535200,6.02153515625,-0.9031524658203125,-0.371429443359375,0.1244659423828125
1772457914167603200,6.031603271484375,-0.915283203125,-0.374420166015625,0.12957763671875
1772457914177671200,6.041671142578125,-0.944305419921875,-0.3925933837890625,0.1575927734375
1772457914187739400,6.051739501953125,-0.932830810546875,-0.415679931640625,0.197357177734375
1772457914197807400,6.061807373046875,-0.873138427734375,-0.405914306640625,0.1895294189453125
1772457914207875300,6.071875244140625,-0.866485595703125,-0.40185546875,0.1669769287109375
1772457914217943300,6.081943359375,-0.8986968994140625,-0.4010467529296875,0.1431884765625
1772457914228012300,6.09201220703125,-0.924072265625,-0.3936614990234375,0.1185150146484375
1772457914238080300,6.102080322265625,-0.93994140625,-0.39093017578125,0.11016845703125
1772457914248148200,6.112148193359375,-0.9393463134765625,-0.3881378173828125,0.11395263671875
1772457914258216200,6.12221630859375,-0.9344482421875,-0.3747406005859375,0.1123809814453125
1772457914268284200,6.1322841796875,-0.951385498046875,-0.364959716796875,0.1067657470703125
1772457914278352100,6.14235205078125,-0.98162841796875,-0.35479736328125,0.092864990234375
1772457914288419800,6.152419921875,-1.0113983154296875,-0.338958740234375,0.079345703125
1772457914298488000,6.162488037109375,-1.0334625244140625,-0.3197174072265625,0.073760986328125
1772457914308556000,6.17255615234375,-1.04833984375,-0.299530029296875,0.0811614990234375
1772457914318624000,6.1826240234375,-1.05584716796875,-0.2850799560546875,0.09375
1772457914328693200,6.192693359375,-1.0508270263671875,-0.272064208984375,0.105926513671875
1772457914338761200,6.20276123046875,-1.0412750244140625,-0.260009765625,0.11370849609375
1772457914348829000,6.212828857421875,-1.0241851806640625,-0.2570343017578125,0.1219329833984375
1772457914358897000,6.22289697265625,-0.99566650390625,-0.257476806640625,0.1316680908203125
1772457914368965000,6.232965087890625,-0.96356201171875,-0.2573089599609375,0.1439666748046875
1772457914379033000,6.243033203125,-0.9377288818359375,-0.2635498046875,0.153106689453125
1772457914389101000,6.25310107421875,-0.92401123046875,-0.2672119140625,0.15625
1772457914399169000,6.2631689453125,-0.917755126953125,-0.2683868408203125,0.1504669189453125
1772457914409237200,6.2732373046875,-0.9152984619140625,-0.2672119140625,0.138153076171875
1772457914419305000,6.283304931640625,-0.916961669921875,-0.2675323486328125,0.1270904541015625
1772457914429374000,6.2933740234375,-0.9111785888671875,-0.26153564453125,0.119598388671875
1772457914439442200,6.303442138671875,-0.913543701171875,-0.2555389404296875,0.1065521240234375
1772457914449510100,6.31351025390625,-0.925689697265625,-0.2450103759765625,0.090301513671875
1772457914459578000,6.323578125,-0.9368896484375,-0.2314910888671875,0.073272705078125
1772457914469646000,6.33364599609375,-0.95233154296875,-0.22052001953125,0.05316162109375
1772457914479714000,6.343714111328125,-0.9629364013671875,-0.2122955322265625,0.0333404541015625
1772457914489782000,6.353781982421875,-0.96441650390625,-0.2070465087890625,0.01959228515625
1772457914499850000,6.36385009765625,-0.963653564453125,-0.204315185546875,0.0084228515625
1772457914509918000,6.37391796875,-0.959503173828125,-0.20770263671875,0.00494384765625
1772457914519986200,6.383986083984375,-0.9424591064453125,-0.21197509765625,0.0078887939453125
1772457914530055200,6.39405517578125,-0.9249267578125,-0.2155303955078125,0.018646240234375
1772457914540123000,6.404122802734375,-0.907562255859375,-0.218963623046875,0.0336151123046875
1772457914550191000,6.414191162109375,-0.90313720703125,-0.2196197509765625,0.04937744140625
1772457914560259000,6.424259033203125,-0.904327392578125,-0.217864990234375,0.056732177734375
1772457914570327000,6.4343271484375,-0.9078216552734375,-0.2168731689453125,0.0648651123046875
1772457914580395000,6.44439501953125,-0.916290283203125,-0.2186737060546875,0.069732666015625
1772457914590463200,6.454463134765625,-0.9229583740234375,-0.2161712646484375,0.068878173828125
1772457914600531200,6.46453125,-0.9312286376953125,-0.214111328125,0.06353759765625
1772457914610599200,6.47459912109375,-0.947113037109375,-0.2145538330078125,0.05792236328125
1772457914620667000,6.4846669921875,-0.961029052734375,-0.214447021484375,0.0559234619140625
1772457914630736100,6.494736083984375,-0.9712371826171875,-0.2137603759765625,0.05609130859375
1772457914640804000,6.50480419921875,-0.9721221923828125,-0.215850830078125,0.0629119873046875
1772457914650872000,6.5148720703125,-0.9644775390625,-0.221588134765625,0.072723388671875
1772457914660940300,6.524940185546875,-0.9587860107421875,-0.2300262451171875,0.07830810546875
1772457914671008000,6.535008056640625,-0.958740234375,-0.2393951416015625,0.0791168212890625
1772457914681076000,6.545075927734375,-0.9569854736328125,-0.2456207275390625,0.081146240234375
1772457914691144000,6.55514404296875,-0.95428466796875,-0.256927490234375,0.08978271484375
1772457914701212200,6.565212158203125,-0.94915771484375,-0.272796630859375,0.0970611572265625
1772457914711280000,6.575280029296875,-0.943145751953125,-0.2894744873046875,0.1034393310546875
1772457914721349000,6.58534912109375,-0.9411163330078125,-0.2998046875,0.11151123046875
1772457914731416800,6.595416748046875,-0.9443511962890625,-0.3098907470703125,0.1125946044921875
1772457914741485000,6.605485107421875,-0.9531707763671875,-0.3159942626953125,0.1022186279296875
1772457914751553000,6.615552978515625,-0.964111328125,-0.31707763671875,0.0926666259765625
1772457914761621000,6.62562109375,-0.96771240234375,-0.3174896240234375,0.0892486572265625
1772457914771689000,6.63568896484375,-0.9601287841796875,-0.3183441162109375,0.0910186767578125
1772457914781757200,6.645757080078125,-0.947662353515625,-0.32000732421875,0.096771240234375
1772457914791825200,6.6558251953125,-0.9356536865234375,-0.319915771484375,0.097991943359375
1772457914801893000,6.66589306640625,-0.9295501708984375,-0.3219757080078125,0.0934295654296875
1772457914811960800,6.6759609375,-0.9297943115234375,-0.3242034912109375,0.0849151611328125
1772457914822029000,6.686029052734375,-0.9228057861328125,-0.329986572265625,0.07635498046875
1772457914832098000,6.69609814453125,-0.9103851318359375,-0.335601806640625,0.0713958740234375
1772457914842166000,6.706166015625,-0.896697998046875,-0.3392791748046875,0.0714874267578125
1772457914852234200,6.716234130859375,-0.88836669921875,-0.34063720703125,0.0642547607421875
1772457914862302000,6.726302001953125,-0.892333984375,-0.3402862548828125,0.05718994140625
1772457914872370000,6.736369873046875,-0.9013519287109375,-0.3337860107421875,0.0531463623046875
1772457914882438000,6.74643798828125,-0.9002838134765625,-0.3221282958984375,0.04827880859375
1772457914892506000,6.756506103515625,-0.8928375244140625,-0.31402587890625,0.048736572265625
1772457914902574000,6.766573974609375,-0.88250732421875,-0.3056488037109375,0.052764892578125
1772457914912642000,6.77664208984375,-0.87994384765625,-0.299102783203125,0.0488128662109375
1772457914922711000,6.7867109375,-0.8871307373046875,-0.2959747314453125,0.0394744873046875
1772457914932779000,6.796779052734375,-0.8872222900390625,-0.2960357666015625,0.0331268310546875
1772457914942847000,6.806846923828125,-0.8853302001953125,-0.29779052734375,0.0279998779296875
1772457914952915000,6.8169150390625,-0.8884124755859375,-0.30401611328125,0.0226287841796875
1772457914962983200,6.826983154296875,-0.8917999267578125,-0.3106689453125,0.0176239013671875
1772457914973051100,6.837051025390625,-0.8982086181640625,-0.3176116943359375,0.0140380859375
1772457914983119000,6.847119140625,-0.904571533203125,-0.321380615234375,0.0128936767578125
1772457914993187000,6.85718701171875,-0.90679931640625,-0.3218841552734375,0.0175323486328125
1772457915003255000,6.867255126953125,-0.903594970703125,-0.3214569091796875,0.02117919921875
1772457915013323000,6.877322998046875,-0.90576171875,-0.3150634765625,0.022369384765625
1772457915023392000,6.88739208984375,-0.923187255859375,-0.3076019287109375,0.0242767333984375
1772457915033460200,6.897460205078125,-0.9504547119140625,-0.296234130859375,0.0188751220703125
1772457915043528200,6.907528076171875,-0.9812164306640625,-0.2790069580078125,0.0094451904296875
1772457915053596000,6.917595947265625,-1.0088043212890625,-0.2648162841796875,0.010162353515625
1772457915063663900,6.927663818359375,-1.031707763671875,-0.2590484619140625,0.0235443115234375
1772457915073732000,6.937732177734375,-1.0381622314453125,-0.2621612548828125,0.0414581298828125
1772457915083800000,6.947800048828125,-1.0205230712890625,-0.264495849609375,0.0523681640625
1772457915093868000,6.957867919921875,-1.01458740234375,-0.2726898193359375,0.0515899658203125
1772457915103936000,6.96793603515625,-1.0275115966796875,-0.284820556640625,0.0455169677734375
1772457915114004200,6.978004150390625,-1.031524658203125,-0.2932586669921875,0.03106689453125
1772457915124073000,6.988072998046875,-1.0308990478515625,-0.29931640625,0.0218505859375
1772457915134141000,6.998140869140625,-1.02532958984375,-0.302703857421875,0.0183258056640625
1772457915144209200,7.008209228515625,-1.0150299072265625,-0.304351806640625,0.023193359375
1772457915154277000,7.018277099609375,-1.0099945068359375,-0.308929443359375,0.034942626953125
1772457915164345000,7.028344970703125,-1.000152587890625,-0.314056396484375,0.049041748046875
1772457915174413000,7.0384130859375,-0.9798126220703125,-0.317962646484375,0.0590667724609375
1772457915184481000,7.04848095703125,-0.9671783447265625,-0.31982421875,0.067657470703125
1772457915194549000,7.058549072265625,-0.9718780517578125,-0.316680908203125,0.0686492919921875
1772457915204617000,7.068616943359375,-0.9842529296875,-0.3096771240234375,0.06036376953125
1772457915214685000,7.078684814453125,-0.998870849609375,-0.3027191162109375,0.051727294921875
1772457915224754200,7.088754150390625,-1.0054931640625,-0.2915496826171875,0.0494842529296875
1772457915234822100,7.098822265625,-1.0153656005859375,-0.283905029296875,0.0497894287109375
1772457915244889900,7.108889892578125,-1.0229339599609375,-0.269012451171875,0.045074462890625
1772457915254958000,7.1189580078125,-1.0229949951171875,-0.2534942626953125,0.047943115234375
1772457915265026000,7.129026123046875,-1.0148162841796875,-0.24700927734375,0.060455322265625
1772457915275095000,7.139094970703125,-1.00213623046875,-0.2446136474609375,0.0755767822265625
1772457915285163000,7.1491630859375,-0.981231689453125,-0.2417755126953125,0.090728759765625
1772457915295231000,7.15923095703125,-0.9692535400390625,-0.2349090576171875,0.100677490234375
1772457915305298700,7.169298583984375,-0.975128173828125,-0.2254180908203125,0.10540771484375
1772457915315367000,7.179366943359375,-0.979217529296875,-0.2202301025390625,0.107635498046875
1772457915325436000,7.189435791015625,-0.97906494140625,-0.216949462890625,0.1053009033203125
1772457915335504000,7.19950390625,-0.9781341552734375,-0.2158355712890625,0.09844970703125
1772457915345572000,7.209572021484375,-0.96807861328125,-0.2129058837890625,0.09271240234375
1772457915355639800,7.219639892578125,-0.9564208984375,-0.215362548828125,0.0944976806640625
1772457915365707800,7.229707763671875,-0.9370880126953125,-0.21612548828125,0.0925140380859375
1772457915375775700,7.239775634765625,-0.92376708984375,-0.2194061279296875,0.091278076171875
1772457915385844000,7.249843994140625,-0.9161224365234375,-0.2202911376953125,0.0915679931640625
1772457915395912000,7.259911865234375,-0.8967132568359375,-0.2224578857421875,0.0931243896484375
1772457915405980000,7.26997998046875,-0.877410888671875,-0.2351226806640625,0.09716796875
1772457915416047900,7.2800478515625,-0.86199951171875,-0.245269775390625,0.1025543212890625
1772457915426116900,7.290116943359375,-0.8493804931640625,-0.249481201171875,0.1090087890625
1772457915436184800,7.300184814453125,-0.8425445556640625,-0.257110595703125,0.1179351806640625
1772457915446252800,7.310252685546875,-0.8357086181640625,-0.263153076171875,0.123870849609375
1772457915456321000,7.320321044921875,-0.8341827392578125,-0.273193359375,0.12945556640625
1772457915466389000,7.330388916015625,-0.836517333984375,-0.2800140380859375,0.1384735107421875
1772457915476457000,7.34045703125,-0.83856201171875,-0.287445068359375,0.14434814453125
1772457915486525000,7.35052490234375,-0.8408050537109375,-0.2945709228515625,0.1500091552734375
1772457915496593000,7.360593017578125,-0.84466552734375,-0.3037261962890625,0.163970947265625
1772457915506660900,7.370660888671875,-0.8510894775390625,-0.30865478515625,0.1796722412109375
1772457915516729900,7.380729736328125,-0.8664398193359375,-0.3137664794921875,0.19464111328125
1772457915526797800,7.3907978515625,-0.8900146484375,-0.31866455078125,0.202178955078125
1772457915536866000,7.400865966796875,-0.9061126708984375,-0.320770263671875,0.2031097412109375
1772457915546934000,7.41093408203125,-0.9179534912109375,-0.3236083984375,0.2027587890625
1772457915557001700,7.421001708984375,-0.9278564453125,-0.3218231201171875,0.196136474609375
1772457915567069700,7.431069580078125,-0.9387054443359375,-0.31756591796875,0.1935882568359375
1772457915577138000,7.441137939453125,-0.9468994140625,-0.3097381591796875,0.1841583251953125
1772457915587206000,7.451205810546875,-0.9520263671875,-0.2959442138671875,0.1686859130859375
1772457915597273900,7.46127392578125,-0.9642333984375,-0.28173828125,0.15496826171875
1772457915607342000,7.471342041015625,-0.9785003662109375,-0.2711944580078125,0.1436767578125
1772457915617410800,7.481410888671875,-0.9930572509765625,-0.2624664306640625,0.135467529296875
1772457915627478800,7.491478759765625,-1.01422119140625,-0.2530364990234375,0.1269683837890625
1772457915637546800,7.501546630859375,-1.0291290283203125,-0.2462615966796875,0.1230316162109375
1772457915647615000,7.511614990234375,-1.0338134765625,-0.23876953125,0.1279449462890625
1772457915657683000,7.521682861328125,-1.0211029052734375,-0.2333831787109375,0.13922119140625
1772457915667751000,7.5317509765625,-0.9994964599609375,-0.234710693359375,0.153564453125
1772457915677819000,7.54181884765625,-0.9807281494140625,-0.2408905029296875,0.1644134521484375
1772457915687886800,7.551886962890625,-0.9706268310546875,-0.2449188232421875,0.16754150390625
1772457915697954800,7.561954833984375,-0.96990966796875,-0.2492218017578125,0.1622772216796875
1772457915708022800,7.572022705078125,-0.9746246337890625,-0.2502899169921875,0.15350341796875
1772457915718092000,7.582092041015625,-0.979156494140625,-0.253021240234375,0.1451568603515625
1772457915728160000,7.592159912109375,-0.986114501953125,-0.2549285888671875,0.136260986328125
1772457915738228000,7.60222802734375,-0.998504638671875,-0.26007080078125,0.125335693359375
1772457915748295700,7.612295654296875,-1.010406494140625,-0.2612457275390625,0.11767578125
1772457915758364000,7.622364013671875,-1.0095367431640625,-0.2645416259765625,0.1156463623046875
1772457915768431900,7.632431884765625,-0.99871826171875,-0.266204833984375,0.116790771484375
1772457915778499800,7.642499755859375,-0.98651123046875,-0.2705078125,0.1151580810546875
1772457915788567800,7.65256787109375,-0.9795074462890625,-0.2793121337890625,0.1109466552734375
1772457915798636000,7.662635986328125,-0.9805450439453125,-0.288055419921875,0.103790283203125
1772457915808704000,7.6727041015625,-0.9913330078125,-0.3007659912109375,0.0983123779296875
1772457915818772700,7.682772705078125,-0.991180419921875,-0.3105010986328125,0.0930633544921875
1772457915828841000,7.692841064453125,-0.9851837158203125,-0.321075439453125,0.09039306640625
1772457915838909000,7.702908935546875,-0.973541259765625,-0.3309173583984375,0.0906219482421875
1772457915848977000,7.712976806640625,-0.9644775390625,-0.3404693603515625,0.0869903564453125
1772457915859044900,7.723044921875,-0.960357666015625,-0.35015869140625,0.083038330078125
1772457915869113000,7.733113037109375,-0.95806884765625,-0.35736083984375,0.079620361328125
1772457915879180800,7.743180908203125,-0.959014892578125,-0.36126708984375,0.080413818359375
1772457915889248800,7.753248779296875,-0.9503936767578125,-0.362823486328125,0.077301025390625
1772457915899316700,7.763316650390625,-0.9389190673828125,-0.367462158203125,0.0787506103515625
1772457915909385000,7.773385009765625,-0.9341888427734375,-0.3657684326171875,0.08551025390625
1772457915919454000,7.783453857421875,-0.9261932373046875,-0.3678131103515625,0.091033935546875
1772457915929522000,7.79352197265625,-0.9161529541015625,-0.36639404296875,0.0933074951171875
1772457915939590000,7.80358984375,-0.9122772216796875,-0.36444091796875,0.0946807861328125
1772457915949657900,7.813657958984375,-0.908233642578125,-0.3608245849609375,0.0966339111328125
1772457915959725800,7.823725830078125,-0.9000244140625,-0.3614959716796875,0.1024932861328125
1772457915969793800,7.833793701171875,-0.89178466796875,-0.3617706298828125,0.1069793701171875
1772457915979862000,7.843862060546875,-0.8851165771484375,-0.360107421875,0.1160736083984375
1772457915989930000,7.853929931640625,-0.8822174072265625,-0.3642120361328125,0.1253814697265625
1772457915999998000,7.863998046875,-0.88134765625,-0.3648529052734375,0.129058837890625
1772457916010066000,7.87406591796875,-0.8867645263671875,-0.3626861572265625,0.124481201171875
1772457916020135000,7.884135009765625,-0.895111083984375,-0.359527587890625,0.1144256591796875
1772457916030203000,7.894202880859375,-0.906402587890625,-0.357696533203125,0.107635498046875
1772457916040270800,7.904270751953125,-0.91888427734375,-0.3504791259765625,0.1036224365234375
1772457916050339000,7.914339111328125,-0.9301300048828125,-0.343017578125,0.0993804931640625
1772457916060407000,7.924406982421875,-0.93939208984375,-0.3351287841796875,0.0992889404296875
1772457916070474800,7.934474853515625,-0.9440460205078125,-0.32757568359375,0.1011810302734375
1772457916080542700,7.944542724609375,-0.9379425048828125,-0.321746826171875,0.1036834716796875
1772457916090611000,7.95461083984375,-0.927398681640625,-0.3231048583984375,0.107574462890625
1772457916100679000,7.964678955078125,-0.91729736328125,-0.325897216796875,0.117889404296875
1772457916110748000,7.974747802734375,-0.8959503173828125,-0.3327484130859375,0.12860107421875
1772457916120815900,7.98481591796875,-0.8653106689453125,-0.344024658203125,0.1357574462890625
1772457916130883800,7.9948837890625,-0.8399810791015625,-0.360321044921875,0.1384124755859375
1772457916140951800,8.004951904296876,-0.8267059326171875,-0.371185302734375,0.139739990234375
1772457916151019800,8.015019775390625,-0.81451416015625,-0.38433837890625,0.140533447265625
1772457916161088000,8.025087890625,-0.8067169189453125,-0.3983001708984375,0.1430206298828125
1772457916171156000,8.035156005859376,-0.7993927001953125,-0.408905029296875,0.145660400390625
1772457916181224000,8.045223876953125,-0.795379638671875,-0.4217376708984375,0.137054443359375
1772457916191292000,8.0552919921875,-0.7948150634765625,-0.4322052001953125,0.1222076416015625
1772457916201360000,8.06535986328125,-0.8053131103515625,-0.448089599609375,0.1020050048828125
1772457916211428900,8.075428955078126,-0.82470703125,-0.4550933837890625,0.0858154296875
1772457916221496800,8.085496826171875,-0.8386383056640625,-0.4582366943359375,0.0753021240234375
1772457916231565000,8.09556494140625,-0.8521881103515625,-0.4591827392578125,0.0708160400390625
1772457916241633000,8.105633056640626,-0.878753662109375,-0.4582366943359375,0.0688934326171875
1772457916251701000,8.115700927734375,-0.914031982421875,-0.4504241943359375,0.0706024169921875
1772457916261768700,8.125768798828124,-0.9533538818359375,-0.4378814697265625,0.0742950439453125
1772457916271836400,8.13583642578125,-0.985809326171875,-0.4275970458984375,0.0763397216796875
1772457916281904600,8.145904541015625,-1.0030670166015625,-0.4189453125,0.0777130126953125
1772457916291972600,8.15597265625,-1.023651123046875,-0.4078369140625,0.08001708984375
1772457916302040600,8.16604052734375,-1.0386810302734375,-0.398040771484375,0.0853729248046875
1772457916312109800,8.17610986328125,-1.057403564453125,-0.384490966796875,0.0769500732421875
1772457916322177500,8.186177490234375,-1.0568695068359375,-0.3834991455078125,0.069122314453125
1772457916332245500,8.19624560546875,-1.045989990234375,-0.3817901611328125,0.0693359375
1772457916342313500,8.2063134765625,-1.02978515625,-0.384552001953125,0.064483642578125
1772457916352381700,8.216381591796875,-1.0083465576171875,-0.3902740478515625,0.0584716796875
1772457916362449700,8.22644970703125,-0.9845733642578125,-0.39898681640625,0.053985595703125
1772457916372517600,8.236517578125,-0.956207275390625,-0.410430908203125,0.05078125
1772457916382585600,8.246585693359375,-0.9273529052734375,-0.4164581298828125,0.0548858642578125
1772457916392653800,8.25665380859375,-0.8996124267578125,-0.42340087890625,0.0566558837890625
1772457916402721500,8.266721435546875,-0.8740081787109375,-0.425933837890625,0.0615081787109375
1772457916412790500,8.27679052734375,-0.84979248046875,-0.4305267333984375,0.0707550048828125
1772457916422858800,8.286858642578125,-0.832000732421875,-0.4371337890625,0.0796356201171875
1772457916432926700,8.2969267578125,-0.82244873046875,-0.44390869140625,0.084930419921875
1772457916442994700,8.30699462890625,-0.8148193359375,-0.44537353515625,0.0897979736328125
1772457916453062700,8.317062744140625,-0.812957763671875,-0.4416961669921875,0.092987060546875
1772457916463130600,8.327130615234376,-0.8133697509765625,-0.4409637451171875,0.0961151123046875
1772457916473198600,8.337198486328125,-0.813995361328125,-0.4359283447265625,0.1036529541015625
1772457916483266600,8.3472666015625,-0.824066162109375,-0.42889404296875,0.109344482421875
1772457916493334500,8.35733447265625,-0.8480987548828125,-0.4150848388671875,0.11297607421875
1772457916503404500,8.367404541015626,-0.8747711181640625,-0.3975067138671875,0.1190185546875
1772457916513472500,8.377472412109375,-0.8861846923828125,-0.383636474609375,0.12451171875
1772457916523540700,8.387540771484375,-0.8916778564453125,-0.3759002685546875,0.128814697265625
1772457916533608700,8.397608642578126,-0.8965911865234375,-0.37017822265625,0.135345458984375
1772457916543676700,8.4076767578125,-0.9004058837890625,-0.3628082275390625,0.1368408203125
1772457916553744600,8.41774462890625,-0.9016876220703125,-0.360931396484375,0.1367950439453125
1772457916563813600,8.427813720703124,-0.9068603515625,-0.361602783203125,0.1343536376953125
1772457916573881600,8.437881591796875,-0.910980224609375,-0.35430908203125,0.12957763671875
1772457916583949600,8.447949462890625,-0.910491943359375,-0.351165771484375,0.12432861328125
1772457916594017800,8.458017822265624,-0.9104766845703125,-0.3489990234375,0.1236419677734375
1772457916604085800,8.468085693359376,-0.908355712890625,-0.3447265625,0.1223602294921875
1772457916614153700,8.47815380859375,-0.905792236328125,-0.3351593017578125,0.131683349609375
1772457916624221400,8.488221435546874,-0.915863037109375,-0.3258819580078125,0.130767822265625
1772457916634289700,8.49828955078125,-0.9271240234375,-0.312835693359375,0.1260986328125
1772457916644357600,8.508357666015625,-0.937255859375,-0.2921600341796875,0.12176513671875
1772457916654426600,8.518426513671875,-0.94525146484375,-0.276885986328125,0.121063232421875
1772457916664494800,8.528494873046874,-0.9480133056640625,-0.2766876220703125,0.1109466552734375
1772457916674562800,8.538562744140625,-0.941619873046875,-0.28607177734375,0.101287841796875
1772457916684630500,8.548630615234375,-0.9296112060546875,-0.2944183349609375,0.101287841796875
1772457916694698500,8.558698486328124,-0.900726318359375,-0.3020782470703125,0.1037139892578125
1772457916704766700,8.5687666015625,-0.8717193603515625,-0.3166046142578125,0.1118316650390625
1772457916714834700,8.578834716796875,-0.8475799560546875,-0.3282318115234375,0.1146240234375
1772457916724902700,8.588902587890624,-0.83135986328125,-0.33575439453125,0.107635498046875
1772457916734970600,8.598970703125,-0.8290557861328125,-0.3372955322265625,0.093994140625
1772457916745038800,8.609038818359375,-0.8351593017578125,-0.3319549560546875,0.0825347900390625
1772457916755107600,8.619107666015625,-0.836669921875,-0.3256988525390625,0.069671630859375
1772457916765175600,8.629175537109376,-0.838043212890625,-0.322052001953125,0.0610809326171875
1772457916775243500,8.639243408203125,-0.8491058349609375,-0.324005126953125,0.0497894287109375
1772457916785311700,8.649311767578125,-0.864013671875,-0.32342529296875,0.0434112548828125
1772457916795379700,8.659379638671876,-0.879669189453125,-0.3241729736328125,0.0414581298828125
1772457916805447700,8.66944775390625,-0.8900604248046875,-0.3289794921875,0.0448760986328125
1772457916815515400,8.679515380859375,-0.893890380859375,-0.3337554931640625,0.0514984130859375
1772457916825583600,8.68958349609375,-0.900634765625,-0.33697509765625,0.0610198974609375
1772457916835651600,8.699651611328125,-0.9072418212890625,-0.3408355712890625,0.070037841796875
1772457916845720600,8.709720458984375,-0.9095001220703125,-0.3446502685546875,0.0742645263671875
1772457916855788800,8.719788818359374,-0.910125732421875,-0.3485107421875,0.0723876953125
1772457916865856800,8.729856689453126,-0.91192626953125,-0.3543853759765625,0.0727386474609375
1772457916875924500,8.739924560546875,-0.9196929931640625,-0.3563995361328125,0.0731048583984375
1772457916885992400,8.749992431640624,-0.9212799072265625,-0.3614654541015625,0.0704803466796875
1772457916896060700,8.760060791015626,-0.914581298828125,-0.371124267578125,0.0666961669921875
1772457916906128600,8.770128662109375,-0.9028778076171875,-0.380645751953125,0.0676727294921875
1772457916916196600,8.780196533203124,-0.8919677734375,-0.3903961181640625,0.06396484375
1772457916926264600,8.7902646484375,-0.8861083984375,-0.3941802978515625,0.05462646484375
1772457916936333600,8.80033349609375,-0.8937835693359375,-0.39544677734375,0.0425567626953125
1772457916946401500,8.810401611328125,-0.9076995849609375,-0.395965576171875,0.0284881591796875
1772457916956469500,8.820469482421874,-0.928741455078125,-0.39532470703125,0.0063934326171875
1772457916966537700,8.830537841796875,-0.9420928955078125,-0.3909759521484375,-0.0064239501953125
1772457916976605700,8.840605712890625,-0.942230224609375,-0.39031982421875,-0.0113372802734375
1772457916986673700,8.850673583984374,-0.93853759765625,-0.395233154296875,-0.009063720703125
1772457916996741600,8.86074169921875,-0.931549072265625,-0.3995819091796875,-0.006866455078125
1772457917006809600,8.8708095703125,-0.9273529052734375,-0.402008056640625,-0.003631591796875
1772457917016877600,8.880877685546874,-0.930908203125,-0.4047698974609375,0.001129150390625
1772457917026945500,8.890945556640625,-0.9361114501953125,-0.4030914306640625,0.0059814453125
1772457917037013500,8.901013427734375,-0.9428253173828125,-0.3952789306640625,0.0150604248046875
1772457917047082800,8.911082763671875,-0.9431610107421875,-0.3896484375,0.029266357421875
1772457917057150700,8.921150634765626,-0.94097900390625,-0.386444091796875,0.0427703857421875
1772457917067218400,8.931218505859375,-0.9398193359375,-0.3827972412109375,0.050567626953125
1772457917077286700,8.94128662109375,-0.9460906982421875,-0.3786773681640625,0.0517120361328125
1772457917087354600,8.951354736328126,-0.951202392578125,-0.3761444091796875,0.055389404296875
1772457917097422600,8.961422607421875,-0.9459075927734375,-0.3765106201171875,0.059295654296875
1772457917107490600,8.971490478515625,-0.9405670166015625,-0.382110595703125,0.0649261474609375
1772457917117558800,8.981558837890624,-0.9401092529296875,-0.3895111083984375,0.0731964111328125
1772457917127626800,8.991626708984375,-0.9403839111328125,-0.393951416015625,0.0749969482421875
1772457917137695500,9.001695556640625,-0.94012451171875,-0.3980712890625,0.0736236572265625
1772457917147763700,9.011763671875,-0.937286376953125,-0.4034881591796875,0.07244873046875
1772457917157831700,9.021831787109376,-0.9373931884765625,-0.4084320068359375,0.0738983154296875
1772457917167899600,9.031899658203125,-0.9325103759765625,-0.41241455078125,0.074951171875
1772457917177967600,9.041967529296874,-0.930877685546875,-0.413482666015625,0.0765228271484375
1772457917188035800,9.052035888671876,-0.93963623046875,-0.4125823974609375,0.0787353515625
1772457917198103600,9.062103515625,-0.94921875,-0.40789794921875,0.079193115234375
1772457917208171500,9.072171630859375,-0.9582366943359375,-0.4036102294921875,0.0828704833984375
1772457917218239500,9.082239501953126,-0.9706573486328125,-0.398712158203125,0.08154296875
1772457917228308700,9.092308837890625,-0.9756927490234375,-0.3942718505859375,0.0801849365234375
1772457917238376700,9.102376708984375,-0.9743804931640625,-0.3969268798828125,0.0777130126953125
1772457917248444700,9.112444580078124,-0.9748687744140625,-0.4022064208984375,0.0708160400390625
1772457917258512600,9.1225126953125,-0.971099853515625,-0.4058837890625,0.0641021728515625
1772457917268580600,9.13258056640625,-0.96270751953125,-0.4019927978515625,0.0615997314453125
1772457917278648600,9.142648681640624,-0.966888427734375,-0.4051666259765625,0.0636749267578125
1772457917288716500,9.152716552734375,-0.99029541015625,-0.4203643798828125,0.0701904296875
1772457917298784800,9.16278466796875,-0.994293212890625,-0.44683837890625,0.0781402587890625
1772457917308852700,9.172852783203124,-0.9483184814453125,-0.45233154296875,0.06036376953125
1772457917318920700,9.182920654296876,-0.91973876953125,-0.444976806640625,0.031768798828125
1772457917328989700,9.19298974609375,-0.9474029541015625,-0.4429779052734375,0.004913330078125
1772457917339057700,9.2030576171875,-0.9751129150390625,-0.4427642822265625,-0.014434814453125
1772457917349125600,9.213125732421876,-0.98291015625,-0.4402618408203125,-0.022613525390625
1772457917359193600,9.223193603515625,-0.989532470703125,-0.4208526611328125,-0.035369873046875
1772457917369261800,9.23326171875,-0.9994354248046875,-0.394561767578125,-0.04815673828125
1772457917379329800,9.243329833984374,-1.0158538818359375,-0.3784332275390625,-0.0496673583984375
1772457917389397500,9.2533974609375,-1.0139007568359375,-0.3660736083984375,-0.0437774658203125
1772457917399465500,9.263465576171875,-0.99114990234375,-0.3548126220703125,-0.0296783447265625
1772457917409533700,9.27353369140625,-0.95294189453125,-0.34735107421875,-0.010406494140625
1772457917419601700,9.2836015625,-0.9073486328125,-0.3394317626953125,0.004974365234375
1772457917429670700,9.293670654296875,-0.8760833740234375,-0.331085205078125,0.0184173583984375
1772457917439738600,9.303738525390624,-0.8562469482421875,-0.328460693359375,0.0281219482421875
1772457917449806600,9.313806640625,-0.8393096923828125,-0.32989501953125,0.03082275390625
1772457917459874600,9.32387451171875,-0.821990966796875,-0.3297271728515625,0.0233917236328125
1772457917469942500,9.333942626953124,-0.81475830078125,-0.3331451416015625,0.01641845703125
1772457917480010800,9.3440107421875,-0.8168487548828125,-0.3384246826171875,0.013031005859375
1772457917490078700,9.35407861328125,-0.82843017578125,-0.347625732421875,0.01312255859375
1772457917500146700,9.364146728515625,-0.836395263671875,-0.352081298828125,0.0161285400390625
1772457917510214700,9.374214599609376,-0.83953857421875,-0.3517303466796875,0.0205230712890625
1772457917520283600,9.38428369140625,-0.8390350341796875,-0.3538055419921875,0.0324249267578125
1772457917530351600,9.3943515625,-0.83514404296875,-0.3566436767578125,0.0444793701171875
1772457917540419600,9.404419677734374,-0.8249664306640625,-0.3623199462890625,0.053253173828125
1772457917550487600,9.414487548828125,-0.81634521484375,-0.3674468994140625,0.0651092529296875
1772457917560555800,9.4245556640625,-0.81988525390625,-0.372314453125,0.0738525390625
1772457917570623700,9.434623779296874,-0.8348541259765625,-0.37261962890625,0.0803985595703125
1772457917580691500,9.44469140625,-0.851348876953125,-0.37005615234375,0.0836334228515625
1772457917590759700,9.454759765625,-0.865753173828125,-0.36865234375,0.0893096923828125
1772457917600827600,9.46482763671875,-0.87646484375,-0.3649139404296875,0.0950469970703125
1772457917610896600,9.474896728515626,-0.8795623779296875,-0.35968017578125,0.1009521484375
1772457917620964600,9.484964599609375,-0.8915863037109375,-0.3580780029296875,0.11126708984375
1772457917631032800,9.49503271484375,-0.9165191650390625,-0.35748291015625,0.1198272705078125
1772457917641100500,9.5051005859375,-0.92315673828125,-0.3550262451171875,0.13079833984375
1772457917651168500,9.51516845703125,-0.912322998046875,-0.3582611083984375,0.14569091796875
1772457917661236500,9.525236572265625,-0.889373779296875,-0.3661041259765625,0.1568145751953125
1772457917671304700,9.5353046875,-0.870452880859375,-0.37359619140625,0.16729736328125
1772457917681372700,9.54537255859375,-0.862030029296875,-0.38360595703125,0.1723175048828125
1772457917691440600,9.555440673828125,-0.865631103515625,-0.390960693359375,0.1670684814453125
1772457917701508600,9.565508544921874,-0.873870849609375,-0.3916778564453125,0.15283203125
1772457917711577600,9.57557763671875,-0.88299560546875,-0.3934783935546875,0.1380462646484375
1772457917721645600,9.5856455078125,-0.8862152099609375,-0.3883056640625,0.1247100830078125
1772457917731713500,9.595713623046874,-0.889495849609375,-0.377471923828125,0.1137237548828125
1772457917741781800,9.60578173828125,-0.9031829833984375,-0.365570068359375,0.10650634765625
1772457917751849700,9.615849609375,-0.9178009033203125,-0.3548431396484375,0.10394287109375
1772457917761917700,9.625917724609375,-0.9308319091796875,-0.346710205078125,0.0995941162109375
1772457917771985400,9.6359853515625,-0.9357757568359375,-0.3426055908203125,0.0975799560546875
1772457917782053600,9.6460537109375,-0.9372100830078125,-0.3424072265625,0.1003875732421875
1772457917792121600,9.65612158203125,-0.9345703125,-0.342498779296875,0.1058502197265625
1772457917802190600,9.666190673828124,-0.92779541015625,-0.3440704345703125,0.11309814453125
1772457917812258800,9.6762587890625,-0.9355010986328125,-0.3472900390625,0.1232147216796875
1772457917822326800,9.686326904296875,-0.9476318359375,-0.34722900390625,0.13299560546875
1772457917832394500,9.69639453125,-0.9472808837890625,-0.35186767578125,0.138946533203125
1772457917842462500,9.70646240234375,-0.9437103271484375,-0.360565185546875,0.1372833251953125
1772457917852530700,9.71653076171875,-0.93548583984375,-0.3740234375,0.12933349609375
1772457917862598700,9.7265986328125,-0.9223785400390625,-0.385467529296875,0.12060546875
1772457917872666600,9.73666650390625,-0.91229248046875,-0.393798828125,0.11419677734375
1772457917882734600,9.746734619140625,-0.9141845703125,-0.397216796875,0.11273193359375
1772457917892802800,9.756802734375,-0.9179229736328125,-0.39678955078125,0.1110076904296875
1772457917902871600,9.76687158203125,-0.9248809814453125,-0.3964385986328125,0.109344482421875
1772457917912939500,9.776939453125,-0.936431884765625,-0.396148681640625,0.1037750244140625
1772457917923007700,9.7870078125,-0.9407806396484375,-0.394012451171875,0.09600830078125
1772457917933075700,9.79707568359375,-0.942138671875,-0.3952484130859375,0.0861053466796875
1772457917943143700,9.807143798828125,-0.9423828125,-0.395660400390625,0.0751953125
1772457917953211600,9.817211669921875,-0.9434967041015625,-0.3978271484375,0.06427001953125
1772457917963279600,9.827279541015624,-0.943389892578125,-0.3983612060546875,0.056488037109375
1772457917973347600,9.83734765625,-0.9378662109375,-0.4006500244140625,0.052978515625
1772457917983415600,9.84741552734375,-0.9333343505859375,-0.40313720703125,0.05035400390625
1772457917993484800,9.85748486328125,-0.9302215576171875,-0.4072113037109375,0.044677734375
1772457918003552800,9.867552734375,-0.9232177734375,-0.4125823974609375,0.04071044921875
1772457918013620700,9.877620849609375,-0.9119110107421875,-0.4140167236328125,0.0371856689453125
1772457918023688400,9.8876884765625,-0.9031219482421875,-0.4170379638671875,0.0367889404296875
1772457918033756700,9.897756591796876,-0.89471435546875,-0.4181060791015625,0.043304443359375
1772457918043824600,9.90782470703125,-0.8886260986328125,-0.4176025390625,0.053192138671875
1772457918053892600,9.917892578125,-0.893707275390625,-0.41278076171875,0.0573883056640625
1772457918063960600,9.927960693359376,-0.9065399169921875,-0.4034576416015625,0.058135986328125
1772457918074028800,9.93802880859375,-0.919403076171875,-0.397918701171875,0.05340576171875
1772457918084097500,9.94809765625,-0.9260101318359375,-0.3940582275390625,0.052520751953125
1772457918094165500,9.95816552734375,-0.925628662109375,-0.393646240234375,0.04888916015625
1772457918104233700,9.968233642578125,-0.9305267333984375,-0.3922119140625,0.049652099609375
1772457918114301700,9.9783017578125,-0.9370574951171875,-0.3886566162109375,0.05499267578125
1772457918124369700,9.98836962890625,-0.94683837890625,-0.383514404296875,0.054901123046875
1772457918134437600,9.998437744140626,-0.95452880859375,-0.3825836181640625,0.0615081787109375
1772457918144505900,10.008505859375,-0.9521026611328125,-0.3870849609375,0.079620361328125
1772457918154573600,10.018573486328124,-0.9499664306640625,-0.4023590087890625,0.1048126220703125
1772457918164641500,10.0286416015625,-0.9308929443359375,-0.4206390380859375,0.1240234375
1772457918174709500,10.03870947265625,-0.904876708984375,-0.4268035888671875,0.1204681396484375
1772457918184778800,10.04877880859375,-0.885101318359375,-0.415679931640625,0.10797119140625
1772457918194846700,10.0588466796875,-0.8948974609375,-0.418121337890625,0.1015472412109375
1772457918204914700,10.068914794921875,-0.9243011474609375,-0.4342041015625,0.0966339111328125
1772457918214982700,10.078982666015625,-0.929351806640625,-0.4299163818359375,0.0859222412109375
1772457918225050600,10.089050537109374,-0.9228057861328125,-0.4166717529296875,0.080963134765625
1772457918235118600,10.09911865234375,-0.921661376953125,-0.4027557373046875,0.073699951171875
1772457918245186600,10.1091865234375,-0.923492431640625,-0.3809814453125,0.0554962158203125
1772457918255254800,10.1192548828125,-0.94439697265625,-0.3642578125,0.0303802490234375
1772457918265322800,10.12932275390625,-0.98687744140625,-0.348358154296875,0.006744384765625
1772457918275391200,10.13939111328125,-1.0144500732421875,-0.328887939453125,-0.0020294189453125
1772457918285459200,10.149459228515624,-1.0183868408203125,-0.3165283203125,0.0041046142578125
1772457918295527200,10.159527099609376,-1.0147705078125,-0.308349609375,0.0175323486328125
1772457918305595400,10.169595458984375,-1.0066070556640625,-0.3008880615234375,0.0318145751953125
1772457918315663400,10.179663330078125,-0.991943359375,-0.298583984375,0.051177978515625
1772457918325731300,10.1897314453125,-0.9786529541015625,-0.3015289306640625,0.064666748046875
1772457918335799300,10.19979931640625,-0.9670257568359375,-0.3028564453125,0.0606842041015625
1772457918345867500,10.209867431640625,-0.9457855224609375,-0.2976531982421875,0.0615081787109375
1772457918355935200,10.219935302734376,-0.948455810546875,-0.2960662841796875,0.055023193359375
1772457918366004200,10.230004150390625,-0.9584503173828125,-0.29241943359375,0.0411224365234375
1772457918376072400,10.240072509765625,-0.9689178466796875,-0.2892608642578125,0.027435302734375
1772457918386140400,10.250140380859374,-0.9814300537109375,-0.2901153564453125,0.017364501953125
1772457918396208400,10.26020849609375,-0.9842987060546875,-0.2898406982421875,0.00433349609375
1772457918406276400,10.2702763671875,-0.9864044189453125,-0.294036865234375,-0.0074615478515625
1772457918416344300,10.28034423828125,-0.9789886474609375,-0.30010986328125,-0.0160064697265625
1772457918426412300,10.290412353515626,-0.9593963623046875,-0.304901123046875,-0.0179290771484375
1772457918436480300,10.300480224609375,-0.937591552734375,-0.3136444091796875,-0.0200042724609375
1772457918446548200,10.31054833984375,-0.919158935546875,-0.3273162841796875,-0.0161590576171875
1772457918456617500,10.320617431640626,-0.89959716796875,-0.334808349609375,-0.0178070068359375
1772457918466685200,10.330685302734375,-0.888427734375,-0.3379364013671875,-0.0209197998046875
1772457918476753200,10.340753173828125,-0.8868560791015625,-0.34014892578125,-0.0239715576171875
1772457918486821400,10.3508212890625,-0.8855133056640625,-0.3387908935546875,-0.025787353515625
1772457918496889300,10.360889404296875,-0.8785858154296875,-0.3351287841796875,-0.028564453125
1772457918506957300,10.370957275390625,-0.8690185546875,-0.3374176025390625,-0.02532958984375
1772457918517025300,10.381025390625,-0.85711669921875,-0.3360595703125,-0.02783203125
1772457918527093500,10.391093505859375,-0.86273193359375,-0.3304901123046875,-0.0363616943359375
1772457918537161500,10.401161376953125,-0.8772125244140625,-0.3242034912109375,-0.0405731201171875
1772457918547229200,10.411229248046874,-0.8860931396484375,-0.3140106201171875,-0.0435791015625
1772457918557298400,10.42129833984375,-0.88983154296875,-0.309326171875,-0.03485107421875
1772457918567366400,10.431366455078125,-0.8789520263671875,-0.3045806884765625,-0.01904296875
1772457918577434400,10.441434326171875,-0.8635101318359375,-0.3004150390625,-0.0093994140625
1772457918587502300,10.45150244140625,-0.8563079833984375,-0.3032379150390625,-0.0040283203125
1772457918597570300,10.4615703125,-0.8611907958984375,-0.302215576171875,-0.006378173828125
1772457918607638300,10.47163818359375,-0.8536834716796875,-0.297637939453125,-0.015106201171875
1772457918617706200,10.481706298828126,-0.8379974365234375,-0.294403076171875,-0.019317626953125
1772457918627774200,10.491774169921875,-0.8311767578125,-0.296234130859375,-0.015960693359375
1772457918637842400,10.501842529296875,-0.830108642578125,-0.292633056640625,-0.0216064453125
1772457918647911400,10.511911376953124,-0.8444976806640625,-0.287445068359375,-0.0300445556640625
1772457918657979100,10.521979248046875,-0.878814697265625,-0.2855224609375,-0.040740966796875
1772457918668047000,10.532047119140625,-0.91766357421875,-0.2845611572265625,-0.042694091796875
1772457918678115300,10.542115234375,-0.9508056640625,-0.2841949462890625,-0.0369873046875
1772457918688183300,10.552183349609376,-0.974761962890625,-0.2843780517578125,-0.0263214111328125
1772457918698251300,10.562251220703125,-0.9857330322265625,-0.2881927490234375,-0.011474609375
1772457918708319200,10.5723193359375,-0.982391357421875,-0.29632568359375,0.000244140625
1772457918718387500,10.582387451171876,-0.975006103515625,-0.3087615966796875,0.00634765625
1772457918728455400,10.592455322265625,-0.967010498046875,-0.3214111328125,0.0033721923828125
1772457918738524200,10.602524169921875,-0.9588775634765625,-0.335418701171875,0.000274658203125
1772457918748592400,10.61259228515625,-0.9438629150390625,-0.3496551513671875,-0.0045166015625
1772457918758660400,10.622660400390625,-0.9259796142578125,-0.361541748046875,-0.0036773681640625
1772457918768728300,10.632728271484375,-0.91937255859375,-0.3645172119140625,0.008544921875
1772457918778796300,10.64279638671875,-0.926177978515625,-0.367431640625,0.0100555419921875
1772457918788864300,10.6528642578125,-0.93695068359375,-0.366943359375,0.0047760009765625
1772457918798932200,10.66293212890625,-0.9521942138671875,-0.3612060546875,-0.0012969970703125
1772457918809000200,10.673000244140624,-0.9580078125,-0.357879638671875,-0.00164794921875
1772457918819068200,10.683068115234375,-0.95648193359375,-0.35809326171875,-0.0047149658203125
1772457918829136400,10.693136474609375,-0.9506072998046875,-0.359466552734375,-0.0059661865234375
1772457918839205400,10.703205322265624,-0.9492645263671875,-0.3590545654296875,-0.010528564453125
1772457918849273000,10.713273193359376,-0.950775146484375,-0.35614013671875,-0.0090789794921875
1772457918859341300,10.72334130859375,-0.9481658935546875,-0.3519439697265625,0.00201416015625
1772457918869409300,10.7334091796875,-0.9446563720703125,-0.344146728515625,0.016815185546875
1772457918879477200,10.743477294921876,-0.9417266845703125,-0.33758544921875,0.023590087890625
1772457918889545200,10.753545166015625,-0.9363250732421875,-0.3308563232421875,0.0375518798828125
1772457918899613400,10.763613525390625,-0.9443206787109375,-0.321502685546875,0.04736328125
1772457918909681400,10.773681396484376,-0.967498779296875,-0.3111572265625,0.0469970703125
1772457918919749400,10.783749267578125,-0.97161865234375,-0.3001861572265625,0.053009033203125
1772457918929818400,10.793818359375,-0.9564208984375,-0.29534912109375,0.0673828125
1772457918939886300,10.80388623046875,-0.9345245361328125,-0.2963714599609375,0.0850677490234375
1772457918949954300,10.813954345703126,-0.9278564453125,-0.293243408203125,0.09637451171875
1772457918960022300,10.824022216796875,-0.9344482421875,-0.2890625,0.1008758544921875
1772457918970090500,10.834090576171874,-0.938446044921875,-0.28509521484375,0.10089111328125
1772457918980158200,10.844158203125,-0.9473724365234375,-0.2814788818359375,0.0955963134765625
1772457918990226200,10.85422607421875,-0.9557342529296875,-0.276702880859375,0.082763671875
1772457919000294100,10.864294189453124,-0.9565277099609375,-0.2742919921875,0.073394775390625
1772457919010362400,10.8743623046875,-0.95025634765625,-0.276092529296875,0.066131591796875
1772457919020431400,10.884431396484375,-0.9493255615234375,-0.275634765625,0.0599517822265625
1772457919030499300,10.894499267578125,-0.9624786376953125,-0.2767333984375,0.0514068603515625
1772457919040567300,10.9045673828125,-0.9844970703125,-0.2814178466796875,0.0509185791015625
1772457919050635300,10.91463525390625,-0.99383544921875,-0.2964019775390625,0.0643768310546875
1772457919060703200,10.924703125,-0.9735565185546875,-0.31585693359375,0.079681396484375
1772457919070771200,10.934771240234374,-0.9552154541015625,-0.32550048828125,0.0817413330078125
1772457919080839400,10.94483935546875,-0.96783447265625,-0.332275390625,0.064666748046875
1772457919090907400,10.954907470703125,-0.9986572265625,-0.34039306640625,0.042144775390625
1772457919100975400,10.964975341796874,-1.0254669189453125,-0.342559814453125,0.0234832763671875
1772457919111044400,10.97504443359375,-1.0282440185546875,-0.3420257568359375,0.0153045654296875
1772457919121112300,10.9851123046875,-1.0167236328125,-0.3401336669921875,0.01385498046875
1772457919131180300,10.99518017578125,-1.0057220458984375,-0.338134765625,0.0018463134765625
1772457919141248300,11.005248291015626,-1.009674072265625,-0.33355712890625,-0.013092041015625
1772457919151316500,11.01531640625,-1.0146026611328125,-0.326629638671875,-0.0207977294921875
1772457919161384400,11.025384521484375,-1.0247039794921875,-0.32257080078125,-0.0236968994140625
1772457919171452200,11.0354521484375,-1.0378265380859375,-0.3138580322265625,-0.0227508544921875
1772457919181520100,11.04552001953125,-1.03662109375,-0.29791259765625,-0.01336669921875
1772457919191588400,11.05558837890625,-1.0220489501953125,-0.282958984375,0.0121612548828125
1772457919201657300,11.0656572265625,-1.0087127685546875,-0.2721405029296875,0.0396575927734375
1772457919211725300,11.075725341796876,-1.0029449462890625,-0.2634429931640625,0.0643768310546875
1772457919221793500,11.08579345703125,-0.992767333984375,-0.2581024169921875,0.0778045654296875
1772457919231861200,11.095861328125,-0.9829864501953125,-0.2573699951171875,0.0870361328125
1772457919241929200,11.10592919921875,-0.97314453125,-0.260528564453125,0.0941162109375
1772457919251997200,11.1159970703125,-0.9696044921875,-0.263641357421875,0.09429931640625
1772457919262065400,11.1260654296875,-0.968902587890625,-0.2624664306640625,0.0917510986328125
1772457919272133000,11.136133056640626,-0.966827392578125,-0.263458251953125,0.090087890625
1772457919282201000,11.146201171875,-0.9686279296875,-0.2667236328125,0.091644287109375
1772457919292269300,11.156269287109374,-0.9614715576171875,-0.2684783935546875,0.0953369140625
1772457919302338000,11.166338134765626,-0.92352294921875,-0.286163330078125,0.1078338623046875
1772457919312406000,11.176406005859375,-0.92999267578125,-0.289886474609375,0.11737060546875
1772457919322474200,11.18647412109375,-0.9201507568359375,-0.2785797119140625,0.113616943359375
1772457919332542200,11.196542236328124,-0.9018096923828125,-0.2901611328125,0.1163177490234375
1772457919342610200,11.206610107421875,-0.8854827880859375,-0.3015289306640625,0.1053314208984375
1772457919352678100,11.21667822265625,-0.884246826171875,-0.3074951171875,0.099090576171875
1772457919362746000,11.22674609375,-0.8952178955078125,-0.3045806884765625,0.098785400390625
1772457919372814000,11.23681396484375,-0.89007568359375,-0.295013427734375,0.1083984375
1772457919382882000,11.246882080078125,-0.8803253173828125,-0.290557861328125,0.1192779541015625
