time,seconds_elapsed,z,y,x
1772457908206031400,0.07003125,-0.15219540894031525,0.16129633784294128,-0.19453391432762146
1772457908216099600,0.080099609375,-0.16469736397266388,0.15116514265537262,-0.23789124190807343
1772457908226167600,0.09016748046875,-0.18333783745765686,0.14874674379825592,-0.27519258856773376
1772457908236235300,0.1002353515625,-0.19805899262428284,0.17610567808151245,-0.29424619674682617
1772457908246304500,0.110304443359375,-0.21383723616600037,0.17655251920223236,-0.302585244178772
1772457908256372500,0.12037255859375,-0.21842053532600403,0.12796607613563538,-0.3132581412792206
1772457908266440400,0.1304404296875,-0.22248239815235138,0.0438423715531826,-0.32218748331069946
1772457908276508400,0.14050830078125,-0.22205841541290283,-0.040747880935668945,-0.33115220069885254
1772457908286576400,0.150576416015625,-0.21297091245651245,-0.08954711258411407,-0.3290861248970032
1772457908296644400,0.160644287109375,-0.1920246183872223,-0.12549898028373718,-0.327082097530365
1772457908306712300,0.17071240234375,-0.16082733869552612,-0.1990286260843277,-0.3206785023212433
1772457908316780300,0.1807802734375,-0.13270701467990875,-0.27918869256973267,-0.3178808391094208
1772457908326848300,0.19084814453125,-0.10992000997066498,-0.352510929107666,-0.30572837591171265
1772457908336916500,0.20091650390625,-0.09665720164775848,-0.39894768595695496,-0.29512420296669006
1772457908346985200,0.210985107421875,-0.09513929486274719,-0.41367876529693604,-0.28180280327796936
1772457908357053200,0.22105322265625,-0.09313180297613144,-0.39160409569740295,-0.25759652256965637
1772457908367121400,0.231121337890625,-0.09355279803276062,-0.37287455797195435,-0.2333824783563614
1772457908377189400,0.241189453125,-0.09177274256944656,-0.3596692681312561,-0.1991206407546997
1772457908387257300,0.25125732421875,-0.09181249141693115,-0.3357190191745758,-0.16126708686351776
1772457908397325300,0.2613251953125,-0.09576835483312607,-0.287282258272171,-0.12085229158401489
1772457908407393500,0.2713935546875,-0.1022472158074379,-0.20963825285434723,-0.07159576565027237
1772457908417461500,0.28146142578125,-0.10587870329618454,-0.14454127848148346,-0.029283732175827026
1772457908427529200,0.291529296875,-0.10460086911916733,-0.11753937602043152,0.0031704753637313843
1772457908437597200,0.30159716796875,-0.10143117606639862,-0.10933151096105576,0.027863571420311928
1772457908447666400,0.31166650390625,-0.10317473113536835,-0.08488984405994415,0.046026259660720825
1772457908457734400,0.321734375,-0.1054469421505928,-0.04439568147063255,0.055174216628074646
1772457908467802400,0.33180224609375,-0.10176858305931091,-0.009137824177742004,0.03983946889638901
1772457908477870600,0.34187060546875,-0.09637781232595444,0.014135539531707764,0.01651657000184059
1772457908487938300,0.351938232421875,-0.09492380917072296,0.021387502551078796,-0.022705432027578354
1772457908498006300,0.36200634765625,-0.09177754819393158,0.0467999167740345,-0.060928720980882645
1772457908508074200,0.37207421875,-0.09046844393014908,0.07634225487709045,-0.08652649819850922
1772457908518142500,0.382142578125,-0.09925234317779541,0.09382431209087372,-0.09692667424678802
1772457908528210400,0.39221044921875,-0.11832872778177261,0.11592785269021988,-0.09103495627641678
1772457908538278400,0.4022783203125,-0.14360959827899933,0.13940787315368652,-0.08770733326673508
1772457908548346400,0.412346435546875,-0.16319318115711212,0.16440722346305847,-0.09516653418540955
1772457908558415400,0.422415283203125,-0.17560990154743195,0.18360355496406555,-0.10504552721977234
1772457908568483300,0.4324833984375,-0.18007709085941315,0.20767450332641602,-0.10224688053131104
1772457908578551300,0.44255126953125,-0.17987868189811707,0.20560336112976074,-0.0873321145772934
1772457908588619500,0.45261962890625,-0.1748725026845932,0.16769617795944214,-0.059567298740148544
1772457908598687500,0.4626875,-0.15688976645469666,0.10225113481283188,-0.0243507232517004
1772457908608755500,0.47275537109375,-0.12692053616046906,0.036429163068532944,0.018926775082945824
1772457908618823200,0.4828232421875,-0.09893763065338135,-0.009907709434628487,0.0700157880783081
1772457908628891400,0.492891357421875,-0.06955727189779282,-0.05436088517308235,0.10119783878326416
1772457908638959400,0.50295947265625,-0.037549279630184174,-0.11835504323244095,0.1088685393333435
1772457908649027300,0.51302734375,-0.014032524079084396,-0.17539571225643158,0.1070895791053772
1772457908659096600,0.5230966796875,0.0024287416599690914,-0.22488735616207123,0.08584155142307281
1772457908669164500,0.53316455078125,0.009463872760534286,-0.25818365812301636,0.0477716401219368
1772457908679232300,0.543232177734375,0.007448392920196056,-0.254550039768219,-0.004048682749271393
1772457908689300200,0.55330029296875,-0.0005242966581135988,-0.22630800306797028,-0.06560787558555603
1772457908699368400,0.563368408203125,-0.0041323471814394,-0.18300127983093262,-0.13262392580509186
1772457908709436400,0.5734365234375,-0.007065333425998688,-0.13106006383895874,-0.19357751309871674
1772457908719504400,0.58350439453125,-0.010330901481211185,-0.05938907712697983,-0.237269327044487
1772457908729572400,0.593572265625,-0.013875232078135014,0.005636292975395918,-0.2634104788303375
1772457908739640600,0.603640625,-0.015979662537574768,0.04613844305276871,-0.27014482021331787
1772457908749708300,0.613708251953125,-0.000899559585377574,0.053235214203596115,-0.26308363676071167
1772457908759777300,0.62377734375,0.019445126876235008,0.039574529975652695,-0.2356743961572647
1772457908769845500,0.633845458984375,0.03417714685201645,0.032937049865722656,-0.18583443760871887
1772457908779913500,0.64391357421875,0.03617770969867706,0.06134285777807236,-0.1275562196969986
1772457908789981400,0.6539814453125,0.030302464962005615,0.0870513990521431,-0.07088491320610046
1772457908800049400,0.66404931640625,0.03051312081515789,0.08004248887300491,-0.020332787185907364
1772457908810117400,0.674117431640625,0.034111522138118744,0.04052218422293663,0.0170859694480896
1772457908820185300,0.684185302734375,0.03431498631834984,-0.00845414400100708,0.03979554399847984
1772457908830253300,0.69425341796875,0.03276919573545456,-0.06538946181535721,0.05359970033168793
1772457908840321300,0.7043212890625,0.02826738730072975,-0.10371314734220505,0.04809068515896797
1772457908850389500,0.714389404296875,0.016741469502449036,-0.09286237508058548,0.04505310580134392
1772457908860457500,0.72445751953125,-0.0006660162471234798,-0.0737249031662941,0.02395794354379177
1772457908870526200,0.734526123046875,-0.010260766372084618,-0.07444655150175095,-0.007570723071694374
1772457908880594400,0.744594482421875,-0.01876530610024929,-0.08583023399114609,-0.04682518541812897
1772457908890662400,0.754662353515625,-0.03475472703576088,-0.0914391502737999,-0.08853420615196228
1772457908900730400,0.76473046875,-0.05659451335668564,-0.06411990523338318,-0.1302688717842102
1772457908910798300,0.77479833984375,-0.08416882157325745,-0.03830636292695999,-0.1649634689092636
1772457908920866600,0.784866455078125,-0.10094646364450455,-0.027420692145824432,-0.19619889557361603
1772457908930934500,0.7949345703125,-0.11357299983501434,-0.019320929422974586,-0.2041008174419403
1772457908941002500,0.80500244140625,-0.11660075187683105,-0.010272840037941933,-0.19115892052650452
1772457908951070200,0.8150703125,-0.10428852587938309,-0.02483484335243702,-0.16746370494365692
1772457908961138400,0.825138427734375,-0.07983538508415222,-0.05962904542684555,-0.1375976800918579
1772457908971207400,0.83520751953125,-0.049471206963062286,-0.10229672491550446,-0.09479054808616638
1772457908981275400,0.845275390625,-0.013539040461182594,-0.13068309426307678,-0.052153073251247406
1772457908991343600,0.855343505859375,0.018139543011784554,-0.1600492000579834,-0.013877815566956997
1772457909001411300,0.865411376953125,0.05615323781967163,-0.18923717737197876,0.009715660475194454
1772457909011479300,0.875479248046875,0.09543564915657043,-0.21593087911605835,0.024335574358701706
1772457909021547300,0.88554736328125,0.13037845492362976,-0.22196879982948303,0.037759505212306976
1772457909031615500,0.895615478515625,0.1669134944677353,-0.20490895211696625,0.028656255453824997
1772457909041683500,0.905683349609375,0.19462500512599945,-0.1658313274383545,0.012588607147336006
1772457909051751400,0.91575146484375,0.20926733314990997,-0.10592244565486908,-0.002742145908996463
1772457909061819400,0.9258193359375,0.2137952446937561,-0.05736822634935379,-0.02030356228351593
1772457909071887600,0.9358876953125,0.21617962419986725,-0.03218929097056389,-0.03810114413499832
1772457909081956400,0.945956298828125,0.22027157247066498,-0.027447262778878212,-0.056719303131103516
1772457909092024300,0.9560244140625,0.2252417802810669,-0.043363429605960846,-0.06581135094165802
1772457909102092500,0.966092529296875,0.21993570029735565,-0.040708787739276886,-0.061570532619953156
1772457909112160500,0.976160400390625,0.20800425112247467,-0.006568881217390299,-0.04688398540019989
1772457909122228500,0.986228515625,0.19762644171714783,0.028669534251093864,-0.029940953478217125
1772457909132296400,0.99629638671875,0.1899680495262146,0.03677250072360039,-0.009322037920355797
1772457909142364400,1.006364501953125,0.18063287436962128,0.023711826652288437,0.0053581055253744125
1772457909152432400,1.016432373046875,0.17208555340766907,0.005979030393064022,0.010381962172687054
1772457909162500400,1.026500244140625,0.16873051226139069,0.0004444490186870098,0.00828046165406704
1772457909172568300,1.036568359375,0.16205564141273499,0.0053790900856256485,-0.0019090942805632949
1772457909182637600,1.046637451171875,0.16123512387275696,0.02234635502099991,-0.012917802669107914
1772457909192705300,1.056705322265625,0.15671485662460327,0.03742323815822601,-0.019441179931163788
1772457909202773200,1.066773193359375,0.14763908088207245,0.05785394459962845,-0.027740122750401497
1772457909212841200,1.07684130859375,0.14593292772769928,0.07971039414405823,-0.04558274894952774
1772457909222909400,1.086909423828125,0.1495731920003891,0.11430325359106064,-0.07319733500480652
1772457909232977400,1.096977294921875,0.16059572994709015,0.14573995769023895,-0.10608285665512085
1772457909243045400,1.10704541015625,0.16665175557136536,0.17046581208705902,-0.13678990304470062
1772457909253113300,1.11711328125,0.17970934510231018,0.20247793197631836,-0.1582600623369217
1772457909263181000,1.12718115234375,0.19349786639213562,0.2263433039188385,-0.15996235609054565
1772457909273249000,1.1372490234375,0.21218237280845642,0.23906581103801727,-0.16178260743618011
1772457909283317000,1.14731689453125,0.22378045320510864,0.2346510887145996,-0.1564728021621704
1772457909293386000,1.157385986328125,0.2341228425502777,0.22301891446113586,-0.1502424031496048
1772457909303454200,1.1674541015625,0.24239061772823334,0.21765610575675964,-0.1423189640045166
1772457909313522200,1.177522216796875,0.25155678391456604,0.2207886427640915,-0.13184387981891632
1772457909323590100,1.187590087890625,0.26538339257240295,0.23857030272483826,-0.10933910310268402
1772457909333657900,1.197657958984375,0.2933666408061981,0.2701636850833893,-0.08325085788965225
1772457909343726000,1.20772607421875,0.3237708806991577,0.31089380383491516,-0.062202293425798416
1772457909353794000,1.2177939453125,0.3492908477783203,0.3643309473991394,-0.031050145626068115
1772457909363862000,1.227862060546875,0.37006643414497375,0.42573198676109314,0.01258095633238554
1772457909373930000,1.237929931640625,0.3862803280353546,0.4522256851196289,0.05219515785574913
1772457909383998200,1.247998291015625,0.38290077447891235,0.4177609086036682,0.07692713290452957
1772457909394066200,1.258066162109375,0.3539952039718628,0.37700772285461426,0.09695950895547867
1772457909404135000,1.268135009765625,0.31500571966171265,0.3606117367744446,0.12030291557312012
1772457909414203100,1.278203125,0.26469290256500244,0.39048558473587036,0.15505871176719666
1772457909424271000,1.28827099609375,0.21360573172569275,0.45696449279785156,0.21147191524505615
1772457909434339000,1.298339111328125,0.1755807101726532,0.5010825395584106,0.27482858300209045
1772457909444407000,1.308406982421875,0.15515826642513275,0.48945116996765137,0.33088573813438416
1772457909454475300,1.318475341796875,0.14238356053829193,0.426908940076828,0.3761780858039856
1772457909464543200,1.328543212890625,0.1297612488269806,0.363137423992157,0.40587925910949707
1772457909474611000,1.33861083984375,0.11008188128471375,0.3215008080005646,0.42609742283821106
1772457909484679000,1.348678955078125,0.07930639386177063,0.31120556592941284,0.43518680334091187
1772457909494747100,1.3587470703125,0.050593215972185135,0.3008785843849182,0.4407804608345032
1772457909504816000,1.368816162109375,0.030477561056613922,0.2892885208129883,0.42871367931365967
1772457909514884000,1.378884033203125,0.017916401848196983,0.26573753356933594,0.41572192311286926
1772457909524951800,1.388951904296875,0.009220648556947708,0.22559754550457,0.38929644227027893
1772457909535020000,1.39902001953125,0.0027393761556595564,0.18839749693870544,0.35485005378723145
1772457909545088000,1.409087890625,0.002702091820538044,0.18372339010238647,0.33321505784988403
1772457909555156000,1.419156005859375,0.005999735090881586,0.1886940449476242,0.30871880054473877
1772457909565224200,1.42922412109375,0.008336924947798252,0.19383928179740906,0.2938077747821808
1772457909575292200,1.439292236328125,0.0006949456874281168,0.20715424418449402,0.28879624605178833
1772457909585360100,1.449360107421875,-0.00859442725777626,0.2244458794593811,0.2931489050388336
1772457909595428000,1.459427978515625,-0.016104048117995262,0.22295606136322021,0.31091269850730896
1772457909605496000,1.46949609375,-0.022130781784653664,0.19497822225093842,0.322978675365448
1772457909615565000,1.47956494140625,-0.03199441730976105,0.16915401816368103,0.32972291111946106
1772457909625633000,1.489633056640625,-0.03616759181022644,0.1516386717557907,0.33434802293777466
1772457909635701000,1.499700927734375,-0.0336095467209816,0.1298048347234726,0.33537256717681885
1772457909645769200,1.509769287109375,-0.02614843286573887,0.09802506864070892,0.33615925908088684
1772457909655837200,1.519837158203125,-0.013684588484466076,0.03746155649423599,0.3315700590610504
1772457909665905000,1.52990478515625,-0.010718626901507378,-0.05638371407985687,0.3159410357475281
1772457909675972900,1.539972900390625,-0.01295403577387333,-0.14524805545806885,0.293552041053772
1772457909686041000,1.550041015625,-0.028499705716967583,-0.20117071270942688,0.2770196795463562
1772457909696109000,1.560109130859375,-0.04942872375249863,-0.2224150002002716,0.2668076157569885
1772457909706177000,1.570177001953125,-0.06818722933530807,-0.22068394720554352,0.2622474730014801
1772457909716245000,1.580244873046875,-0.09570827335119247,-0.20230834186077118,0.25372323393821716
1772457909726314000,1.59031396484375,-0.12133028358221054,-0.185174360871315,0.24625226855278015
1772457909736382000,1.6003818359375,-0.14500749111175537,-0.16795313358306885,0.23174336552619934
1772457909746450000,1.610449951171875,-0.16094304621219635,-0.12395957112312317,0.21731916069984436
1772457909756518100,1.62051806640625,-0.16956977546215057,-0.07078871876001358,0.20323796570301056
1772457909766586000,1.630586181640625,-0.16774152219295502,-0.01716810092329979,0.1901772916316986
1772457909776654000,1.640654052734375,-0.1663992553949356,0.026216669008135796,0.18190176784992218
1772457909786722000,1.65072216796875,-0.16329161822795868,0.060377832502126694,0.18377795815467834
1772457909796790000,1.6607900390625,-0.15864554047584534,0.06758828461170197,0.18819962441921234
1772457909806858000,1.67085791015625,-0.1528603434562683,0.05486449971795082,0.17902156710624695
1772457909816926000,1.680926025390625,-0.15211008489131927,0.05290632322430611,0.1765746772289276
1772457909826995200,1.6909951171875,-0.15029887855052948,0.061749085783958435,0.1616005152463913
1772457909837063200,1.701063232421875,-0.1417103111743927,0.07546740770339966,0.14397329092025757
1772457909847131100,1.711131103515625,-0.1380615234375,0.07784481346607208,0.11496268212795258
1772457909857198800,1.72119873046875,-0.1285155564546585,0.0762084499001503,0.06937763839960098
1772457909867267000,1.73126708984375,-0.12935790419578552,0.07382652163505554,0.011460542678833008
1772457909877335000,1.7413349609375,-0.13037188351154327,0.058240000158548355,-0.06219584122300148
1772457909887403000,1.751403076171875,-0.13079078495502472,0.035321369767189026,-0.14515730738639832
1772457909897471000,1.761470947265625,-0.1300809234380722,0.018128683790564537,-0.23350204527378082
1772457909907539200,1.771539306640625,-0.12284138053655624,0.0041657304391264915,-0.3223251402378082
1772457909917607200,1.781607177734375,-0.1138305738568306,0.00696737552061677,-0.3911294937133789
1772457909927675100,1.791675048828125,-0.09598580002784729,0.007744485978037119,-0.4357518255710602
1772457909937744100,1.801744140625,-0.07480957359075546,-0.0014904532581567764,-0.452839195728302
1772457909947812000,1.81181201171875,-0.04778141528367996,0.00031250668689608574,-0.44765403866767883
1772457909957880000,1.821880126953125,-0.010619987733662128,0.031950511038303375,-0.41546499729156494
1772457909967948000,1.831947998046875,0.033844683319330215,0.08835785835981369,-0.3537057638168335
1772457909978016300,1.842016357421875,0.09369302541017532,0.15576530992984772,-0.27896469831466675
1772457909988084000,1.852083984375,0.15158455073833466,0.20635205507278442,-0.20411202311515808
1772457909998152000,1.86215185546875,0.20476014912128448,0.20770682394504547,-0.15046444535255432
1772457910008220000,1.872219970703125,0.24498294293880463,0.1813921332359314,-0.10328175127506256
1772457910018288000,1.8822880859375,0.27376869320869446,0.1475755125284195,-0.06599881500005722
1772457910028356000,1.892356201171875,0.28934288024902344,0.10820867121219635,-0.03374047949910164
1772457910038425000,1.902425048828125,0.30280518531799316,0.07288478314876556,-0.002218533307313919
1772457910048493000,1.9124931640625,0.3120703101158142,0.03025050275027752,0.012931924313306808
1772457910058561000,1.92256103515625,0.3194132149219513,0.006234960164874792,0.032751452177762985
1772457910068629000,1.93262890625,0.32327187061309814,-0.017552927136421204,0.043457359075546265
1772457910078697000,1.942697021484375,0.32128435373306274,-0.033640552312135696,0.05793403834104538
1772457910088765200,1.95276513671875,0.3087317943572998,-0.04520106688141823,0.07067485898733139
1772457910098833200,1.962833251953125,0.30078572034835815,-0.06210894137620926,0.08626873791217804
1772457910108901000,1.972901123046875,0.28580012917518616,-0.07781094312667847,0.09046774357557297
1772457910118969000,1.982968994140625,0.2711552381515503,-0.08721768856048584,0.0850585550069809
1772457910129037000,1.993037109375,0.2514609098434448,-0.0913088396191597,0.07335928827524185
1772457910139105000,2.00310498046875,0.2235550880432129,-0.0865754634141922,0.0635455921292305
1772457910149174000,2.013174072265625,0.19544941186904907,-0.08255728334188461,0.0585111528635025
1772457910159242200,2.0232421875,0.1642913520336151,-0.08367197215557098,0.05602773651480675
1772457910169310200,2.033310302734375,0.12111005187034607,-0.10156840831041336,0.05147772282361984
1772457910179378000,2.0433779296875,0.08496677130460739,-0.128545343875885,0.05077814310789108
1772457910189446000,2.05344580078125,0.047995444387197495,-0.15122056007385254,0.04943377897143364
1772457910199514000,2.06351416015625,0.013844381086528301,-0.16092009842395782,0.04958473891019821
1772457910209582000,2.07358203125,-0.018425406888127327,-0.15912911295890808,0.051346153020858765
1772457910219650000,2.083650146484375,-0.05006943270564079,-0.14152757823467255,0.05203854665160179
1772457910229718000,2.093718017578125,-0.08252803981304169,-0.10759757459163666,0.055778954178094864
1772457910239786200,2.1037861328125,-0.13021250069141388,-0.04433950036764145,0.06630359590053558
1772457910249855000,2.11385498046875,-0.17543776333332062,0.024889105930924416,0.07901859283447266
1772457910259923000,2.1239228515625,-0.21405921876430511,0.04090665280818939,0.09887321293354034
1772457910269991000,2.133990966796875,-0.23846521973609924,-0.004057890735566616,0.11792759597301483
1772457910280059000,2.144058837890625,-0.25199028849601746,-0.07956644892692566,0.14807645976543427
1772457910290127000,2.154127197265625,-0.25669610500335693,-0.14436648786067963,0.17985835671424866
1772457910300195000,2.164195068359375,-0.24466851353645325,-0.20192891359329224,0.20596976578235626
1772457910310263000,2.174262939453125,-0.22125853598117828,-0.2374618798494339,0.21771004796028137
1772457910320330800,2.184330810546875,-0.19464775919914246,-0.23241469264030457,0.23170529305934906
1772457910330399000,2.19439892578125,-0.1624932736158371,-0.18466608226299286,0.24860839545726776
1772457910340467000,2.204467041015625,-0.12297534197568893,-0.14939799904823303,0.2715691030025482
1772457910350535000,2.214534912109375,-0.07645203918218613,-0.19581715762615204,0.2701845169067383
1772457910360604000,2.22460400390625,-0.05002177134156227,-0.28590071201324463,0.2478930652141571
1772457910370671900,2.234671875,-0.04352525621652603,-0.35412558913230896,0.22095918655395508
1772457910380739800,2.24473974609375,-0.048039719462394714,-0.3828332722187042,0.21486185491085052
1772457910390807800,2.254807861328125,-0.05908571183681488,-0.365587443113327,0.21797776222229004
1772457910400876000,2.2648759765625,-0.07246952503919601,-0.3492303490638733,0.21747986972332
1772457910410944000,2.274944091796875,-0.08764368295669556,-0.3488604426383972,0.20662561058998108
1772457910421012000,2.285011962890625,-0.10878093540668488,-0.3330034911632538,0.1813102811574936
1772457910431080000,2.295079833984375,-0.12386667728424072,-0.28519946336746216,0.16584157943725586
1772457910441148200,2.305148193359375,-0.13967826962471008,-0.22822503745555878,0.15123972296714783
1772457910451216000,2.3152158203125,-0.14178882539272308,-0.16793853044509888,0.13006466627120972
1772457910461283800,2.325283935546875,-0.14129534363746643,-0.11810040473937988,0.11137592047452927
1772457910471352800,2.335352783203125,-0.13808703422546387,-0.07924195379018784,0.08463485538959503
1772457910481421000,2.345421142578125,-0.13453903794288635,-0.03845679759979248,0.07328721880912781
1772457910491489000,2.355489013671875,-0.13342903554439545,0.010549361817538738,0.07990889996290207
1772457910501557000,2.365556884765625,-0.1325036734342575,0.039608847349882126,0.1029725968837738
1772457910511624700,2.375624755859375,-0.12497863918542862,0.046466488391160965,0.12553517520427704
1772457910521693000,2.38569287109375,-0.1211257129907608,0.026937680318951607,0.14209552109241486
1772457910531761000,2.395760986328125,-0.12064794450998306,0.0005068718455731869,0.13851037621498108
1772457910541828900,2.405828857421875,-0.12564536929130554,-0.014796752482652664,0.12095797061920166
1772457910551896800,2.415896728515625,-0.1266818791627884,-0.03434915095567703,0.08261803537607193
1772457910561965000,2.425965087890625,-0.12959551811218262,-0.06131966412067413,0.035014018416404724
1772457910572033800,2.43603369140625,-0.12819363176822662,-0.09615594148635864,-0.01880793645977974
1772457910582101800,2.446101806640625,-0.12272009998559952,-0.14167927205562592,-0.06725136190652847
1772457910592170000,2.456169921875,-0.11603236198425293,-0.1745155155658722,-0.09882420301437378
1772457910602238000,2.466238037109375,-0.11932040005922318,-0.1848297268152237,-0.12290732562541962
1772457910612306000,2.476305908203125,-0.12382620573043823,-0.18346725404262543,-0.12762564420700073
1772457910622374000,2.486373779296875,-0.12863458693027496,-0.189828559756279,-0.1297501027584076
1772457910632442000,2.496442138671875,-0.1332855373620987,-0.2127533107995987,-0.14330612123012543
1772457910642509800,2.506509765625,-0.13394607603549957,-0.25414907932281494,-0.15787185728549957
1772457910652577800,2.516577880859375,-0.13888117671012878,-0.3046572506427765,-0.17576457560062408
1772457910662645800,2.526645751953125,-0.15076367557048798,-0.32099437713623047,-0.18223385512828827
1772457910672715000,2.536715087890625,-0.16691841185092926,-0.3176023066043854,-0.1834341287612915
1772457910682783000,2.546782958984375,-0.17980940639972687,-0.2976384162902832,-0.17726384103298187
1772457910692851000,2.556850830078125,-0.19507917761802673,-0.2720686197280884,-0.1722661554813385
1772457910702919000,2.5669189453125,-0.21061062812805176,-0.23723700642585754,-0.17514416575431824
1772457910712987000,2.57698681640625,-0.22741252183914185,-0.18477566540241241,-0.17332760989665985
1772457910723054800,2.587054931640625,-0.2475847750902176,-0.09618901461362839,-0.16729462146759033
1772457910733122800,2.597122802734375,-0.265579491853714,0.015053889714181423,-0.1490439772605896
1772457910743191000,2.60719091796875,-0.2850455045700073,0.12147793173789978,-0.11533255875110626
1772457910753259000,2.617259033203125,-0.2928065061569214,0.19892717897891998,-0.07608076184988022
1772457910763327000,2.627326904296875,-0.29530608654022217,0.23320694267749786,-0.02780051715672016
1772457910773395000,2.63739501953125,-0.28657010197639465,0.2240011841058731,0.023402215912938118
1772457910783464000,2.6474638671875,-0.2816697061061859,0.19629357755184174,0.07506268471479416
1772457910793532000,2.657531982421875,-0.28648123145103455,0.1934056431055069,0.13775217533111572
1772457910803600000,2.667599853515625,-0.29536885023117065,0.18833567202091217,0.21254387497901917
1772457910813668000,2.677668212890625,-0.2995252311229706,0.15650290250778198,0.29375484585762024
1772457910823736000,2.687736083984375,-0.29137665033340454,0.11052753031253815,0.38470444083213806
1772457910833803800,2.6978037109375,-0.26840740442276,0.04314715787768364,0.4644339084625244
1772457910843871700,2.707871826171875,-0.2353740632534027,-0.04198498651385307,0.5296661257743835
1772457910853940000,2.71793994140625,-0.2002999633550644,-0.1399640142917633,0.5722410082817078
1772457910864008000,2.728008056640625,-0.1692887842655182,-0.23235972225666046,0.5796113014221191
1772457910874076000,2.738075927734375,-0.1436649113893509,-0.3235620856285095,0.5406697988510132
1772457910884145000,2.748144775390625,-0.130281001329422,-0.4356437027454376,0.4559394419193268
1772457910894212900,2.758212890625,-0.11607356369495392,-0.5648927688598633,0.3331722617149353
1772457910904280800,2.76828076171875,-0.11826348304748535,-0.6851014494895935,0.19280529022216797
1772457910914348800,2.778348876953125,-0.1219242587685585,-0.7701279520988464,0.061634212732315063
1772457910924417000,2.7884169921875,-0.14948692917823792,-0.7906864285469055,-0.0436982624232769
1772457910934485000,2.798485107421875,-0.18799224495887756,-0.7304508090019226,-0.09876658022403717
1772457910944553000,2.808552978515625,-0.2410578578710556,-0.5931486487388611,-0.1094275489449501
1772457910954621000,2.818620849609375,-0.29297804832458496,-0.38871052861213684,-0.09064959734678268
1772457910964689000,2.82868896484375,-0.3251403570175171,-0.16648878157138824,-0.06317400932312012
1772457910974756900,2.8387568359375,-0.32661840319633484,0.04559285566210747,-0.05667882412672043
1772457910984824800,2.848824951171875,-0.29737764596939087,0.2109648585319519,-0.07741203904151917
1772457910994894000,2.85889404296875,-0.24655652046203613,0.30245348811149597,-0.10731560736894608
1772457911004962000,2.868962158203125,-0.200228750705719,0.3081033229827881,-0.14055190980434418
1772457911015030000,2.879030029296875,-0.16698291897773743,0.278703898191452,-0.15218859910964966
1772457911025097700,2.88909765625,-0.14443331956863403,0.24799217283725739,-0.15102019906044006
1772457911035166000,2.899166015625,-0.11662059277296066,0.19496729969978333,-0.1367027759552002
1772457911045234000,2.90923388671875,-0.08108507096767426,0.1357371062040329,-0.11334643512964249
1772457911055302000,2.919302001953125,-0.05446278676390648,0.0782138928771019,-0.08902031928300858
1772457911065369900,2.929369873046875,-0.044387273490428925,0.008083796128630638,-0.07130042463541031
1772457911075438000,2.93943798828125,-0.048483479768037796,-0.04335835576057434,-0.045927416533231735
1772457911085506000,2.949506103515625,-0.058654796332120895,-0.08561646938323975,-0.038460373878479004
1772457911095574800,2.95957470703125,-0.0680570900440216,-0.12670637667179108,-0.03324590623378754
1772457911105643000,2.96964306640625,-0.07316263765096664,-0.1326974332332611,-0.03688245266675949
1772457911115711000,2.9797109375,-0.08019151538610458,-0.12729014456272125,-0.057777613401412964
1772457911125779000,2.989779052734375,-0.08208915591239929,-0.11845286190509796,-0.09193960577249527
1772457911135847000,2.999846923828125,-0.08166784048080444,-0.0997936949133873,-0.13579067587852478
1772457911145915100,3.0099150390625,-0.08008111268281937,-0.07237936556339264,-0.17149783670902252
1772457911155982800,3.01998291015625,-0.08580984175205231,-0.02983803115785122,-0.2012149840593338
1772457911166050800,3.03005078125,-0.09114101529121399,0.021610189229249954,-0.2194104790687561
1772457911176118800,3.040118896484375,-0.0923016220331192,0.06711775064468384,-0.22320228815078735
1772457911186187000,3.05018701171875,-0.0812855064868927,0.10173269361257553,-0.21503247320652008
1772457911196256000,3.060256103515625,-0.05310259759426117,0.12057722359895706,-0.18790391087532043
1772457911206324000,3.070323974609375,-0.019090157002210617,0.11997254937887192,-0.14986495673656464
1772457911216392000,3.080391845703125,0.01604652591049671,0.09629198908805847,-0.10624637454748154
1772457911226460000,3.0904599609375,0.04507087171077728,0.07179209589958191,-0.05405352637171745
1772457911236527900,3.10052783203125,0.07459253817796707,0.056359611451625824,0.00606280704960227
1772457911246595800,3.110595947265625,0.10512979328632355,0.04042818769812584,0.06437010318040848
1772457911256664000,3.1206640625,0.13670051097869873,0.035599611699581146,0.12493571639060974
1772457911266732800,3.13073291015625,0.1652878373861313,0.048630617558956146,0.19200502336025238
1772457911276800500,3.140800537109375,0.19001609086990356,0.06220608204603195,0.25189337134361267
1772457911286868500,3.150868408203125,0.20339740812778473,0.05299340933561325,0.30075520277023315
1772457911296936700,3.160936767578125,0.20079922676086426,0.017891082912683487,0.3298664689064026
1772457911307005700,3.171005615234375,0.18444830179214478,-0.021063946187496185,0.34274527430534363
1772457911317073700,3.18107373046875,0.15579934418201447,-0.05483602359890938,0.33471131324768066
1772457911327142000,3.191141845703125,0.11425530165433884,-0.0711013600230217,0.310902863740921
1772457911337209600,3.201209716796875,0.0656222552061081,-0.05444755032658577,0.2739435136318207
1772457911347277600,3.211277587890625,0.01750028319656849,-0.02964496612548828,0.23558953404426575
1772457911357345500,3.221345458984375,-0.025852249935269356,0.0018351979088038206,0.19868451356887817
1772457911367413800,3.231413818359375,-0.058380719274282455,0.068381667137146,0.18021605908870697
1772457911377481700,3.241481689453125,-0.0851026102900505,0.15967881679534912,0.18777143955230713
1772457911387549700,3.2515498046875,-0.10513877868652344,0.2404443621635437,0.2091084122657776
1772457911397617700,3.26161767578125,-0.11581645160913467,0.27424439787864685,0.23371335864067078
1772457911407686700,3.271686767578125,-0.11557590961456299,0.25677812099456787,0.25684449076652527
1772457911417754600,3.281754638671875,-0.11581666022539139,0.19936595857143402,0.27346155047416687
1772457911427822600,3.291822509765625,-0.11095742881298065,0.12338198721408844,0.2762967348098755
1772457911437890800,3.301890869140625,-0.11139552295207977,0.04437078908085823,0.2600248157978058
1772457911447958800,3.311958740234375,-0.12427157908678055,-0.03528563305735588,0.2281007021665573
1772457911458026800,3.32202685546875,-0.1423693597316742,-0.09569118916988373,0.18419022858142853
1772457911468094500,3.332094482421875,-0.1599678248167038,-0.12293611466884613,0.1299118995666504
1772457911478162700,3.34216259765625,-0.1686878204345703,-0.13728734850883484,0.07409470528364182
1772457911488230700,3.352230712890625,-0.16690349578857422,-0.140433669090271,0.01741614006459713
1772457911498298600,3.362298583984375,-0.15751931071281433,-0.12438865005970001,-0.03398313745856285
1772457911508366600,3.37236669921875,-0.13495862483978271,-0.07237283885478973,-0.06498945504426956
1772457911518435800,3.382435791015625,-0.10109599679708481,-0.022488899528980255,-0.08012393116950989
1772457911528503600,3.392503662109375,-0.06182822212576866,0.022338492795825005,-0.07592812180519104
1772457911538571500,3.402571533203125,-0.0251154787838459,0.05292809382081032,-0.05927697569131851
1772457911548639700,3.4126396484375,0.004128613974899054,0.0687389224767685,-0.02955186553299427
1772457911558707700,3.422707763671875,0.0281284898519516,0.08545584976673126,0.020382137969136238
1772457911568775700,3.432775634765625,0.04142790660262108,0.1171284094452858,0.09219212085008621
1772457911578843600,3.44284375,0.05848065763711929,0.1530914604663849,0.17460018396377563
1772457911588911900,3.452911865234375,0.07911024242639542,0.1596510410308838,0.2556809186935425
1772457911598979600,3.4629794921875,0.10392317920923233,0.14011941850185394,0.31297722458839417
1772457911609047600,3.473047607421875,0.10943774878978729,0.10735449939966202,0.3634313642978668
1772457911619116800,3.48311669921875,0.09984371066093445,0.06573861837387085,0.38763922452926636
1772457911629184800,3.493184814453125,0.0820872038602829,0.02630027011036873,0.39176449179649353
1772457911639252700,3.503252685546875,0.06952640414237976,-0.006235302425920963,0.3742307722568512
1772457911649320700,3.51332080078125,0.05999187380075455,-0.04557652771472931,0.3346318304538727
1772457911659388700,3.523388671875,0.05448552221059799,-0.09907197952270508,0.2763940989971161
1772457911669456600,3.53345654296875,0.047872744500637054,-0.1495256870985031,0.20499134063720703
1772457911679524600,3.543524658203125,0.036202237010002136,-0.21808718144893646,0.1184585765004158
1772457911689592600,3.553592529296875,0.014088421128690243,-0.30975043773651123,0.007865329273045063
1772457911699660800,3.563660888671875,-0.015845242887735367,-0.39427971839904785,-0.13343055546283722
1772457911709728800,3.573728759765625,-0.0735924020409584,-0.43218502402305603,-0.27722933888435364
1772457911719797500,3.583797607421875,-0.1344301849603653,-0.40711668133735657,-0.4152836203575134
1772457911729865700,3.59386572265625,-0.19039186835289001,-0.32406163215637207,-0.5260074734687805
1772457911739933700,3.60393359375,-0.2277112752199173,-0.1919616460800171,-0.6142603158950806
1772457911750001700,3.614001708984375,-0.2503597140312195,-0.02945193275809288,-0.6570879817008972
1772457911760069600,3.624069580078125,-0.2550806999206543,0.1467694342136383,-0.6674546003341675
1772457911770137900,3.634137939453125,-0.24101915955543518,0.29799917340278625,-0.6514782905578613
1772457911780205800,3.644205810546875,-0.20324088633060455,0.39026331901550293,-0.6224466562271118
1772457911790273800,3.654273681640625,-0.13805948197841644,0.43123316764831543,-0.5798754692077637
1772457911800341500,3.664341552734375,-0.056487660855054855,0.4403667449951172,-0.516341507434845
1772457911810409700,3.67440966796875,0.027166007086634636,0.4019477367401123,-0.4515945017337799
1772457911820478700,3.684478759765625,0.1133219301700592,0.34498992562294006,-0.3910976052284241
1772457911830546700,3.694546630859375,0.1896020472049713,0.27878159284591675,-0.32872316241264343
1772457911840615000,3.704614990234375,0.2598799467086792,0.19587792456150055,-0.2770130932331085
1772457911850682600,3.7146826171875,0.30604419112205505,0.11067244410514832,-0.22074557840824127
1772457911860750600,3.72475048828125,0.32104337215423584,0.05413113534450531,-0.1673705130815506
1772457911870818600,3.734818603515625,0.3098902404308319,0.02062557078897953,-0.11541353166103363
1772457911880886800,3.74488671875,0.2955288887023926,0.0027443089056760073,-0.08009016513824463
1772457911890954800,3.754954833984375,0.27880987524986267,-0.011281981132924557,-0.05294480919837952
1772457911901022700,3.765022705078125,0.2722068130970001,-0.03426799178123474,-0.045962799340486526
1772457911911090700,3.775090576171875,0.27270349860191345,-0.0604841485619545,-0.05490303412079811
1772457911921159000,3.785158935546875,0.2645379900932312,-0.07628654688596725,-0.0662640780210495
1772457911931227600,3.7952275390625,0.2447790503501892,-0.08235286176204681,-0.0744442418217659
1772457911941295600,3.805295654296875,0.22411584854125977,-0.07917517423629761,-0.08815579116344452
1772457911951363600,3.815363525390625,0.198097825050354,-0.08112354576587677,-0.0899057537317276
1772457911961431800,3.825431884765625,0.17271897196769714,-0.07900127023458481,-0.09748351573944092
1772457911971499800,3.835499755859375,0.13797438144683838,-0.0868135616183281,-0.09537585824728012
1772457911981567700,3.845567626953125,0.09621893614530563,-0.07889305055141449,-0.07531319558620453
1772457911991635500,3.855635498046875,0.04692067205905914,-0.07132270187139511,-0.053718406707048416
1772457912001703700,3.86570361328125,0.00037314160726964474,-0.055716581642627716,-0.02172159217298031
1772457912011771600,3.875771728515625,-0.04716675728559494,-0.04242297261953354,0.02537531405687332
1772457912021839600,3.885839599609375,-0.08460334688425064,-0.039756882935762405,0.05792153999209404
1772457912031908900,3.895908935546875,-0.11288546025753021,-0.018404606729745865,0.09394263476133347
1772457912041976600,3.9059765625,-0.130778968334198,0.019250627607107162,0.13834765553474426
1772457912052044500,3.91604443359375,-0.13029003143310547,0.05692233890295029,0.17497512698173523
1772457912062112500,3.926112548828125,-0.1242518424987793,0.07337028533220291,0.2061929702758789
1772457912072180700,3.9361806640625,-0.1175331100821495,0.06949099898338318,0.23395061492919922
1772457912082248700,3.946248779296875,-0.10927145183086395,0.05432003363966942,0.25716274976730347
1772457912092316700,3.956316650390625,-0.10747857391834259,0.028436552733182907,0.2781529724597931
1772457912102384600,3.966384521484375,-0.10737044364213943,0.003916029818356037,0.3007988929748535
1772457912112452900,3.976452880859375,-0.1017150729894638,-0.042216185480356216,0.3132017254829407
1772457912122520600,3.9865205078125,-0.10280350595712662,-0.11921030282974243,0.3030633330345154
1772457912132588500,3.996588623046875,-0.11242307722568512,-0.18096549808979034,0.2822648584842682
1772457912142657800,4.00665771484375,-0.12771734595298767,-0.20066224038600922,0.26373112201690674
1772457912152725800,4.016725830078125,-0.14534179866313934,-0.18875782191753387,0.24036404490470886
1772457912162793700,4.026793701171875,-0.1568320095539093,-0.1645725816488266,0.21176010370254517
1772457912172861700,4.03686181640625,-0.1675189882516861,-0.1504221111536026,0.18948467075824738
1772457912182929700,4.0469296875,-0.1779436618089676,-0.13075785338878632,0.17226094007492065
1772457912192997600,4.05699755859375,-0.1957162320613861,-0.09700491279363632,0.168942391872406
1772457912203065600,4.067065673828125,-0.21273809671401978,-0.03837541863322258,0.18424145877361298
1772457912213133600,4.077133544921875,-0.22667045891284943,0.0042380401864647865,0.20092108845710754
1772457912223201800,4.087201904296875,-0.22746221721172333,0.0047613512724637985,0.21926280856132507
1772457912233269800,4.097269775390625,-0.2226463407278061,-0.01821686327457428,0.23392106592655182
1772457912243338500,4.10733837890625,-0.22532254457473755,-0.06316675990819931,0.24279925227165222
1772457912253406700,4.11740673828125,-0.2273702770471573,-0.13041771948337555,0.23903116583824158
1772457912263474400,4.127474365234375,-0.23585696518421173,-0.21879364550113678,0.22582082450389862
1772457912273542400,4.13754248046875,-0.2546387314796448,-0.3184894323348999,0.20485220849514008
1772457912283610400,4.1476103515625,-0.2751956582069397,-0.4147182106971741,0.17746691405773163
1772457912293678600,4.1576787109375,-0.2937217354774475,-0.4811639189720154,0.15043386816978455
1772457912303746600,4.16774658203125,-0.29114672541618347,-0.5138806104660034,0.12345550954341888
1772457912313814500,4.177814453125,-0.26337185502052307,-0.532672107219696,0.0986654981970787
1772457912323882200,4.18788232421875,-0.23420466482639313,-0.533568263053894,0.0667903870344162
1772457912333950500,4.197950439453125,-0.21027708053588867,-0.5270207524299622,0.028558874502778053
1772457912344019500,4.20801953125,-0.19055956602096558,-0.48155421018600464,-0.006444650702178478
1772457912354087400,4.21808740234375,-0.18102917075157166,-0.4004553258419037,-0.025548525154590607
1772457912364155600,4.22815576171875,-0.1776038110256195,-0.300533264875412,-0.028530200943350792
1772457912374223400,4.238223388671875,-0.17711439728736877,-0.20348702371120453,-0.023561149835586548
1772457912384291300,4.248291259765625,-0.18433928489685059,-0.1319955438375473,-0.017894743010401726
1772457912394359300,4.258359375,-0.19326411187648773,-0.08368685096502304,-0.005486717447638512
1772457912404427500,4.268427490234375,-0.20176517963409424,-0.04472240433096886,0.0028327314648777246
1772457912414495500,4.27849560546875,-0.203218013048172,-0.013794940896332264,0.01676129922270775
1772457912424563500,4.2885634765625,-0.18930034339427948,0.027136512100696564,0.029437946155667305
1772457912434631400,4.29863134765625,-0.16747136414051056,0.07684425264596939,0.04631759971380234
1772457912444700400,4.308700439453125,-0.14198225736618042,0.129092276096344,0.06863861531019211
1772457912454768400,4.318768310546875,-0.12176233530044556,0.1731373816728592,0.08570683747529984
1772457912464836400,4.32883642578125,-0.09263933449983597,0.20645806193351746,0.09615681320428848
1772457912474904600,4.338904541015625,-0.0759633332490921,0.22254468500614166,0.1034807413816452
1772457912484972500,4.34897265625,-0.06463158130645752,0.2276182770729065,0.09700419753789902
1772457912495040500,4.35904052734375,-0.057422056794166565,0.2303299903869629,0.08531241863965988
1772457912505109200,4.369109130859375,-0.056404463946819305,0.24786531925201416,0.07531730830669403
1772457912515177500,4.379177490234375,-0.05626257508993149,0.2480577826499939,0.06231490150094032
1772457912525245400,4.389245361328125,-0.05234852805733681,0.21381404995918274,0.034277938306331635
1772457912535313400,4.3993134765625,-0.057810332626104355,0.1550014466047287,-0.010434571653604507
1772457912545381600,4.409381591796875,-0.06843474507331848,0.07823476940393448,-0.07567322999238968
1772457912555449600,4.41944970703125,-0.08320346474647522,0.004921489395201206,-0.15107910335063934
1772457912565517300,4.429517333984375,-0.1010865867137909,-0.04575207456946373,-0.24532809853553772
1772457912575585300,4.439585205078125,-0.12843544781208038,-0.07422958314418793,-0.3403680622577667
1772457912585653500,4.449653564453125,-0.15071731805801392,-0.09488878399133682,-0.4501022696495056
1772457912595721500,4.459721435546875,-0.16996440291404724,-0.12821203470230103,-0.5632835030555725
1772457912605790500,4.46979052734375,-0.181117981672287,-0.15250779688358307,-0.6665494441986084
1772457912615858400,4.4798583984375,-0.18488673865795135,-0.15561766922473907,-0.7486475110054016
1772457912625926400,4.489926513671875,-0.17941899597644806,-0.12160217761993408,-0.7973074316978455
1772457912635994400,4.499994384765625,-0.1729329526424408,-0.0616595521569252,-0.8001601696014404
1772457912646062300,4.510062255859375,-0.15490388870239258,-0.0023280521854758263,-0.7719807624816895
1772457912656130300,4.52013037109375,-0.1326114982366562,0.04564228653907776,-0.7044722437858582
1772457912666198500,4.530198486328125,-0.10410608351230621,0.06627752631902695,-0.6121191382408142
1772457912676266500,4.5402666015625,-0.08491450548171997,0.06208229064941406,-0.5033732652664185
1772457912686334500,4.55033447265625,-0.07056059688329697,0.04903599992394447,-0.4006361961364746
1772457912696402400,4.56040234375,-0.06198740378022194,0.008038951084017754,-0.29048869013786316
1772457912706471400,4.570471435546875,-0.055652279406785965,-0.05095166712999344,-0.1897471696138382
1772457912716539400,4.580539306640625,-0.05033503845334053,-0.12157098948955536,-0.1096094399690628
1772457912726607400,4.590607421875,-0.05297369509935379,-0.18941527605056763,-0.04965396225452423
1772457912736675600,4.600675537109375,-0.05028131231665611,-0.23402485251426697,-0.018608078360557556
1772457912746743600,4.61074365234375,-0.04510146379470825,-0.2382718026638031,-0.002250411082059145
1772457912756811300,4.620811279296875,-0.03350767120718956,-0.2280985563993454,-0.0018890637438744307
1772457912766879200,4.630879150390625,-0.014086036942899227,-0.22754062712192535,-0.017817430198192596
1772457912776947500,4.640947509765625,-0.011360244825482368,-0.23675967752933502,-0.02729513868689537
1772457912787015400,4.651015380859375,-0.018663963302969933,-0.2376273274421692,-0.03637678548693657
1772457912797083400,4.66108349609375,-0.03177051618695259,-0.22743305563926697,-0.03865184634923935
1772457912807152400,4.67115234375,-0.043406665325164795,-0.19001111388206482,-0.04768209159374237
1772457912817220400,4.681220458984375,-0.03552505373954773,-0.1393761932849884,-0.062013138085603714
1772457912827288300,4.691288330078125,-0.028622671961784363,-0.08916735649108887,-0.08323267102241516
1772457912837356300,4.701356201171875,-0.014771785587072372,-0.04867284372448921,-0.11208849400281906
1772457912847424500,4.711424560546875,0.0013669708278030157,-0.010574993677437305,-0.14449197053909302
1772457912857492500,4.721492431640625,0.01523972861468792,0.025903992354869843,-0.15340428054332733
1772457912867560400,4.731560546875,0.03352286294102669,0.0560898557305336,-0.16032052040100098
1772457912877628400,4.74162841796875,0.0512663908302784,0.07507763803005219,-0.15229421854019165
1772457912887696400,4.7516962890625,0.06990133225917816,0.08413345366716385,-0.14305678009986877
1772457912897764400,4.761764404296875,0.08532175421714783,0.08429261296987534,-0.1204974427819252
1772457912907833300,4.771833251953125,0.10249807685613632,0.07525358349084854,-0.10578667372465134
1772457912917901600,4.781901611328125,0.12370732426643372,0.07818635553121567,-0.08820341527462006
1772457912927969500,4.791969482421875,0.13883380591869354,0.09654299169778824,-0.08365074545145035
1772457912938037500,4.80203759765625,0.1522858440876007,0.11855624616146088,-0.0883859321475029
1772457912948105200,4.812105224609375,0.157347172498703,0.14456281065940857,-0.09371651709079742
1772457912958173400,4.82217333984375,0.16378983855247498,0.15322893857955933,-0.1059982031583786
1772457912968241400,4.832241455078125,0.1690509170293808,0.16323363780975342,-0.1072288453578949
1772457912978309400,4.842309326171875,0.17045581340789795,0.18657425045967102,-0.10128433257341385
1772457912988377300,4.85237744140625,0.18033507466316223,0.19667401909828186,-0.08915549516677856
1772457912998445600,4.862445556640625,0.19541406631469727,0.19310395419597626,-0.0739656314253807
1772457913008514300,4.872514404296875,0.2122146189212799,0.1909414529800415,-0.05712113901972771
1772457913018582300,4.882582275390625,0.22896218299865723,0.19004450738430023,-0.0485319122672081
1772457913028650500,4.892650390625,0.24141699075698853,0.18870307505130768,-0.040980253368616104
1772457913038718500,4.902718505859375,0.25255775451660156,0.19784486293792725,-0.025959240272641182
1772457913048786400,4.912786376953125,0.2680453658103943,0.2241789996623993,-0.0063698263838887215
1772457913058854400,4.9228544921875,0.28442758321762085,0.22119469940662384,0.015718713402748108
1772457913068922600,4.932922607421875,0.2948375940322876,0.17176882922649384,0.02657216042280197
1772457913078990300,4.942990234375,0.29752981662750244,0.1017751470208168,0.030469978228211403
1772457913089058300,4.953058349609375,0.28562015295028687,0.04652227833867073,0.032040975987911224
1772457913099126300,4.963126220703125,0.2547225058078766,0.026012809947133064,0.03197303041815758
1772457913109194500,4.973194580078125,0.21589362621307373,0.046844322234392166,0.033939238637685776
1772457913119263500,4.983263427734375,0.1743595451116562,0.10058029741048813,0.04014734923839569
1772457913129331500,4.99333154296875,0.1421952247619629,0.16217628121376038,0.04340998828411102
1772457913139399400,5.0033994140625,0.11070390790700912,0.21823666989803314,0.05141893029212952
1772457913149467400,5.01346728515625,0.07756752520799637,0.2995387315750122,0.0745583325624466
1772457913159535400,5.023535400390625,0.0448349267244339,0.39278507232666016,0.11430622637271881
1772457913169603300,5.033603271484375,0.01926725171506405,0.4647711217403412,0.16499124467372894
1772457913179671600,5.043671630859375,0.004219694063067436,0.49185875058174133,0.2179892212152481
1772457913189739500,5.053739501953125,0.00045371800661087036,0.47145333886146545,0.25932973623275757
1772457913199807500,5.063807373046875,0.01628657802939415,0.4265911877155304,0.29829391837120056
1772457913209875500,5.07387548828125,0.04463433101773262,0.3663251996040344,0.3342815041542053
1772457913219944400,5.0839443359375,0.07539395987987518,0.32422178983688354,0.3711598515510559
1772457913230012400,5.094012451171875,0.10268896818161011,0.2975561022758484,0.40482833981513977
1772457913240080400,5.104080322265625,0.11739815771579742,0.28498440980911255,0.42836350202560425
1772457913250148600,5.114148681640625,0.11960805207490921,0.2645784616470337,0.42978909611701965
1772457913260216600,5.124216552734375,0.11875615268945694,0.22023577988147736,0.38934338092803955
1772457913270284300,5.1342841796875,0.11709140986204147,0.16536693274974823,0.3214684724807739
1772457913280352300,5.144352294921875,0.116314597427845,0.11272483319044113,0.23556934297084808
1772457913290420200,5.154420166015625,0.1211991012096405,0.05454142391681671,0.13360702991485596
1772457913300488200,5.16448828125,0.1223447322845459,0.004455274436622858,0.023778466507792473
1772457913310556200,5.17455615234375,0.11737101525068283,-0.02425812929868698,-0.08705057948827744
1772457913320625400,5.18462548828125,0.10806169360876083,-0.017640162259340286,-0.19058552384376526
1772457913330693000,5.194693115234375,0.10602837055921555,0.022943483665585518,-0.27127450704574585
1772457913340761000,5.204760986328125,0.11298896372318268,0.0898105800151825,-0.32868897914886475
1772457913350829300,5.214829345703125,0.13543781638145447,0.1547624170780182,-0.3649545907974243
1772457913360897300,5.224897216796875,0.17509064078330994,0.19718119502067566,-0.37290921807289124
1772457913370965200,5.23496533203125,0.22379693388938904,0.23603938519954681,-0.3488536775112152
1772457913381033200,5.245033203125,0.280074805021286,0.2709406018257141,-0.29934579133987427
1772457913391101400,5.255101318359375,0.33025887608528137,0.2817900478839874,-0.22767187654972076
1772457913401169400,5.26516943359375,0.3669106960296631,0.2673405706882477,-0.1489216536283493
1772457913411237000,5.275237060546875,0.38721731305122375,0.23302601277828217,-0.06697405129671097
1772457913421306400,5.285306396484375,0.4024559259414673,0.17782646417617798,0.008465328253805637
1772457913431374300,5.295374267578125,0.41613152623176575,0.12351767718791962,0.06957635283470154
1772457913441442300,5.3054423828125,0.4292050898075104,0.08409661054611206,0.12648145854473114
1772457913451510300,5.31551025390625,0.43398651480674744,0.06286881864070892,0.15925005078315735
1772457913461578500,5.32557861328125,0.4324396252632141,0.061535753309726715,0.1696978658437729
1772457913471646200,5.335646240234375,0.42896872758865356,0.059529859572649,0.16107802093029022
1772457913481714200,5.345714111328125,0.422230064868927,0.05445777624845505,0.13145963847637177
1772457913491782100,5.3557822265625,0.41570529341697693,0.0406266525387764,0.08198130875825882
1772457913501850400,5.365850341796875,0.4109101891517639,0.023192429915070534,0.021929152309894562
1772457913511918300,5.37591845703125,0.40464964509010315,0.009980488568544388,-0.04554922133684158
1772457913521987000,5.385987060546875,0.3918032646179199,-0.000524353701621294,-0.11815991997718811
1772457913532055300,5.39605517578125,0.3715406060218811,-0.009323970414698124,-0.19466188549995422
1772457913542123300,5.406123291015625,0.33951351046562195,-0.010280773043632507,-0.2649746835231781
1772457913552191200,5.416191162109375,0.2962896227836609,0.00835363194346428,-0.3347971737384796
1772457913562259200,5.42625927734375,0.2502782940864563,0.04452558979392052,-0.3845471739768982
1772457913572327400,5.436327392578125,0.1956946700811386,0.10975173115730286,-0.42842647433280945
1772457913582395400,5.4463955078125,0.13770386576652527,0.21201550960540771,-0.4463917315006256
1772457913592463400,5.45646337890625,0.08342384546995163,0.3250912129878998,-0.44053491950035095
1772457913602531000,5.466531005859375,0.04712555184960365,0.41087570786476135,-0.43185028433799744
1772457913612599300,5.476599365234375,0.03547422215342522,0.46744710206985474,-0.4167059659957886
1772457913622668300,5.486668212890625,0.04346245899796486,0.4998171031475067,-0.3904525637626648
1772457913632736300,5.496736328125,0.06766899675130844,0.5072156190872192,-0.3530985116958618
1772457913642804200,5.50680419921875,0.1047355905175209,0.4938318431377411,-0.316593736410141
1772457913652872400,5.51687255859375,0.14229761064052582,0.4594205915927887,-0.28157955408096313
1772457913662940200,5.526940185546875,0.17287981510162354,0.40924084186553955,-0.25364381074905396
1772457913673008000,5.537008056640625,0.2004786878824234,0.3491186499595642,-0.23116087913513184
1772457913683076000,5.547076171875,0.2202327698469162,0.28753024339675903,-0.21764126420021057
1772457913693144300,5.557144287109375,0.22805474698543549,0.23458100855350494,-0.20883233845233917
1772457913703212300,5.56721240234375,0.22879168391227722,0.1943768858909607,-0.21037276089191437
1772457913713280300,5.5772802734375,0.2275858074426651,0.16106367111206055,-0.22418072819709778
1772457913723349200,5.587349365234375,0.22383959591388702,0.13843512535095215,-0.24589906632900238
1772457913733417200,5.597417236328125,0.22120919823646545,0.13096308708190918,-0.273445725440979
1772457913743485200,5.607485107421875,0.21790120005607605,0.13305889070034027,-0.30035164952278137
1772457913753553200,5.61755322265625,0.22624753415584564,0.13796576857566833,-0.31099605560302734
1772457913763621400,5.627621337890625,0.23871037364006042,0.12117831408977509,-0.3181982934474945
1772457913773689300,5.637689453125,0.24987433850765228,0.07919890433549881,-0.3065626919269562
1772457913783757300,5.64775732421875,0.2493034154176712,0.039533041417598724,-0.2893432080745697
1772457913793825000,5.657824951171875,0.24205535650253296,0.00674127321690321,-0.2640351951122284
1772457913803893200,5.667893310546875,0.22862394154071808,-0.03172547370195389,-0.2391871213912964
1772457913813961200,5.677961181640625,0.20771625638008118,-0.08028315752744675,-0.21156613528728485
1772457913824030200,5.6880302734375,0.18039970099925995,-0.12743838131427765,-0.18979290127754211
1772457913834098400,5.698098388671875,0.15339098870754242,-0.15825355052947998,-0.17622703313827515
1772457913844166400,5.70816650390625,0.12918049097061157,-0.16695380210876465,-0.15878789126873016
1772457913854234000,5.718234130859375,0.11394428461790085,-0.1551312357187271,-0.1466292291879654
1772457913864302000,5.728302001953125,0.10855203121900558,-0.14285846054553986,-0.13423164188861847
1772457913874370300,5.738370361328125,0.11702035367488861,-0.12373057007789612,-0.11062511801719666
1772457913884438300,5.748438232421875,0.12231343984603882,-0.0939103290438652,-0.06613573431968689
1772457913894506200,5.75850634765625,0.1252240091562271,-0.050474707037210464,-0.020669445395469666
1772457913904574200,5.76857421875,0.12207929790019989,-0.019307753071188927,0.03627458214759827
1772457913914642400,5.778642333984375,0.11039414256811142,-0.010431705042719841,0.08979825675487518
1772457913924711200,5.788711181640625,0.10008013248443604,-0.02166292443871498,0.14797016978263855
1772457913934779100,5.798779052734375,0.08636858314275742,-0.05760122090578079,0.1937432587146759
1772457913944847400,5.808847412109375,0.07242830097675323,-0.10959084331989288,0.23710359632968903
1772457913954915300,5.818915283203125,0.05759422853589058,-0.14970071613788605,0.2656817138195038
1772457913964983300,5.8289833984375,0.04663069546222687,-0.16529925167560577,0.28606465458869934
1772457913975051300,5.83905126953125,0.039040420204401016,-0.1584261655807495,0.30266842246055603
1772457913985119200,5.849119140625,0.03854476660490036,-0.1438232958316803,0.31137746572494507
1772457913995187200,5.859187255859375,0.0475585013628006,-0.13876834511756897,0.31690168380737305
1772457914005255200,5.869255126953125,0.062124207615852356,-0.12947489321231842,0.3211451768875122
1772457914015323100,5.8793232421875,0.08460715413093567,-0.11957725137472153,0.32418811321258545
1772457914025392400,5.889392333984375,0.10656160861253738,-0.11544410139322281,0.3376448452472687
1772457914035460400,5.89946044921875,0.12370304763317108,-0.11123524606227875,0.35442250967025757
1772457914045528000,5.909528076171875,0.14111270010471344,-0.11700443178415298,0.370244562625885
1772457914055596300,5.91959619140625,0.14875198900699615,-0.13447582721710205,0.3885420560836792
1772457914065664300,5.929664306640625,0.15587767958641052,-0.1661718189716339,0.39948421716690063
1772457914075732200,5.939732177734375,0.17253094911575317,-0.18468345701694489,0.3999316394329071
1772457914085800200,5.94980029296875,0.18905173242092133,-0.18670654296875,0.3965829610824585
1772457914095868400,5.959868408203125,0.20677906274795532,-0.17596708238124847,0.39416614174842834
1772457914105936400,5.969936279296875,0.20982247591018677,-0.15613487362861633,0.3861563503742218
1772457914116004400,5.98000439453125,0.20413529872894287,-0.1291317492723465,0.3669746518135071
1772457914126073300,5.9900732421875,0.20011422038078308,-0.12224476039409637,0.3460630178451538
1772457914136141300,6.000141357421875,0.19436578452587128,-0.12326662242412567,0.3197997212409973
1772457914146209300,6.010209228515625,0.19197262823581696,-0.12153665721416473,0.2961072325706482
1772457914156277200,6.02027734375,0.1831303983926773,-0.13273844122886658,0.2804363965988159
1772457914166345500,6.030345458984375,0.18433409929275513,-0.10514438897371292,0.28450679779052734
1772457914176413200,6.0404130859375,0.20689214766025543,-0.0458456426858902,0.315759539604187
1772457914186481200,6.050481201171875,0.24937941133975983,-0.10019569844007492,0.3207431137561798
1772457914196549000,6.060549072265625,0.27279606461524963,-0.25250402092933655,0.2742200791835785
1772457914206617300,6.070617431640625,0.2837398946285248,-0.35319751501083374,0.21997492015361786
1772457914216685300,6.080685302734375,0.27533867955207825,-0.3843187093734741,0.16500301659107208
1772457914226754300,6.09075439453125,0.25909626483917236,-0.34811148047447205,0.09826764464378357
1772457914236822300,6.100822265625,0.25457635521888733,-0.2843274474143982,0.011157245375216007
1772457914246890200,6.11089013671875,0.2572566568851471,-0.2476084679365158,-0.08949612081050873
1772457914256958200,6.120958251953125,0.2668296694755554,-0.23066702485084534,-0.1911790817975998
1772457914267026000,6.13102587890625,0.27828148007392883,-0.1844196915626526,-0.28697407245635986
1772457914277094100,6.14109423828125,0.28295961022377014,-0.11580786854028702,-0.3508606255054474
1772457914287162000,6.151162109375,0.2843564450740814,-0.03205544874072075,-0.38812410831451416
1772457914297230000,6.16122998046875,0.28643104434013367,0.043253686279058456,-0.3865760266780853
1772457914307298000,6.171298095703125,0.3022449314594269,0.11490263044834137,-0.3509503901004791
1772457914317366000,6.181365966796875,0.3301961421966553,0.17328524589538574,-0.28793761134147644
1772457914327435000,6.19143505859375,0.36534616351127625,0.2084297239780426,-0.1962432712316513
1772457914337503000,6.2015029296875,0.4046355187892914,0.23896126449108124,-0.0956634134054184
1772457914347571200,6.2115712890625,0.44437527656555176,0.2517452538013458,0.009246902540326118
1772457914357639200,6.22163916015625,0.4836776554584503,0.2481241375207901,0.09533171355724335
1772457914367707100,6.23170703125,0.5255144834518433,0.20842348039150238,0.16101089119911194
1772457914377774800,6.24177490234375,0.5676267743110657,0.1616237461566925,0.21124397218227386
1772457914387843000,6.251843017578125,0.6061317920684814,0.11321870237588882,0.24981428682804108
1772457914397911000,6.2619111328125,0.6347013711929321,0.08255639672279358,0.2718876600265503
1772457914407979000,6.27197900390625,0.6533858180046082,0.055730052292346954,0.2839014232158661
1772457914418047000,6.282046875,0.6658366322517395,0.03612785413861275,0.2841448485851288
1772457914428116000,6.292115966796875,0.6743735074996948,0.013176003471016884,0.27521923184394836
1772457914438184000,6.302183837890625,0.6783139109611511,0.007989496923983097,0.2546553611755371
1772457914448252000,6.312251953125,0.6863150596618652,0.02719700150191784,0.23854832351207733
1772457914458320100,6.322320068359375,0.6969056725502014,0.07096286118030548,0.21419797837734222
1772457914468388000,6.33238818359375,0.7053699493408203,0.13476631045341492,0.19523605704307556
1772457914478456000,6.3424560546875,0.7090970277786255,0.21384622156620026,0.17904484272003174
1772457914488524000,6.35252392578125,0.7007735967636108,0.2957935929298401,0.16805338859558105
1772457914498592300,6.36259228515625,0.6889941692352295,0.37651902437210083,0.15749181807041168
1772457914508660000,6.372659912109375,0.6686474084854126,0.4430413544178009,0.15384460985660553
1772457914518728000,6.38272802734375,0.647903561592102,0.4778698980808258,0.13849174976348877
1772457914528797200,6.392797119140625,0.6341983675956726,0.4797341823577881,0.12496563047170639
1772457914538865200,6.402865234375,0.6307490468025208,0.45434334874153137,0.1010427251458168
1772457914548933000,6.41293310546875,0.6379108428955078,0.41692987084388733,0.07930324971675873
1772457914559001000,6.4230009765625,0.6480082273483276,0.38745346665382385,0.058793988078832626
1772457914569069000,6.433069091796875,0.6636514663696289,0.3634585738182068,0.03693056106567383
1772457914579137000,6.443136962890625,0.6829042434692383,0.34970948100090027,0.010214531794190407
1772457914589205000,6.453205078125,0.7052152752876282,0.3411371111869812,-0.018597474321722984
1772457914599273000,6.46327294921875,0.7246243953704834,0.35023871064186096,-0.05455201119184494
1772457914609341200,6.473341064453125,0.7389511466026306,0.3690030872821808,-0.0740940272808075
1772457914619409200,6.4834091796875,0.7539937496185303,0.39003220200538635,-0.08861171454191208
1772457914629478000,6.493477783203125,0.7690263986587524,0.41008567810058594,-0.0953468307852745
1772457914639546000,6.503546142578125,0.7886821031570435,0.4189111292362213,-0.09267008304595947
1772457914649614000,6.513614013671875,0.8052331805229187,0.404666543006897,-0.09307035058736801
1772457914659682000,6.52368212890625,0.8255781531333923,0.4121984839439392,-0.10062254220247269
1772457914669750000,6.53375,0.8405217528343201,0.4255457818508148,-0.11914060264825821
1772457914679818200,6.543818359375,0.8585255146026611,0.4418049156665802,-0.13899020850658417
1772457914689886200,6.55388623046875,0.8755919337272644,0.4608375132083893,-0.15450835227966309
1772457914699954000,6.563953857421875,0.8934206962585449,0.4706107974052429,-0.16635090112686157
1772457914710022000,6.57402197265625,0.908277690410614,0.45806917548179626,-0.177221417427063
1772457914720091100,6.584091064453125,0.925545871257782,0.43195289373397827,-0.18114718794822693
1772457914730159000,6.5941591796875,0.9350276589393616,0.39882513880729675,-0.1606680154800415
1772457914740227000,6.60422705078125,0.9337706565856934,0.37176528573036194,-0.13676880300045013
1772457914750295000,6.614294921875,0.9336294531822205,0.37735897302627563,-0.1089179739356041
1772457914760363000,6.624363037109375,0.9411818981170654,0.3820149600505829,-0.0868544802069664
1772457914770431000,6.634430908203125,0.9600217938423157,0.38960057497024536,-0.06855136901140213
1772457914780499000,6.6444990234375,0.9936034083366394,0.3960808515548706,-0.07208910584449768
1772457914790567200,6.654567138671875,1.0388423204421997,0.39988887310028076,-0.0794571042060852
1772457914800635100,6.66463525390625,1.0789482593536377,0.4243124723434448,-0.09067381173372269
1772457914810703000,6.674703125,1.1182926893234253,0.4550238251686096,-0.09592811018228531
1772457914820771000,6.68477099609375,1.1503348350524902,0.4762430787086487,-0.09946957975625992
1772457914830840000,6.694840087890625,1.1747828722000122,0.46554067730903625,-0.10295835137367249
1772457914840908000,6.704907958984375,1.1971155405044556,0.4331670105457306,-0.10586518794298172
1772457914850976000,6.71497607421875,1.218384861946106,0.392711341381073,-0.11117071658372879
1772457914861044200,6.725044189453125,1.235483169555664,0.369920551776886,-0.10477087646722794
1772457914871112200,6.7351123046875,1.2483994960784912,0.35892173647880554,-0.08665052056312561
1772457914881180200,6.74518017578125,1.2722363471984863,0.3552079498767853,-0.0753651112318039
1772457914891247900,6.755247802734375,1.300734043121338,0.34551480412483215,-0.06613783538341522
1772457914901316000,6.765316162109375,1.336216688156128,0.33148208260536194,-0.06975147873163223
1772457914911384000,6.775384033203125,1.3698054552078247,0.3284521996974945,-0.07327830046415329
1772457914921453000,6.785453125,1.4017040729522705,0.3443358242511749,-0.07400933653116226
1772457914931521000,6.79552099609375,1.4213151931762695,0.3482305407524109,-0.07386472076177597
1772457914941589000,6.805589111328125,1.4370850324630737,0.3443010449409485,-0.07426206767559052
1772457914951657000,6.815656982421875,1.4336669445037842,0.33848050236701965,-0.06677452474832535
1772457914961725000,6.825724853515625,1.4260642528533936,0.33989810943603516,-0.07392964512109756
1772457914971793000,6.83579296875,1.409041404724121,0.35245487093925476,-0.08165518939495087
1772457914981861000,6.845861083984375,1.3858822584152222,0.3741260766983032,-0.09361597895622253
1772457914991929000,6.85592919921875,1.3617995977401733,0.3847898840904236,-0.11688345670700073
1772457915001997000,6.8659970703125,1.3423548936843872,0.378558874130249,-0.14975325763225555
1772457915012065300,6.876065185546875,1.3235912322998047,0.36387741565704346,-0.18512067198753357
1772457915022134000,6.886134033203125,1.306152105331421,0.3649863600730896,-0.21739472448825836
1772457915032202000,6.896201904296875,1.2902545928955078,0.39755329489707947,-0.24065688252449036
1772457915042270000,6.90627001953125,1.277899146080017,0.4579785466194153,-0.2612263560295105
1772457915052338200,6.916338134765625,1.2759608030319214,0.5459232330322266,-0.2738073468208313
1772457915062406100,6.92640625,1.2913721799850464,0.6458711624145508,-0.261242538690567
1772457915072474000,6.93647412109375,1.3207929134368896,0.7021940350532532,-0.23837910592556
1772457915082541800,6.946541748046875,1.3562425374984741,0.6824592351913452,-0.21806050837039948
1772457915092610000,6.956610107421875,1.376213788986206,0.6441071629524231,-0.18277417123317719
1772457915102678000,6.966677978515625,1.3841928243637085,0.6182041764259338,-0.1291048228740692
1772457915112746000,6.97674609375,1.370368242263794,0.5938103199005127,-0.08136682212352753
1772457915122815200,6.986815185546875,1.3468877077102661,0.5845039486885071,-0.0307859368622303
1772457915132883000,6.996883056640625,1.3237693309783936,0.5759416222572327,0.006380045786499977
1772457915142951000,7.006950927734375,1.3061332702636719,0.5816466808319092,0.0402301549911499
1772457915153019000,7.017018798828125,1.2995264530181885,0.597209632396698,0.06855108588933945
1772457915163087000,7.027087158203125,1.2976652383804321,0.5972766876220703,0.07937736809253693
1772457915173155000,7.037155029296875,1.298862099647522,0.553361177444458,0.07351836562156677
1772457915183223000,7.04722314453125,1.295628309249878,0.4886184334754944,0.0615791454911232
1772457915193291000,7.057291015625,1.290825366973877,0.4332115054130554,0.050100646913051605
1772457915203359200,7.067359130859375,1.2760107517242432,0.4031846523284912,0.040654152631759644
1772457915213427000,7.077427001953125,1.2551876306533813,0.3848571181297302,0.03984695300459862
1772457915223496000,7.087495849609375,1.2272307872772217,0.35675281286239624,0.05699557811021805
1772457915233564200,7.097564208984375,1.1932977437973022,0.35036277770996094,0.08117739856243134
1772457915243632000,7.107632080078125,1.164250135421753,0.3697899878025055,0.10186164081096649
1772457915253700000,7.1177001953125,1.144115686416626,0.3998488783836365,0.11940383166074753
1772457915263768000,7.12776806640625,1.1358569860458374,0.4315156936645508,0.13328182697296143
1772457915273836800,7.1378369140625,1.1353529691696167,0.46098750829696655,0.12945906817913055
1772457915283904800,7.14790478515625,1.143420696258545,0.4599137306213379,0.10539953410625458
1772457915293973000,7.157972900390625,1.1633083820343018,0.4618488848209381,0.09270355105400085
1772457915304041000,7.168041015625,1.1883071660995483,0.4694308936595917,0.08736604452133179
1772457915314109000,7.17810888671875,1.2126675844192505,0.4682750999927521,0.09790606796741486
1772457915324178000,7.188177978515625,1.2267807722091675,0.46516185998916626,0.11468344926834106
1772457915334246000,7.198245849609375,1.230035662651062,0.4613783359527588,0.143712118268013
1772457915344313900,7.20831396484375,1.232122540473938,0.43930551409721375,0.1837618052959442
1772457915354381800,7.2183818359375,1.2320868968963623,0.41658058762550354,0.21376413106918335
1772457915364450000,7.228449951171875,1.2296890020370483,0.38517552614212036,0.23862899839878082
1772457915374518000,7.23851806640625,1.2294782400131226,0.3785066604614258,0.26465392112731934
1772457915384586000,7.2485859375,1.2276694774627686,0.38662129640579224,0.2815399467945099
1772457915394653700,7.25865380859375,1.2314300537109375,0.39505305886268616,0.2839922308921814
1772457915404722000,7.268721923828125,1.2302918434143066,0.40904664993286133,0.2715294361114502
1772457915414790000,7.278789794921875,1.224178671836853,0.42944037914276123,0.24878866970539093
1772457915424859000,7.28885888671875,1.2258872985839844,0.45735031366348267,0.22332699596881866
1772457915434927000,7.298927001953125,1.2271089553833008,0.48416876792907715,0.1913355588912964
1772457915444994800,7.308994873046875,1.2305465936660767,0.5085363984107971,0.14846718311309814
1772457915455062800,7.319062744140625,1.2265948057174683,0.5446203947067261,0.10367333889007568
1772457915465130800,7.329130859375,1.223371148109436,0.59446120262146,0.04972701519727707
1772457915475199000,7.339198974609375,1.2208709716796875,0.665116548538208,-0.02161208540201187
1772457915485267000,7.349266845703125,1.2192189693450928,0.7457738518714905,-0.11168152838945389
1772457915495335000,7.3593349609375,1.2311458587646484,0.8132210373878479,-0.20153692364692688
1772457915505403000,7.36940283203125,1.2452473640441895,0.8500059843063354,-0.28304323554039
1772457915515472000,7.379471923828125,1.2594176530838013,0.8724772930145264,-0.34465327858924866
1772457915525539800,7.389539794921875,1.2701212167739868,0.8850975036621094,-0.38737571239471436
1772457915535607800,7.39960791015625,1.2753322124481201,0.8869487047195435,-0.4160428047180176
1772457915545676000,7.409676025390625,1.2757929563522339,0.8778576850891113,-0.44548192620277405
1772457915555744000,7.419743896484375,1.2784051895141602,0.8622617125511169,-0.4653640389442444
1772457915565812000,7.42981201171875,1.2760776281356812,0.825351893901825,-0.47656184434890747
1772457915575880000,7.4398798828125,1.2584327459335327,0.7673324346542358,-0.4717084467411041
1772457915585948000,7.449947998046875,1.2372324466705322,0.6890909075737,-0.46501991152763367
1772457915596015900,7.460015869140625,1.2165335416793823,0.6169478297233582,-0.4443466067314148
1772457915606083800,7.470083740234375,1.202781081199646,0.5539483428001404,-0.421161413192749
1772457915616153000,7.480153076171875,1.1870310306549072,0.5304076075553894,-0.39230790734291077
1772457915626221000,7.490220947265625,1.1751432418823242,0.5642684102058411,-0.37694066762924194
1772457915636288800,7.500288818359375,1.1725811958312988,0.6431014537811279,-0.3473273813724518
1772457915646356700,7.510356689453125,1.1851800680160522,0.7286370992660522,-0.33354100584983826
1772457915656425000,7.520425048828125,1.2110555171966553,0.7849655747413635,-0.32110777497291565
1772457915666493000,7.530492919921875,1.2468560934066772,0.7940152883529663,-0.3109789788722992
1772457915676561000,7.540560791015625,1.2818877696990967,0.7617763876914978,-0.29698804020881653
1772457915686628900,7.55062890625,1.3081276416778564,0.7049277424812317,-0.2787501811981201
1772457915696697000,7.560697021484375,1.3244247436523438,0.654169499874115,-0.25199827551841736
1772457915706765000,7.57076513671875,1.3399099111557007,0.5949418544769287,-0.21891486644744873
1772457915716833800,7.580833740234375,1.349084496498108,0.532355546951294,-0.1722666621208191
1772457915726901800,7.59090185546875,1.3446239233016968,0.47024235129356384,-0.1192854717373848
1772457915736970000,7.600969970703125,1.328802227973938,0.43305322527885437,-0.053715527057647705
1772457915747038000,7.611037841796875,1.3124533891677856,0.4130880534648895,0.0015125763602554798
1772457915757106000,7.62110595703125,1.3035985231399536,0.4074215292930603,0.04830567166209221
1772457915767174000,7.631173828125,1.3009626865386963,0.4009929299354553,0.07839086651802063
1772457915777241900,7.641241943359375,1.3001307249069214,0.3914091885089874,0.09215598553419113
1772457915787309800,7.651309814453125,1.2936447858810425,0.3796215057373047,0.09681332111358643
1772457915797377800,7.661377685546875,1.2770217657089233,0.3911888301372528,0.10663392394781113
1772457915807446000,7.671446044921875,1.2504503726959229,0.41820552945137024,0.1242227703332901
1772457915817515000,7.681514892578125,1.2208813428878784,0.4355708956718445,0.1436614841222763
1772457915827582700,7.691582763671875,1.1845792531967163,0.45049071311950684,0.16664589941501617
1772457915837650700,7.701650634765625,1.1411802768707275,0.44708558917045593,0.17848336696624756
1772457915847719000,7.711718994140625,1.0956910848617554,0.43334341049194336,0.1950186789035797
1772457915857787000,7.721786865234375,1.0456706285476685,0.4214819669723511,0.20698557794094086
1772457915867854800,7.731854736328125,0.9882520437240601,0.40951213240623474,0.22428466379642487
1772457915877922800,7.7419228515625,0.9269694089889526,0.40054357051849365,0.2404753863811493
1772457915887991000,7.751990966796875,0.8668871521949768,0.3734096884727478,0.2525898516178131
1772457915898059000,7.76205908203125,0.8080548048019409,0.34667909145355225,0.256710022687912
1772457915908126700,7.772126708984375,0.7553976774215698,0.3327409029006958,0.2601180672645569
1772457915918196000,7.782196044921875,0.7108666300773621,0.3140026032924652,0.2551840543746948
1772457915928264000,7.792263916015625,0.6695442199707031,0.3062743842601776,0.2418472319841385
1772457915938332000,7.802331787109375,0.6378782391548157,0.30654871463775635,0.2263025939464569
1772457915948399900,7.81239990234375,0.6063054203987122,0.3004617691040039,0.20467053353786469
1772457915958467800,7.8224677734375,0.5774475336074829,0.2875136137008667,0.18078459799289703
1772457915968535800,7.832535888671875,0.5540524125099182,0.26594308018684387,0.1537015736103058
1772457915978603800,7.842603759765625,0.5408021807670593,0.23597344756126404,0.12707293033599854
1772457915988671700,7.852671630859375,0.5309439301490784,0.20092011988162994,0.09511525928974152
1772457915998740000,7.862739990234375,0.5217587351799011,0.16150274872779846,0.05839485302567482
1772457916008808000,7.872807861328125,0.5134129524230957,0.12351595610380173,0.020813390612602234
1772457916018876700,7.882876708984375,0.5017651319503784,0.10275748372077942,-0.018503693863749504
1772457916028945000,7.89294482421875,0.4883124530315399,0.10009032487869263,-0.055631622672080994
1772457916039012900,7.903012939453125,0.48224690556526184,0.112413689494133,-0.08394520729780197
1772457916049080800,7.913080810546875,0.48270365595817566,0.1479988545179367,-0.11027827858924866
1772457916059148800,7.923148681640625,0.49019908905029297,0.19145114719867706,-0.11952221393585205
1772457916069217000,7.933217041015625,0.5085157155990601,0.24683158099651337,-0.12435771524906158
1772457916079285000,7.943284912109375,0.5336816310882568,0.28597399592399597,-0.1156645342707634
1772457916089353000,7.95335302734375,0.5636616349220276,0.31659820675849915,-0.09406496584415436
1772457916099420700,7.963420654296875,0.597019612789154,0.3402460515499115,-0.05841834843158722
1772457916109490000,7.973489990234375,0.6285410523414612,0.323514461517334,-0.02224995754659176
1772457916119558000,7.983557861328125,0.6600356698036194,0.27184736728668213,0.011130670085549355
1772457916129624800,7.993624755859375,0.681212306022644,0.2071213722229004,0.03971970081329346
1772457916139692800,8.00369287109375,0.7028888463973999,0.14328619837760925,0.061320338398218155
1772457916149761000,8.013760986328125,0.7202449440956116,0.08022867143154144,0.07368752360343933
1772457916159829000,8.0238291015625,0.7373076677322388,0.031056640669703484,0.07896819710731506
1772457916169897700,8.033897705078125,0.7550714612007141,-0.00994512066245079,0.06559459865093231
1772457916179966000,8.043966064453125,0.7628793120384216,-0.04611002653837204,0.041181206703186035
1772457916190034000,8.054033935546874,0.75299072265625,-0.0795460119843483,-0.0017319045728072524
1772457916200102000,8.064101806640625,0.7284868955612183,-0.09183475375175476,-0.05610723793506622
1772457916210169900,8.074169921875,0.6995316743850708,-0.07735274732112885,-0.11633329838514328
1772457916220238000,8.084238037109374,0.6636351346969604,-0.06724683940410614,-0.18108834326267242
1772457916230305800,8.094305908203125,0.6285799741744995,-0.05384554713964462,-0.2509840726852417
1772457916240373800,8.104373779296875,0.6009715795516968,-0.030809378251433372,-0.3050539493560791
1772457916250441700,8.114441650390624,0.5831510424613953,0.010769221931695938,-0.3383450508117676
1772457916260511000,8.124510986328126,0.5793366432189941,0.07736265659332275,-0.34780147671699524
1772457916270578700,8.13457861328125,0.5858539342880249,0.14913803339004517,-0.3428493142127991
1772457916280646700,8.144646728515625,0.6033760905265808,0.20713895559310913,-0.31960734724998474
1772457916290714600,8.154714599609376,0.6253299117088318,0.2392132729291916,-0.27815017104148865
1772457916300782600,8.164782470703125,0.647737443447113,0.2542821764945984,-0.2030833661556244
1772457916310850600,8.1748505859375,0.6630614995956421,0.2727522552013397,-0.10133251547813416
1772457916320918500,8.18491845703125,0.6696556210517883,0.2636270523071289,-0.0003244238905608654
1772457916330986800,8.19498681640625,0.6810318231582642,0.22815987467765808,0.11363063752651215
1772457916341054700,8.2050546875,0.6819176077842712,0.18395482003688812,0.21935518085956573
1772457916351122700,8.215122802734374,0.6674105525016785,0.14568625390529633,0.31246811151504517
1772457916361191700,8.225191650390625,0.642967700958252,0.12089802324771881,0.3878861963748932
1772457916371259600,8.235259765625,0.6148191690444946,0.1132797822356224,0.43469658493995667
1772457916381327600,8.24532763671875,0.5888038873672485,0.11907438933849335,0.44727760553359985
1772457916391395600,8.2553955078125,0.5618449449539185,0.13679027557373047,0.44557586312294006
1772457916401463800,8.2654638671875,0.5391071438789368,0.1656128615140915,0.40965592861175537
1772457916411531800,8.27553173828125,0.5202493071556091,0.19192568957805634,0.36022767424583435
1772457916421599700,8.285599853515626,0.5011118650436401,0.22385944426059723,0.29580315947532654
1772457916431667500,8.29566748046875,0.481876939535141,0.2617924213409424,0.22355212271213531
1772457916441735700,8.305735595703124,0.45997172594070435,0.29152244329452515,0.15713445842266083
1772457916451803600,8.3158037109375,0.4371926486492157,0.30542415380477905,0.09206569939851761
1772457916461872600,8.32587255859375,0.41077151894569397,0.2982350289821625,0.031418267637491226
1772457916471940600,8.335940673828125,0.38121551275253296,0.2762642204761505,-0.022101150825619698
1772457916482008600,8.346008544921874,0.35749951004981995,0.27106839418411255,-0.06357772648334503
1772457916492076500,8.35607666015625,0.3446020781993866,0.29102396965026855,-0.08326461166143417
1772457916502144500,8.36614453125,0.340751588344574,0.3288336396217346,-0.08559692651033401
1772457916512212700,8.376212646484374,0.3417135179042816,0.36138197779655457,-0.08317345380783081
1772457916522280700,8.38628076171875,0.3461599349975586,0.39618223905563354,-0.07622002810239792
1772457916532348700,8.3963486328125,0.35619527101516724,0.4468507468700409,-0.07789329439401627
1772457916542416600,8.406416748046874,0.3676120340824127,0.502072274684906,-0.08538559079170227
1772457916552484900,8.41648486328125,0.38708508014678955,0.55774986743927,-0.10010436177253723
1772457916562553600,8.4265537109375,0.39595741033554077,0.6101524233818054,-0.11056116968393326
1772457916572621600,8.43662158203125,0.4027591347694397,0.6514487266540527,-0.12419549375772476
1772457916582689500,8.446689453125,0.402901828289032,0.6640177965164185,-0.13608808815479279
1772457916592757800,8.4567578125,0.40172281861305237,0.6524569988250732,-0.1424860656261444
1772457916602825700,8.46682568359375,0.39683249592781067,0.5931467413902283,-0.15067696571350098
1772457916612893700,8.476893798828126,0.3958761394023895,0.5012051463127136,-0.1315637230873108
1772457916622961400,8.48696142578125,0.40282464027404785,0.41656941175460815,-0.10369604825973511
1772457916633029600,8.497029541015625,0.4202864468097687,0.35359787940979004,-0.06183568388223648
1772457916643097600,8.50709765625,0.45535093545913696,0.32413819432258606,-0.01315584871917963
1772457916653166600,8.51716650390625,0.4964413642883301,0.3294930160045624,0.03242575004696846
1772457916663234800,8.52723486328125,0.5307130217552185,0.36458975076675415,0.05602944269776344
1772457916673302500,8.537302490234374,0.5619641542434692,0.4135724902153015,0.07564975321292877
1772457916683370500,8.54737060546875,0.5867078900337219,0.44710031151771545,0.08013473451137543
1772457916693438500,8.5574384765625,0.6152745485305786,0.446457177400589,0.06844372302293777
1772457916703506700,8.567506591796874,0.6470165252685547,0.4164990186691284,0.03742191195487976
1772457916713574700,8.57757470703125,0.6745008826255798,0.36025306582450867,-0.002580897882580757
1772457916723642600,8.587642578125,0.6916815042495728,0.29628831148147583,-0.062190692871809006
1772457916733710600,8.597710693359375,0.7066774964332581,0.2558346390724182,-0.12662161886692047
1772457916743778800,8.60777880859375,0.7236765623092651,0.23644419014453888,-0.1907905489206314
1772457916753847600,8.61784765625,0.7429067492485046,0.22008758783340454,-0.26804354786872864
1772457916763915500,8.62791552734375,0.7590968608856201,0.20206917822360992,-0.33811450004577637
1772457916773983700,8.637983642578124,0.7717586159706116,0.19997113943099976,-0.39915522933006287
1772457916784051700,8.6480517578125,0.7844449281692505,0.215325266122818,-0.4460400342941284
1772457916794119700,8.65811962890625,0.7987431883811951,0.2459082156419754,-0.48085421323776245
1772457916804187600,8.668187744140624,0.8146179914474487,0.26195794343948364,-0.5071396827697754
1772457916814255600,8.678255615234375,0.8283509016036987,0.26512232422828674,-0.51680988073349
1772457916824323600,8.688323486328125,0.8425504565238953,0.26020997762680054,-0.5087447762489319
1772457916834391600,8.6983916015625,0.8543519377708435,0.23985914885997772,-0.4798244833946228
1772457916844459500,8.70845947265625,0.8689777255058289,0.2125403732061386,-0.44627711176872253
1772457916854528800,8.71852880859375,0.8756121397018433,0.18201547861099243,-0.40751826763153076
1772457916864596500,8.728596435546875,0.8819959759712219,0.15462267398834229,-0.36086857318878174
1772457916874664400,8.73866455078125,0.8848428726196289,0.1386924386024475,-0.30777573585510254
1772457916884732700,8.748732666015625,0.8873843550682068,0.12352762371301651,-0.26315921545028687
1772457916894800600,8.758800537109375,0.8883987665176392,0.10929036885499954,-0.22984014451503754
1772457916904868600,8.76886865234375,0.8874069452285767,0.08600658923387527,-0.21611282229423523
1772457916914936600,8.7789365234375,0.8890336155891418,0.05319671332836151,-0.22335556149482727
1772457916925004800,8.7890048828125,0.8863247036933899,0.034290190786123276,-0.24234071373939514
1772457916935072800,8.79907275390625,0.8733041882514954,0.02858782932162285,-0.26332589983940125
1772457916945141500,8.8091416015625,0.8528097867965698,0.04110671207308769,-0.2803232669830322
1772457916955209700,8.819209716796875,0.8222822546958923,0.08156146109104156,-0.281085729598999
1772457916965277700,8.829277587890624,0.7887042164802551,0.1256641447544098,-0.27889496088027954
1772457916975345700,8.839345703125,0.7575950622558594,0.16516521573066711,-0.27589544653892517
1772457916985413600,8.84941357421875,0.725598931312561,0.19019994139671326,-0.27384722232818604
1772457916995481900,8.85948193359375,0.691828191280365,0.1960218846797943,-0.27219873666763306
1772457917005549600,8.869549560546876,0.6583883166313171,0.20499227941036224,-0.2723468244075775
1772457917015617500,8.879617431640625,0.6275438070297241,0.2076791375875473,-0.2715529501438141
1772457917025685500,8.889685546875,0.5985791087150574,0.22078222036361694,-0.2571263611316681
1772457917035753700,8.899753662109376,0.5779164433479309,0.23551055788993835,-0.2405465841293335
1772457917045822700,8.90982275390625,0.5716872215270996,0.23934035003185272,-0.2115737944841385
1772457917055890700,8.919890625,0.5758361220359802,0.23637038469314575,-0.1864527314901352
1772457917065958700,8.929958740234374,0.5804777145385742,0.23176945745944977,-0.15778271853923798
1772457917076026600,8.940026611328125,0.5829259753227234,0.24120689928531647,-0.12557817995548248
1772457917086094600,8.950094482421875,0.5895290970802307,0.2569611668586731,-0.09158645570278168
1772457917096162600,8.96016259765625,0.5971159338951111,0.2651978135108948,-0.06071828678250313
1772457917106230800,8.970230712890626,0.6039701104164124,0.26277244091033936,-0.035537805408239365
1772457917116298800,8.980298828125,0.6091414093971252,0.2623165249824524,-0.01782885007560253
1772457917126366700,8.99036669921875,0.6139110326766968,0.266634464263916,0.004414399154484272
1772457917136434400,9.000434326171876,0.6160125136375427,0.27693185210227966,0.01887642964720726
1772457917146503700,9.010503662109375,0.6150400638580322,0.2823760211467743,0.02844579704105854
1772457917156571600,9.020571533203125,0.6117467880249023,0.2857199013233185,0.034726861864328384
1772457917166639600,9.0306396484375,0.6089413166046143,0.2784823179244995,0.028642799705266953
1772457917176707800,9.040707763671875,0.6097567677497864,0.2786964178085327,0.015494775027036667
1772457917186775800,9.05077587890625,0.6178095936775208,0.2927704453468323,0.012766128405928612
1772457917196843500,9.060843505859374,0.6337022185325623,0.30639463663101196,0.007484015077352524
1772457917206911500,9.070911376953125,0.655727744102478,0.3246663808822632,0.01863306201994419
1772457917216979700,9.080979736328125,0.685253381729126,0.34295883774757385,0.04071039706468582
1772457917227047700,9.091047607421874,0.7165088653564453,0.34227821230888367,0.07038600742816925
1772457917237116700,9.10111669921875,0.7425433993339539,0.3287099301815033,0.10493706166744232
1772457917247184600,9.1111845703125,0.763840913772583,0.3038593530654907,0.14604242146015167
1772457917257252600,9.121252685546875,0.7828001976013184,0.2644834518432617,0.18455438315868378
1772457917267320600,9.131320556640626,0.8017978668212891,0.2080763876438141,0.21964283287525177
1772457917277388500,9.141388427734375,0.828411877155304,0.17162224650382996,0.2701616585254669
1772457917287456800,9.151456787109375,0.8523052334785461,0.19949810206890106,0.32980111241340637
1772457917297524700,9.161524658203126,0.8722847700119019,0.2042372077703476,0.3635998070240021
1772457917307592700,9.1715927734375,0.8660803437232971,0.10933689773082733,0.34109288454055786
1772457917317660700,9.18166064453125,0.8452030420303345,0.017431743443012238,0.2974814772605896
1772457917327728600,9.191728759765626,0.8095012307167053,0.01682213693857193,0.2686620056629181
1772457917337797600,9.201797607421875,0.761120617389679,0.027909142896533012,0.23319774866104126
1772457917347865600,9.211865478515625,0.7050107717514038,0.034308720380067825,0.2148110270500183
1772457917357933600,9.22193359375,0.6394907236099243,0.03746017813682556,0.2078668773174286
1772457917368001800,9.232001708984376,0.5795565247535706,0.06638262420892715,0.2256927639245987
1772457917378069800,9.24206982421875,0.5235409140586853,0.1215691864490509,0.26281455159187317
1772457917388137500,9.252137451171874,0.47327330708503723,0.18113620579242706,0.30396339297294617
1772457917398205400,9.262205322265626,0.44194626808166504,0.2310188114643097,0.33212950825691223
1772457917408273700,9.272273681640625,0.4229613244533539,0.24583521485328674,0.3431999087333679
1772457917418341600,9.282341552734374,0.42372646927833557,0.2378944754600525,0.3302750587463379
1772457917428410600,9.29241064453125,0.43350526690483093,0.2267589420080185,0.30262136459350586
1772457917438478600,9.302478515625,0.4533335566520691,0.2132689654827118,0.2751487195491791
1772457917448546600,9.312546630859375,0.46469059586524963,0.18596303462982178,0.2483978271484375
1772457917458614500,9.322614501953124,0.4673691987991333,0.1614326536655426,0.21510964632034302
1772457917468682500,9.3326826171875,0.4578569829463959,0.1294100433588028,0.18082429468631744
1772457917478750700,9.342750732421875,0.4390646517276764,0.10256271064281464,0.1492013782262802
1772457917488818700,9.352818603515624,0.41200947761535645,0.09336085617542267,0.12772813439369202
1772457917498886700,9.36288671875,0.38432857394218445,0.09741951525211334,0.10642232745885849
1772457917508954600,9.37295458984375,0.36015161871910095,0.11269832402467728,0.08504905551671982
1772457917519022600,9.383022705078124,0.34488797187805176,0.13870488107204437,0.058360181748867035
1772457917529091600,9.393091552734376,0.3400941491127014,0.1514357328414917,0.029382912442088127
1772457917539159600,9.40315966796875,0.32955121994018555,0.14586946368217468,-0.01323752012103796
1772457917549227800,9.413227783203125,0.3184255361557007,0.12420486658811569,-0.057088613510131836
1772457917559295700,9.423295654296876,0.3038135766983032,0.10307002067565918,-0.09032993018627167
1772457917569363700,9.43336376953125,0.2911123037338257,0.0917746052145958,-0.11802735924720764
1772457917579431400,9.443431396484375,0.274160772562027,0.08572071045637131,-0.13509875535964966
1772457917589499600,9.453499755859376,0.2544211149215698,0.09402922540903091,-0.14081892371177673
1772457917599567600,9.463567626953125,0.23901471495628357,0.09811824560165405,-0.14092572033405304
1772457917609635600,9.473635498046875,0.22300569713115692,0.0915386825799942,-0.13603481650352478
1772457917619704800,9.483704833984374,0.20886138081550598,0.10758662968873978,-0.1183713972568512
1772457917629772500,9.4937724609375,0.20130860805511475,0.1472681760787964,-0.08543188124895096
1772457917639840500,9.503840576171875,0.2018396407365799,0.1770777404308319,-0.052358344197273254
1772457917649908500,9.513908447265624,0.20168355107307434,0.18208447098731995,-0.025998616591095924
1772457917659976700,9.523976806640626,0.2023027390241623,0.15646059811115265,-0.019065342843532562
1772457917670044700,9.534044677734375,0.20772981643676758,0.11529354751110077,-0.035426974296569824
1772457917680112600,9.544112548828124,0.2144974321126938,0.08017417788505554,-0.06133953109383583
1772457917690180600,9.5541806640625,0.2170237898826599,0.06046738848090172,-0.10153492540121078
1772457917700248800,9.564248779296875,0.2040265053510666,0.05880823731422424,-0.14799296855926514
1772457917710317600,9.574317626953125,0.1798693686723709,0.07393620908260345,-0.1995922327041626
1772457917720385500,9.584385498046874,0.15446600317955017,0.08289162069559097,-0.262024462223053
1772457917730453800,9.594453857421875,0.13393327593803406,0.1063111424446106,-0.32420822978019714
1772457917740521700,9.604521728515625,0.11916151642799377,0.14848390221595764,-0.3854614496231079
1772457917750589700,9.614589599609374,0.1197889968752861,0.20779547095298767,-0.43292108178138733
1772457917760657700,9.62465771484375,0.12708152830600739,0.28215518593788147,-0.4670045077800751
1772457917770725600,9.6347255859375,0.1394016146659851,0.3356088697910309,-0.49269065260887146
1772457917780793600,9.644793701171874,0.15444980561733246,0.37213385105133057,-0.5033664703369141
1772457917790861600,9.654861572265625,0.17344966530799866,0.3771835267543793,-0.5017800331115723
1772457917800929500,9.664929443359375,0.19725725054740906,0.349672794342041,-0.4885268211364746
1772457917810998800,9.674998779296875,0.23332342505455017,0.32790711522102356,-0.4618914723396301
1772457917821066500,9.68506640625,0.2753254473209381,0.33019691705703735,-0.4265529215335846
1772457917831134500,9.695134521484375,0.3272410035133362,0.3320836126804352,-0.3862625062465668
1772457917841202700,9.70520263671875,0.3677828311920166,0.32399532198905945,-0.3456791341304779
1772457917851270700,9.715270751953126,0.3881695568561554,0.2914067208766937,-0.3153853714466095
1772457917861338600,9.725338623046875,0.39532041549682617,0.24477984011173248,-0.29135701060295105
1772457917871406600,9.735406494140625,0.3988097608089447,0.1981530487537384,-0.2803088426589966
1772457917881474800,9.745474853515624,0.39911308884620667,0.14226235449314117,-0.26756322383880615
1772457917891542800,9.755542724609375,0.40110355615615845,0.08272312581539154,-0.2463567703962326
1772457917901611500,9.765611572265625,0.39923667907714844,0.02635013684630394,-0.21178334951400757
1772457917911679700,9.7756796875,0.39711233973503113,-0.023432539775967598,-0.16537830233573914
1772457917921747700,9.785747802734376,0.38957905769348145,-0.059525031596422195,-0.12449399381875992
1772457917931815700,9.795815673828125,0.37946799397468567,-0.08176866173744202,-0.08962706476449966
1772457917941883600,9.805883544921874,0.3664206266403198,-0.09362532198429108,-0.06566580384969711
1772457917951951600,9.81595166015625,0.34854352474212646,-0.0915316566824913,-0.040965527296066284
1772457917962019600,9.82601953125,0.3283748924732208,-0.09342383593320847,-0.0199891384691
1772457917972087600,9.836087646484375,0.3062566816806793,-0.10195218026638031,0.002917237812653184
1772457917982155500,9.846155517578126,0.27522045373916626,-0.11003433167934418,0.024479787796735764
1772457917992224800,9.856224853515625,0.24000902473926544,-0.11058661341667175,0.0419280081987381
1772457918002292700,9.866292724609375,0.20271305739879608,-0.11862429976463318,0.05632798373699188
1772457918012360400,9.8763603515625,0.1572265625,-0.13487087190151215,0.0668695941567421
1772457918022428700,9.8864287109375,0.11337973922491074,-0.15835808217525482,0.07183852046728134
1772457918032496600,9.89649658203125,0.07279178500175476,-0.19196006655693054,0.0671217292547226
1772457918042564600,9.906564697265624,0.042593132704496384,-0.23559676110744476,0.05951787531375885
1772457918052632600,9.916632568359375,0.01830856129527092,-0.2557432949542999,0.04644449055194855
1772457918062700800,9.92670068359375,0.005295024253427982,-0.2542029321193695,0.03669971972703934
1772457918072768800,9.936768798828124,-0.012790495529770851,-0.23060546815395355,0.03004520572721958
1772457918082836700,9.946836669921876,-0.03274449706077576,-0.21913336217403412,0.024898380041122437
1772457918092905500,9.956905517578125,-0.06364378333091736,-0.21275611221790314,0.017490016296505928
1772457918102973700,9.9669736328125,-0.09123093634843826,-0.2222771793603897,0.020765969529747963
1772457918113041700,9.977041748046876,-0.11552294343709946,-0.21301893889904022,0.0280899740755558
1772457918123109600,9.987109619140625,-0.13728682696819305,-0.18338488042354584,0.04362392798066139
1772457918133177600,9.997177490234375,-0.15627099573612213,-0.13991475105285645,0.06938646733760834
1772457918143245800,10.007245849609374,-0.159904345870018,-0.09045905619859695,0.09684392809867859
1772457918153313500,10.0173134765625,-0.14871174097061157,-0.04230600595474243,0.12874042987823486
1772457918163381500,10.027381591796875,-0.14430901408195496,-0.04126311093568802,0.1257702112197876
1772457918173449700,10.03744970703125,-0.151370570063591,-0.06856334954500198,0.09666456282138824
1772457918183518700,10.047518798828126,-0.1482813060283661,-0.13956163823604584,0.05173569917678833
1772457918193586700,10.057586669921875,-0.1473073810338974,-0.17291294038295746,0.021742383018136024
1772457918203654400,10.067654296875,-0.16395613551139832,-0.16780872642993927,0.00694452878087759
1772457918213722600,10.07772265625,-0.18644647300243378,-0.17569828033447266,-0.020766282454133034
1772457918223790600,10.08779052734375,-0.1982586532831192,-0.18936270475387573,-0.06117921695113182
1772457918233858600,10.097858642578124,-0.2053552120923996,-0.2148531675338745,-0.10598577558994293
1772457918243926500,10.107926513671876,-0.2074601799249649,-0.23281246423721313,-0.1601230502128601
1772457918253994800,10.117994873046875,-0.22069989144802094,-0.20329643785953522,-0.1962280422449112
1772457918264062700,10.128062744140625,-0.22548292577266693,-0.11796743422746658,-0.20281217992305756
1772457918274131200,10.138131103515626,-0.22682645916938782,-0.036265917122364044,-0.17906062304973602
1772457918284199200,10.14819921875,-0.2177693098783493,0.02025514841079712,-0.1400463730096817
1772457918294267400,10.158267333984375,-0.1966046243906021,0.05029643699526787,-0.08403259515762329
1772457918304335400,10.16833544921875,-0.15546411275863647,0.04379379749298096,-0.026703255251049995
1772457918314403300,10.1784033203125,-0.10615213960409164,0.00166001683101058,0.03189351037144661
1772457918324471300,10.18847119140625,-0.06075616180896759,-0.01406302023679018,0.06182558089494705
1772457918334539500,10.19853955078125,-0.011948269791901112,-0.05606598034501076,0.06545442342758179
1772457918344607200,10.208607177734375,0.03539767488837242,-0.1269768923521042,0.06324266642332077
1772457918354675200,10.21867529296875,0.08210916072130203,-0.1724451780319214,0.07344862073659897
1772457918364743200,10.2287431640625,0.11839818954467773,-0.20421242713928223,0.08010651916265488
1772457918374812400,10.2388125,0.14439621567726135,-0.2349168211221695,0.1132408007979393
1772457918384880400,10.24888037109375,0.15022987127304077,-0.26203659176826477,0.16753999888896942
1772457918394948400,10.2589482421875,0.1438169777393341,-0.2810528874397278,0.21875259280204773
1772457918405016300,10.269016357421876,0.13435129821300507,-0.2675248384475708,0.27194657921791077
1772457918415084300,10.279084228515625,0.11995453387498856,-0.2389560043811798,0.30730298161506653
1772457918425152300,10.28915234375,0.10132252424955368,-0.22171416878700256,0.33408427238464355
1772457918435220200,10.29922021484375,0.08216860145330429,-0.20166103541851044,0.33292606472969055
1772457918445288400,10.309288330078125,0.05382644385099411,-0.18017011880874634,0.31367459893226624
1772457918455356400,10.3193564453125,0.024046998471021652,-0.15645866096019745,0.28460457921028137
1772457918465425200,10.329425048828124,0.0003203644882887602,-0.11326058954000473,0.23984375596046448
1772457918475493000,10.3394931640625,-0.02228446863591671,-0.04755445942282677,0.19760338962078094
1772457918485561300,10.349561279296875,-0.04311252012848854,0.023711996152997017,0.1512867510318756
1772457918495629300,10.35962939453125,-0.06504014879465103,0.0920194610953331,0.10320606827735901
1772457918505697300,10.369697265625,-0.08461278676986694,0.1393238604068756,0.04396005719900131
1772457918515765200,10.37976513671875,-0.10394521802663803,0.17193956673145294,-0.01492248009890318
1772457918525833500,10.38983349609375,-0.12386619299650192,0.22152762115001678,-0.06745972484350204
1772457918535901200,10.399901123046876,-0.14865818619728088,0.2733800709247589,-0.10475406050682068
1772457918545969200,10.40996923828125,-0.16298066079616547,0.33872607350349426,-0.1359844207763672
1772457918556038400,10.420038330078125,-0.16387809813022614,0.3820330798625946,-0.15772899985313416
1772457918566106400,10.4301064453125,-0.15136443078517914,0.3881506323814392,-0.18616142868995667
1772457918576174300,10.44017431640625,-0.1290852576494217,0.3667779564857483,-0.22397376596927643
1772457918586242300,10.4502421875,-0.0970359742641449,0.3478492498397827,-0.26488497853279114
1772457918596310300,10.460310302734374,-0.07735259085893631,0.35111719369888306,-0.31554675102233887
1772457918606378200,10.470378173828125,-0.05911846086382866,0.34218573570251465,-0.38265150785446167
1772457918616446200,10.4804462890625,-0.02741727977991104,0.3144169747829437,-0.46342355012893677
1772457918626514200,10.49051416015625,0.008551373146474361,0.2689131200313568,-0.5603029727935791
1772457918636582400,10.50058251953125,0.045063767582178116,0.23081013560295105,-0.6657838821411133
1772457918646650400,10.510650390625,0.07728641480207443,0.2110326886177063,-0.7580954432487488
1772457918656719000,10.520718994140625,0.10325208306312561,0.2139258235692978,-0.8192253112792969
1772457918666787300,10.530787353515626,0.13007783889770508,0.24439984560012817,-0.8355249166488647
1772457918676855300,10.540855224609375,0.15829096734523773,0.28420355916023254,-0.8137408494949341
1772457918686923300,10.55092333984375,0.1975182592868805,0.3149585425853729,-0.746725857257843
1772457918696991200,10.5609912109375,0.23665829002857208,0.32795804738998413,-0.6579136848449707
1772457918707059500,10.5710595703125,0.2747311294078827,0.32402509450912476,-0.5680618286132812
1772457918717127400,10.58112744140625,0.3033255338668823,0.30523014068603516,-0.4789777994155884
1772457918727195100,10.591195068359376,0.3136761784553528,0.27727362513542175,-0.39180320501327515
1772457918737263000,10.60126318359375,0.30416980385780334,0.23976972699165344,-0.31078073382377625
1772457918747332400,10.611332275390625,0.28817617893218994,0.2030993402004242,-0.255205363035202
1772457918757400300,10.621400390625,0.2662782371044159,0.11905088275671005,-0.20306360721588135
1772457918767468300,10.63146826171875,0.24381551146507263,0.009821065701544285,-0.14240320026874542
1772457918777536500,10.64153662109375,0.21053723990917206,-0.09094998985528946,-0.07607723027467728
1772457918787604200,10.651604248046874,0.18092314898967743,-0.15670503675937653,-0.019761759787797928
1772457918797672200,10.661672119140626,0.1579229235649109,-0.17635898292064667,0.027073722332715988
1772457918807740200,10.671740234375,0.13994204998016357,-0.17480848729610443,0.059847645461559296
1772457918817808400,10.681808349609375,0.12106400728225708,-0.15390236675739288,0.07060816884040833
1772457918827876400,10.69187646484375,0.09477195143699646,-0.12883855402469635,0.059793341904878616
1772457918837945300,10.7019453125,0.06857942044734955,-0.08000320196151733,0.031288959085941315
1772457918848013300,10.712013427734375,0.04806641489267349,-0.02635275572538376,-0.002907894551753998
1772457918858081300,10.722081298828124,0.025876302272081375,-0.0033519486896693707,-0.03266017511487007
1772457918868149200,10.732149169921875,0.006833367981016636,0.012174280360341072,-0.050433576107025146
1772457918878217200,10.74221728515625,-0.005605615675449371,0.030039649456739426,-0.07003344595432281
1772457918888285400,10.752285400390624,0.0007766499184072018,0.05058034509420395,-0.08883775770664215
1772457918898353400,10.762353515625,0.020509766414761543,0.09679009765386581,-0.09197649359703064
1772457918908421400,10.77242138671875,0.046877458691596985,0.17067551612854004,-0.07738157361745834
1772457918918489300,10.7824892578125,0.07612556219100952,0.2389349341392517,-0.0474308542907238
1772457918928558300,10.792558349609376,0.10509569197893143,0.2543511688709259,-0.0370866023004055
1772457918938626300,10.802626220703125,0.14714325964450836,0.23769867420196533,-0.03416481614112854
1772457918948694300,10.8126943359375,0.18711704015731812,0.20899486541748047,-0.022427203133702278
1772457918958762500,10.822762451171876,0.22959508001804352,0.1939195990562439,-0.00852043554186821
1772457918968830500,10.83283056640625,0.26794353127479553,0.179809108376503,0.007548279594630003
1772457918978898200,10.842898193359375,0.2998370826244354,0.1843772828578949,0.025589851662516594
1772457918988966100,10.852966064453126,0.3304157555103302,0.2044239640235901,0.04110542684793472
1772457918999034400,10.863034423828125,0.34894442558288574,0.22575347125530243,0.04710415378212929
1772457919009102300,10.873102294921875,0.3707607686519623,0.23143185675144196,0.040833741426467896
1772457919019171300,10.88317138671875,0.3874594569206238,0.24110937118530273,0.037506092339754105
1772457919029239300,10.8932392578125,0.4042448103427887,0.278301477432251,0.03081223927438259
1772457919039307300,10.903307373046875,0.4299711585044861,0.3396443724632263,0.03458723425865173
1772457919049375200,10.913375244140624,0.46560078859329224,0.36927735805511475,0.05689360573887825
1772457919059443200,10.923443115234376,0.5021852254867554,0.29787677526474,0.05488463118672371
1772457919069511400,10.933511474609375,0.52918541431427,0.189937561750412,0.04991091042757034
1772457919079579400,10.943579345703125,0.5292498469352722,0.11361002177000046,0.05512244999408722
1772457919089647400,10.9536474609375,0.5150123238563538,0.09295560419559479,0.06280114501714706
1772457919099715300,10.96371533203125,0.4905858039855957,0.11523237079381943,0.06910322606563568
1772457919109783300,10.973783203125,0.46753907203674316,0.12409324198961258,0.07088807970285416
1772457919119852300,10.983852294921874,0.4308236241340637,0.09558245539665222,0.06548930704593658
1772457919129920300,10.993920166015625,0.3898061513900757,0.07102970778942108,0.045608535408973694
1772457919139988500,11.003988525390625,0.3405376374721527,0.08386926352977753,0.02257719077169895
1772457919150056400,11.014056396484374,0.29039883613586426,0.10467840731143951,-0.006155653856694698
1772457919160124400,11.02412451171875,0.2357250601053238,0.15834365785121918,-0.01576191931962967
1772457919170192100,11.034192138671875,0.17778240144252777,0.22438286244869232,-0.01673370786011219
1772457919180260400,11.04426025390625,0.12763434648513794,0.2719203531742096,0.002864750334993005
1772457919190328300,11.054328369140626,0.10665049403905869,0.29101893305778503,0.02813362143933773
1772457919200396300,11.064396240234375,0.10941833257675171,0.299566388130188,0.05858691409230232
1772457919210465300,11.07446533203125,0.12535922229290009,0.2972520887851715,0.09419044852256775
1772457919220533200,11.084533203125,0.1440141201019287,0.28183767199516296,0.12657703459262848
1772457919230601200,11.094601318359375,0.1686057448387146,0.2689639627933502,0.14658455550670624
1772457919240669200,11.104669189453125,0.19702443480491638,0.25036484003067017,0.15738676488399506
1772457919250737200,11.114737060546876,0.22389119863510132,0.2400067299604416,0.17295187711715698
1772457919260805400,11.124805419921875,0.24668927490711212,0.2290811985731125,0.19302302598953247
1772457919270873000,11.134873046875,0.2577642798423767,0.22145523130893707,0.2280595600605011
1772457919280941300,11.14494140625,0.2471858710050583,0.19768057763576508,0.2901506721973419
1772457919291009300,11.15500927734375,0.21019668877124786,0.11100880801677704,0.36461424827575684
1772457919301078000,11.165078125,0.19414299726486206,-0.0017605340108275414,0.38215136528015137
1772457919311146000,11.17514599609375,0.20708143711090088,-0.026547374203801155,0.39835643768310547
1772457919321214200,11.185214111328126,0.22109027206897736,-0.06078195199370384,0.3996632695198059
1772457919331282200,11.1952822265625,0.22316621243953705,-0.08957019448280334,0.3727147579193115
1772457919341350100,11.20535009765625,0.21266749501228333,-0.11597730219364166,0.3270767033100128
1772457919351418000,11.215418212890626,0.1946197897195816,-0.10216827690601349,0.2797374129295349
1772457919361486000,11.225486083984375,0.18591243028640747,-0.053956951946020126,0.25111693143844604
1772457919371554000,11.235553955078124,0.18768875300884247,-0.007340447977185249,0.22472180426120758
1772457919381622000,11.2456220703125,0.18678240478038788,0.024822210893034935,0.19687050580978394
