time,seconds_elapsed,z,y,x
1772457343131128300,0.06312841796875,-0.08489069856107234,0.05045242238640785,-0.03646892348574474
1772457343141196300,0.0731962890625,-0.025290508601069447,0.0426095999315381,0.0021177593389526007
1772457343151265000,0.08326513671875,0.029747488009929657,0.0242404150262475,0.06470069143678993
1772457343161334300,0.093334228515625,0.060032736158370965,0.04192717062532902,0.08807360291350633
1772457343171402200,0.10340234375,0.024660978525876998,0.029825521682202816,0.07324711385006084
1772457343181471200,0.11347119140625,-0.10833937868773937,0.05356733953654766,0.0014451755733229218
1772457343191539200,0.123539306640625,-0.16556407168805598,0.07291530634611845,-0.06705784902218728
1772457343201608200,0.133608154296875,-0.13489128552675247,0.04387567434459924,-0.07192775661349296
1772457343211676200,0.14367626953125,-0.05332008677721023,0.024169103355705737,-0.024898842402361333
1772457343221745200,0.1537451171875,0.06142156016826629,0.048046822549402714,-0.007773976736050099
1772457343231814100,0.163814208984375,0.108651513376832,0.04512129049152135,0.01878799483925104
1772457343241882400,0.17388232421875,0.0329652810126543,0.044991818892955775,0.008649444396328181
1772457343251951000,0.183951171875,-0.019135493102669716,0.08545125505328179,-0.05594097333271056
1772457343262019000,0.19401904296875,0.0192798700094223,0.08390694822072982,-0.06825334241706878
1772457343272088300,0.20408837890625,0.11883154660761355,0.05919219368100166,-0.05623248535888269
1772457343282157000,0.214156982421875,0.2613853295862675,0.024958792428672313,-0.023783081446494905
1772457343292225000,0.22422509765625,0.3340811479628086,0.010618716908991336,-0.008819521999917923
1772457343302294300,0.234294189453125,0.30078152042925355,-0.0007291910573840141,-0.04427541425190866
1772457343312362200,0.2443623046875,0.1439963830024004,0.03475274895131588,-0.1281053882462904
1772457343322431200,0.25443115234375,0.06156301446557045,0.06436404336094856,-0.1626113228296861
1772457343332499200,0.264499267578125,0.09076514355242252,0.06364888082891702,-0.11022807851117104
1772457343342568200,0.274568115234375,0.1735024634718895,0.04241466188132763,-0.027396157377120107
1772457343352637200,0.28463720703125,0.2356856556624174,0.022201602675020693,0.017642003141902386
1772457343362705200,0.294705078125,0.2198737540245056,0.020587153215706346,0.03145281235678121
1772457343372774100,0.304774169921875,0.1386415779709816,0.03092763770520687,-0.00002763692559674382
1772457343382842400,0.31484228515625,0.12043781276047229,0.04503507351279259,-0.00507200603466481
1772457343392911000,0.3249111328125,0.16052140134572981,0.052824704475700854,0.03124404671061784
1772457343402980400,0.33498046875,0.22086510314941404,0.043812545980513096,0.1139016159247607
1772457343413048300,0.34504833984375,0.20292086565792558,0.05325257449895143,0.13423419159119948
1772457343423117000,0.355116943359375,0.11281564731895923,0.061546940113604065,0.12823968215044587
1772457343433185300,0.365185302734375,0.008670213189721106,0.09322451940327882,0.051333972727600485
1772457343443254300,0.375254150390625,-0.07773381254374981,0.08144640332609415,-0.005290178829990327
1772457343453322200,0.385322265625,-0.13639409130513666,0.08071604322493076,-0.05822058130302466
1772457343463391200,0.39539111328125,-0.17298106994628906,0.07887626057714224,-0.090599997852277
1772457343473460200,0.405460205078125,-0.1703957296282053,0.07121405538618564,-0.11800938003715127
1772457343483528200,0.415528076171875,-0.13708850331008435,0.04514584041088819,-0.10007128002550453
1772457343493597200,0.42559716796875,-0.09971242011785507,0.02893207997381687,-0.04455519930766895
1772457343503665200,0.4356650390625,-0.10951309864223002,0.05596504832804203,0.024722198060667142
1772457343513734400,0.445734375,-0.08203180199861526,0.06671615944504737,0.07208993403841742
1772457343523802400,0.45580224609375,-0.011570610806345938,0.06886369286775589,0.10551184537792578
1772457343533871000,0.46587109375,0.07146306171119213,0.0706581750690937,0.1192997760407161
1772457343543940400,0.4759404296875,0.07813596360385418,0.06368073727190494,0.1254249078575056
1772457343554008300,0.48600830078125,0.010520224970579146,0.06255845524370669,0.08125710043222643
1772457343564077000,0.4960771484375,-0.028133623072504995,0.06439619206488133,0.047634104429511354
1772457343574145300,0.506145263671875,-0.008186813586950302,0.0593996989518404,-0.008423270957637577
1772457343584214300,0.51621435546875,0.022384850287437436,0.03530073822289705,-0.0012451960218138993
1772457343594283300,0.526283203125,0.03342997591495514,0.017953882102668284,-0.02660011162860319
1772457343604351200,0.536351318359375,0.0022445640563964844,0.034758009648323054,-0.03294880480188876
1772457343614420200,0.546420166015625,0.04854688102602958,0.00760784465521574,-0.03059249659986235
1772457343624488400,0.556488525390625,0.08248305289745331,0.022652853573858735,-0.0331396055330988
1772457343634557200,0.56655712890625,0.06899111863970755,0.011037819103896618,-0.030152351616928353
1772457343644625200,0.576625244140625,0.095161917206645,0.05313742368668317,0.005813910443149507
1772457343654694400,0.5866943359375,0.14449030399918555,0.05040390706956386,0.05018439170052297
1772457343664763100,0.59676318359375,0.16351824507415294,0.06817044990658759,0.08842721125730313
1772457343674831000,0.6068310546875,0.14065584040284157,0.08639934955835342,0.07807468013698235
1772457343684900400,0.616900390625,0.07403846515715122,0.09866583367437123,0.02502896245489828
1772457343694968300,0.62696826171875,0.061279521349072455,0.08681348331719636,-0.04628824277850799
1772457343705037300,0.637037353515625,0.01960486418008804,0.09026829994618892,-0.04924620666811243
1772457343715105300,0.647105224609375,0.08923486524522305,0.08367372398674487,-0.044735149851301684
1772457343725174300,0.65717431640625,0.1666916144132614,0.052368777401745316,0.012421546813566237
1772457343735243300,0.6672431640625,0.1326987439185381,0.05634557207822799,0.05137277036802843
1772457343745311200,0.677311279296875,0.11243395452499388,0.06076952600032091,0.07642795410957187
1772457343755380200,0.687380126953125,0.12233809342384337,0.052095805679261684,0.06873483319054358
1772457343765448400,0.697448486328125,0.14611293676495551,0.03309884426444769,0.06522772011873312
1772457343775517200,0.70751708984375,0.16290040543675421,0.0077586513027548785,0.0560295009995345
1772457343785586400,0.71758642578125,0.18610533993542194,0.009556640635430812,0.04726522545134648
1772457343795654400,0.727654296875,0.16452128463685511,0.01518646321594715,0.027307328316196797
1772457343805723100,0.73772314453125,0.09793079739809035,0.02865852372944355,-0.008833998049842194
1772457343815791000,0.747791015625,0.056900867873430246,0.037564883762598034,-0.013719295006524771
1772457343825860400,0.7578603515625,0.0032902737170457837,0.027318799558281898,-0.03700312169399112
1772457343835928300,0.76792822265625,-0.048620530784130096,0.03231383136659861,-0.04697043462269939
1772457343845997300,0.777997314453125,-0.09480243624448775,0.03143354140073061,-0.07710194438099861
1772457343856066300,0.78806640625,-0.15115443806350232,0.04236731560826301,-0.07575645718933083
1772457343866134300,0.79813427734375,-0.123178051379323,0.043676936902105806,-0.04725446659531444
1772457343876203300,0.808203369140625,-0.010702011278271674,0.056008302947878834,-0.03195561077976599
1772457343886271200,0.818271240234375,0.041592824104428286,0.03456920907795429,-0.008807630632724613
1772457343896340200,0.82834033203125,0.03104220399558544,0.04071604126989841,-0.03857398773990571
1772457343906408200,0.838408203125,0.03128770318925381,0.06515665504336357,-0.06180391054935753
1772457343916477200,0.848477294921875,0.03771919754147529,0.046916064953804015,-0.04198673705914989
1772457343926546400,0.85854638671875,0.040237902364134784,0.03581044131070375,-0.04252555664358661
1772457343936614400,0.868614501953125,0.09260112680792808,0.026231004321575165,-0.03498549826126546
1772457343946683100,0.87868310546875,0.1942810476064682,0.04316401894390583,-0.0009446239063516258
1772457343956751400,0.88875146484375,0.24310849913954732,0.04903349549919367,0.01538216845113784
1772457343966820400,0.8988203125,0.23720365900993345,0.04754617955088615,0.06050181497484445
1772457343976888000,0.90888818359375,0.21325755075514316,0.07642915968596935,0.0708444914214313
1772457343986957300,0.918957275390625,0.1608966643989086,0.0561687542065978,0.04448712077382952
1772457343997026300,0.9290263671875,0.11186872185766697,0.05409662410765886,0.029006734378915277
1772457344007094300,0.93909423828125,0.06783201173245906,0.06460252829194069,0.014176555521041153
1772457344017163300,0.949163330078125,0.023063480201363562,0.0947986368522048,0.003142645407281816
1772457344027231200,0.959231201171875,0.027383681488037107,0.06769961752444505,-0.020364961832389235
1772457344037300200,0.96930029296875,-0.002845452558994293,0.050097325338423246,-0.06525297329099848
1772457344047369200,0.979369140625,-0.06636486178934574,0.054203299352526664,-0.08871215654537082
1772457344057437200,0.989437255859375,-0.041370705786347384,0.031444939577579496,-0.12513983470527454
1772457344067506400,0.99950634765625,0.05416062925457954,0.01230477029979229,-0.09126438004514202
1772457344077574100,1.00957421875,0.149150112503767,0.0003387304350733757,-0.026821499294321982
1772457344087643100,1.01964306640625,0.21081541830003261,-0.007130290271341801,0.016127543458342553
1772457344097711400,1.02971142578125,0.20726210973262785,0.008444880001246928,0.074969973853603
1772457344107780000,1.039780029296875,0.13374211549162865,0.008954875349998474,0.024930004725605248
1772457344117849300,1.049849365234375,0.0971931307733059,0.0007744915038347244,-0.020521851160842923
1772457344127917300,1.059917236328125,0.06563537847101689,0.0027025369569659233,-0.03674642525287345
1772457344137986300,1.069986328125,0.07099485967755317,-0.0006496960803866386,-0.03689014457250014
1772457344148054000,1.080053955078125,0.09271627762019634,0.002373451133072376,0.0067728368694894014
1772457344158123300,1.090123291015625,0.053123102900385855,0.018208733646571634,0.036675241446495054
1772457344168191200,1.100191162109375,0.09329612333476543,0.01965542532354593,0.045356286557484415
1772457344178260200,1.11026025390625,0.09244505946338176,0.025612287901341915,0.003445902670174837
1772457344188329200,1.1203291015625,0.10573182653784752,0.029092238971590995,0.022113230271823704
1772457344198397200,1.130397216796875,0.15804770470857618,0.018339374288916587,0.033120489840675144
1772457344208466200,1.140466064453125,0.11412030017673969,0.021339432887732983,0.01652536540320143
1772457344218534100,1.1505341796875,0.06544073268175125,0.044052492216229436,0.027937625576369463
1772457344228603100,1.16060302734375,-0.004247136050462723,0.044812955194711686,-0.01389697139468044
1772457344238671400,1.17067138671875,-0.026259645894169806,0.055557344309985636,-0.016985676391329616
1772457344248740000,1.180739990234375,0.008455109134316444,0.049400867506861686,-0.016311722652520982
1772457344258809300,1.190809326171875,0.04742985969483852,0.01097147586941719,0.0019000797339715062
1772457344268877300,1.200877197265625,0.06711655693948268,0.015945757150650025,0.028535682801064104
1772457344278946000,1.210946044921875,0.0656955842256546,0.04414367763102054,0.05502831546720117
1772457344289014300,1.22101416015625,0.02152151145637035,0.06299976927042007,0.061597373392898586
1772457344299083300,1.231083251953125,-0.00666238049864769,0.0554606059372425,0.03841600243290886
1772457344309151200,1.241151123046875,-0.00265606746673584,0.0449494410559535,-0.003471365904994309
1772457344319220200,1.25122021484375,0.02610533211529255,0.032495617674291134,-0.010736114477273077
1772457344329289200,1.261289306640625,0.08006663940548896,0.01640519135594368,-0.00893069075681269
1772457344339357200,1.271357177734375,0.08307400452792645,-0.0008478490009903907,-0.004615129112638533
1772457344349426200,1.28142626953125,0.0986561890631914,0.021140987706184385,0.0059043286729604
1772457344359494100,1.291494140625,0.13564765685200691,0.018288813145458698,0.01428953264253214
1772457344369563400,1.3015634765625,0.18285072205364702,0.022060440638661385,0.051129481397755444
1772457344379632000,1.311632080078125,0.1874047320961952,0.01910597474724054,0.04408168177809566
1772457344389700000,1.3217001953125,0.10467559548318385,0.015909809054434298,-0.03842685262048617
1772457344399769300,1.331769287109375,0.054776130804419516,0.014299451248347759,-0.11863284569773823
1772457344409837300,1.34183740234375,0.09884498963356017,0.00570814851373434,-0.090832893292699
1772457344419906000,1.351906005859375,0.09325286871492862,-0.025688568007946014,-0.0808185720176436
1772457344429974300,1.361974365234375,0.05923194116950035,0.003000058598816395,-0.10837792059984057
1772457344440043300,1.372043212890625,0.08293079666495323,0.03445756539702415,-0.06872919803420081
1772457344450112300,1.3821123046875,0.10482289499938488,-0.011532324622571468,-0.042426918574701995
1772457344460180200,1.39218017578125,0.11811550729274749,0.000699088180065155,-0.028301727914717047
1772457344470249200,1.402249267578125,0.12537643820643424,0.032625673794746395,-0.0450824197858572
1772457344480317400,1.4123173828125,0.12828151199817656,0.02250584631860256,-0.044876229689270256
1772457344490386200,1.42238623046875,0.12324819400608539,0.021577041035890577,-0.05175108389481902
1772457344500454100,1.4324541015625,0.05626724614500999,0.007651099275052547,-0.07549151350967585
1772457344510523400,1.4425234375,0.016797405543923376,0.00916150383800268,-0.08034185788398608
1772457344520592100,1.452592041015625,0.10013093779087066,0.0019166472762823105,-0.041743594219349325
1772457344530660000,1.46266015625,0.2236427511692047,-0.016658581595122814,-0.005323460045084357
1772457344540729300,1.472729248046875,0.3240039905846119,-0.03385726141631603,0.03720065356008708
1772457344550797300,1.48279736328125,0.32691958577036856,-0.024954700775444507,0.041992454413883384
1772457344560866300,1.4928662109375,0.24355390481948852,0.017071546310186383,0.025122166296839714
1772457344570934300,1.502934326171875,0.1080330892175436,0.039976913340389726,0.015633275401685385
1772457344581003300,1.513003173828125,0.07704349219202995,0.0626543168336153,0.041388369307201356
1772457344591072300,1.523072265625,0.0990314521163702,0.05629588771760463,0.06068462419584393
1772457344601140200,1.53314013671875,0.10631868651509284,0.0787862442061305,0.07806706308610736
1772457344611209200,1.543209228515625,0.06051438219547271,0.08848755400925874,0.05572581447837874
1772457344621277400,1.55327734375,-0.1398527073264122,0.10468728592097759,-0.036125937000662085
1772457344631346200,1.56334619140625,-0.24440964486598968,0.12704027976542712,-0.08963117108643054
1772457344641414100,1.5734140625,-0.10370762723386287,0.07318535545915365,-0.0833602923897095
1772457344651483400,1.5834833984375,0.03427110291421413,0.020149930842220783,0.02132801644457504
1772457344661552000,1.59355224609375,0.14592062906324862,0.028517946214973926,0.07455383080076426
1772457344671620000,1.6036201171875,0.14359598550796507,0.03468962058722973,0.08211993693979457
1772457344681689300,1.613689453125,0.0018687164813280105,0.044377486386895176,0.0635606362898834
1772457344691757300,1.62375732421875,-0.06957680957317351,0.06396452264934778,-0.001117313592135906
1772457344701826300,1.633826416015625,-0.018697101685404775,0.05933598606586456,-0.010422262755129487
1772457344711894300,1.643894287109375,0.08662439048588276,0.022287819653749465,0.034662348987814035
1772457344721963300,1.65396337890625,0.18494506398439406,-0.0012722118929028511,0.0803856056941673
1772457344732032300,1.6640322265625,0.1657294913828373,-0.0049880175456404685,0.049239210671745234
1772457344742101000,1.67410107421875,0.08788754228949547,0.012981646648049353,-0.004096530332323164
1772457344752170000,1.684169921875,0.0545937599748373,0.008425883039832115,-0.08475010278029367
1772457344762238000,1.694238037109375,-0.010881459498405455,-0.005102876096963882,-0.0778411453757435
1772457344772307200,1.70430712890625,0.012922025415301323,-0.004646949023008346,-0.056750828410871326
1772457344782375200,1.714375244140625,0.09479016128480434,0.010342530316114425,-0.016104692305717615
1772457344792444000,1.72444384765625,0.11484686088562011,0.003479658809304237,0.02225883102128282
1772457344802513200,1.73451318359375,0.08961831160485743,0.02514057873636484,0.023180822970718145
1772457344812581000,1.7445810546875,0.08286416116952895,0.036660043877363206,0.0010580211529508231
1772457344822649900,1.75464990234375,0.049888358762860296,0.05426525867283344,0.01132441749293357
1772457344832718000,1.764718017578125,0.09554068739116191,0.07939414697140455,0.04656701405411586
1772457344842787000,1.774787109375,0.1563748030602932,0.07138385899513959,0.04723267488861456
1772457344852856000,1.78485595703125,0.14677227745652197,0.05165361486971378,0.03249331611935049
1772457344862924000,1.794924072265625,0.14444354224801062,0.057476621934771537,0.01675482677752152
1772457344872993000,1.804992919921875,0.11254150655269622,0.05715893428772688,0.0025853768507018682
1772457344883061200,1.815061279296875,0.08742343190908432,0.04435527455508709,-0.03380587828895077
1772457344893130000,1.8251298828125,0.075890815025568,0.04255523939579725,-0.03235611787205562
1772457344903198000,1.835197998046875,0.09450608364641666,0.034305297444760796,0.008755370722524821
1772457344913267200,1.84526708984375,0.10529460416436194,0.034626784484088416,0.04604638771349564
1772457344923336000,1.8553359375,0.09150865539610385,0.034867315241694445,0.04474414600851014
1772457344933404000,1.86540380859375,0.06898585794270039,0.03200111215561628,0.01692724246867001
1772457344943473200,1.87547314453125,0.06143032799661159,0.055148471248149866,-0.0017882351236417889
1772457344953541000,1.885541015625,0.06471475649476051,0.05164864643365145,-0.008373696194868534
1772457344963610000,1.895610107421875,0.08707564138472079,0.005754033482074737,-0.011797003440745173
1772457344973678000,1.905677978515625,0.09164367995262146,-0.014465747725963592,-0.009804258720949291
1772457344983747000,1.9157470703125,0.08381868541538715,-0.012235212194919586,-0.015080993547476827
1772457344993816000,1.925816162109375,0.09861527253091334,-0.006287117445468902,-0.024365393112786113
1772457345003884000,1.935884033203125,0.11191431456506251,-0.018207564602792263,-0.018841770853102208
1772457345013953000,1.945953125,0.056122869238257406,-0.00637391894608736,-0.01337756889676675
1772457345024021200,1.956021240234375,-0.002602291452884674,0.03620353228151798,-0.040713885845430196
1772457345034090000,1.966090087890625,-0.017218261304497717,0.03412263435423374,-0.018816435482446103
1772457345044158000,1.976157958984375,0.005505611678957939,0.02009381674081087,-0.013439235956128686
1772457345054227200,1.986227294921875,0.02199088253378868,0.023636311653256414,-0.01553960576886311
1772457345064296000,1.9962958984375,0.07070259873270988,0.02362695930302143,0.004296528150141239
1772457345074364200,2.0063642578125,0.1118283898472786,-0.011295885518193244,-0.0033752851193770764
1772457345084433200,2.01643310546875,0.0987216555148363,0.023199381540715693,0.03356120107918978
1772457345094501000,2.026501220703125,0.035679216146469114,0.06450257504880427,0.043656149842403826
1772457345104570000,2.036570068359375,-0.01109656355381012,0.06017915889173746,0.008962510667182505
1772457345114638000,2.04663818359375,-0.006116437053680419,0.044696635338664054,-0.008720756066869943
1772457345124707000,2.05670703125,-0.026546646142005918,0.0353814022436738,-0.01567671268461272
1772457345134776000,2.066776123046875,0.029017420169711112,0.008064063990116119,-0.02171442194627598
1772457345144844000,2.076843994140625,0.13265782738626003,-0.02282441074848175,-0.005850479593873023
1772457345154913300,2.086913330078125,0.2241179674655199,-0.02219517293423414,0.009549297579191625
1772457345164981200,2.096981201171875,0.27534020518064495,-0.040724516837298864,0.0322439262018539
1772457345175050000,2.107050048828125,0.2715039880186319,-0.003456277933716774,0.052054103695694354
1772457345185118000,2.117117919921875,0.22661679854393005,0.024362287840247153,0.052186351773235946
1772457345195187200,2.127187255859375,0.17329086654782294,0.02491933720111847,0.055085854340717194
1772457345205256000,2.137255859375,0.08775836295187472,0.05064063843488693,0.029855715891066937
1772457345215324200,2.14732421875,0.047237551993131635,0.09497107080966234,0.024212029181979594
1772457345225393200,2.15739306640625,0.07376140178143978,0.10255582685023545,0.04303535106293857
1772457345235461000,2.167461181640625,0.06916004546582698,0.08238339191526174,0.04662384054157882
1772457345245530000,2.177530029296875,0.013128361642360687,0.0915697379335761,0.06255264655742794
1772457345255598000,2.18759814453125,0.01382277364730835,0.09955284564197063,0.02210930301537737
1772457345265667000,2.1976669921875,0.03092763770520687,0.08944675443023442,0.030123317318689075
1772457345275736000,2.207736083984375,0.04099076655805111,0.06884820303767919,0.01581781992204487
1772457345285804000,2.217803955078125,0.022051088288426397,0.07017243737876415,0.03515990498010069
1772457345295873300,2.227873291015625,0.04301204325258732,0.050884091801941395,0.03881632686210796
1772457345305941000,2.23794091796875,0.07719429883956909,0.011303192041814326,0.04065188999250531
1772457345316010000,2.248010009765625,0.08053308787345886,0.003980301807820797,-0.000023874065931886434
1772457345326079200,2.258079345703125,0.013547463837265968,-0.014958791939914225,-0.02038518263651058
1772457345336147000,2.26814697265625,-0.005449497577548027,-0.039402620583772655,-0.09052892364375292
1772457345346216000,2.2782158203125,-0.06647066025137902,-0.025200492230057714,-0.11046108354944735
1772457345356284200,2.2882841796875,-0.09280921660065651,-0.00123129536062479,-0.08643699642131104
1772457345366353200,2.298353271484375,-0.002242225968837738,-0.013477613471448421,-0.055712754067406056
1772457345376420900,2.3084208984375,0.07680208465158939,-0.019830489629507064,-0.008877133938670158
1772457345386490000,2.318489990234375,0.11623919202685355,-0.0008677227452397346,0.02701112184859812
1772457345396559000,2.32855908203125,0.12884440657794474,0.014784604416787623,0.033660295805800704
1772457345406627000,2.338626953125,0.00689502021074295,0.060467035922408104,0.033424916147347536
1772457345416696000,2.348696044921875,-0.07777882072925567,0.10318827953487635,-0.010225607671868055
1772457345426764000,2.358763916015625,-0.028626959547400473,0.09970891298651695,0.005703673268016427
1772457345436833000,2.3688330078125,0.09922785147130489,0.05505290191918611,0.028233338853623717
1772457345446901000,2.37890087890625,0.15728431912064553,0.028520576563477514,0.020601400936767458
1772457345456970000,2.388969970703125,0.1448199743449688,0.023592764772474763,-0.05259927995568141
1772457345467039200,2.399039306640625,0.07149111876189708,-0.002018061824142933,-0.13281230556191875
1772457345477107000,2.40910693359375,-0.03815349730551243,0.01376519824117422,-0.17051279840292408
1772457345487176200,2.41917626953125,-0.007650807014107704,0.02931991024762392,-0.173964966417104
1772457345497244200,2.429244140625,0.09749299050271511,0.014516601130366324,-0.08588002012567594
1772457345507313000,2.43931298828125,0.23148411231935023,0.011684592574834823,-0.017908965248707682
1772457345517380900,2.449380859375,0.25052257478833195,0.0532516977161169,0.0440347008312121
1772457345527450000,2.4594501953125,0.14891630374789236,0.08087824804931878,0.061677507690712806
1772457345537519000,2.46951904296875,0.06853811417520046,0.1269450026974082,0.04161951118195429
1772457345547587000,2.479587158203125,0.09139292006194591,0.11770195805579423,0.04657194595756009
1772457345557656000,2.489656005859375,0.06035246963202953,0.11443185034394264,0.08878896637493744
1772457345567724000,2.49972412109375,0.10213818596005439,0.11596329769492149,0.1221786468121223
1772457345577793000,2.50979296875,0.14004326146245002,0.10034487280249595,0.13437922608507796
1772457345587861000,2.519861083984375,0.15932196242809293,0.1044733509093523,0.11647060789624228
1772457345597930000,2.529929931640625,0.09630874915421009,0.10339636932760476,0.08818289024056866
1772457345607999000,2.5399990234375,0.056223991525173184,0.09201894300580024,0.07488700827788561
1772457345618067000,2.55006689453125,-0.013331190738081932,0.0887181478947401,0.031643877949472515
1772457345628136200,2.56013623046875,-0.06566285099983216,0.08730565074831247,0.021043610012624413
1772457345638204200,2.5702041015625,0.008305471530556678,0.04539952291101217,0.014278024867828934
1772457345648273000,2.58027294921875,0.059411973911523815,-0.0004492050722241401,0.012203337485622613
1772457345658341000,2.590341064453125,0.03256546804010868,-0.007849836717545985,-0.014614545079506934
1772457345668410000,2.60041015625,-0.01431026490330696,-0.0004947977796196937,-0.04850212856885045
1772457345678478800,2.610478759765625,-0.04456161078214645,0.012355039182305336,-0.08917524401247501
1772457345688547000,2.620547119140625,0.010978490132093429,0.021579379123449323,-0.07544871554756537
1772457345698616000,2.630615966796875,0.018473229801654816,0.013965396988391875,-0.0408614228236489
1772457345708684000,2.64068408203125,-0.015792027893662453,0.027047873662412163,-0.05306574668996036
1772457345718753000,2.6507529296875,-0.05081365691423416,0.06365268022119999,-0.05841872509047389
1772457345728821000,2.660821044921875,0.008253449082374572,0.05098521408885717,-0.08273932921346276
1772457345738890200,2.67089013671875,0.03315408158302307,0.041834816166758534,-0.06722142381975427
1772457345748958500,2.68095849609375,0.06990121922194957,0.04201221856027841,-0.04651424268726259
1772457345759026400,2.6910263671875,0.13309972593486308,0.05716536402851343,-0.03479556517973542
1772457345769095400,2.701095458984375,0.2054302181303501,0.044296530105173586,-0.013370572900399565
1772457345779163400,2.711163330078125,0.2469616674363613,0.033010581459105015,-0.01169915082314983
1772457345789232400,2.721232421875,0.19802841744124888,0.06504588814526796,-0.025340978412982076
1772457345799300400,2.73130029296875,0.1849170069336891,0.05832067154347896,-0.06221720405798405
1772457345809369600,2.74136962890625,0.24565935266613959,0.06427198116332292,-0.021330409331060944
1772457345819438300,2.751438232421875,0.23645722455680368,0.06513093608021736,0.06539453718615695
1772457345829506300,2.76150634765625,0.23128245226740834,0.07552841145396232,0.10552512498460709
1772457345839575600,2.771575439453125,0.20701719506084917,0.08742138608247041,0.1051160692596808
1772457345849643500,2.7816435546875,0.10767886895239352,0.07236907064020633,0.03478204811103642
1772457345859712300,2.791712158203125,0.013782441636919975,0.07965484373420477,-0.04045068659828976
1772457345869781500,2.801781494140625,-0.0559223782300949,0.08989449819773435,-0.07251691814567893
1772457345879849500,2.811849365234375,-0.036795068433880807,0.0809498519808054,-0.0532827139088884
1772457345889918200,2.821918212890625,0.0421802686035633,0.05442658671438694,-0.0036330410064198074
1772457345899986400,2.831986328125,0.08282675176858902,0.0534872600376606,0.05569258806221187
1772457345910055400,2.842055419921875,0.08729366804957389,0.05390928484201431,0.04284792046574876
1772457345920123400,2.852123291015625,0.08960136047005653,0.04206336422562599,0.04288319270852953
1772457345930192400,2.8621923828125,0.054153614991903305,0.07059913835823535,0.043471970648225396
1772457345940261400,2.872261474609375,0.03299859876036644,0.07080313649773597,0.021905597136821598
1772457345950329600,2.88232958984375,0.03883563435077667,0.0511670003965497,0.02921560962293297
1772457345960398300,2.8923984375,0.06828150906562805,0.03915186069309711,0.05888389491681009
1772457345970466300,2.90246630859375,0.043351650470495225,0.04929506904482841,0.06781184572726488
1772457345980535600,2.91253564453125,-0.04455342747569084,0.0725268915504217,0.028221191758103666
1772457345990603500,2.922603515625,-0.053906946754455565,0.09027619099169969,-0.0027040530606172977
1772457346000672300,2.93267236328125,-0.0033417116433382033,0.06360679525285959,-0.015989651091303677
1772457346010741500,2.942741455078125,0.04642039039134979,0.05937456451058387,0.00271446485677734
1772457346020809500,2.9528095703125,0.11260112778544425,0.07022767469733954,0.006805953687801957
1772457346030878500,2.96287841796875,0.14404606736302375,0.04449234493821859,0.03934033246990293
1772457346040946400,2.972946533203125,0.1604559348940849,0.04034428534805774,0.025205752927064895
1772457346051015400,2.983015380859375,0.09801029237508774,0.05875263321995735,-0.014640318841580301
1772457346061083600,2.993083740234375,0.061197103762626645,0.04393032714128494,-0.04967825967613607
1772457346071152400,3.00315234375,0.07527998965084552,0.0395554730579257,-0.08501669956091791
1772457346081221400,3.013221435546875,0.12561901479065418,0.012734101627767086,-0.10448054783511906
1772457346091289600,3.02328955078125,0.13318857326209543,-0.011694529446959494,-0.061061257222201674
1772457346101358300,3.0333583984375,0.1541606341421604,0.019743395867943762,-0.03203914261106401
1772457346111426300,3.04342626953125,0.13416764742732049,0.03678162443041801,-0.04966030389433727
1772457346121495600,3.05349560546875,0.036112931388616556,0.03944061450660229,-0.08034731951039284
1772457346131563500,3.0635634765625,-0.023157003703713416,0.04446750275790691,-0.10184597981413826
1772457346141632500,3.073632568359375,0.02525660633146763,0.035011692148447036,-0.08128105669654906
1772457346151701500,3.083701416015625,0.08202361869215964,0.022523089714348316,-0.006851893455069512
1772457346161769500,3.09376953125,0.14939619621932507,0.01834872663915157,0.03520228281710297
1772457346171838500,3.10383837890625,0.17619594033956526,0.033109365658462044,0.07232490270491689
1772457346181906400,3.113906494140625,0.14060966317355633,0.06094020639210939,0.06645191901829094
1772457346191975400,3.123975341796875,0.13037410036325453,0.0779457017287612,0.07806132746506482
1772457346202043600,3.134043701171875,0.11059154152870178,0.07243979778885841,0.08624973022090271
1772457346212112400,3.1441123046875,0.08190671431422233,0.08317658811956644,0.06628198754517362
1772457346222181600,3.154181640625,0.05761982979774475,0.0858031372308731,0.052079219870641826
1772457346232249600,3.16424951171875,0.03336743207275867,0.07608224594444037,0.04869443627055734
1772457346242318300,3.174318359375,0.012190204009413718,0.07732523174285888,0.02833038775362074
1772457346252386300,3.18438623046875,0.019060089778900145,0.05559767632037401,0.021254238822311162
1772457346262455600,3.19445556640625,0.006958733096718787,0.08038841870576142,0.011354556902870535
1772457346272523500,3.2045234375,-0.06854746652543545,0.08425503100603818,-0.008640548703819513
1772457346282592500,3.214592529296875,-0.11944646363556384,0.09078881668895482,-0.0005160962959751486
1772457346292661500,3.22466162109375,-0.09593173253536223,0.09481295763850212,-0.005964169101417064
1772457346302729500,3.2347294921875,-0.03215279558598995,0.07430120774656533,0.015160342394001781
1772457346312798500,3.244798583984375,0.07892214554548263,0.030513503946363926,0.015141107970569282
1772457346322866400,3.254866455078125,0.15696458564698695,0.020499767193198203,0.04353829561639577
1772457346332935400,3.264935302734375,0.1834142011553049,0.02034048497825861,0.049705896601732816
1772457346343003400,3.27500341796875,0.1320358960956335,0.03164046214967966,0.03177636348903179
1772457346353072400,3.285072265625,0.12104220839440821,0.07943009506762028,0.005914740469120443
1772457346363141600,3.2951416015625,0.16939152102172375,0.059497021846473215,0.015235398657899349
1772457346373209600,3.305209716796875,0.18408172515332696,0.03530424535423517,0.014471647743787616
1772457346383278300,3.3152783203125,0.2013601922124624,0.034305297444760796,0.022431758169084787
1772457346393346600,3.3253466796875,0.24204116216897964,0.04754968668222427,0.014640117912180721
1772457346403415600,3.33541552734375,0.23904314939677715,0.028762568625807762,0.024162618815992028
1772457346413483300,3.345483154296875,0.1980009449124336,0.010366203452646732,-0.06623579204957931
1772457346423552500,3.355552490234375,0.09711363579630851,0.01995645409673452,-0.1305064032397233
1772457346433621500,3.36562158203125,-0.005315642064809799,0.02393675590455532,-0.1470146713776514
1772457346443689500,3.375689453125,-0.014548749834299086,0.017440964144468305,-0.11451735493661835
1772457346453758500,3.385758544921875,0.015030395871400832,0.034548458550870416,-0.06329084290517493
1772457346463826400,3.395826416015625,0.045021629509329794,0.03779840025752783,-0.03171632213117555
1772457346473895400,3.4058955078125,0.10784195055961608,0.022290450002253055,-0.004178491261042654
1772457346483963400,3.41596337890625,0.10088964720368385,0.030567572221159932,0.02449714799998328
1772457346494032400,3.426032470703125,0.08550152393579483,0.0458034275367856,0.03670660469913855
1772457346504101600,3.4361015625,0.016850597035884856,0.04185235182344913,0.0309956797064282
1772457346514169300,3.44616943359375,-0.03485445576012134,0.06699234603792428,0.0151520312233828
1772457346524238300,3.45623828125,-0.054689037042856214,0.09175912302583455,0.017547365394700316
1772457346534306600,3.466306640625,-0.08692834186851978,0.09976707291454076,0.02376183772906661
1772457346544375300,3.476375244140625,-0.07784370265901089,0.10409984142184257,0.03308892565863207
1772457346554443300,3.486443359375,0.03661445116996765,0.06580313625335693,0.027978268114011735
1772457346564512500,3.496512451171875,0.0472433972120285,0.04028349507153034,-0.007686882974486798
1772457346574581500,3.50658154296875,0.012047580668330192,0.04489157338887453,-0.01917091147592291
1772457346584649500,3.5166494140625,-0.008567921859025955,0.06273147372305393,0.014300985618308186
1772457346594718500,3.526718505859375,0.060142041751742356,0.047151627275347704,0.051272762325964866
1772457346604786400,3.536786376953125,0.09111702573001385,0.052099897332489487,0.06720392469568177
1772457346614855400,3.54685546875,0.13077157524824143,0.050288756257295605,0.10041808416917919
1772457346624923400,3.55692333984375,0.12461013000905513,0.03686579558253288,0.08548395174648613
1772457346634992400,3.566992431640625,0.08954992254376411,0.02726911519765854,0.004259356211218983
1772457346645061400,3.577061279296875,0.06632160716950893,0.025416180807352064,-0.04014236956778913
1772457346655129300,3.58712939453125,0.06226502525508403,0.018681904116272924,-0.04496544234268367
1772457346665198600,3.597198486328125,0.07607610846459865,0.009656009356677531,-0.020276187570393085
1772457346675266600,3.6072666015625,0.09570143091082572,-0.00037497079223394394,0.00012506941808387636
1772457346685335300,3.617335205078125,0.09500818794965743,0.012710428491234778,-0.007202825784590095
1772457346695403300,3.6274033203125,0.09550678512156009,0.011433540423214435,-0.028176019175816327
1772457346705472500,3.637472412109375,0.04468903655409813,-0.014979250206053256,-0.07457887391047552
1772457346715541200,3.647541259765625,0.05646598358750343,-0.002669511470198631,-0.08546208697455003
1772457346725609500,3.657609375,0.050418520116806025,-0.01969955672621727,-0.08142568933162837
1772457346735678500,3.667678466796875,0.07433832488656043,-0.0139338328063488,-0.05106154899438843
1772457346745746200,3.67774609375,0.10414601865112781,0.027450901505351066,-0.009057276278547943
1772457346755815200,3.687815185546875,0.0931494083404541,0.056421852184832096,0.019196703504305333
1772457346765883100,3.697883056640625,0.04479775762557983,0.07366875506192445,0.02896833859728649
1772457346775952100,3.7079521484375,0.09931669879853725,0.07165624619573355,0.02959028815422207
1772457346786021000,3.718021240234375,0.12872107245922088,0.05438859279155731,0.016787139878235758
1772457346796089000,3.728089111328125,0.1397819801777601,0.04698007010072469,0.008910652615781873
1772457346806158300,3.738158447265625,0.13135960426926613,0.047905368252098554,-0.0007171535597182809
1772457346816226300,3.748226318359375,0.05434884530305862,0.06894114201813936,-0.0172255678281188
1772457346826295000,3.758294921875,-0.010748188507556915,0.07350801154226064,-0.04569971143398434
1772457346836363300,3.76836328125,-0.015526654955744743,0.05739771147966385,-0.08349208380952478
1772457346846432300,3.778432373046875,0.04786299041509628,0.0343120194464922,-0.05296550118587911
1772457346856501000,3.7885009765625,0.12036240943670272,0.014848025041818617,-0.003788249834440648
1772457346866569200,3.7985693359375,0.16528700831234455,0.02166238123178482,0.027239816037937997
1772457346876638200,3.80863818359375,0.16508008756339548,0.04668693237304687,0.04085280112577602
1772457346886706200,3.8187060546875,0.0892670139491558,0.05001110835969448,0.03990543727306649
1772457346896775200,3.828775146484375,0.05833119293749332,0.08016980751901864,0.016771887510176747
1772457346906843100,3.838843017578125,0.050579848158359524,0.08028145119994878,-0.005154953344073146
1772457346916912000,3.848912109375,0.04036415909230709,0.06756313166320324,0.008527626381255685
1772457346926981000,3.858981201171875,0.03815583539307117,0.07880436438471078,0.032801048627961425
1772457346937049000,3.869049072265625,0.04500350933074951,0.05125672450661659,0.03197681796457618
1772457346947118300,3.879118408203125,0.07122340773642062,0.02975333322882652,0.026909086246229705
1772457346957186300,3.889186279296875,0.02310322768986225,0.023935586860775945,-0.018404859006870538
1772457346967255000,3.899255126953125,-0.027440964633226393,0.04442833979129791,-0.052878480489552016
1772457346977323300,3.9093232421875,0.022674188622832298,0.03914250834286213,-0.011781568409595638
1772457346987392300,3.919392333984375,0.04492635244131088,0.023757015423476694,0.012424907814431934
1772457346997461000,3.9294609375,0.06924480113983154,0.030313597460091112,0.04887485260507091
1772457347007529200,3.939529296875,0.11251169593632221,0.02890373066216707,0.018690891140326855
1772457347017598200,3.94959814453125,0.09849661458730698,0.008309855444729328,-0.003885499663837254
1772457347027666200,3.959666259765625,0.07574526907503605,0.015514964517951011,-0.01632480132980272
1772457347037735200,3.969735107421875,0.12238953135013579,0.007595569695532322,-0.024267065571155398
1772457347047802000,3.979802001953125,0.16615443879663944,-0.01961626235693693,-0.02187173139983788
1772457347057870000,3.9898701171875,0.12992401850819588,-0.0015106968238949774,-0.007859152535162865
1772457347067939300,3.999939208984375,0.024519524228572846,0.0595326776817441,-0.013964666336029767
1772457347078007300,4.01000732421875,0.0275146143913269,0.06823299374878405,-0.005776391444355249
1772457347088076000,4.020075927734375,0.05873509756326675,0.04355418730527162,0.01806625643596053
1772457347098145300,4.030145263671875,0.09984978276193142,0.039379239708185194,0.01305109515506774
1772457347108213200,4.040213134765625,0.21254443404972553,0.046268122439086436,0.014862144898716359
1772457347118282000,4.050281982421875,0.21861586291790008,0.024931612160801885,0.0102289504064247
1772457347128350200,4.06035009765625,0.09892097747921944,0.06225654968768358,-0.032055819751229134
1772457347138419200,4.070419189453125,0.031034605211019514,0.08645517139881849,-0.05632697697561234
1772457347148487200,4.080487060546875,0.0014344167172908782,0.0682899846330285,-0.05665531388083472
1772457347158556200,4.09055615234375,-0.023218963024020194,0.06421148314774036,-0.038359742201026524
1772457347168625200,4.100625244140625,0.05323474658131599,0.05678367123454809,0.005098839242663234
1772457347178693400,4.110693359375,0.15154782129526137,0.017314707416296003,0.029366270139999685
1772457347188762000,4.12076220703125,0.20681261239945886,0.017671558029949665,0.07046246983390302
1772457347198830000,4.130830078125,0.23236323324143884,0.02418956162184477,0.07558662618091329
1772457347208899300,4.1408994140625,0.17765724506378172,0.03858662802577018,0.06862087882151827
1772457347218967300,4.15096728515625,0.06992576914131642,0.06599076777994632,0.01825772388745099
1772457347229036000,4.1610361328125,-0.02190028164088726,0.07864215956032276,-0.0008370536123402416
1772457347239105300,4.171105224609375,-0.09355565105378627,0.10019611198157072,-0.02905574288610369
1772457347249173200,4.18117333984375,-0.033058804515004155,0.10893354518860578,-0.0015253281374461949
1772457347259242200,4.1912421875,0.02431318800151348,0.11694120281636715,0.05131895782155916
1772457347269310200,4.201310302734375,0.09351064286828041,0.08789484881311654,0.05664935906408354
1772457347279379200,4.211379150390625,0.1302402448505163,0.07974047619104385,0.01449199641207233
1772457347289447400,4.221447509765625,0.06584522182941437,0.07896656920909881,-0.029582616304419933
1772457347299516200,4.23151611328125,0.08134381973445415,0.08318535594791174,-0.04688417197819799
1772457347309585200,4.241585205078125,0.10935995390713214,0.07220715807676314,-0.03184919126322493
1772457347319653400,4.2516533203125,0.12724457016587257,0.02821662518084049,0.01653948526009917
1772457347329722000,4.26172216796875,0.12163958976566791,0.03745265555977821,0.0017634660085663197
1772457347339790000,4.2717900390625,0.16123860970437526,0.02350625553280115,0.01984227139884606
1772457347349859300,4.281859375,0.1869476359784603,-0.022342180189490315,0.005401767711993306
1772457347359927300,4.29192724609375,0.09845102187991142,0.0016480594679713248,-0.018885591728519648
1772457347369996300,4.301996337890625,0.053182724133133887,0.009207388806343078,-0.05317519841380417
1772457347380065300,4.312065185546875,0.034139000967144964,0.0021668226450681687,-0.048207438204903155
1772457347390133200,4.32213330078125,0.01787351034283638,0.00007277297526597976,-0.061071632485743606
1772457347400203300,4.332203369140625,0.01735094777345657,0.007743161472678184,-0.06621821986027061
1772457347410272000,4.34227197265625,-0.03537643380761146,0.023821897353231907,-0.052160888538416474
1772457347420341200,4.35234130859375,-0.02078793648481369,0.04765168575197458,-0.01396360689010471
1772457347430409200,4.3624091796875,0.05597615424394607,0.03420680550634861,0.024943631392158567
1772457347440478200,4.372478271484375,0.11262801579236983,0.02345744795501232,0.0646565965667367
1772457347450546200,4.382546142578125,0.13690613248050212,0.03202390850931406,0.07014671841561794
1772457347460615200,4.392615234375,0.10005845707654952,0.04422609521746635,0.058804399939812714
1772457347470683100,4.40268310546875,0.03966916256546974,0.08579407714158296,0.03979905428914353
1772457347480752000,4.412752197265625,0.09318038800060749,0.06327858621180057,0.000046341626066714525
1772457347490821000,4.422821044921875,0.14126198960244654,0.04671323585808277,-0.018127576435450463
1772457347500889300,4.432889404296875,0.15854805544614792,0.044664194373786444,0.006830832400731742
1772457347510958000,4.4429580078125,0.13784136750400067,0.06671440587937831,-0.030954361315350978
1772457347521026000,4.453026123046875,0.08977087181806563,0.048937633909285065,-0.025327351746428757
1772457347531095300,4.46309521484375,0.048774260041117665,0.062354164843261235,-0.03362814710186794
1772457347541163300,4.473163330078125,0.060088850259780884,0.05769757120907306,-0.05706988603109493
1772457347551232000,4.48323193359375,0.10082827240526676,0.020336977846920488,-0.04698792461361736
1772457347561301200,4.49330126953125,0.13901742554605007,0.018897592693567274,-0.02274124424336478
1772457347571369200,4.503369140625,0.16792261751294135,0.027807752119004724,-0.025592103629838672
1772457347581438200,4.513438232421875,0.10953531047403811,0.025678046613931655,-0.021003314534854142
1772457347591506200,4.523506103515625,0.05057926363646984,0.04185468991100788,-0.00993851609248668
1772457347601575200,4.5335751953125,0.039943887853622434,0.05186930344700813,-0.007360573629569262
1772457347611643400,4.543643310546875,-0.018268062618374825,0.04015928416997194,-0.03213410915182903
1772457347621712100,4.553712158203125,-0.0051198272317647935,0.031330373287200924,-0.053430890207923944
1772457347631781000,4.563781005859375,0.06713175450861454,0.02844838811010122,-0.014898823647294192
1772457347641849300,4.573849365234375,0.12320318582057953,0.009061550594866276,0.020763477896992115
1772457347651918000,4.58391796875,0.10780044950544833,0.013799977293610571,0.04249050359651446
1772457347661986000,4.593986083984375,0.008439327043294906,0.06305383754521608,0.016643000433500855
1772457347672055300,4.60405517578125,-0.03747603643536567,0.08302139755785465,-0.007701569086965173
1772457347682123300,4.614123291015625,-0.027616321200132368,0.04803659341633319,0.003357164940796792
1772457347692192000,4.62419189453125,0.03409516182541847,0.03882248260825872,-0.0074938263541087504
1772457347702261200,4.63426123046875,0.12635843498110771,0.03761369134038686,0.012451576625648886
1772457347712329200,4.6443291015625,0.11920388705134391,0.020006138457357884,0.019237291243020444
1772457347722398200,4.654398193359375,0.06970306630134582,0.028993162511289118,-0.026688593629654495
1772457347732466200,4.664466064453125,0.008102642434835433,0.05856821656376123,-0.01980961123825982
1772457347742535000,4.674534912109375,0.0012654898911714553,0.061951137000322336,0.016351159613765775
1772457347752603000,4.684602783203125,0.04090367279648781,0.04437164116799831,0.029762539448589084
1772457347762671600,4.694671630859375,0.03822539349794388,0.04413607884645462,-0.00257154925474897
1772457347772739800,4.70473974609375,0.10376257229149341,-0.0006999649628996849,-0.02968373859133571
1772457347782808800,4.714808837890625,0.15868483356833457,-0.01956277860403061,-0.03207373900040984
1772457347792877800,4.7248779296875,0.16543313878476618,-0.010948971776664257,-0.019965989110060034
1772457347802945800,4.73494580078125,0.16767010405659674,-0.010578384898602963,-0.05540131349805742
1772457347813014800,4.745014892578125,0.1253963119506836,-0.00542933157235384,-0.0618111074751243
1772457347823083000,4.7550830078125,0.11009937409758568,0.001414250712096691,-0.07192713555898517
1772457347833151700,4.76515185546875,0.09159925628900527,0.018963935928046703,-0.07297529290504753
1772457347843220700,4.775220703125,0.06322013402283191,0.004234568829834461,-0.07187936916081235
1772457347853289000,4.7852890625,0.09780395614802836,-0.002704582783579826,-0.10603143053893
1772457347863357700,4.795357666015625,0.14612813433408736,-0.00872720407396555,-0.10218231736272573
1772457347873425700,4.80542578125,0.07578092491030693,-0.034032325722277164,-0.05812564216172322
1772457347883495000,4.815494873046875,0.02030044522881508,0.025787352207303046,-0.05875279761673882
1772457347893563000,4.82556298828125,0.0673947893589735,0.04102320752292871,-0.00829968111058697
1772457347903632000,4.8356318359375,0.1651017148733139,0.026342355741560457,0.0504858497319743
1772457347913699800,4.845699951171875,0.19394845465123653,0.024242460852861403,0.10349750988082959
1772457347923768800,4.855768798828125,0.19983283651471137,0.0316954072073102,0.10431554826544596
1772457347933837800,4.865837890625,0.1639075366526842,0.029782851584255695,0.10113859872976318
1772457347943905800,4.87590576171875,0.1020505076766014,0.03248071236610412,0.12439330892059951
1772457347953974800,4.885974853515625,0.012206570622324943,0.0619637042209506,0.09501845361534506
1772457347964043000,4.89604296875,-0.0898421834886074,0.07389496503323316,0.06047501829946413
1772457347974111700,4.90611181640625,-0.1583528251349926,0.09316723625808954,0.0016010785210877655
1772457347984179700,4.9161796875,-0.11703180370926856,0.08505144208073616,-0.013253010935336351
1772457347994249000,4.9262490234375,-0.049186932495236396,0.05786182186007499,0.011480850163660943
1772457348004317700,4.936317626953125,-0.027332828083634374,0.05836714103370905,-0.0003260901492089033
1772457348014386000,4.946385986328125,-0.022968203133344647,0.062139645309746264,-0.004236559857521206
1772457348024455000,4.956454833984375,0.007746084082126617,0.055308922506868835,-0.009321315775904804
1772457348034523000,4.96652294921875,0.06252922914922238,0.033949908135831354,0.015655395901948213
1772457348044591900,4.976591796875,0.13059037346243857,0.017475450935959817,0.04398733629183844
1772457348054659800,4.986659912109375,0.19292846395373342,0.017241057658195495,0.05369774271687493
1772457348064728800,4.996728759765625,0.21331717198789119,0.008803776441514491,0.06916176249887794
1772457348074797800,5.0067978515625,0.13858546386957168,0.018217501474916933,0.04879853596584871
1772457348084865800,5.01686572265625,0.12704583272337913,0.03765928404778242,-0.007105210629012435
1772457348094935000,5.02693505859375,0.10325111563801764,0.0296998494759202,-0.002752458779606968
1772457348105003000,5.0370029296875,0.12821429198086262,0.026532909877598283,0.02053025366300717
1772457348115071700,5.04707177734375,0.13808043695688246,0.02620674666315317,0.029666385597735642
1772457348125139700,5.0571396484375,0.07176642857193946,0.029564532658457755,-0.02148192836465314
1772457348135209000,5.067208984375,0.011361936491727828,-0.0005737082347273826,-0.06061725804805755
1772457348145277700,5.077277587890625,0.013667290824651717,0.019563655386865136,-0.05709807094596326
1772457348155346000,5.087345947265625,0.07108721413612365,-0.011755027462542056,-0.036743648773897436
1772457348165415000,5.097414794921875,0.13327040632665157,-0.025820962215960024,-0.004723630988411605
1772457348175482600,5.107482666015625,0.19036065929234028,-0.021341478714346884,0.0372739927909337
1772457348185552000,5.1175517578125,0.21147242090404034,-0.03223988934755325,0.022650259757973253
1772457348195619800,5.127619873046875,0.14834931751489638,-0.01862023705691099,0.004636263232212514
1772457348205688800,5.137688720703125,0.09445756832957267,0.029802725328505038,0.0014653598448261618
1772457348215757800,5.1477578125,0.053802317336201666,0.02302081010341644,-0.014304072624538092
1772457348225825800,5.15782568359375,0.03870937762260437,0.03180705088824034,-0.027197858326043933
1772457348235895000,5.16789501953125,0.0017255086183547972,0.04573445395380258,-0.007609616487193853
1772457348245962800,5.177962646484375,0.0007639701098203659,0.05080225873738527,-0.03294540726840496
1772457348256031700,5.18803173828125,0.014608371067047118,0.0516591678276658,-0.02663892753534019
1772457348266100000,5.198099853515625,0.05737023895084858,0.0274167069748044,-0.0007053352577611803
1772457348276168700,5.208168701171875,0.062060442593693727,0.018892331996560097,-0.011841902028396726
1772457348286237700,5.21823779296875,0.09593290157914161,0.030648820763826367,-0.01128720902139321
1772457348296306000,5.228305908203125,0.13833938015401362,0.017232874351739882,0.015225132992211728
1772457348306375000,5.238375,0.11548866592049598,0.030883506302535533,0.02537659771563485
1772457348316442600,5.248442626953125,0.0984258874386549,0.052150166215002534,0.0057451012569479645
1772457348326511900,5.258511962890625,0.080683894520998,0.0578267505466938,0.008276373300235718
1772457348336579800,5.268579833984375,0.10544424176812171,0.02161474269777536,0.006728997727762908
1772457348346648800,5.27864892578125,0.10890285778939723,-0.005086509484052658,0.008281944524496793
1772457348356717800,5.2887177734375,0.11881401095092296,0.0047314124360680575,-0.020912256984226406
1772457348366785800,5.298785888671875,0.12939210358858108,0.013478197993338107,-0.0313666501769796
1772457348376854800,5.308854736328125,0.11427987465262412,0.0066743631973862644,-0.048404860473144795
1772457348386922800,5.3189228515625,0.04328969115018844,0.01582213077098131,-0.06468014183910563
1772457348396991700,5.32899169921875,0.010511457142233848,0.0435202850356698,-0.052238155025709415
1772457348407060000,5.33906005859375,0.007501169410347938,0.029988018767535686,-0.042765758607629684
1772457348417128700,5.349128662109375,0.08841945720911025,0.04131283811926841,-0.015981887909956277
1772457348427198000,5.359197998046875,0.13840601564943789,0.03709755851179361,0.03439953333316371
1772457348437266000,5.369265869140625,0.0958984147876501,0.05164192443192005,0.03654860112583264
1772457348447334700,5.379334716796875,0.057225277522206304,0.05418488691300154,0.023751626862306148
1772457348457402600,5.389402587890625,0.012250994285941123,0.07639145802408456,-0.0016984744809567928
1772457348467472000,5.399471923828125,-0.004206804040074348,0.05887099890261888,0.003162884477712214
1772457348477539800,5.409539794921875,0.05762976666986942,0.057149874198436736,0.016692027206998316
1772457348487608800,5.41960888671875,0.12022913844585419,0.04432780202627182,0.05320900935186073
1772457348497677800,5.429677734375,0.1456651929974556,0.026593115632236004,0.06550724031301215
1772457348507745800,5.439745849609375,0.12641805621385574,0.019217910689115523,0.043299408826604484
1772457348517814800,5.449814697265625,0.050376434540748596,0.020052315686643122,0.013222597530763595
1772457348527882800,5.4598828125,0.05621347013115883,0.02015519153922796,-0.030490671060048043
1772457348537951700,5.46995166015625,0.12003449265658855,-0.012969371688365936,-0.05491276279613375
1772457348548020000,5.48002001953125,0.11096271292865276,-0.045971769841015336,-0.07482033624984323
1772457348558088700,5.490088623046875,0.030257191097736356,-0.028352818781137466,-0.0972806811925955
1772457348568156700,5.50015673828125,-0.015326163947582244,0.004473930543661117,-0.1126129643537104
1772457348578226000,5.510225830078125,-0.015074235013127326,0.027073592625558376,-0.07448717703903093
1772457348588294700,5.520294677734375,0.00008417115211486816,0.03394289387315511,-0.03602275062082335
1772457348598363000,5.53036279296875,0.02855564787685871,0.0442480147883296,-0.010530161842703818
1772457348608431900,5.540431884765625,0.04111702328622341,0.05143441916108131,0.009251154882833361
1772457348618499800,5.550499755859375,0.05412964959442615,0.052955637378990644,0.008101710853073745
1772457348628568800,5.56056884765625,0.07065174532830715,0.06688128687888384,-0.013861516488809138
1772457348638636800,5.57063671875,0.04854220485091209,0.08546119192540645,-0.01545892348177731
1772457348648705800,5.580705810546875,0.026204700836539266,0.08706190512031316,-0.013022106522601096
1772457348658774800,5.59077490234375,0.027726211315393445,0.08082271846979856,-0.026455332863051444
1772457348668842800,5.6008427734375,0.10584463926255702,0.0725666390389204,-0.02392705649444833
1772457348678912000,5.610912109375,0.18128186530172824,0.053661739821732043,0.023301946866046638
1772457348688980000,5.62097998046875,0.2096697553962469,0.012117723295092583,0.01868860785169527
1772457348699048700,5.631048583984375,0.23721827205717563,0.026048633491992948,0.022554160706046968
1772457348709117000,5.641116943359375,0.20055062939524648,0.03515577679425478,0.03278678264059126
1772457348719186000,5.65118603515625,0.13596505223810673,0.06407295145988463,0.048674726923089474
1772457348729254700,5.661254638671875,0.07226853287518024,0.10731938799023627,0.07291421036757528
1772457348739323000,5.671322998046875,0.027383681488037107,0.119006026391685,0.05884359943903982
1772457348749392400,5.681392333984375,-0.0336363121420145,0.09825842191725968,0.029812917928956448
1772457348759460600,5.691460693359375,-0.09796703775525092,0.07801379852890968,-0.012410313033498823
1772457348769529600,5.701529541015625,-0.04363689715266227,0.0568593668192625,-0.0605838307024911
1772457348779597600,5.71159765625,0.04340893361568451,0.03691635672599077,-0.03772423904277384
1772457348789666600,5.72166650390625,0.09505027352571487,0.013856383655965327,-0.037602000902593136
1772457348799735600,5.731735595703125,0.11867197213172911,0.021696575762331485,-0.010237279843352735
1772457348809803800,5.7418037109375,0.08325053013861179,0.05054419232308864,0.009790778184868395
1772457348819872500,5.75187255859375,0.0055909518748521805,0.06621259383708238,0.029095161581039426
1772457348829940500,5.7619404296875,0.011231003588438034,0.06490092671662569,0.013550605642423033
1772457348840009700,5.772009765625,0.10062953496277331,0.011962532733380793,0.05439845659844577
1772457348850077700,5.78207763671875,0.15442483803629875,0.008447510349750519,0.06807721866518258
1772457348860146400,5.792146484375,0.16027648667395114,0.012606383594870567,0.05833656323235482
1772457348870215700,5.802215576171875,0.06936579717099667,0.03300006006509065,0.026250476207025347
1772457348880283600,5.81228369140625,0.02119008754491806,0.053853463001549244,-0.009016944268159568
1772457348890352600,5.8223525390625,0.01950257284939289,0.06396686073690652,-0.032460765556618566
1772457348900420600,5.832420654296875,0.02149462344944477,0.06054243924617767,0.011851290911249816
1772457348910489600,5.842489501953125,0.03304711407721042,0.062200143325328826,0.018167853646911678
1772457348920557600,5.8525576171875,0.09999240610301494,0.050375557757914066,0.0273539074042812
1772457348930626600,5.86262646484375,0.07627718399465083,0.04328881436735391,0.03864018484391272
1772457348940695600,5.872695556640625,0.06647825903594494,0.07345657361596822,0.018627433982677757
1772457348950763800,5.882763671875,0.04960720373392105,0.0498749147593975,-0.008076485080271959
1772457348960832500,5.89283251953125,0.06864449715912342,0.04309621440470218,0.019322247846424577
1772457348970900500,5.902900390625,0.0561579405516386,0.06442249554991722,0.006920593043416738
1772457348980969700,5.9129697265625,-0.009110358172655104,0.05507131435871124,-0.009132643069699405
1772457348991037700,5.92303759765625,-0.0566460163295269,0.07177928805351257,-0.05750672481209039
1772457349001106400,5.9331064453125,-0.04144727815389633,0.05683920081406831,-0.07918645903747529
1772457349011175700,5.94317578125,0.022183190235495566,0.027028292179107665,-0.06733049195110798
1772457349021243600,5.95324365234375,0.07260989365875721,0.02641805132627487,-0.026695114701986312
1772457349031312600,5.963312744140625,0.120468207898736,0.0310331439062953,-0.030989012503623962
1772457349041380600,5.973380615234375,0.07871405575275421,0.022616613216698167,-0.031922603559307754
1772457349051449600,5.98344970703125,0.04972761524319649,0.03261719822734594,-0.04894691319428384
1772457349061517800,5.993517822265625,0.08768295962810516,0.0438449869453907,-0.05698723098263144
1772457349071586600,6.003586669921875,0.16922025610804556,0.04395692288726568,-0.00436316364556551
1772457349081655600,6.013655517578125,0.14206453815698622,0.056498716813325876,0.02063322084713727
1772457349091723800,6.023723876953125,0.07087853982150555,0.07989537449181079,0.014084018399380147
1772457349101792500,6.03379248046875,0.12200959212183951,0.07867927670031785,0.012293225992470978
1772457349111860500,6.043860595703125,0.1524053149074316,0.058631344927847384,0.02502257837988436
1772457349121929700,6.0539296875,0.14710954658687114,0.0701572398096323,0.006471789829991757
1772457349131997700,6.063997802734375,0.1846288376420736,0.06447013408392667,0.03135631144605577
1772457349142066700,6.074066650390625,0.20748539709448813,0.04428220931887626,0.022595716559141873
1772457349152134700,6.084134765625,0.17289923688173292,0.05402297434955835,0.007424998901598155
1772457349162203600,6.09420361328125,0.08077858706712722,0.06539601675719023,-0.022480383083783088
1772457349172272600,6.104272705078125,0.07680559178292751,0.06924041722565889,-0.028638759583048522
1772457349182340600,6.114340576171875,0.1251391223192215,0.041507483908534044,-0.025954817728698253
1772457349192409600,6.12440966796875,0.14537819274961947,0.04805208324640989,0.00286824891269207
1772457349202477600,6.1344775390625,0.09618541503548622,0.07449994518905878,0.024847696737013755
1772457349212546600,6.144546630859375,0.08739011416137218,0.08164309494197368,0.031574813034944235
1772457349222614500,6.154614501953125,0.0742699358254671,0.07611877856254577,0.023302366991154847
1772457349232683800,6.164683837890625,0.04334288264214992,0.05964169101417064,0.009648922028765081
1772457349242752500,6.17475244140625,0.021497546058893202,0.06615881782323121,0.007315072253718972
1772457349252820700,6.18482080078125,0.01745908432304859,0.051825172044336794,-0.0000979074165225029
1772457349262889700,6.1948896484375,0.020851649370789527,0.060306000141799446,0.001513400237634778
1772457349272957400,6.20495751953125,-0.018586627048254013,0.04266805212050676,-0.014970409312471747
1772457349283026700,6.215026611328125,0.007490648016333579,0.047186990849673746,-0.03090929833091795
1772457349293094700,6.2250947265625,0.05775660791993141,0.01699760429114103,-0.025458558644354343
1772457349303163600,6.23516357421875,0.08885551053881645,-0.0036629064217209815,-0.008846884930878877
1772457349313232600,6.245232666015625,0.07925356945693493,-0.002810381245613098,0.01117514521535486
1772457349323300600,6.255300537109375,0.06997954515516758,0.01351385382860899,-0.016908501235581932
1772457349333369900,6.265369873046875,0.10053718050420284,0.006812018102407455,-0.03629537528343498
1772457349343437600,6.2754375,0.15734394035339355,-0.010551204630732535,-0.046096857525408264
1772457349353506600,6.285506591796875,0.17018530174791813,0.0016001286730170248,-0.03795384654756635
1772457349363574500,6.295574462890625,0.1546972252368927,0.02433364626765251,-0.01973521256148815
1772457349373643500,6.3056435546875,0.10506254897415637,0.02642068167477846,-0.02077639217749238
1772457349383712500,6.31571240234375,0.0773982969790697,0.05809884548634291,-0.010046579576842487
1772457349393780700,6.32578076171875,0.09115326608717442,0.05464315207451582,0.00439732164349407
1772457349403849700,6.335849609375,0.09044950173199176,0.058168111330270764,0.008450323361344636
1772457349413917400,6.34591748046875,0.06410334659814834,0.06771101570129394,0.002902626106329262
1772457349423986700,6.355986572265625,0.07997253138124942,0.05356178657859564,0.0014168810606002807
1772457349434054700,6.3660546875,0.058707040512561794,0.05021013806313276,0.013158537584915756
1772457349444123400,6.376123291015625,0.03801613466143608,0.07222966216951608,-0.000821326320245862
1772457349454192600,6.386192626953125,0.02992985883951187,0.060203708811104296,-0.02934767503738403
1772457349464260600,6.396260498046875,0.020602058523893355,0.058625499708950514,-0.042936639928817744
1772457349474329600,6.40632958984375,0.015409750577807425,0.03149754654765129,-0.011986644261330365
1772457349484397600,6.4163974609375,0.14239654659032822,0.012237258021533488,0.01422985661085695
1772457349494466600,6.426466552734375,0.18312486281991003,0.04144610911011696,0.06375701737850904
1772457349504534800,6.43653466796875,0.0754027392476797,0.055035366262495514,0.10869038408249616
1772457349514603500,6.446603515625,0.007899813339114188,0.09420710069984196,0.09633574675898998
1772457349524672500,6.456672607421875,-0.04338555274009704,0.09707827222198247,0.05589497876651585
1772457349534740700,6.46674072265625,-0.0984340707451105,0.08496902449429035,0.012141834823042154
1772457349544809500,6.4768095703125,-0.07741875524520873,0.07792845833301544,-0.005632964385673404
1772457349554877400,6.48687744140625,0.05537935739457607,0.03134118694216013,0.019048545471578835
1772457349564946700,6.49694677734375,0.1638730498611927,0.014990940643846987,0.05077708776351064
1772457349575014700,6.5070146484375,0.2291805115520954,0.014333061257004736,0.09346720558535307
1772457349585083600,6.517083740234375,0.22280571582317352,0.043321547593176364,0.10305917326249181
1772457349595151600,6.527151611328125,0.17040215936899183,0.054496437080204484,0.041392661889828736
1772457349605220600,6.537220703125,0.14354571662545204,0.041534079654514784,0.021266477249376473
1772457349615289600,6.54728955078125,0.12262743175923824,0.028409517404437062,0.004867350308038294
1772457349625357600,6.557357666015625,0.1477642111033201,0.020317980885505675,0.007548040759377181
1772457349635426600,6.567426513671875,0.1551017143845558,-0.0115831780269742,0.005138020475581288
1772457349645494800,6.577494873046875,0.09544424127936363,-0.004871697689592838,0.010065686136111616
1772457349655563500,6.5875634765625,0.0729541770517826,0.023107027082145213,0.004281988168135285
1772457349665631500,6.597631591796875,0.056742462441325185,0.03893529533296823,0.008706088220700622
1772457349675700700,6.60770068359375,0.035520226192474365,0.030989597025513647,0.009800715056993066
1772457349685769500,6.61776953125,0.006309913799166679,0.010999240659177303,-0.02527626088000834
1772457349695837400,6.62783740234375,-0.041562428966164584,0.0008431728258728981,-0.07357508542910218
1772457349705906700,6.63790673828125,-0.09757482356727122,-0.003748538878560066,-0.07864826050754636
1772457349715974700,6.647974609375,-0.08368775251209735,0.008316577446460723,-0.07107735032923519
1772457349726043600,6.658043701171875,-0.02777881828546524,-0.0003457446977496147,0.0025293358145281673
1772457349736111600,6.668111572265625,0.038432898768782614,0.03246522253602743,0.023702654887735843
1772457349746180600,6.6781806640625,0.06685995182991028,0.02983575081527233,0.06346844622809439
1772457349756249600,6.68824951171875,0.03747194478213787,0.04463613732308149,0.04228000265099108
1772457349766317600,6.698317626953125,0.0017938976794481276,0.05275894576311111,0.011970277648419141
1772457349776386600,6.708386474609375,0.03318564576506614,0.06175590668916702,-0.005431304333731532
1772457349786454800,6.718454833984375,0.046507484152913094,0.03559299916774034,0.010393712514080106
1772457349796523500,6.7285234375,0.06672960344851017,0.03256400673538446,0.00036021161451935764
1772457349806591500,6.738591552734375,0.10904080495536327,0.052901569104194635,-0.002079765416122973
1772457349816660700,6.74866064453125,0.1440349614471197,0.06126169343143701,0.009861103474721312
1772457349826729500,6.7587294921875,0.15454057337045668,0.07158581130802631,0.034258206900022924
1772457349836797400,6.76879736328125,0.12439911760687827,0.07709668368399143,0.018849113909341395
1772457349846866700,6.77886669921875,0.11359890665113925,0.06194587630331516,0.013028883323259651
1772457349856934700,6.7889345703125,0.1301525665670633,0.05213379960209131,0.04838719695229083
1772457349867003600,6.799003662109375,0.11922843697071074,0.05770107834041118,0.07511153774876148
1772457349877071600,6.809071533203125,0.10971008251905441,0.047022740198671815,0.057983000554330644
1772457349887140600,6.819140625,0.11826163776516914,0.03658347150981426,0.04834573243074119
1772457349897209600,6.829209716796875,0.07734510548710823,0.04488981982320547,0.021975648432038725
1772457349907277600,6.839277587890625,-0.0030319150418043135,0.04628302774727344,-0.005672821472026407
1772457349917346600,6.8493466796875,-0.027632103291153905,0.03535246841013431,-0.0354333881592378
1772457349927414500,6.85941455078125,0.022276129215955735,0.03823445358723402,-0.003629332945682108
1772457349937483500,6.8694833984375,0.023375030368566512,0.041515082693099975,0.009944288246147334
1772457349947551500,6.879551513671875,0.037866497057676314,0.020733283688127994,0.008788432741910218
1772457349957620700,6.889620849609375,0.03827916951179504,0.03793137898743153,0.02114113383665681
1772457349967688400,6.8996884765625,0.054425417670607566,0.0624558716520667,0.028402393543906508
1772457349977757400,6.90975732421875,0.135513216817379,0.033119010269641876,0.005361782761476933
1772457349987826700,6.91982666015625,0.1861281362891197,-0.0073918638169765466,-0.006724668612517416
1772457349997894400,6.929894287109375,0.1985287681788206,-0.007327274148166179,-0.0222880753820762
1772457350007963600,6.939963623046875,0.2033037274956703,0.015858955650031564,-0.011875183243490755
1772457350018031600,6.950031494140625,0.19273907886147498,0.04544774596691131,0.011307247162424027
1772457350028100600,6.9601005859375,0.1702291408896446,0.037671559007465834,0.004027209689468145
1772457350038168600,6.97016845703125,0.17473405109345913,0.034647827272117133,0.024423005051538348
1772457350048237600,6.980237548828125,0.16032207938134668,0.040972354118525976,0.015106566380150616
1772457350058306600,6.990306640625,0.1492412979185581,0.03188596134334802,-0.0034781975045800207
1772457350068374500,7.00037451171875,0.09921733007729053,0.02369797871261835,-0.008360964577458798
1772457350078443500,7.010443603515625,0.05717617768347263,0.009554302547872066,-0.011619783710315823
1772457350088511500,7.020511474609375,0.06539104832112788,0.010194938538968563,-0.011426562693156301
1772457350098580500,7.03058056640625,0.061410454252362245,0.011359890665113925,0.013496829628571867
1772457350108648400,7.0406484375,-0.0022059856116771696,0.0036909634724259376,0.013033961357176303
1772457350118717700,7.0507177734375,-0.040462943291664125,0.009524784192442893,-0.022801760525256395
1772457350128786700,7.06078662109375,-0.05761398457884788,0.008593056300282478,-0.028853607910126446
1772457350138854400,7.0708544921875,-0.02131634427309036,0.0014139584511518477,-0.0008626812439411878
1772457350148923600,7.080923583984375,0.06906243031024932,0.011412789896130562,0.005849200952239334
1772457350158991600,7.09099169921875,0.0819125595331192,0.049285716694593425,0.047479653653316196
1772457350169060400,7.101060302734375,0.032092589831352235,0.05842647000551223,0.03466781061422079
1772457350179128600,7.111128662109375,0.01906067430078983,0.07653232779949903,-0.0014050444923341273
1772457350189197600,7.121197509765625,0.05645253958404064,0.06552431931197643,-0.023037797770835457
1772457350199265500,7.131265625,0.0850929431349039,0.04272124361246824,-0.01902772187925875
1772457350209334500,7.14133447265625,0.09327157341539859,0.060336687541007995,-0.05018971632961183
1772457350219403500,7.151403564453125,0.10912497610747814,0.07727554738223552,-0.023188166026957332
1772457350229471700,7.1614716796875,0.11547697548270225,0.07724515224397183,-0.023258491316810247
1772457350239540500,7.17154052734375,0.15057283878326416,0.04791004442721605,-0.02413921967409551
1772457350249608400,7.1816083984375,0.2131342166364193,-0.002980769376456737,-0.021542335048690436
1772457350259677700,7.191677734375,0.25502806951403617,0.004507540552318096,-0.054926681723631916
1772457350269745700,7.20174560546875,0.23719021500647067,-0.0004851531684398651,-0.04263805884104222
1772457350279814400,7.211814453125,0.21928046430647372,0.015028350044786929,0.0004033201038837433
1772457350289883600,7.221883544921875,0.1841109512478113,0.022842530927062035,-0.004469510096870363
1772457350299951600,7.23195166015625,0.09429857837557792,0.03959200567603111,-0.023065306832268834
1772457350310020600,7.2420205078125,-0.036084289816021915,0.04770663080960512,-0.05041099439747631
1772457350320088600,7.252088623046875,-0.14137071067392826,0.07099018350243567,-0.0867604014230892
1772457350330157600,7.262157470703125,-0.14963935732543468,0.06466039595901965,-0.10337258659321814
1772457350340225500,7.2722255859375,-0.0652075084477663,0.04300619803369045,-0.04777227992434054
1772457350350294500,7.28229443359375,0.08513327514529227,0.01815758798122406,-0.004148790242522954
1772457350360363500,7.292363525390625,0.18043080143034457,0.014524492175877094,0.024171916367299852
1772457350370431700,7.302431640625,0.16415478941202163,0.010591828902065753,0.04646203757598996
1772457350380500500,7.31250048828125,0.06525134758949279,0.04028261828869581,-0.0003508227316662669
1772457350390568400,7.322568359375,-0.017100772404670714,0.05192570980936288,-0.026437742407433688
1772457350400637700,7.3326376953125,0.00020808979272842406,0.028110826718807217,-0.022520934289880095
1772457350410705700,7.34270556640625,0.08841068938076496,0.009911737683415413,0.012528422987833618
1772457350420774400,7.3527744140625,0.1852180357068777,-0.004663900157809257,0.04721596121583134
1772457350430843600,7.36284375,0.19996026228666305,-0.005327917024493217,0.09744758045841008
1772457350440911600,7.37291162109375,0.13606091382801533,0.019516601374745368,0.05470927611328661
1772457350450980600,7.382980712890625,0.0044160628765821455,0.019957330879569052,0.012724237820878625
1772457350461048600,7.393048583984375,-0.05451134238839149,0.019718553687632083,-0.03239376473501324
1772457350471117600,7.40311767578125,0.006059738430380821,-0.023355741146206855,-0.05013415021747351
1772457350481185800,7.413185791015625,0.0911363149523735,-0.06185469088852405,-0.022474939723685382
1772457350491254500,7.423254638671875,0.1647965944468975,-0.05482903003543615,0.026915662117488682
1772457350501322500,7.433322509765625,0.15973872653543947,-0.03242255243808031,0.04924103730265051
1772457350511391700,7.443391845703125,0.12527648496329782,-0.01654050817340612,0.04427687555663287
1772457350521460500,7.45346044921875,0.08882862253189086,0.02740881592929363,0.008593458159081637
1772457350531528400,7.463528564453125,0.035060791987180706,0.03550912027657032,-0.02347034396920353
1772457350541597700,7.47359765625,0.09132920717597007,0.026868717703223226,-0.03196662536412477
1772457350551665700,7.483665771484375,0.12031740125119686,0.026870471268892287,0.0016113076541572808
1772457350561734700,7.493734619140625,0.1349818864196539,0.05062573312669992,0.032435740713216366
1772457350571802600,7.503802734375,0.13739128564894199,0.07896276981681585,0.05246310462169349
1772457350581871600,7.51387158203125,0.1108738656014204,0.09257949949800967,0.010569434407167136
1772457350591940600,7.523940673828125,0.10024316599369049,0.08609130652248859,-0.006568162876553833
1772457350602008600,7.534008544921875,0.10750292786359786,0.07444383108764886,0.03073350337259471
1772457350612077600,7.54407763671875,0.15097615888714788,0.05680500628352165,0.03114610276147723
1772457350622145500,7.5541455078125,0.15192834504544733,0.048771629692614074,0.027167408388853072
1772457350632214500,7.564214599609375,0.132549690836668,0.05140753115415573,0.0028930910930037496
1772457350642282500,7.574282470703125,0.10807108314037323,0.05067717105299234,0.0051135436214506625
1772457350652351700,7.584351806640625,0.03755436236858368,0.05233078347891569,0.009773132930323482
1772457350662419500,7.59441943359375,-0.024155951613187787,0.04084551286846399,-0.026983357058838007
1772457350672488700,7.60448876953125,0.013199088791012763,0.03588818272203207,-0.03523563709743321
1772457350682557700,7.6145576171875,0.10225392129421233,-0.009516600885987282,-0.015661204588226972
1772457350692625400,7.62462548828125,0.1179798982143402,-0.030661680245399472,-0.016104527908936142
1772457350702694700,7.634694580078125,0.0747317081183195,-0.02894640076011419,-0.024793957255780697
1772457350712762600,7.6447626953125,-0.02916647325158119,-0.027724165488779543,-0.10742003535311669
1772457350722831400,7.654831298828125,-0.09789338799715042,-0.0002808627679944038,-0.1403057117909193
1772457350732899600,7.664899658203125,-0.024895371803641316,0.006771393831074238,-0.1099308491302654
1772457350742968600,7.674968505859375,0.08749532810151577,-0.011250877332687377,-0.03663037939146161
1772457350753037600,7.68503759765625,0.189863231164217,-0.013115502160787582,0.03117945704180747
1772457350763105500,7.69510546875,0.19189152212142943,0.02109159560650587,0.039211810719408095
1772457350773174800,7.7051748046875,0.1538292102307081,0.05567307964414358,0.036460246988944706
1772457350783242800,7.71524267578125,0.10786182430386543,0.07619067475497722,-0.02639320914596319
1772457350793311500,7.7253115234375,0.09455401444137096,0.06659194854348897,-0.03565799069534987
1772457350803379700,7.735379638671875,0.11666998465955257,0.0351633755788207,-0.03230937438718975
1772457350813448700,7.74544873046875,0.11740589771866798,0.03653291036635637,-0.0236922430915758
1772457350823517700,7.755517578125,0.12793079886436462,0.047591772258281706,-0.0009584332359954714
1772457350833585700,7.765585693359375,0.1482318286150694,0.052720367318391796,0.029483028387464583
1772457350843654700,7.775654541015625,0.13300444886684418,0.049990650093555446,0.024304493238404393
1772457350853723000,7.785722900390625,0.028886487266421318,0.06212415547966957,-0.0013414777368307112
1772457350863791600,7.79579150390625,-0.0036409868508577347,0.051500762395560735,-0.040848983467184005
1772457350873859600,7.805859619140625,0.0013198504269123076,0.0026157354563474656,-0.04434274386707693
1772457350883928800,7.8159287109375,0.051794484645128244,-0.016492869639396668,-0.0562031679328531
1772457350893996800,7.825996826171875,0.05562134945690632,-0.002322013206779957,-0.05102371946834027
1772457350904065500,7.8360654296875,0.022422844210267065,0.01736234595030546,-0.03249850375112146
1772457350914134800,7.846134765625,0.004583820658922195,0.05627455266863107,-0.050685281294211744
1772457350924202800,7.85620263671875,0.011528525230288505,0.07593027025312185,-0.026516104873269795
1772457350934271700,7.866271728515625,0.0189051914781332,0.06884586495012045,-0.03540942276176065
1772457350944339700,7.876339599609375,0.03669686875641346,0.07582593309581279,-0.031232685066387055
1772457350954408700,7.88640869140625,0.01745090101659298,0.05392974310815334,-0.014826324666664004
1772457350964476700,7.8964765625,0.05553016404211521,0.06341799468249082,-0.031980471226386725
1772457350974545700,7.906545654296875,0.12983458665907383,0.07166969019919633,-0.008445464523136615
1772457350984614700,7.91661474609375,0.13469137904047965,0.07017477546632289,-0.012865217194147406
1772457350994683000,7.926682861328125,0.10593874728679656,0.07744710455685853,-0.049571219105087216
1772457351004751600,7.936751708984375,0.08050386177897453,0.0850491039931774,-0.046538756074011325
1772457351014819600,7.946819580078125,0.06983984442353249,0.07067132681161165,-0.04555613824483007
1772457351024888800,7.956888916015625,0.08855974246263504,0.041999359078705306,-0.04233476504553109
1772457351034956800,7.966956787109375,0.11728490168750286,0.030469372543692586,-0.05166921429764479
1772457351045023700,7.977023681640625,0.17621756764948368,-0.010590367597341537,-0.0355650151822716
1772457351055092700,7.9870927734375,0.22063421700298785,-0.038813130258023736,-0.06722721423972397
1772457351065160700,7.99716064453125,0.15916881769299507,-0.040317689602077,-0.043672662585787475
1772457351075229700,8.007229736328124,0.09482523259818554,-0.00033317747712135315,-0.014192154948972165
1772457351085297700,8.017297607421876,0.018757891961932182,0.03334843511134386,-0.011477781423740088
1772457351095366700,8.02736669921875,-0.04181728051006794,0.06316898835748434,0.00976670318953693
1772457351105435600,8.037435546875,-0.07525017903447151,0.09170096309781074,-0.007113448734395206
1772457351115503900,8.04750390625,-0.1253618251591921,0.09097527917176484,-0.031709727993607516
1772457351125572600,8.057572509765626,-0.14001578893363475,0.09750877259373664,-0.024969350355304776
1772457351135640600,8.067640625,-0.06374035850465297,0.08342939383685588,-0.006551321339607239
1772457351145709800,8.077709716796875,0.0527899254232645,0.07523790407478809,0.022408048499934375
1772457351155777800,8.08777783203125,0.17881401388347148,0.06951134312152862,0.05342321835812181
1772457351165846500,8.097846435546876,0.2312584868699312,0.07409253343194723,0.0822866170099005
1772457351175915800,8.107915771484375,0.19621698410511015,0.08493599900752305,0.08550707689374684
1772457351185983700,8.117983642578125,0.1527875922232866,0.09762889184206723,0.049044016893208024
1772457351196052700,8.128052734375,0.11222937186360359,0.06917378173023461,-0.0007301409054547548
1772457351206120700,8.13812060546875,0.09047989687025547,0.06069003102332353,-0.005713445743359625
1772457351216189700,8.148189697265625,0.12963175756335257,0.05635580121129751,0.005663030730374157
1772457351226258000,8.1582578125,0.18665771312117577,0.022686463582515717,0.019261932493932543
1772457351236326700,8.16832666015625,0.17019640766382216,-0.015759294667840002,0.01967486067637801
1772457351246394600,8.17839453125,0.09432838899195194,0.0030830607071518894,-0.008959734188206493
1772457351256464000,8.1884638671875,0.005716624081134796,0.02260083112567663,-0.03495433593802154
1772457351266532600,8.19853271484375,-0.07042962701022625,0.0002209492743015289,-0.05567289698105305
1772457351276600600,8.2086005859375,-0.051772857335209845,-0.005136486105620861,-0.07752495556604116
1772457351286669800,8.218669921875,-0.008998714491724968,-0.028918343709409235,-0.05995375263802707
1772457351296737800,8.22873779296875,0.009609539866447449,-0.04330605776309967,-0.03629625206626951
1772457351306806800,8.238806884765625,0.046691608548164364,-0.0195762226074934,-0.04328578216005116
1772457351316874800,8.248874755859376,0.03399520858228206,0.024206220495700835,0.02567450294997543
1772457351326943700,8.25894384765625,0.017567220872640607,0.01868424220383167,0.043056649579294025
1772457351337012700,8.2690126953125,-0.015451251631975173,0.04106412405520677,0.05123805633876472
1772457351347080700,8.279080810546875,0.02589256614744663,0.06527472846508026,0.047173692976683376
1772457351357149700,8.289149658203126,0.053557402664422986,0.06378624347299337,0.029575748172216115
1772457351367217700,8.2992177734375,0.07596212669610977,0.05947656358033418,-0.0024351181924343107
1772457351377286700,8.30928662109375,0.0751151544779539,0.07061462818831205,-0.010902794547379016
1772457351387354600,8.319354736328124,0.10071545968055724,0.07665653870105743,0.0011222454955801366
1772457351397423900,8.329423828125,0.14811492423713207,0.07505290289670229,0.03355089888088405
1772457351407491600,8.33949169921875,0.12008943771421908,0.10236264236569403,0.05600881440453231
1772457351417560600,8.349560546875,0.11329670883417128,0.09529518819749355,0.04646236636955291
1772457351427629800,8.3596298828125,0.1440606804102659,0.07276829909086227,0.03591770107746124
1772457351437697500,8.369697509765626,0.13189794892966747,0.058408934348821634,0.004938625445961952
1772457351447766800,8.379766845703125,0.1590542514026165,0.06565116056203842,0.004322977765649557
1772457351457834800,8.389834716796875,0.17651976546645162,0.021796529005467892,0.01301105540562421
1772457351467903500,8.399903564453124,0.15491700546741485,0.015163959123194216,-0.013098806754313408
1772457351477971700,8.4099716796875,0.08766483944952487,0.031737785044312475,0.0013613149484619498
1772457351488040700,8.420040771484375,0.04050561338961124,0.02433715339899063,0.003435015949979424
1772457351498109700,8.430109619140625,-0.022940146082639692,0.02341828498840332,-0.033891784740425646
1772457351508177700,8.440177734375,-0.011936521509289741,0.03177431766241789,-0.03958309171721339
1772457351518246700,8.45024658203125,0.006971008056402206,0.008045943811535835,-0.03378302713632583
1772457351528314600,8.460314697265625,-0.04992752172946929,0.0035720132678747174,-0.04762936432231217
1772457351538383600,8.470383544921875,-0.032277298748493194,0.03358750456422567,-0.049116935998946426
1772457351548451600,8.48045166015625,0.06912789676189422,0.02224748764336109,-0.019941950647346673
1772457351558520800,8.490520751953126,0.14045944104790686,0.017584464268386363,0.03467350970264524
1772457351568588800,8.5005888671875,0.1318529407441616,0.05783814872354269,0.04935326550547033
1772457351578657500,8.510657470703125,0.06067337214946746,0.08643120600134134,0.03801905727088451
1772457351588726800,8.520726806640624,0.05171031349301338,0.09426116897463797,0.025049101060628888
1772457351598794800,8.530794677734375,0.062391866505146026,0.08095715850442647,0.027415939789824186
1772457351608863500,8.540863525390625,0.027390695750713345,0.08943594077527522,0.021676884681172667
1772457351618931700,8.550931640625,0.05960778874456882,0.08547668175548315,0.022635829373821616
1772457351629000700,8.561000732421874,0.09774258134961128,0.05599836607575416,0.0448677541218698
1772457351639068700,8.571068603515625,0.1476741947323084,0.04811988778561353,0.0414902770454064
1772457351649137700,8.5811376953125,0.1585094770014286,0.031087212181091308,0.0440137676410377
1772457351659206700,8.59120654296875,0.10519874257445334,0.027905659535527226,0.003964811977744102
1772457351669275000,8.60127490234375,0.08308511044383049,0.04271364482790231,-0.03258000802211463
1772457351679343600,8.611343505859375,0.10515139630138873,0.032817981496453284,-0.020334530161507425
1772457351689411600,8.62141162109375,0.12572130612134932,0.0032116555228829382,-0.004643003500252962
1772457351699480800,8.631480712890625,0.111400519824028,0.004110357928276062,-0.009132460406608879
1772457351709548800,8.641548828125,0.09225450532734393,0.0022904490247368813,-0.03351506038252264
1772457351719617500,8.651617431640625,0.06641688423752784,0.00031681086421012875,-0.04761763735190034
1772457351729685800,8.661685791015625,0.05781447558701038,-0.003802607153356075,-0.06000555589050054
1772457351739754800,8.671754638671874,0.008016717717051506,0.022482173182070252,-0.05807418596912175
1772457351749823700,8.68182373046875,-0.04625964687168598,0.03785919053405523,-0.05801854679174721
1772457351759891000,8.691890869140625,-0.014495558342337608,0.03170066790431738,-0.05862992015574127
1772457351769960200,8.701960205078125,0.04890636198818683,0.021652152098715304,-0.06300049992278219
1772457351780028200,8.712028076171874,0.04526186800599098,0.0049731122374534606,-0.05769837492667138
1772457351790097000,8.722096923828126,0.031090719312429425,0.012476327474415301,-0.04264887249600142
1772457351800165000,8.7321650390625,0.036139234873652455,0.06128273621946573,-0.0277636937815696
1772457351810234000,8.742234130859375,0.08843231669068335,0.06289075593799352,0.024457820636592804
1772457351820302800,8.752302734375,0.11815233217179774,0.06237199276089668,0.06313380744624883
1772457351830371000,8.76237109375,0.18843875131905077,0.05193681572526693,0.07942669753413648
1772457351840440000,8.772440185546875,0.17407880205512047,0.03680295947939157,0.04717310845479369
1772457351850508000,8.782508056640625,0.1641810928970575,0.021895313204824924,0.03401877212096006
1772457351860577000,8.792576904296874,0.1968938604533672,0.027091420543193814,0.024636647802218792
1772457351870645000,8.80264501953125,0.11499649848937987,-0.00957242272645235,0.05761186568699777
1772457351880714200,8.81271435546875,0.0665448945313692,0.00999590883553028,0.05154054641667753
1772457351890782200,8.8227822265625,0.04319967477917671,0.03451338723748922,0.0023069983007386326
1772457351900851000,8.832850830078126,-0.07079962936639786,0.04992810625135898,-0.03732910224534571
1772457351910920200,8.842920166015626,-0.1041033485531807,0.0685235011279583,-0.060249886040389534
1772457351920988200,8.85298828125,-0.06857493905425072,0.06583177782595158,-0.04987937173880636
1772457351931057000,8.863056884765625,-0.02577098559439182,0.08201660442948341,-0.007930354607850312
1772457351941125000,8.873125,0.058117257925868034,0.07984452108740805,0.05052990806940943
1772457351951194000,8.883194091796875,0.09619710547327995,0.07681143700182437,0.0999819577742368
1772457351961262000,8.893261962890625,0.07059738479256629,0.08288549621850251,0.10587039475832134
1772457351971331000,8.9033310546875,0.031057986086606978,0.11355974368453026,0.08252411556020378
1772457351981400000,8.913400146484374,0.03468728249967098,0.09817980372309684,0.03929631066508591
1772457351991468000,8.923468017578125,0.10675824697613716,0.06434563092142342,0.04652257212419063
1772457352001537000,8.933537109375,0.1347241122663021,0.04884001875370741,0.062089559090323744
1772457352011605000,8.94360498046875,0.14329671030044555,0.053205520486831664,0.050539808408916
1772457352021674200,8.95367431640625,0.08869768962860107,0.04606617012619972,0.02147179056312889
1772457352031742200,8.9637421875,-0.003212532305717468,0.04211684797853231,-0.023127412283048033
1772457352041811000,8.97381103515625,-0.05626549257934093,0.05489186613857746,-0.052815279060229654
1772457352051879200,8.983879150390624,-0.00430734180510044,0.01902501846551895,-0.04960837277770042
1772457352061948200,8.9939482421875,0.07709668368399143,0.003948153103888035,-0.018602299541421233
1772457352072017000,9.004016845703125,0.14900748916268347,-0.008758183734118938,0.020788228745758534
1772457352082085000,9.014085205078125,0.16060674154162405,-0.01851794572621584,0.03139898154400289
1772457352092154000,9.024154052734374,0.11952595861256123,-0.0018535189121961593,0.0029240707531571386
1772457352102222000,9.03422216796875,0.08121814752817154,-0.0020893734946846963,-0.017739399101771414
1772457352112291000,9.044291015625,0.045209261035919185,0.007839899845421314,-0.02742171194348484
1772457352122359000,9.054359130859375,0.047938393738865846,0.03810235164016485,-0.045110440303944045
1772457352132428300,9.06442822265625,0.07362345461547375,0.008489888186752797,-0.030695728645473718
1772457352142497000,9.0744970703125,0.10473989289104937,0.023233283810317515,-0.008614026023074983
1772457352152565000,9.08456494140625,0.10619009169936179,0.04629004200994968,0.0011021890882402657
1772457352162634200,9.09463427734375,0.11666472396254539,0.07512304552346467,0.052318471986614164
1772457352172702000,9.104701904296874,0.11661387055814265,0.07631167078614234,0.02662584885805845
1772457352182771000,9.11477099609375,0.0747492437750101,0.07189297756105661,0.004472980695590377
1772457352192839200,9.124839111328125,0.0659960284769535,0.09065583795905113,-0.014944361555762588
1772457352202908200,9.134908203125,0.08504384329617024,0.07256985390931367,-0.01429251005090773
1772457352212975900,9.144975830078126,0.10996961023807525,0.054824061599373815,-0.025584267383255064
1772457352223045000,9.155045166015626,0.1463181039482355,0.06410480790287255,-0.004375511670485138
1772457352233114000,9.165114013671875,0.19700491961240768,0.06396101551800966,0.05055544436946511
1772457352243182000,9.17518212890625,0.23524843328893183,0.055582478751242156,0.06580098082888872
1772457352253251000,9.1852509765625,0.19929215376675127,0.049209436587989326,0.0442702996853739
1772457352263319000,9.195319091796875,0.07470891176462173,0.041486441120505334,-0.029696232746727762
1772457352273388000,9.205387939453125,0.001903203272819519,0.04975479551106691,-0.09844229058418423
1772457352283456000,9.2154560546875,-0.021581132689118383,0.016151508855819702,-0.12568842676505446
1772457352293525000,9.22552490234375,-0.05658873318433761,0.027125030551850796,-0.09505458437465131
1772457352303593200,9.23559326171875,-0.07684884640276432,0.03515957618653774,-0.09388875546567141
1772457352313662000,9.245661865234375,-0.010374679020047187,0.0221010649099946,-0.07754526770170778
1772457352323731200,9.255731201171875,0.025113398468494415,0.0015004676908254623,-0.03750208419207483
1772457352333799200,9.265799072265626,0.06435118387937545,0.01677285562455654,0.009583455577120184
1772457352343868000,9.275867919921875,0.054176411345601076,0.0432002593010664,0.0220139711484313
1772457352353936000,9.285935791015625,0.014324293428659438,0.06949146937727928,0.029397724724188445
1772457352364005000,9.296005126953125,0.05629705676138401,0.07710048307627439,0.019292802556231618
1772457352374073000,9.306072998046876,0.08981646452546119,0.05874912608861923,0.013142938156984746
1772457352384142000,9.31614208984375,0.10490297449827193,0.07298632575571537,0.013437610254622995
1772457352394211000,9.326211181640625,0.1491162102341652,0.056011810079216955,0.02689480199255049
1772457352404279000,9.336279052734374,0.2161883435100317,0.04341594787836075,0.046794338270276785
1772457352414348000,9.34634814453125,0.24402795207202432,0.0635197014912963,0.08988543810844421
1772457352424416000,9.356416015625,0.21670389181673524,0.06094751291573047,0.07800342326536774
1772457352434485000,9.366485107421875,0.20385785424709318,0.05845891097038984,0.027236893428489565
1772457352444553200,9.37655322265625,0.16785656653940675,0.04330839585065841,0.004213197248242795
1772457352454622000,9.3866220703125,0.12358955478966235,0.031823125240206716,-0.004446823341026902
1772457352464690000,9.39668994140625,0.11398176848888397,0.029736966615915298,-0.033900990960188206
1772457352474759200,9.40675927734375,0.08865794214010238,-0.005091477920114993,-0.03908489640410989
1772457352484828000,9.416827880859374,0.05996259353160858,-0.00803045398145914,-0.05030110428221524
1772457352494896000,9.426896240234376,0.011510989573597908,0.014265841239690779,-0.05098868468757718
1772457352504965000,9.436965087890625,-0.04919453127980232,0.05116553909182548,-0.03643807168975472
1772457352515033000,9.447033203125,-0.08589432264566421,0.0638654461890459,0.0018838775178417562
1772457352525102000,9.45710205078125,-0.03129471745193004,0.0740153765425086,0.0399591950206086
1772457352535170000,9.467170166015626,0.04238835839629173,0.04179857580959797,0.05339830311257392
1772457352545239000,9.477239013671875,0.12129939802587032,0.03970744874924421,0.05085048179328441
1772457352555308000,9.48730810546875,0.14764029246270655,0.03277501913756132,0.04481503755394369
1772457352565376000,9.4973759765625,0.13123802371621132,0.03141775930970907,0.0022767127603292464
1772457352575445200,9.5074453125,0.08981061930656432,0.03391425230056047,-0.028271460640616714
1772457352585513200,9.51751318359375,0.024308511826395988,0.07031710654646157,-0.05723506826385855
1772457352595582000,9.52758203125,0.09594517653882503,0.06759148097485304,-0.020115590181201695
1772457352605650200,9.537650146484374,0.17789982164800167,0.01795271305888891,0.018034838384389875
1772457352615719200,9.54771923828125,0.1847521717607975,0.02743278132677078,0.022153416151739654
1772457352625787100,9.557787109375,0.15422317798435686,0.04546060544848442,0.0323779095787555
1772457352635856100,9.567856201171875,0.1232306583493948,0.03485679384768009,0.016384696557186544
1772457352645925000,9.577925048828124,0.09036299249231815,0.03869242648780346,-0.00013509762175381183
1772457352655993000,9.5879931640625,0.04189794453084469,0.021740414904057977,-0.053295317662134765
1772457352666062000,9.59806201171875,0.005723638343811035,0.020298983924090862,-0.0732248472193256
1772457352676130000,9.608130126953125,-0.003599485796689987,0.03618862697333097,-0.0628953225152567
1772457352686199300,9.61819921875,0.05683247881233692,0.008308101879060267,-0.04539217985477298
1772457352696267000,9.62826708984375,0.11042378374636172,-0.004855331076681613,-0.017498539550602436
1772457352706336000,9.6383359375,0.07629296608567238,-0.015731237617135047,-0.06420490727648138
1772457352716405200,9.6484052734375,0.042649055159091946,-0.00265256033539772,-0.07987827722653747
1772457352726473200,9.65847314453125,0.09507131631374359,-0.003039806087315082,-0.0704340839896351
1772457352736542000,9.6685419921875,0.15112170483767987,-0.019474223537743092,-0.011995704350620508
1772457352746610200,9.678610107421875,0.12885317440629004,0.018225684781372545,0.02204867713563144
1772457352756679200,9.68867919921875,0.05742518400847912,0.039619770465791224,0.03672587565518915
1772457352766747000,9.698746826171876,0.07114099014997483,0.07954290779232978,0.038042986135743556
1772457352776816000,9.708816162109375,0.11167056893706322,0.05874123504310846,0.0554969924248755
1772457352786884000,9.718884033203125,0.10646832411885261,0.04719517415612936,0.07663918570745736
1772457352796953000,9.728953125,0.07620762588977813,0.06329670639038086,0.04994925863724202
1772457352807022000,9.73902197265625,0.04212123189270496,0.06101882458627224,0.016459661489538847
1772457352817090000,9.749090087890625,-0.035030396848917005,0.0699067721799016,-0.02252886186800897
1772457352827159000,9.759158935546875,-0.0534521887242794,0.058332361981272694,-0.022170696080103514
1772457352837227000,9.76922705078125,-0.023052958807349203,0.03245207079350948,-0.018858173998631537
1772457352847296000,9.7792958984375,0.019048399341106415,0.016679332122206687,-0.002487798227742314
1772457352857364200,9.7893642578125,0.06969488299489021,-0.014637012639641761,0.014395751229673624
1772457352867433000,9.799432861328125,0.08043021202087401,-0.014029402135312556,-0.004188501198403537
1772457352877501000,9.8095009765625,0.100825934317708,-0.0007765373304486274,0.0071212301820516586
1772457352887570200,9.819570068359376,0.10157412233650684,-0.0034895956814289092,0.0000969941010698676
1772457352897639000,9.829638916015625,0.08461246614158154,-0.00293751475661993,-0.020792356931604444
1772457352907707100,9.83970703125,0.0690460636973381,0.0007312368839979171,-0.02879044301342219
1772457352917776100,9.849776123046874,0.05140577758848667,0.03320551950931549,-0.02706438640579581
1772457352927844000,9.859843994140626,0.06141746851503849,0.022472528570890424,-0.0341182869726792
1772457352937913000,9.8699130859375,0.03172200295329094,0.06086071141511201,-0.02537519120983779
1772457352947981000,9.87998095703125,0.06815525233745574,0.07145575518757104,-0.005907287815026939
1772457352958050000,9.890050048828124,0.1502484291344881,0.05324672928005457,-0.0028473522551357745
1772457352968119000,9.900119140625,0.19301789580285547,0.04036532813608646,0.006486110616289079
1772457352978187000,9.91018701171875,0.16415011323690412,0.06241641642451286,0.030498708236031232
1772457352988256300,9.92025634765625,0.07997603851258754,0.06350391940027475,0.0002882788894698024
1772457352998324200,9.93032421875,0.017949498188495634,0.07563976287394762,-0.02480809537898749
1772457353008393000,9.94039306640625,0.07107903082966804,0.06957476374655962,-0.02908675907887518
1772457353018461200,9.950461181640625,0.10723346327245235,0.043381168825924396,-0.006636113546229899
1772457353028530200,9.9605302734375,0.1475292333036661,0.04054974479228258,0.02134779885727912
1772457353038598100,9.97059814453125,0.12944178794920444,0.04483049085140228,0.03263959272224456
1772457353048667100,9.980667236328125,0.1179278757661581,0.06566255873888731,0.030782457080855963
1772457353058736000,9.990736083984375,0.055306292158365244,0.06720131261348725,0.021872662981599567
1772457353068804000,10.00080419921875,-0.012844284003973007,0.07127747601121663,-0.027573285776004194
1772457353078873000,10.010873046875,-0.000024549919366836548,0.06772913587987422,-0.02123188086003065
1772457353088941000,10.020941162109375,-0.02968494416773319,0.0639984249189496,-0.0453598850203678
1772457353099010300,10.03101025390625,-0.012080898416042327,0.060685647109150885,-0.04630041727349162
1772457353109078300,10.041078369140624,0.051827217870950695,0.0512432805031538,-0.02543086691983044
1772457353119147000,10.05114697265625,0.07805179245173931,0.05826046578884125,0.001023388230986893
1772457353129216300,10.06121630859375,0.06208966868817806,0.06509644928872585,-0.00010360650494694709
1772457353139284200,10.0712841796875,0.05913140340447425,0.06727233202308416,0.008902816369198261
1772457353149353000,10.08135302734375,0.05449439125359058,0.08250906412154435,0.0018688626118004321
1772457353159421200,10.091421142578126,0.059790744096040724,0.06613426790386438,-0.03305127879567444
1772457353169490200,10.101490234375,0.1052490114569664,0.042760698840022086,-0.010184344079717992
1772457353179558100,10.11155810546875,0.16469371859431267,0.04295037619322538,0.005801014428958296
1772457353189627100,10.121627197265624,0.16607435929775238,0.030977322065830228,0.007127294596657156
1772457353199695000,10.131695068359376,0.11894143672287463,0.007854512892663479,-0.03480575778018683
1772457353209764000,10.14176416015625,0.08414601767361164,0.018107319098711012,-0.06825432879775763
1772457353219833000,10.1518330078125,0.12632044105827808,0.013469137904047966,-0.060620582516305144
1772457353229901000,10.161901123046874,0.15072598351836203,-0.005800502972304821,-0.022217055972479284
1772457353239970300,10.17197021484375,0.11732348013222217,0.012054887191951275,-0.00890131853185594
1772457353250038300,10.182038330078125,0.11179916375279426,0.03201630972474813,-0.000810585730522871
1772457353260107000,10.19210693359375,0.08518179046213627,0.03561813360899686,-0.005185987803153693
1772457353270175200,10.20217529296875,0.02260346147418022,0.04299187724739313,-0.010338000271469354
1772457353280244200,10.212244140625,-0.0037321722656488416,0.0323509485065937,-0.035849202418513595
1772457353290312000,10.22231201171875,0.03315115897357464,0.03316314167231321,-0.03029109336733818
1772457353300381200,10.232381103515625,0.11062719736397265,0.034140170010924335,0.012427191103063524
1772457353310450200,10.2424501953125,0.11347089635729789,0.01777940231859684,0.034157961395941676
1772457353320518100,10.25251806640625,0.03531564353108406,0.039487668518722055,0.003389898166619241
1772457353330587100,10.262587158203125,-0.036651276049017904,0.06560264524519444,-0.019076967848464847
1772457353340655000,10.272655029296875,-0.025009938094019888,0.07468027019202708,-0.034956527895107864
1772457353350724000,10.28272412109375,0.044080549266934395,0.05006546889543533,-0.011089037834480404
1772457353360792000,10.2927919921875,0.12936755366921424,0.015139701464772224,0.024921456092968582
1772457353370861000,10.302861083984375,0.17955051146447656,-0.0002475450202822685,0.034797063017077745
1772457353380930300,10.312930419921875,0.20074059900939464,0.0018868366599082945,0.025210282971709966
1772457353390998000,10.322998046875,0.21456337265670297,0.007321721190214157,0.03303633695486933
1772457353401067000,10.33306689453125,0.2313420735001564,0.015022504825890064,0.058798883514478796
1772457353411135200,10.34313525390625,0.166220489770174,0.03905132292807102,0.08914788108151406
1772457353421204000,10.353203857421875,0.10652210013270377,0.0840080705076456,0.08509487936366349
1772457353431272000,10.36327197265625,0.038569092369079586,0.0835246709048748,0.043696920244209465
1772457353441341200,10.373341064453125,-0.06892156053483486,0.08725596638768911,0.024775362153165042
1772457353451409200,10.3834091796875,-0.05727671544849872,0.09570289221554994,0.00896747910324484
1772457353461478000,10.393477783203124,0.0015180033475160597,0.09149988756775855,-0.0033137641904875635
1772457353471547100,10.403547119140624,0.03387655063867569,0.06562368803322315,0.004076126865111291
1772457353481615000,10.413614990234375,0.08734569049775599,0.054011868433654305,0.008868658371269702
1772457353491684000,10.42368408203125,0.06833060890436173,0.05273147323429584,-0.003486234680563211
1772457353501752000,10.433751953125,0.009572130465507507,0.06443155563920736,-0.006670308076776564
1772457353511821000,10.443821044921876,-0.004142506632208824,0.07421002233177423,-0.025559169474616644
1772457353521889300,10.45388916015625,0.03677870182096958,0.035003508841991424,-0.02280099334027618
1772457353531958000,10.4639580078125,0.06594283698499202,0.019468378318846225,-0.008870813795737922
1772457353542026000,10.47402587890625,0.13518237742781639,0.00013707038313150405,0.00019197890814393758
1772457353552095200,10.48409521484375,0.1741717410355806,-0.028053543573617935,0.019085553013719617
1772457353562164000,10.4941640625,0.12227671862542629,-0.01656418130993843,0.00505878122691065
1772457353572232000,10.50423193359375,0.057195466905832285,0.0118032505184412,-0.008596965290419758
1772457353582301200,10.51430126953125,0.0005190554380416869,0.012065116325020789,-0.03447849858719855
1772457353592369200,10.524369140625,-0.03318038506805897,0.0005532499685883521,-0.03823321147821843
1772457353602438100,10.534438232421875,0.006937690308690071,-0.0189618901014328,-0.06028013504818081
1772457353612506000,10.544506103515625,0.04857201546728611,-0.03154021664559841,-0.0794018553538248
1772457353622575000,10.5545751953125,0.1218272212922573,-0.02364040330648422,-0.028756394613347946
1772457353632644000,10.56464404296875,0.17689444399774074,-0.026114099943637847,0.022452252967841924
1772457353642712000,10.574712158203125,0.12700433166921138,-0.01625643053501844,-0.002722556831687689
1772457353652781000,10.584781005859375,0.0758779555439949,0.03272124312371015,0.007703633179888128
1772457353662849300,10.594849365234374,0.06446458112597465,0.05591507170647382,-0.009352715561166404
1772457353672918000,10.60491796875,0.054337154865264886,0.049346799232065676,0.019426110079698262
1772457353682986000,10.614986083984375,0.0640881490290165,0.08523615099787711,0.029000761295855045
1772457353693055200,10.62505517578125,0.059006900241971014,0.07391688460409641,0.04531980873830616
1772457353703123200,10.635123291015624,0.03068096946775913,0.0909533596009016,0.0326121932586655
1772457353713192200,10.645192138671876,0.028085107755661008,0.10972381878346205,0.04268635496217757
1772457353723261200,10.65526123046875,0.06326631125211715,0.11374416034072637,0.031000264550000427
1772457353733329200,10.6653291015625,0.05920096150934696,0.11935206335037946,0.04918170833084732
1772457353743398100,10.675398193359374,0.0855026929795742,0.08358195405006408,0.04761555499266833
1772457353753466600,10.685466552734376,0.09168342744112014,0.08623977508246898,0.044711905973032116
1772457353763535600,10.69553564453125,0.05936988833546638,0.05832271737009286,0.01008285646662116
1772457353773603600,10.705603515625,0.04776654430329799,0.051721711669862266,0.03233721224218607
1772457353783672600,10.715672607421874,0.08174655531644821,0.051123453515768046,0.022387882494740188
1772457353793740500,10.725740478515625,0.08307751165926457,0.034033494766056535,0.019126323415525257
1772457353803809500,10.7358095703125,0.10101064323484897,0.03745587043017149,0.006818155582249164
1772457353813878500,10.74587841796875,0.09924714069366454,0.014775252066552638,0.035181934148818254
1772457353823946500,10.755946533203126,0.0833767868667841,0.015576923838257789,0.01669770802911371
1772457353834015500,10.766015380859375,0.03599018179178238,0.03466857779920101,-0.014691153979673981
1772457353844083500,10.77608349609375,0.023645079481601713,0.034003099627792834,-0.037408049233071505
1772457353854152700,10.786152587890625,0.052629766425490374,0.013391104231774807,-0.05721318522561341
1772457353864220700,10.796220703125,0.09173486536741256,-0.0014826397731900213,-0.06823087485693395
1772457353874289400,10.806289306640625,0.12017770051956177,0.0028723405659198758,-0.06010930852591991
1772457353884358700,10.816358642578125,0.10609013845622539,-0.006133095927536488,-0.0679713471379131
1772457353894426600,10.826426513671874,0.040897243055701256,0.016389993786811826,-0.06589505232051014
1772457353904495400,10.836495361328126,0.005161912807822227,0.043133623805642125,-0.07448430922850965
1772457353914563600,10.8465634765625,0.05899345623850822,0.042677404470741746,-0.05300375083703547
1772457353924632600,10.856632568359375,0.1135837090820074,0.029138708461821077,-0.010019180113263427
1772457353934700500,10.866700439453124,0.1396820269346237,0.032658114759624005,-0.006372859500162303
1772457353944769500,10.87676953125,0.1708528257459402,0.08379442775696516,0.016795615445636212
1772457353954837500,10.88683740234375,0.17039397606253623,0.0759475136488676,0.03592135433927178
1772457353964906500,10.896906494140625,0.12016659460365771,0.044997664111852645,0.0006076470369473099
1772457353974975500,10.9069755859375,0.11460662238895893,0.06285188523232936,0.01075626221615821
1772457353985043500,10.91704345703125,0.10981705002486705,0.059812371405959124,0.005260039420053363
1772457353995112700,10.92711279296875,0.15730360834300516,0.0362070394128561,-0.01676912929750979
1772457354005180700,10.9371806640625,0.14351473696529865,0.018740356305241585,0.01313040746897459
1772457354015249400,10.94724951171875,0.14536299518048762,0.011270458815991877,0.022378639742359516
1772457354025317600,10.957317626953126,0.08559913909137248,0.010369418323040008,0.0032249168632552025
1772457354035386600,10.96738671875,0.023227146330475807,0.04952566293030977,-0.004677344161272049
1772457354045454600,10.97745458984375,0.011954641687870025,0.06761193924099207,0.004747632918506861
1772457354055523600,10.987523681640624,0.035945758128166194,0.090417353028059,0.09700604723598807
1772457354065592600,10.997592529296876,-0.06133329736292362,0.06865735664069653,0.05389912877418101
1772457354075660500,11.00766064453125,-0.1469061329692602,0.071043667255342,-0.02981996872425079
1772457354085729500,11.0177294921875,-0.0332920287489891,0.05540741444528102,-0.08945435321480036
1772457354095797500,11.027797607421874,0.02124795521199703,0.014729074837267398,-0.04161401302292943
1772457354105866800,11.03786669921875,-0.0328127207994461,0.029021219561994074,-0.030406353777460753
1772457354115934700,11.047934814453125,-0.014481529816985129,0.043107028059661386,-0.07005038190167397
1772457354126003500,11.05800341796875,0.025450083076953886,0.05662555806338787,-0.07490932970754802
1772457354136071700,11.06807177734375,0.09769289698898792,0.047863282676041126,-0.0013156857084482907
1772457354146140700,11.078140625,0.23058102599978444,0.029661563292145726,0.06520527995806187
1772457354156209400,11.08820947265625,0.29166297895014287,0.01725128679126501,0.0778836693432182
1772457354166277600,11.098277587890625,0.24193302561938762,0.05793664066195488,0.019740327128022907
1772457354176346600,11.1083466796875,0.262094939160347,0.052309156168997284,-0.018795995482616127
1772457354186414600,11.11841455078125,0.26049218013882636,0.026808804209530353,0.03181801067367196
1772457354196483600,11.128483642578125,0.25403145969212054,0.039946225941181183,0.10143979189973323
1772457354206551600,11.138551513671874,0.23652912074923513,0.061788347654044624,0.0964046472767368
1772457354216620800,11.148620849609374,0.19570728101730345,0.056278352060914034,0.06266260973792523
1772457354226688500,11.1586884765625,0.051017070531845087,0.05885200194120407,-0.006881174348480999
1772457354236757500,11.168757568359375,-0.05847907697558403,0.07864128277748823,-0.09734558138865977
1772457354246826800,11.17882666015625,-0.1381792211562395,0.04830371991991996,-0.15920374287590383
1772457354256894500,11.18889453125,-0.10548574282228947,0.00879383956938982,-0.1984936968654394
1772457354266963500,11.19896337890625,-0.11732932535111903,-0.016356676039099693,-0.19011399105489252
1772457354277031700,11.20903173828125,-0.12015665773153304,0.018231237739324568,-0.16125757013317196
1772457354287100700,11.2191005859375,-0.07627192329764365,0.056093935404717916,-0.06611457682270556
