time,seconds_elapsed,z,y,x
1772457343126094300,0.05809423828125,-0.940277099609375,-0.3599700927734375,0.0150909423828125
1772457343136162300,0.068162353515625,-0.93585205078125,-0.35888671875,0.016357421875
1772457343146231300,0.078231201171875,-0.9303741455078125,-0.3607635498046875,0.023162841796875
1772457343156299300,0.08829931640625,-0.92547607421875,-0.359130859375,0.025360107421875
1772457343166368300,0.0983681640625,-0.9268951416015625,-0.3606109619140625,0.025482177734375
1772457343176436200,0.108436279296875,-0.939727783203125,-0.3581695556640625,0.0195770263671875
1772457343186505200,0.118505126953125,-0.9480133056640625,-0.355224609375,0.0107879638671875
1772457343196574200,0.12857421875,-0.9464569091796875,-0.3573760986328125,0.0092926025390625
1772457343206642200,0.13864208984375,-0.9393768310546875,-0.359344482421875,0.0139617919921875
1772457343216711200,0.148711181640625,-0.9290618896484375,-0.3585968017578125,0.01593017578125
1772457343226779100,0.158779052734375,-0.9195098876953125,-0.3581695556640625,0.017730712890625
1772457343236848400,0.168848388671875,-0.926055908203125,-0.3581695556640625,0.0184478759765625
1772457343246916400,0.178916259765625,-0.9331817626953125,-0.3558502197265625,0.011474609375
1772457343256985000,0.188985107421875,-0.9306640625,-0.35443115234375,0.0097808837890625
1772457343267054300,0.199054443359375,-0.9224090576171875,-0.3571624755859375,0.00994873046875
1772457343277122300,0.209122314453125,-0.90869140625,-0.360595703125,0.0129852294921875
1772457343287191000,0.21919091796875,-0.897979736328125,-0.361907958984375,0.01470947265625
1772457343297259300,0.22925927734375,-0.89886474609375,-0.362548828125,0.0132598876953125
1772457343307328300,0.239328369140625,-0.9131927490234375,-0.3609771728515625,0.004302978515625
1772457343317397200,0.249397216796875,-0.92498779296875,-0.355194091796875,0.000091552734375
1772457343327465200,0.25946533203125,-0.9241943359375,-0.355194091796875,0.003509521484375
1772457343337534200,0.2695341796875,-0.9173431396484375,-0.356658935546875,0.0120697021484375
1772457343347602200,0.279602294921875,-0.9088287353515625,-0.358673095703125,0.017791748046875
1772457343357671200,0.289671142578125,-0.9097442626953125,-0.358154296875,0.0187530517578125
1772457343367739100,0.2997392578125,-0.9169158935546875,-0.35748291015625,0.0167999267578125
1772457343377808400,0.309808349609375,-0.9213104248046875,-0.35546875,0.0151824951171875
1772457343387877000,0.319877197265625,-0.9173583984375,-0.353759765625,0.0173492431640625
1772457343397945000,0.329945068359375,-0.9122772216796875,-0.3534698486328125,0.02520751953125
1772457343408014300,0.340014404296875,-0.9120635986328125,-0.351837158203125,0.0283203125
1772457343418082300,0.350082275390625,-0.9198150634765625,-0.350830078125,0.028411865234375
1772457343428151000,0.360151123046875,-0.9311676025390625,-0.3471221923828125,0.0203857421875
1772457343438220300,0.37022021484375,-0.940399169921875,-0.3460235595703125,0.0143585205078125
1772457343448288300,0.380288330078125,-0.9476470947265625,-0.34619140625,0.008758544921875
1772457343458357200,0.390357177734375,-0.9515533447265625,-0.3462982177734375,0.004058837890625
1772457343468425200,0.40042529296875,-0.9525604248046875,-0.34625244140625,0.0016021728515625
1772457343478494200,0.410494140625,-0.9507598876953125,-0.3486480712890625,0.0015411376953125
1772457343488562400,0.4205625,-0.945526123046875,-0.3509674072265625,0.00653076171875
1772457343498631200,0.430631103515625,-0.9457244873046875,-0.3484954833984375,0.0142059326171875
1772457343508700200,0.4407001953125,-0.9454803466796875,-0.347259521484375,0.0198211669921875
1772457343518768400,0.450768310546875,-0.937774658203125,-0.34661865234375,0.023223876953125
1772457343528837000,0.460837158203125,-0.929901123046875,-0.3466033935546875,0.02490234375
1772457343538905000,0.470905029296875,-0.9257659912109375,-0.3476715087890625,0.02728271484375
1772457343548974300,0.480974365234375,-0.93292236328125,-0.3480224609375,0.0228729248046875
1772457343559042300,0.491042236328125,-0.9367828369140625,-0.3469085693359375,0.0194244384765625
1772457343569111300,0.501111328125,-0.9361419677734375,-0.3481903076171875,0.0136260986328125
1772457343579180300,0.51118017578125,-0.93359375,-0.35052490234375,0.0133056640625
1772457343589248300,0.521248291015625,-0.931121826171875,-0.3531646728515625,0.0123138427734375
1772457343599317200,0.531317138671875,-0.933868408203125,-0.3514404296875,0.009429931640625
1772457343609385200,0.54138525390625,-0.93121337890625,-0.3537139892578125,0.010894775390625
1772457343619454200,0.5514541015625,-0.9261627197265625,-0.3533782958984375,0.010284423828125
1772457343629523200,0.561523193359375,-0.9271392822265625,-0.355316162109375,0.0094146728515625
1772457343639591200,0.571591064453125,-0.9266815185546875,-0.352203369140625,0.0136871337890625
1772457343649660400,0.581660400390625,-0.91998291015625,-0.351043701171875,0.0174407958984375
1772457343659728400,0.591728271484375,-0.918182373046875,-0.3510894775390625,0.0222320556640625
1772457343669797000,0.601797119140625,-0.9181060791015625,-0.3479766845703125,0.0214385986328125
1772457343679865000,0.611864990234375,-0.92608642578125,-0.34747314453125,0.01763916015625
1772457343689934300,0.621934326171875,-0.9274444580078125,-0.34881591796875,0.0106658935546875
1772457343700003000,0.632003173828125,-0.9319915771484375,-0.348724365234375,0.0081329345703125
1772457343710071300,0.6420712890625,-0.9273834228515625,-0.3487396240234375,0.0093231201171875
1772457343720140300,0.652140380859375,-0.9174346923828125,-0.35186767578125,0.0137481689453125
1772457343730208300,0.662208251953125,-0.9195709228515625,-0.3529815673828125,0.0182342529296875
1772457343740277200,0.67227734375,-0.9227142333984375,-0.351348876953125,0.02197265625
1772457343750345200,0.68234521484375,-0.921630859375,-0.35198974609375,0.0222625732421875
1772457343760414200,0.692414306640625,-0.919403076171875,-0.3543548583984375,0.022003173828125
1772457343770483200,0.702483154296875,-0.9176177978515625,-0.3560638427734375,0.0205078125
1772457343780551200,0.71255126953125,-0.9142608642578125,-0.3570098876953125,0.0198516845703125
1772457343790620400,0.722620361328125,-0.915069580078125,-0.355621337890625,0.018524169921875
1772457343800688400,0.7326884765625,-0.921417236328125,-0.355010986328125,0.0147857666015625
1772457343810757000,0.742757080078125,-0.927520751953125,-0.352630615234375,0.0130462646484375
1772457343820826400,0.752826416015625,-0.932373046875,-0.3543853759765625,0.01092529296875
1772457343830894300,0.762894287109375,-0.9389190673828125,-0.353607177734375,0.0106658935546875
1772457343840963000,0.772963134765625,-0.94158935546875,-0.3539581298828125,0.0081939697265625
1772457343851031300,0.78303125,-0.948028564453125,-0.3526763916015625,0.0073699951171875
1772457343861100300,0.793100341796875,-0.9486083984375,-0.3532867431640625,0.010040283203125
1772457343871168300,0.803168212890625,-0.938262939453125,-0.3522186279296875,0.0122528076171875
1772457343881237200,0.8132373046875,-0.9303436279296875,-0.354034423828125,0.01434326171875
1772457343891306200,0.82330615234375,-0.9304046630859375,-0.355316162109375,0.012603759765625
1772457343901374500,0.83337451171875,-0.9303741455078125,-0.352325439453125,0.0098419189453125
1772457343911443200,0.843443115234375,-0.9287872314453125,-0.353759765625,0.0112762451171875
1772457343921511200,0.85351123046875,-0.9289703369140625,-0.3550567626953125,0.0117034912109375
1772457343931580400,0.863580322265625,-0.9256744384765625,-0.35699462890625,0.0127410888671875
1772457343941648100,0.873648193359375,-0.9147796630859375,-0.35687255859375,0.0164947509765625
1772457343951717000,0.883717041015625,-0.909332275390625,-0.3550872802734375,0.018096923828125
1772457343961786400,0.893786376953125,-0.9083404541015625,-0.3563232421875,0.0220947265625
1772457343971854300,0.903854248046875,-0.9106903076171875,-0.3532562255859375,0.0243988037109375
1772457343981923300,0.91392333984375,-0.9144744873046875,-0.354766845703125,0.023284912109375
1772457343991991300,0.9239912109375,-0.9206695556640625,-0.3553924560546875,0.0206451416015625
1772457344002060300,0.934060302734375,-0.923858642578125,-0.354827880859375,0.01922607421875
1772457344012128300,0.944128173828125,-0.9293365478515625,-0.35101318359375,0.0177001953125
1772457344022197200,0.954197265625,-0.9304656982421875,-0.3529510498046875,0.01654052734375
1772457344032266200,0.964266357421875,-0.9312591552734375,-0.3552398681640625,0.0117034912109375
1772457344042334200,0.974334228515625,-0.938629150390625,-0.3551025390625,0.0082855224609375
1772457344052403200,0.9844033203125,-0.937957763671875,-0.35772705078125,0.0056304931640625
1772457344062471200,0.99447119140625,-0.928558349609375,-0.359893798828125,0.0069580078125
1772457344072540200,1.0045400390625,-0.9183502197265625,-0.36236572265625,0.0146026611328125
1772457344082609200,1.014609130859375,-0.911468505859375,-0.3625640869140625,0.017547607421875
1772457344092677400,1.024677490234375,-0.9095458984375,-0.361236572265625,0.0244903564453125
1772457344102746400,1.034746337890625,-0.91656494140625,-0.3603363037109375,0.0218505859375
1772457344112814000,1.04481396484375,-0.921783447265625,-0.361419677734375,0.0173187255859375
1772457344122883300,1.05488330078125,-0.924407958984375,-0.361572265625,0.0150299072265625
1772457344132951300,1.064951416015625,-0.9249114990234375,-0.361724853515625,0.014862060546875
1772457344143020000,1.07502001953125,-0.9226837158203125,-0.3624420166015625,0.0187835693359375
1772457344153089300,1.08508935546875,-0.9262847900390625,-0.36114501953125,0.021087646484375
1772457344163157200,1.0951572265625,-0.9232330322265625,-0.3601837158203125,0.02276611328125
1772457344173226200,1.105226318359375,-0.9218292236328125,-0.3597869873046875,0.0206146240234375
1772457344183294200,1.115294189453125,-0.9219970703125,-0.3597564697265625,0.02020263671875
1772457344193363200,1.12536328125,-0.9168243408203125,-0.3601531982421875,0.0222930908203125
1772457344203431200,1.13543115234375,-0.9178314208984375,-0.360870361328125,0.020050048828125
1772457344213500200,1.145500244140625,-0.9242706298828125,-0.358154296875,0.022064208984375
1772457344223569200,1.155569091796875,-0.9305267333984375,-0.35760498046875,0.0185394287109375
1772457344233637400,1.165637451171875,-0.9354248046875,-0.356781005859375,0.017547607421875
1772457344243706000,1.1757060546875,-0.931854248046875,-0.3562469482421875,0.0180511474609375
1772457344253774000,1.185774169921875,-0.92742919921875,-0.3599090576171875,0.0186614990234375
1772457344263843300,1.19584326171875,-0.9244842529296875,-0.36175537109375,0.0217742919921875
1772457344273911300,1.205911376953125,-0.9244537353515625,-0.35906982421875,0.0240936279296875
1772457344283980000,1.21597998046875,-0.9280242919921875,-0.3572998046875,0.025360107421875
1772457344294049300,1.22604931640625,-0.9318084716796875,-0.356658935546875,0.0241851806640625
1772457344304117200,1.2361171875,-0.932037353515625,-0.358001708984375,0.0204315185546875
1772457344314186200,1.246186279296875,-0.930328369140625,-0.3596954345703125,0.0181427001953125
1772457344324254200,1.256254150390625,-0.9239959716796875,-0.3614349365234375,0.019012451171875
1772457344334323200,1.2663232421875,-0.922698974609375,-0.3640289306640625,0.0192413330078125
1772457344344391400,1.276391357421875,-0.9207305908203125,-0.363037109375,0.0197601318359375
1772457344354460200,1.286460205078125,-0.917938232421875,-0.3631439208984375,0.0208740234375
1772457344364529200,1.296529052734375,-0.9134521484375,-0.3628692626953125,0.02423095703125
1772457344374597400,1.306597412109375,-0.9108428955078125,-0.3642425537109375,0.0245819091796875
1772457344384666000,1.316666015625,-0.9174652099609375,-0.3625640869140625,0.0177001953125
1772457344394734000,1.326734130859375,-0.925262451171875,-0.3647308349609375,0.0079193115234375
1772457344404803300,1.33680322265625,-0.921356201171875,-0.3638916015625,0.0082855224609375
1772457344414872000,1.3468720703125,-0.9204254150390625,-0.367218017578125,0.0111236572265625
1772457344424940300,1.356940185546875,-0.9239959716796875,-0.3671875,0.00823974609375
1772457344435009300,1.36700927734375,-0.922607421875,-0.3621368408203125,0.0111083984375
1772457344445077200,1.3770771484375,-0.9203033447265625,-0.366668701171875,0.0137481689453125
1772457344455146200,1.387146240234375,-0.918487548828125,-0.3662872314453125,0.0158843994140625
1772457344465214200,1.397214111328125,-0.9174041748046875,-0.3634185791015625,0.013671875
1772457344475283200,1.407283203125,-0.9170074462890625,-0.363311767578125,0.0147705078125
1772457344485352200,1.417352294921875,-0.917205810546875,-0.364227294921875,0.0139007568359375
1772457344495420200,1.427420166015625,-0.9222869873046875,-0.3654632568359375,0.0116729736328125
1772457344505489400,1.437489501953125,-0.92926025390625,-0.3643341064453125,0.0107269287109375
1772457344515557400,1.447557373046875,-0.92315673828125,-0.3655853271484375,0.0140228271484375
1772457344525626000,1.457626220703125,-0.911163330078125,-0.3670501708984375,0.0178680419921875
1772457344535694000,1.467694091796875,-0.8990631103515625,-0.3690948486328125,0.0228424072265625
1772457344545763300,1.477763427734375,-0.896209716796875,-0.36883544921875,0.022979736328125
1772457344555832000,1.48783203125,-0.90264892578125,-0.364837646484375,0.02227783203125
1772457344565900300,1.497900390625,-0.9168701171875,-0.360595703125,0.0214691162109375
1772457344575969300,1.50796923828125,-0.9231414794921875,-0.359039306640625,0.0234832763671875
1772457344586037200,1.518037353515625,-0.9214630126953125,-0.357208251953125,0.025604248046875
1772457344596106200,1.528106201171875,-0.921417236328125,-0.356109619140625,0.02655029296875
1772457344606174200,1.53817431640625,-0.9228363037109375,-0.353973388671875,0.0257415771484375
1772457344616243200,1.5482431640625,-0.9412994384765625,-0.352630615234375,0.0170745849609375
1772457344626312200,1.558312255859375,-0.9563140869140625,-0.3492889404296875,0.0109710693359375
1772457344636380200,1.568380126953125,-0.94635009765625,-0.352142333984375,0.010711669921875
1772457344646449400,1.578449462890625,-0.9319000244140625,-0.359283447265625,0.0193023681640625
1772457344656517400,1.588517333984375,-0.920166015625,-0.36041259765625,0.0274505615234375
1772457344666586000,1.598586181640625,-0.9148712158203125,-0.3582763671875,0.0274658203125
1772457344676654300,1.608654296875,-0.927642822265625,-0.3580780029296875,0.0273895263671875
1772457344686723300,1.618723388671875,-0.938262939453125,-0.3560638427734375,0.0211181640625
1772457344696792000,1.6287919921875,-0.9359893798828125,-0.3557586669921875,0.0181427001953125
1772457344706860300,1.6388603515625,-0.9264984130859375,-0.35882568359375,0.0234375
1772457344716929300,1.64892919921875,-0.91571044921875,-0.3608245849609375,0.027191162109375
1772457344726997200,1.658997314453125,-0.9141845703125,-0.3618316650390625,0.0265045166015625
1772457344737066200,1.669066162109375,-0.92071533203125,-0.360565185546875,0.0202484130859375
1772457344747135200,1.67913525390625,-0.9260101318359375,-0.3607635498046875,0.013336181640625
1772457344757204000,1.689203857421875,-0.932159423828125,-0.3618621826171875,0.0103607177734375
1772457344767273200,1.699273193359375,-0.9326934814453125,-0.36212158203125,0.0131072998046875
1772457344777341200,1.709341064453125,-0.9241790771484375,-0.3612060546875,0.01690673828125
1772457344787410000,1.719409912109375,-0.9200439453125,-0.361480712890625,0.0209808349609375
1772457344797478000,1.729477783203125,-0.922088623046875,-0.360076904296875,0.0233917236328125
1772457344807547100,1.739547119140625,-0.922119140625,-0.3584136962890625,0.02001953125
1772457344817615000,1.749614990234375,-0.9269866943359375,-0.3570709228515625,0.0197601318359375
1772457344827684000,1.75968408203125,-0.924652099609375,-0.3543548583984375,0.0243072509765625
1772457344837753000,1.769753173828125,-0.9163055419921875,-0.353851318359375,0.02484130859375
1772457344847821000,1.779821044921875,-0.9162139892578125,-0.35565185546875,0.0243377685546875
1772457344857890000,1.78989013671875,-0.9175567626953125,-0.3563995361328125,0.022216796875
1772457344867958000,1.7999580078125,-0.9188690185546875,-0.3563232421875,0.0203094482421875
1772457344878027000,1.810027099609375,-0.9228668212890625,-0.35626220703125,0.017822265625
1772457344888096000,1.820095947265625,-0.923919677734375,-0.356964111328125,0.0168304443359375
1772457344898164000,1.8301640625,-0.9240264892578125,-0.357086181640625,0.0204010009765625
1772457344908233200,1.840233154296875,-0.9210357666015625,-0.357940673828125,0.0248260498046875
1772457344918301200,1.85030126953125,-0.923553466796875,-0.3571014404296875,0.0252838134765625
1772457344928370000,1.860369873046875,-0.9245452880859375,-0.3568878173828125,0.0235137939453125
1772457344938438100,1.870438232421875,-0.9261932373046875,-0.356109619140625,0.0213165283203125
1772457344948507100,1.880507080078125,-0.9268646240234375,-0.3544769287109375,0.020355224609375
1772457344958575900,1.890575927734375,-0.9245452880859375,-0.3591156005859375,0.02020263671875
1772457344968644000,1.90064404296875,-0.9234619140625,-0.3607177734375,0.0201263427734375
1772457344978713000,1.910713134765625,-0.923858642578125,-0.3606719970703125,0.019317626953125
1772457344988781000,1.920781005859375,-0.9236907958984375,-0.3604736328125,0.019287109375
1772457344998850000,1.93085009765625,-0.92071533203125,-0.3607177734375,0.0196075439453125
1772457345008918000,1.94091796875,-0.925140380859375,-0.3610687255859375,0.02069091796875
1772457345018987300,1.9509873046875,-0.9331207275390625,-0.3565826416015625,0.0181884765625
1772457345029056000,1.961055908203125,-0.935302734375,-0.355255126953125,0.019500732421875
1772457345039124000,1.9711240234375,-0.933380126953125,-0.3566436767578125,0.0222015380859375
1772457345049193200,1.981193115234375,-0.9321441650390625,-0.357208251953125,0.020751953125
1772457345059261200,1.99126123046875,-0.928131103515625,-0.355712890625,0.023956298828125
1772457345069330000,2.001329833984375,-0.922698974609375,-0.3590850830078125,0.0233154296875
1772457345079399200,2.011399169921875,-0.9223785400390625,-0.35833740234375,0.0261077880859375
1772457345089467100,2.021467041015625,-0.927886962890625,-0.353515625,0.0289154052734375
1772457345099536100,2.0315361328125,-0.9339447021484375,-0.351837158203125,0.0261383056640625
1772457345109604000,2.04160400390625,-0.9343719482421875,-0.3545379638671875,0.0228271484375
1772457345119673000,2.051673095703125,-0.9355926513671875,-0.3548126220703125,0.0230712890625
1772457345129741000,2.061740966796875,-0.9321441650390625,-0.35736083984375,0.0217437744140625
1772457345139810000,2.07181005859375,-0.9217376708984375,-0.3620147705078125,0.02313232421875
1772457345149878000,2.0818779296875,-0.9115142822265625,-0.3625640869140625,0.024810791015625
1772457345159947300,2.091947265625,-0.9053192138671875,-0.36383056640625,0.026641845703125
1772457345170016000,2.10201611328125,-0.90380859375,-0.360809326171875,0.028411865234375
1772457345180084000,2.112083984375,-0.90875244140625,-0.3575286865234375,0.0298919677734375
1772457345190153200,2.1221533203125,-0.914154052734375,-0.355865478515625,0.029998779296875
1772457345200221200,2.13222119140625,-0.9220428466796875,-0.354339599609375,0.0273590087890625
1772457345210290000,2.1422900390625,-0.928131103515625,-0.349853515625,0.02587890625
1772457345220359200,2.152359130859375,-0.926605224609375,-0.347259521484375,0.028961181640625
1772457345230427100,2.16242724609375,-0.9250946044921875,-0.34881591796875,0.0286865234375
1772457345240496000,2.17249609375,-0.9307861328125,-0.3485260009765625,0.030303955078125
1772457345250564000,2.182564208984375,-0.9323883056640625,-0.3469390869140625,0.02655029296875
1772457345260633000,2.192633056640625,-0.9310302734375,-0.348388671875,0.0260772705078125
1772457345270701000,2.202701171875,-0.929229736328125,-0.35028076171875,0.0260162353515625
1772457345280770000,2.21277001953125,-0.930755615234375,-0.350311279296875,0.0268707275390625
1772457345290839000,2.222839111328125,-0.930450439453125,-0.3512115478515625,0.02801513671875
1772457345300907000,2.232906982421875,-0.9270172119140625,-0.3549957275390625,0.02825927734375
1772457345310976000,2.24297607421875,-0.9247894287109375,-0.3567962646484375,0.0252838134765625
1772457345321044000,2.2530439453125,-0.9307403564453125,-0.3573150634765625,0.0219879150390625
1772457345331113200,2.26311328125,-0.93414306640625,-0.36016845703125,0.01617431640625
1772457345341181000,2.273180908203125,-0.9392242431640625,-0.3598175048828125,0.0122528076171875
1772457345351250200,2.283250244140625,-0.9434967041015625,-0.3574676513671875,0.0140228271484375
1772457345361319200,2.293319091796875,-0.9371490478515625,-0.3563690185546875,0.01776123046875
1772457345371387000,2.303386962890625,-0.9271697998046875,-0.359161376953125,0.0224151611328125
1772457345381456100,2.3134560546875,-0.924041748046875,-0.3569793701171875,0.0265960693359375
1772457345391524000,2.323524169921875,-0.9192962646484375,-0.3557891845703125,0.0279693603515625
1772457345401593000,2.333593017578125,-0.9291534423828125,-0.3521270751953125,0.0274810791015625
1772457345411661000,2.3436611328125,-0.94091796875,-0.3478546142578125,0.0243377685546875
1772457345421730000,2.35372998046875,-0.9384002685546875,-0.34649658203125,0.0240020751953125
1772457345431799300,2.36379931640625,-0.9268035888671875,-0.350677490234375,0.0276641845703125
1772457345441867000,2.373866943359375,-0.91790771484375,-0.3545074462890625,0.0267333984375
1772457345451936000,2.38393603515625,-0.9180450439453125,-0.35552978515625,0.0207672119140625
1772457345462004200,2.394004150390625,-0.9231414794921875,-0.3581390380859375,0.0116729736328125
1772457345472073000,2.404072998046875,-0.9351348876953125,-0.358062744140625,0.0069427490234375
1772457345482141000,2.414140869140625,-0.9350738525390625,-0.3550567626953125,0.00445556640625
1772457345492210200,2.424210205078125,-0.9257659912109375,-0.356414794921875,0.0128326416015625
1772457345502279200,2.434279052734375,-0.9134368896484375,-0.3580780029296875,0.0207977294921875
1772457345512347000,2.444346923828125,-0.905792236328125,-0.354583740234375,0.027801513671875
1772457345522416000,2.454416015625,-0.9152679443359375,-0.3520660400390625,0.03009033203125
1772457345532484000,2.464484130859375,-0.9256134033203125,-0.347625732421875,0.0286407470703125
1772457345542553000,2.474552978515625,-0.9243316650390625,-0.347259521484375,0.028045654296875
1772457345552621000,2.48462109375,-0.92572021484375,-0.348297119140625,0.0322113037109375
1772457345562690000,2.49468994140625,-0.9240264892578125,-0.3473968505859375,0.036346435546875
1772457345572759000,2.504759033203125,-0.9200592041015625,-0.3492279052734375,0.0367889404296875
1772457345582827000,2.514826904296875,-0.9169158935546875,-0.3484039306640625,0.036834716796875
1772457345592896000,2.52489599609375,-0.9217071533203125,-0.3478546142578125,0.0334625244140625
1772457345602964200,2.534964111328125,-0.92626953125,-0.3496246337890625,0.03155517578125
1772457345613033000,2.545032958984375,-0.9320526123046875,-0.35015869140625,0.0279388427734375
1772457345623101000,2.555100830078125,-0.93975830078125,-0.349822998046875,0.025604248046875
1772457345633170200,2.565170166015625,-0.934814453125,-0.353607177734375,0.0251312255859375
1772457345643239000,2.575239013671875,-0.9273529052734375,-0.3581085205078125,0.02447509765625
1772457345653307000,2.585306884765625,-0.92840576171875,-0.36053466796875,0.023223876953125
1772457345663376100,2.595376220703125,-0.93255615234375,-0.359375,0.018798828125
1772457345673444000,2.605444091796875,-0.937957763671875,-0.359375,0.0156402587890625
1772457345683513000,2.61551318359375,-0.932708740234375,-0.3584136962890625,0.0149993896484375
1772457345693581000,2.6255810546875,-0.930908203125,-0.358245849609375,0.0188140869140625
1772457345703650000,2.635650146484375,-0.932403564453125,-0.3589324951171875,0.01849365234375
1772457345713719000,2.645718994140625,-0.9376068115234375,-0.35516357421875,0.01849365234375
1772457345723787000,2.655787109375,-0.93255615234375,-0.3561248779296875,0.015899658203125
1772457345733856000,2.66585595703125,-0.928924560546875,-0.3576202392578125,0.0161895751953125
1772457345743923500,2.67592333984375,-0.9257965087890625,-0.357940673828125,0.018524169921875
1772457345753992400,2.685992431640625,-0.919586181640625,-0.357757568359375,0.019989013671875
1772457345764060400,2.696060302734375,-0.9124908447265625,-0.3585357666015625,0.021453857421875
1772457345774129400,2.70612939453125,-0.90594482421875,-0.36083984375,0.0228271484375
1772457345784198400,2.716198486328125,-0.9094390869140625,-0.358306884765625,0.0220489501953125
1772457345794266400,2.726266357421875,-0.9124755859375,-0.35833740234375,0.0189666748046875
1772457345804335400,2.73633544921875,-0.9073028564453125,-0.3568115234375,0.0201873779296875
1772457345814403600,2.746403564453125,-0.90625,-0.3578033447265625,0.02923583984375
1772457345824472300,2.756472412109375,-0.907562255859375,-0.3573150634765625,0.034393310546875
1772457345834540300,2.766540283203125,-0.9090728759765625,-0.3549041748046875,0.0358123779296875
1772457345844609500,2.776609619140625,-0.9168853759765625,-0.355224609375,0.02947998046875
1772457345854678300,2.78667822265625,-0.9287109375,-0.355316162109375,0.021484375
1772457345864746200,2.796746337890625,-0.93511962890625,-0.3543548583984375,0.0172882080078125
1772457345874815500,2.8068154296875,-0.936309814453125,-0.35455322265625,0.01739501953125
1772457345884883500,2.816883544921875,-0.9284515380859375,-0.356781005859375,0.0230865478515625
1772457345894952400,2.826952392578125,-0.923126220703125,-0.35784912109375,0.02838134765625
1772457345905021400,2.837021484375,-0.923248291015625,-0.3577117919921875,0.0296783447265625
1772457345915089400,2.84708935546875,-0.9219207763671875,-0.35955810546875,0.0281982421875
1772457345925158400,2.857158447265625,-0.92510986328125,-0.356781005859375,0.02923583984375
1772457345935226400,2.867226318359375,-0.9277191162109375,-0.3560943603515625,0.0273590087890625
1772457345945295400,2.87729541015625,-0.9280853271484375,-0.357086181640625,0.0285797119140625
1772457345955363600,2.887363525390625,-0.92498779296875,-0.359619140625,0.029449462890625
1772457345965432300,2.897432373046875,-0.9249420166015625,-0.3592987060546875,0.0330963134765625
1772457345975501600,2.90750146484375,-0.934173583984375,-0.357208251953125,0.0287933349609375
1772457345985569500,2.917569580078125,-0.9376220703125,-0.3548736572265625,0.0259857177734375
1772457345995638300,2.92763818359375,-0.93304443359375,-0.357147216796875,0.0243988037109375
1772457346005706500,2.93770654296875,-0.92718505859375,-0.3584747314453125,0.025634765625
1772457346015775500,2.947775390625,-0.920867919921875,-0.3571929931640625,0.0264892578125
1772457346025843500,2.957843505859375,-0.91607666015625,-0.3587799072265625,0.029052734375
1772457346035912400,2.967912353515625,-0.9142608642578125,-0.360565185546875,0.0288848876953125
1772457346045981400,2.9779814453125,-0.9185638427734375,-0.358856201171875,0.02618408203125
1772457346056049400,2.98804931640625,-0.9241180419921875,-0.359771728515625,0.0220489501953125
1772457346066118400,2.998118408203125,-0.9234619140625,-0.36053466796875,0.01904296875
1772457346076186400,3.008186279296875,-0.918975830078125,-0.3624114990234375,0.0162506103515625
1772457346086255600,3.018255615234375,-0.9182281494140625,-0.365692138671875,0.0192718505859375
1772457346096323600,3.028323486328125,-0.9159088134765625,-0.36279296875,0.0221099853515625
1772457346106392300,3.038392333984375,-0.9165802001953125,-0.3619384765625,0.021942138671875
1772457346116461600,3.048461669921875,-0.924102783203125,-0.360321044921875,0.01824951171875
1772457346126529500,3.058529541015625,-0.9326171875,-0.359893798828125,0.01666259765625
1772457346136598300,3.068598388671875,-0.9303741455078125,-0.3596038818359375,0.01837158203125
1772457346146666500,3.07866650390625,-0.9237060546875,-0.36126708984375,0.02471923828125
1772457346156735500,3.088735595703125,-0.917144775390625,-0.3630218505859375,0.0306854248046875
1772457346166803500,3.098803466796875,-0.9125213623046875,-0.3609619140625,0.033935546875
1772457346176872400,3.10887255859375,-0.9151611328125,-0.3580780029296875,0.0338287353515625
1772457346186941400,3.11894140625,-0.917572021484375,-0.356292724609375,0.035369873046875
1772457346197009700,3.129009765625,-0.919281005859375,-0.35552978515625,0.0354156494140625
1772457346207078400,3.139078369140625,-0.9226226806640625,-0.355621337890625,0.0341644287109375
1772457346217146400,3.149146484375,-0.9249420166015625,-0.35382080078125,0.03216552734375
1772457346227215600,3.159215576171875,-0.9273223876953125,-0.3548736572265625,0.032012939453125
1772457346237283600,3.16928369140625,-0.9293975830078125,-0.3553466796875,0.031005859375
1772457346247352300,3.179352294921875,-0.9293060302734375,-0.356781005859375,0.0290985107421875
1772457346257421600,3.189421630859375,-0.930511474609375,-0.3554840087890625,0.028594970703125
1772457346267489500,3.199489501953125,-0.93658447265625,-0.3544769287109375,0.0256500244140625
1772457346277558500,3.20955859375,-0.944091796875,-0.353546142578125,0.0260162353515625
1772457346287626500,3.21962646484375,-0.94158935546875,-0.353515625,0.02630615234375
1772457346297695500,3.229695556640625,-0.9380035400390625,-0.3550872802734375,0.027618408203125
1772457346307763500,3.239763427734375,-0.9251251220703125,-0.3602752685546875,0.0291900634765625
1772457346317832400,3.24983251953125,-0.91632080078125,-0.3609771728515625,0.0296783447265625
1772457346327901400,3.2599013671875,-0.9121551513671875,-0.3624420166015625,0.0320587158203125
1772457346337969700,3.2699697265625,-0.915802001953125,-0.3617095947265625,0.0291748046875
1772457346348038400,3.280038330078125,-0.9191436767578125,-0.3577880859375,0.02716064453125
1772457346358106400,3.2901064453125,-0.9152069091796875,-0.3567352294921875,0.0270538330078125
1772457346368175600,3.300175537109375,-0.911529541015625,-0.361083984375,0.0279388427734375
1772457346378243300,3.310243408203125,-0.9104461669921875,-0.3607025146484375,0.0283203125
1772457346388312300,3.320312255859375,-0.9080657958984375,-0.358551025390625,0.0274810791015625
1772457346398381600,3.330381591796875,-0.9060821533203125,-0.360015869140625,0.028656005859375
1772457346408449500,3.340449462890625,-0.9095611572265625,-0.36090087890625,0.02252197265625
1772457346418518500,3.3505185546875,-0.918731689453125,-0.3608551025390625,0.0139312744140625
1772457346428586500,3.36058642578125,-0.9306182861328125,-0.3591461181640625,0.0111236572265625
1772457346438655500,3.370655517578125,-0.933837890625,-0.3597869873046875,0.0136871337890625
1772457346448723500,3.380723388671875,-0.9302978515625,-0.3583984375,0.01873779296875
1772457346458792400,3.39079248046875,-0.9297637939453125,-0.356781005859375,0.0233001708984375
1772457346468861400,3.400861328125,-0.922454833984375,-0.357635498046875,0.026275634765625
1772457346478929400,3.410929443359375,-0.922119140625,-0.357269287109375,0.0296173095703125
1772457346488998400,3.420998291015625,-0.9236602783203125,-0.355010986328125,0.03045654296875
1772457346499066400,3.43106640625,-0.929412841796875,-0.3551483154296875,0.030303955078125
1772457346509135400,3.44113525390625,-0.9353790283203125,-0.35345458984375,0.02996826171875
1772457346519203300,3.451203369140625,-0.938140869140625,-0.3503570556640625,0.0283050537109375
1772457346529272600,3.4612724609375,-0.9402923583984375,-0.3498687744140625,0.0303802490234375
1772457346539341600,3.471341552734375,-0.9421234130859375,-0.348602294921875,0.0312347412109375
1772457346549409300,3.4814091796875,-0.93072509765625,-0.3518829345703125,0.030975341796875
1772457346559478500,3.491478515625,-0.9279632568359375,-0.35455322265625,0.0276031494140625
1772457346569546500,3.50154638671875,-0.9293670654296875,-0.3560638427734375,0.02569580078125
1772457346579615200,3.511615234375,-0.9336395263671875,-0.3533935546875,0.0281982421875
1772457346589683500,3.521683349609375,-0.9283447265625,-0.3546295166015625,0.03143310546875
1772457346599752400,3.53175244140625,-0.9232025146484375,-0.355072021484375,0.0345458984375
1772457346609821400,3.541821533203125,-0.92010498046875,-0.3560791015625,0.0377044677734375
1772457346619889400,3.551889404296875,-0.9186248779296875,-0.357208251953125,0.0370025634765625
1772457346629958400,3.56195849609375,-0.922149658203125,-0.3578033447265625,0.0307464599609375
1772457346640026400,3.5720263671875,-0.92486572265625,-0.3579254150390625,0.0237274169921875
1772457346650095400,3.582095458984375,-0.9254913330078125,-0.359375,0.023284912109375
1772457346660163300,3.592163330078125,-0.924835205078125,-0.3599700927734375,0.0250396728515625
1772457346670232600,3.602232666015625,-0.9225311279296875,-0.3611907958984375,0.0276947021484375
1772457346680301300,3.61230126953125,-0.9222412109375,-0.3602752685546875,0.0266876220703125
1772457346690369300,3.622369384765625,-0.9215545654296875,-0.359588623046875,0.0250396728515625
1772457346700438500,3.6324384765625,-0.9260406494140625,-0.3625946044921875,0.0204315185546875
1772457346710506500,3.642506591796875,-0.927703857421875,-0.3618621826171875,0.0176849365234375
1772457346720575200,3.6525751953125,-0.92620849609375,-0.363128662109375,0.019073486328125
1772457346730643500,3.6626435546875,-0.925201416015625,-0.3643646240234375,0.0213470458984375
1772457346740712400,3.67271240234375,-0.9214935302734375,-0.360321044921875,0.02593994140625
1772457346750781200,3.68278125,-0.921478271484375,-0.3573455810546875,0.0280609130859375
1772457346760849200,3.69284912109375,-0.926788330078125,-0.3546142578125,0.03094482421875
1772457346770918100,3.702918212890625,-0.922393798828125,-0.3545379638671875,0.0296630859375
1772457346780986400,3.712986328125,-0.91815185546875,-0.3558349609375,0.0298309326171875
1772457346791055000,3.72305517578125,-0.91839599609375,-0.357330322265625,0.028167724609375
1772457346801123000,3.733123046875,-0.9171295166015625,-0.358795166015625,0.02685546875
1772457346811192300,3.7431923828125,-0.9232177734375,-0.355560302734375,0.02593994140625
1772457346821261000,3.753260986328125,-0.931671142578125,-0.3551788330078125,0.023651123046875
1772457346831329000,3.7633291015625,-0.9336700439453125,-0.355865478515625,0.019866943359375
1772457346841398300,3.773398193359375,-0.92852783203125,-0.3583221435546875,0.0206756591796875
1772457346851466200,3.78346630859375,-0.9202117919921875,-0.36151123046875,0.0261077880859375
1772457346861535200,3.79353515625,-0.9158172607421875,-0.3613433837890625,0.0303497314453125
1772457346871603200,3.803603271484375,-0.9135894775390625,-0.358551025390625,0.0314483642578125
1772457346881672200,3.813672119140625,-0.919921875,-0.3588409423828125,0.0316619873046875
1772457346891741200,3.8237412109375,-0.9262542724609375,-0.356231689453125,0.0301513671875
1772457346901809200,3.83380908203125,-0.9252166748046875,-0.354156494140625,0.027496337890625
1772457346911878100,3.843878173828125,-0.92767333984375,-0.356231689453125,0.029205322265625
1772457346921946400,3.8539462890625,-0.9272003173828125,-0.3551483154296875,0.031463623046875
1772457346932015000,3.86401513671875,-0.9274749755859375,-0.3563385009765625,0.032318115234375
1772457346942083000,3.8740830078125,-0.924163818359375,-0.3588409423828125,0.0311279296875
1772457346952152300,3.88415234375,-0.926605224609375,-0.3601226806640625,0.0281524658203125
1772457346962221000,3.894220947265625,-0.9340362548828125,-0.35894775390625,0.0238037109375
1772457346972289000,3.9042890625,-0.9307861328125,-0.3592529296875,0.025909423828125
1772457346982358300,3.914358154296875,-0.9266204833984375,-0.3599090576171875,0.0293731689453125
1772457346992426200,3.92442626953125,-0.9252471923828125,-0.3608245849609375,0.0333251953125
1772457347002495200,3.9344951171875,-0.9206390380859375,-0.360687255859375,0.0315399169921875
1772457347012563200,3.944563232421875,-0.9204254150390625,-0.36273193359375,0.029388427734375
1772457347022632200,3.954632080078125,-0.92303466796875,-0.3628082275390625,0.028717041015625
1772457347032701200,3.964701171875,-0.920257568359375,-0.3629150390625,0.0269927978515625
1772457347042769200,3.97476904296875,-0.9149932861328125,-0.3650054931640625,0.0261077880859375
1772457347052836000,3.984836181640625,-0.9156494140625,-0.36578369140625,0.0285186767578125
1772457347062905300,3.9949052734375,-0.926666259765625,-0.359619140625,0.0282135009765625
1772457347072973300,4.004973388671875,-0.929473876953125,-0.3567657470703125,0.02838134765625
1772457347083042000,4.0150419921875,-0.9247589111328125,-0.3593597412109375,0.0302886962890625
1772457347093110000,4.025110107421875,-0.9232025146484375,-0.3604583740234375,0.0311737060546875
1772457347103179300,4.03517919921875,-0.9119873046875,-0.35955810546875,0.030792236328125
1772457347113247200,4.045247314453125,-0.9063568115234375,-0.36236572265625,0.031585693359375
1772457347123316200,4.055316162109375,-0.9172515869140625,-0.3595123291015625,0.027191162109375
1772457347133385200,4.06538525390625,-0.9275054931640625,-0.3563690185546875,0.024688720703125
1772457347143453200,4.075453125,-0.92974853515625,-0.3563385009765625,0.024169921875
1772457347153522200,4.085522216796875,-0.9339141845703125,-0.3590850830078125,0.0255584716796875
1772457347163590100,4.095590087890625,-0.9282073974609375,-0.357513427734375,0.0298919677734375
1772457347173659100,4.1056591796875,-0.9167938232421875,-0.36175537109375,0.03253173828125
1772457347183727400,4.115727294921875,-0.91046142578125,-0.3626251220703125,0.036041259765625
1772457347193796000,4.125796142578125,-0.907958984375,-0.3622283935546875,0.0378570556640625
1772457347203865300,4.135865234375,-0.9098358154296875,-0.3609619140625,0.038116455078125
1772457347213933300,4.145933349609375,-0.9215087890625,-0.35791015625,0.0329132080078125
1772457347224002000,4.156001953125,-0.9305877685546875,-0.3564453125,0.030731201171875
1772457347234070300,4.1660703125,-0.9402313232421875,-0.3540496826171875,0.0276947021484375
1772457347244139300,4.17613916015625,-0.93682861328125,-0.352081298828125,0.0287322998046875
1772457347254207200,4.186207275390625,-0.9300994873046875,-0.3520050048828125,0.03387451171875
1772457347264276200,4.196276123046875,-0.9237518310546875,-0.35394287109375,0.036651611328125
1772457347274345200,4.20634521484375,-0.917816162109375,-0.3560943603515625,0.0322418212890625
1772457347284413200,4.2164130859375,-0.9221649169921875,-0.355804443359375,0.02825927734375
1772457347294482200,4.226482177734375,-0.9233551025390625,-0.3553466796875,0.0245819091796875
1772457347304550100,4.236550048828125,-0.9205474853515625,-0.3555755615234375,0.02581787109375
1772457347314619400,4.246619384765625,-0.91876220703125,-0.36016845703125,0.03143310546875
1772457347324687400,4.256687255859375,-0.9183807373046875,-0.3600616455078125,0.030609130859375
1772457347334756000,4.266756103515625,-0.9166259765625,-0.3597259521484375,0.03167724609375
1772457347344825300,4.276825439453125,-0.911163330078125,-0.3640899658203125,0.03118896484375
1772457347354893300,4.286893310546875,-0.9188232421875,-0.3640899658203125,0.029327392578125
1772457347364962000,4.296962158203125,-0.9253082275390625,-0.36102294921875,0.02520751953125
1772457347375030300,4.3070302734375,-0.9274444580078125,-0.3619537353515625,0.0248260498046875
1772457347385099300,4.317099365234375,-0.9298553466796875,-0.361663818359375,0.024810791015625
1772457347395167200,4.327167236328125,-0.9303436279296875,-0.3616485595703125,0.0225372314453125
1772457347405238300,4.33723828125,-0.9330291748046875,-0.359283447265625,0.0246124267578125
1772457347415306000,4.347305908203125,-0.93597412109375,-0.35760498046875,0.0279083251953125
1772457347425375200,4.357375244140625,-0.927734375,-0.3575897216796875,0.0323333740234375
1772457347435443200,4.367443115234375,-0.9216766357421875,-0.35882568359375,0.03558349609375
1772457347445512200,4.37751220703125,-0.917633056640625,-0.35809326171875,0.0375518798828125
1772457347455581200,4.387581298828125,-0.9198150634765625,-0.3578643798828125,0.0360260009765625
1772457347465649200,4.397649169921875,-0.92620849609375,-0.3546295166015625,0.0342864990234375
1772457347475718100,4.40771826171875,-0.9244842529296875,-0.3551788330078125,0.0301971435546875
1772457347485786000,4.4177861328125,-0.9182281494140625,-0.35662841796875,0.027496337890625
1772457347495855000,4.427855224609375,-0.9157562255859375,-0.3582305908203125,0.0301666259765625
1772457347505923300,4.43792333984375,-0.9172515869140625,-0.354888916015625,0.0263519287109375
1772457347515992000,4.447991943359375,-0.9212493896484375,-0.3563690185546875,0.0269317626953125
1772457347526061300,4.458061279296875,-0.927032470703125,-0.3562164306640625,0.0252227783203125
1772457347536129300,4.46812939453125,-0.925811767578125,-0.3548736572265625,0.0240325927734375
1772457347546198000,4.478197998046875,-0.9226226806640625,-0.3587799072265625,0.02374267578125
1772457347556266200,4.488266357421875,-0.918426513671875,-0.3599395751953125,0.02630615234375
1772457347566335200,4.498335205078125,-0.9157257080078125,-0.358062744140625,0.02703857421875
1772457347576403200,4.5084033203125,-0.9198760986328125,-0.3586578369140625,0.0268402099609375
1772457347586472200,4.51847216796875,-0.925567626953125,-0.3563690185546875,0.0271148681640625
1772457347596541200,4.528541259765625,-0.927825927734375,-0.3545684814453125,0.0279998779296875
1772457347606609200,4.538609130859375,-0.9326171875,-0.35565185546875,0.026214599609375
1772457347616678100,4.54867822265625,-0.9344024658203125,-0.3562164306640625,0.02362060546875
1772457347626746000,4.55874609375,-0.92816162109375,-0.357025146484375,0.026031494140625
1772457347636815400,4.5688154296875,-0.9207000732421875,-0.358551025390625,0.0300140380859375
1772457347646883300,4.57888330078125,-0.9202117919921875,-0.3583984375,0.032867431640625
1772457347656952000,4.5889521484375,-0.9291839599609375,-0.3538055419921875,0.031219482421875
1772457347667021300,4.599021240234375,-0.93597412109375,-0.350372314453125,0.02825927734375
1772457347677089300,4.60908935546875,-0.9367828369140625,-0.353363037109375,0.028839111328125
1772457347687158000,4.619157958984375,-0.932037353515625,-0.3548431396484375,0.0283966064453125
1772457347697226200,4.629226318359375,-0.92156982421875,-0.35546875,0.0283203125
1772457347707295200,4.639295166015625,-0.9187774658203125,-0.3569183349609375,0.0316314697265625
1772457347717363200,4.64936328125,-0.924102783203125,-0.3568115234375,0.026031494140625
1772457347727432200,4.65943212890625,-0.92999267578125,-0.3534698486328125,0.025970458984375
1772457347737501200,4.669501220703125,-0.93310546875,-0.3526763916015625,0.0291748046875
1772457347747569000,4.67956884765625,-0.9290313720703125,-0.3539581298828125,0.032073974609375
1772457347757637600,4.6896376953125,-0.928436279296875,-0.3544158935546875,0.0296173095703125
1772457347767705900,4.699705810546875,-0.924591064453125,-0.35772705078125,0.0251617431640625
1772457347777774800,4.70977490234375,-0.9169769287109375,-0.36236572265625,0.0243072509765625
1772457347787842800,4.7198427734375,-0.91546630859375,-0.36199951171875,0.025238037109375
1772457347797911800,4.729911865234375,-0.91497802734375,-0.3606414794921875,0.023162841796875
1772457347807979800,4.739979736328125,-0.9189453125,-0.3611297607421875,0.0220489501953125
1772457347818048800,4.750048828125,-0.9220428466796875,-0.3594970703125,0.02044677734375
1772457347828117800,4.76011767578125,-0.9226226806640625,-0.3581390380859375,0.020355224609375
1772457347838185700,4.770185791015625,-0.9268035888671875,-0.3581085205078125,0.019866943359375
1772457347848255000,4.7802548828125,-0.924407958984375,-0.360137939453125,0.0179901123046875
1772457347858323000,4.790322998046875,-0.91864013671875,-0.3593902587890625,0.0175018310546875
1772457347868391700,4.8003916015625,-0.9228057861328125,-0.3621673583984375,0.0201263427734375
1772457347878460000,4.8104599609375,-0.929931640625,-0.3584136962890625,0.0221710205078125
1772457347888529000,4.82052880859375,-0.9280242919921875,-0.354949951171875,0.02484130859375
1772457347898597600,4.83059765625,-0.91790771484375,-0.3568267822265625,0.0317230224609375
1772457347908665900,4.840665771484375,-0.91339111328125,-0.3554840087890625,0.038238525390625
1772457347918734800,4.85073486328125,-0.9131622314453125,-0.354888916015625,0.039459228515625
1772457347928802800,4.860802734375,-0.915374755859375,-0.354339599609375,0.0383148193359375
1772457347938871800,4.870871826171875,-0.920867919921875,-0.3549041748046875,0.040283203125
1772457347948939800,4.880939697265625,-0.929840087890625,-0.35174560546875,0.0389556884765625
1772457347959009000,4.891009033203125,-0.9403533935546875,-0.3493499755859375,0.0363311767578125
1772457347969077800,4.901077880859375,-0.9485626220703125,-0.348052978515625,0.0289154052734375
1772457347979145700,4.911145751953125,-0.94769287109375,-0.34771728515625,0.0267333984375
1772457347989215000,4.921215087890625,-0.940185546875,-0.35076904296875,0.0288543701171875
1772457347999283000,4.931282958984375,-0.936553955078125,-0.35150146484375,0.0284881591796875
1772457348009351700,4.9413515625,-0.935211181640625,-0.35162353515625,0.027679443359375
1772457348019420000,4.951419921875,-0.9332427978515625,-0.352294921875,0.026458740234375
1772457348029489000,4.961489013671875,-0.927642822265625,-0.3544921875,0.0287933349609375
1772457348039558000,4.971557861328125,-0.9211883544921875,-0.3565826416015625,0.0311126708984375
1772457348049625900,4.9816259765625,-0.914794921875,-0.3572540283203125,0.033843994140625
1772457348059694800,4.99169482421875,-0.9100799560546875,-0.35858154296875,0.0348052978515625
1772457348069762800,5.0017626953125,-0.9177093505859375,-0.3577728271484375,0.0342559814453125
1772457348079831800,5.011831787109375,-0.9195556640625,-0.355865478515625,0.0289459228515625
1772457348089899800,5.021899658203125,-0.9218597412109375,-0.3553619384765625,0.02716064453125
1772457348099969000,5.031968994140625,-0.9201507568359375,-0.3570709228515625,0.0301971435546875
1772457348110037800,5.042037841796875,-0.918975830078125,-0.3574981689453125,0.0309906005859375
1772457348120105700,5.052105712890625,-0.9226226806640625,-0.3570404052734375,0.0272216796875
1772457348130175000,5.062175048828125,-0.9301300048828125,-0.3591156005859375,0.02313232421875
1772457348140242700,5.07224267578125,-0.9326324462890625,-0.358123779296875,0.0220489501953125
1772457348150311700,5.082311767578125,-0.926849365234375,-0.3597564697265625,0.02386474609375
1772457348160380000,5.0923798828125,-0.9205474853515625,-0.362945556640625,0.0268096923828125
1772457348170449000,5.102448974609375,-0.9148406982421875,-0.3621368408203125,0.0313568115234375
1772457348180518000,5.112517822265625,-0.9108123779296875,-0.363189697265625,0.0308685302734375
1772457348190585900,5.1225859375,-0.9156646728515625,-0.3621826171875,0.029815673828125
1772457348200654800,5.13265478515625,-0.9224395751953125,-0.3578643798828125,0.028289794921875
1772457348210722800,5.142722900390625,-0.92578125,-0.3567657470703125,0.02752685546875
1772457348220791800,5.152791748046875,-0.92828369140625,-0.35736083984375,0.0267333984375
1772457348230859800,5.16285986328125,-0.93194580078125,-0.3549346923828125,0.0271453857421875
1772457348240928800,5.1729287109375,-0.9326019287109375,-0.3541412353515625,0.027069091796875
1772457348250997800,5.182997802734375,-0.931915283203125,-0.35406494140625,0.02593994140625
1772457348261065700,5.193065673828125,-0.9281158447265625,-0.356597900390625,0.028717041015625
1772457348271135000,5.203135009765625,-0.9260406494140625,-0.35833740234375,0.0287322998046875
1772457348281202700,5.21320263671875,-0.924407958984375,-0.3568115234375,0.027313232421875
1772457348291272000,5.22327197265625,-0.9188690185546875,-0.35760498046875,0.02996826171875
1772457348301340000,5.23333984375,-0.91998291015625,-0.3575439453125,0.0319671630859375
1772457348311408600,5.24340869140625,-0.9222412109375,-0.3552703857421875,0.0318603515625
1772457348321478000,5.253477783203125,-0.92413330078125,-0.353363037109375,0.0296783447265625
1772457348331545900,5.2635458984375,-0.9227752685546875,-0.3564453125,0.0307159423828125
1772457348341614800,5.27361474609375,-0.921112060546875,-0.36004638671875,0.03131103515625
1772457348351682800,5.283682861328125,-0.9211883544921875,-0.358917236328125,0.0285797119140625
1772457348361751800,5.293751708984375,-0.919403076171875,-0.3582000732421875,0.026580810546875
1772457348371819800,5.30381982421875,-0.9200897216796875,-0.35845947265625,0.0252685546875
1772457348381888800,5.313888671875,-0.9262237548828125,-0.3590850830078125,0.02252197265625
1772457348391957800,5.323957763671875,-0.9313812255859375,-0.3543243408203125,0.0242462158203125
1772457348402026000,5.33402587890625,-0.9326934814453125,-0.3553009033203125,0.0250244140625
1772457348412094700,5.3440947265625,-0.9266510009765625,-0.35504150390625,0.0277862548828125
1772457348422162700,5.35416259765625,-0.9196929931640625,-0.354522705078125,0.0327301025390625
1772457348432232000,5.36423193359375,-0.9217987060546875,-0.3544158935546875,0.033294677734375
1772457348442300000,5.3742998046875,-0.9266510009765625,-0.3528594970703125,0.0329742431640625
1772457348452368600,5.38436865234375,-0.9311065673828125,-0.350921630859375,0.0292816162109375
1772457348462438000,5.39443798828125,-0.9337615966796875,-0.351959228515625,0.030120849609375
1772457348472505900,5.404505859375,-0.9292449951171875,-0.352935791015625,0.03125
1772457348482574800,5.414574951171875,-0.9227752685546875,-0.353515625,0.0355987548828125
1772457348492642800,5.424642822265625,-0.91778564453125,-0.3550872802734375,0.0374908447265625
1772457348502711800,5.4347119140625,-0.918701171875,-0.3567047119140625,0.034912109375
1772457348512779800,5.44477978515625,-0.92559814453125,-0.357391357421875,0.031494140625
1772457348522848800,5.454848876953125,-0.928497314453125,-0.3562774658203125,0.026702880859375
1772457348532916700,5.464916748046875,-0.922027587890625,-0.35919189453125,0.0247344970703125
1772457348542986000,5.474986083984375,-0.9199981689453125,-0.362335205078125,0.0220489501953125
1772457348553054700,5.4850546875,-0.9285430908203125,-0.3620758056640625,0.0202484130859375
1772457348563122700,5.495122802734375,-0.9340667724609375,-0.3587646484375,0.0180511474609375
1772457348573192000,5.50519189453125,-0.9351959228515625,-0.3561553955078125,0.0209808349609375
1772457348583260000,5.515260009765625,-0.933868408203125,-0.3547821044921875,0.0254669189453125
1772457348593328600,5.52532861328125,-0.9302520751953125,-0.35430908203125,0.0291595458984375
1772457348603396900,5.53539697265625,-0.928924560546875,-0.353546142578125,0.030914306640625
1772457348613465900,5.5454658203125,-0.927520751953125,-0.3519287109375,0.0317535400390625
1772457348623534800,5.555534912109375,-0.9259185791015625,-0.3520965576171875,0.02911376953125
1772457348633602800,5.565602783203125,-0.9269256591796875,-0.35040283203125,0.028656005859375
1772457348643671800,5.575671875,-0.929840087890625,-0.3497161865234375,0.0289154052734375
1772457348653740000,5.585739990234375,-0.930511474609375,-0.3498992919921875,0.028778076171875
1772457348663808800,5.595808837890625,-0.9241790771484375,-0.351959228515625,0.0280914306640625
1772457348673876700,5.605876708984375,-0.9157562255859375,-0.3524627685546875,0.031890869140625
1772457348683946000,5.615946044921875,-0.9118804931640625,-0.357421875,0.0338897705078125
1772457348694014700,5.6260146484375,-0.9089508056640625,-0.356719970703125,0.03326416015625
1772457348704082700,5.636082763671875,-0.9112396240234375,-0.3551177978515625,0.034088134765625
1772457348714152000,5.64615185546875,-0.9181365966796875,-0.35247802734375,0.0350799560546875
1772457348724220000,5.656219970703125,-0.9242401123046875,-0.3479766845703125,0.0388641357421875
1772457348734289000,5.666288818359375,-0.9288482666015625,-0.3456268310546875,0.038238525390625
1772457348744357600,5.676357666015625,-0.9354705810546875,-0.346221923828125,0.03546142578125
1772457348754426600,5.686426513671875,-0.94244384765625,-0.349517822265625,0.0313873291015625
1772457348764495600,5.69649560546875,-0.9395904541015625,-0.351104736328125,0.0257720947265625
1772457348774563600,5.7065634765625,-0.9312896728515625,-0.3541107177734375,0.027069091796875
1772457348784632600,5.716632568359375,-0.92462158203125,-0.35675048828125,0.0276031494140625
1772457348794700500,5.726700439453125,-0.9210205078125,-0.356597900390625,0.0287628173828125
1772457348804769500,5.73676953125,-0.922882080078125,-0.3541259765625,0.0325164794921875
1772457348814837800,5.746837646484375,-0.93109130859375,-0.3524627685546875,0.0337677001953125
1772457348824906500,5.756906494140625,-0.93280029296875,-0.3517608642578125,0.034423828125
1772457348834975700,5.766975830078125,-0.9240875244140625,-0.356292724609375,0.0367279052734375
1772457348845043700,5.777043701171875,-0.918609619140625,-0.3579864501953125,0.039642333984375
1772457348855112400,5.787112548828125,-0.915771484375,-0.3580169677734375,0.03741455078125
1772457348865180700,5.7971806640625,-0.923431396484375,-0.35638427734375,0.0358428955078125
1772457348875249700,5.807249755859375,-0.9306182861328125,-0.3536529541015625,0.031646728515625
1772457348885317600,5.817317626953125,-0.931732177734375,-0.3524017333984375,0.0282745361328125
1772457348895386600,5.82738671875,-0.930023193359375,-0.3526458740234375,0.0310821533203125
1772457348905455600,5.83745556640625,-0.9313201904296875,-0.3525390625,0.03466796875
1772457348915523600,5.847523681640625,-0.923980712890625,-0.353668212890625,0.0341339111328125
1772457348925592600,5.857592529296875,-0.923553466796875,-0.356231689453125,0.0352630615234375
1772457348935660500,5.86766064453125,-0.9258270263671875,-0.3522491455078125,0.0350799560546875
1772457348945729500,5.8777294921875,-0.9267120361328125,-0.3547210693359375,0.0317230224609375
1772457348955797800,5.8877978515625,-0.9258880615234375,-0.3563232421875,0.0328216552734375
1772457348965866500,5.897866455078125,-0.926116943359375,-0.3543701171875,0.03369140625
1772457348975935700,5.907935791015625,-0.9310150146484375,-0.3553924560546875,0.0315093994140625
1772457348986003700,5.918003662109375,-0.9370574951171875,-0.35382080078125,0.0280609130859375
1772457348996072400,5.928072509765625,-0.9366912841796875,-0.3547515869140625,0.0243988037109375
1772457349006140700,5.938140625,-0.9307403564453125,-0.3577728271484375,0.025390625
1772457349016209700,5.948209716796875,-0.925628662109375,-0.35882568359375,0.0294036865234375
1772457349026277600,5.958277587890625,-0.920440673828125,-0.3592071533203125,0.0295562744140625
1772457349036346600,5.9683466796875,-0.9221954345703125,-0.3598480224609375,0.0307464599609375
1772457349046415600,5.97841552734375,-0.9254302978515625,-0.360198974609375,0.02947998046875
1772457349056483600,5.988483642578125,-0.9239654541015625,-0.3586273193359375,0.02783203125
1772457349066552600,5.998552490234375,-0.9158935546875,-0.3587646484375,0.0321044921875
1772457349076620500,6.00862060546875,-0.914794921875,-0.3590240478515625,0.0357208251953125
1772457349086689800,6.018689697265625,-0.923126220703125,-0.356201171875,0.0356597900390625
1772457349096757800,6.0287578125,-0.9200286865234375,-0.35552978515625,0.0360565185546875
1772457349106826500,6.038826416015625,-0.914581298828125,-0.3585205078125,0.037628173828125
1772457349116895700,6.048895751953125,-0.91680908203125,-0.3576507568359375,0.035858154296875
1772457349126963700,6.058963623046875,-0.9128570556640625,-0.3558807373046875,0.0376739501953125
1772457349137032400,6.069032470703125,-0.909698486328125,-0.359466552734375,0.0380096435546875
1772457349147100700,6.0791005859375,-0.9117889404296875,-0.35882568359375,0.036590576171875
1772457349157169700,6.089169677734375,-0.9206390380859375,-0.3574371337890625,0.0332489013671875
1772457349167237600,6.099237548828125,-0.9234161376953125,-0.3556976318359375,0.032623291015625
1772457349177306600,6.109306640625,-0.919403076171875,-0.3595428466796875,0.032470703125
1772457349187374600,6.11937451171875,-0.915679931640625,-0.3596649169921875,0.0350494384765625
1772457349197443800,6.12944384765625,-0.9204254150390625,-0.3567352294921875,0.0377960205078125
1772457349207512600,6.1395126953125,-0.9229888916015625,-0.354034423828125,0.038482666015625
1772457349217580500,6.14958056640625,-0.92303466796875,-0.3541412353515625,0.037567138671875
1772457349227649800,6.15964990234375,-0.9264068603515625,-0.3563995361328125,0.0372772216796875
1772457349237717500,6.169717529296875,-0.928619384765625,-0.3564453125,0.0352935791015625
1772457349247786500,6.179786376953125,-0.9302215576171875,-0.356903076171875,0.03607177734375
1772457349257854700,6.189854736328125,-0.929168701171875,-0.3568267822265625,0.0356903076171875
1772457349267923700,6.199923828125,-0.9321136474609375,-0.357421875,0.034454345703125
1772457349277992700,6.20999267578125,-0.9314727783203125,-0.35723876953125,0.033416748046875
1772457349288060700,6.220060791015625,-0.9268341064453125,-0.3603515625,0.0322113037109375
1772457349298129700,6.230129638671875,-0.9219818115234375,-0.363525390625,0.0343017578125
1772457349308197400,6.240197265625,-0.9228973388671875,-0.3627777099609375,0.0361328125
1772457349318266600,6.2502666015625,-0.9231414794921875,-0.3615570068359375,0.0342254638671875
1772457349328334600,6.26033447265625,-0.92169189453125,-0.3612518310546875,0.03179931640625
1772457349338403600,6.270403564453125,-0.915374755859375,-0.36358642578125,0.031158447265625
1772457349348472600,6.28047265625,-0.9134368896484375,-0.36309814453125,0.030792236328125
1772457349358540500,6.29054052734375,-0.9149322509765625,-0.36163330078125,0.0322113037109375
1772457349368609800,6.30060986328125,-0.919158935546875,-0.36004638671875,0.033538818359375
1772457349378677500,6.310677490234375,-0.9232635498046875,-0.357635498046875,0.0335693359375
1772457349388746500,6.32074658203125,-0.9230194091796875,-0.3567352294921875,0.03521728515625
1772457349398814700,6.330814697265625,-0.9210052490234375,-0.3556671142578125,0.0360565185546875
1772457349408883500,6.340883544921875,-0.9248199462890625,-0.3550262451171875,0.0355682373046875
1772457349418952700,6.35095263671875,-0.9239654541015625,-0.356048583984375,0.0355682373046875
1772457349429020700,6.361020751953125,-0.92425537109375,-0.3562164306640625,0.0360260009765625
1772457349439089700,6.371089599609375,-0.9279022216796875,-0.355377197265625,0.0361480712890625
1772457349449157600,6.38115771484375,-0.9285888671875,-0.3544158935546875,0.0337066650390625
1772457349459226600,6.3912265625,-0.9291839599609375,-0.3551025390625,0.031494140625
1772457349469294600,6.401294677734375,-0.9306182861328125,-0.3579864501953125,0.0341033935546875
1772457349479363600,6.411363525390625,-0.9212493896484375,-0.359344482421875,0.0380859375
1772457349489432600,6.4214326171875,-0.911376953125,-0.3578338623046875,0.041656494140625
1772457349499500500,6.43150048828125,-0.9214630126953125,-0.3558502197265625,0.047454833984375
1772457349509569500,6.441569580078125,-0.9294891357421875,-0.35186767578125,0.0473175048828125
1772457349519637500,6.451637451171875,-0.9347991943359375,-0.350067138671875,0.0433502197265625
1772457349529706800,6.461706787109375,-0.9407196044921875,-0.3515167236328125,0.0396728515625
1772457349539774700,6.471774658203125,-0.941314697265625,-0.35247802734375,0.0357818603515625
1772457349549843500,6.481843505859375,-0.9302978515625,-0.356048583984375,0.0386199951171875
1772457349559911700,6.49191162109375,-0.917449951171875,-0.3599395751953125,0.041107177734375
1772457349569980700,6.501980712890625,-0.9098358154296875,-0.3599090576171875,0.0464935302734375
1772457349580049400,6.51204931640625,-0.907806396484375,-0.3572998046875,0.0478515625
1772457349590117600,6.52211767578125,-0.9129180908203125,-0.354888916015625,0.0417938232421875
1772457349600186600,6.5321865234375,-0.9168243408203125,-0.3562469482421875,0.0401153564453125
1772457349610254600,6.542254638671875,-0.9200286865234375,-0.357391357421875,0.03753662109375
1772457349620323600,6.552323486328125,-0.9181365966796875,-0.3583831787109375,0.0371856689453125
1772457349630392600,6.562392578125,-0.9163818359375,-0.360870361328125,0.0373992919921875
1772457349640460800,6.572460693359375,-0.921142578125,-0.360626220703125,0.037017822265625
1772457349650529500,6.582529541015625,-0.9243316650390625,-0.3591156005859375,0.036712646484375
1772457349660597500,6.592597412109375,-0.92620849609375,-0.355224609375,0.037872314453125
1772457349670666800,6.602666748046875,-0.9287109375,-0.3558807373046875,0.037811279296875
1772457349680734700,6.612734619140625,-0.9307098388671875,-0.3575592041015625,0.035003662109375
1772457349690803500,6.622803466796875,-0.9346771240234375,-0.3585968017578125,0.0291290283203125
1772457349700871700,6.63287158203125,-0.941925048828125,-0.3596954345703125,0.027984619140625
1772457349710940700,6.642940673828125,-0.9414215087890625,-0.3585357666015625,0.0290679931640625
1772457349721009700,6.653009765625,-0.93634033203125,-0.3597564697265625,0.034912109375
1772457349731077600,6.66307763671875,-0.9297027587890625,-0.3570098876953125,0.039337158203125
1772457349741146600,6.673146728515625,-0.9251251220703125,-0.35711669921875,0.0429840087890625
1772457349751214600,6.683214599609375,-0.926666259765625,-0.356353759765625,0.0422821044921875
1772457349761283600,6.69328369140625,-0.932403564453125,-0.354461669921875,0.038482666015625
1772457349771351600,6.7033515625,-0.92938232421875,-0.353790283203125,0.036407470703125
1772457349781420500,6.713420654296875,-0.927581787109375,-0.3565216064453125,0.036956787109375
1772457349791489500,6.723489501953125,-0.9255523681640625,-0.35791015625,0.037933349609375
1772457349801557500,6.7335576171875,-0.921844482421875,-0.3562774658203125,0.0363616943359375
1772457349811626800,6.743626708984375,-0.9170379638671875,-0.3551483154296875,0.038055419921875
1772457349821694700,6.75369482421875,-0.9156951904296875,-0.3558197021484375,0.0399017333984375
1772457349831763500,6.763763427734375,-0.91705322265625,-0.3534393310546875,0.0405426025390625
1772457349841831700,6.773831787109375,-0.9198760986328125,-0.3551483154296875,0.03857421875
1772457349851900700,6.783900634765625,-0.9185333251953125,-0.357086181640625,0.041961669921875
1772457349861969400,6.793969482421875,-0.918609619140625,-0.3576812744140625,0.045318603515625
1772457349872037600,6.80403759765625,-0.919097900390625,-0.3574066162109375,0.04339599609375
1772457349882106600,6.814106689453125,-0.9185638427734375,-0.360015869140625,0.04296875
1772457349892174600,6.824174560546875,-0.921783447265625,-0.3582305908203125,0.0402679443359375
1772457349902243600,6.83424365234375,-0.9292144775390625,-0.357666015625,0.0380706787109375
1772457349912311600,6.8443115234375,-0.93408203125,-0.3583984375,0.03472900390625
1772457349922380800,6.854380859375,-0.92926025390625,-0.35894775390625,0.0365447998046875
1772457349932448500,6.864448486328125,-0.928192138671875,-0.358978271484375,0.0390777587890625
1772457349942517500,6.874517578125,-0.9277801513671875,-0.3617401123046875,0.03955078125
1772457349952586800,6.884586669921875,-0.9270172119140625,-0.36102294921875,0.04058837890625
1772457349962654500,6.894654541015625,-0.9269256591796875,-0.35870361328125,0.041015625
1772457349972723500,6.904723388671875,-0.919586181640625,-0.3608551025390625,0.04010009765625
1772457349982791700,6.914791748046875,-0.9122314453125,-0.36456298828125,0.0380859375
1772457349992860700,6.924860595703125,-0.909881591796875,-0.3657989501953125,0.0367279052734375
1772457350002928400,6.934928466796875,-0.9105377197265625,-0.3632659912109375,0.03662109375
1772457350012997600,6.94499755859375,-0.9095001220703125,-0.3603515625,0.0395660400390625
1772457350023066600,6.955066650390625,-0.91290283203125,-0.360076904296875,0.0389251708984375
1772457350033134300,6.96513427734375,-0.9131317138671875,-0.36126708984375,0.041412353515625
1772457350043203600,6.97520361328125,-0.913238525390625,-0.3610687255859375,0.040771484375
1772457350053271600,6.985271484375,-0.9141998291015625,-0.360748291015625,0.0390625
1772457350063340500,6.995340576171875,-0.9187164306640625,-0.360870361328125,0.0382537841796875
1772457350073408500,7.005408447265625,-0.924072265625,-0.3620452880859375,0.039215087890625
1772457350083477500,7.0154775390625,-0.9244537353515625,-0.3625335693359375,0.0377349853515625
1772457350093546800,7.025546630859375,-0.9236907958984375,-0.362457275390625,0.040008544921875
1772457350103614500,7.035614501953125,-0.92938232421875,-0.36297607421875,0.040985107421875
1772457350113683500,7.045683349609375,-0.9339141845703125,-0.36212158203125,0.0374908447265625
1772457350123751700,7.055751708984375,-0.9375762939453125,-0.36187744140625,0.0359344482421875
1772457350133820400,7.0658203125,-0.9345245361328125,-0.362548828125,0.0384521484375
1772457350143888400,7.075888427734375,-0.925872802734375,-0.3631439208984375,0.040252685546875
1772457350153957600,7.08595751953125,-0.921112060546875,-0.359466552734375,0.0439300537109375
1772457350164026600,7.096026611328125,-0.925933837890625,-0.3580169677734375,0.0437774658203125
1772457350174094600,7.106094482421875,-0.9292144775390625,-0.356201171875,0.0393218994140625
1772457350184163600,7.11616357421875,-0.9250030517578125,-0.35723876953125,0.036224365234375
1772457350194231600,7.1262314453125,-0.9223480224609375,-0.359619140625,0.037841796875
1772457350204300500,7.136300537109375,-0.9210968017578125,-0.358551025390625,0.0337982177734375
1772457350214368500,7.146368408203125,-0.920166015625,-0.356903076171875,0.035430908203125
1772457350224437500,7.1564375,-0.9191436767578125,-0.3564300537109375,0.0365753173828125
1772457350234505700,7.166505615234375,-0.9163665771484375,-0.358428955078125,0.0369415283203125
1772457350244574500,7.176574462890625,-0.9105072021484375,-0.364105224609375,0.0372467041015625
1772457350254643700,7.186643798828125,-0.904327392578125,-0.36474609375,0.0339508056640625
1772457350264711700,7.196711669921875,-0.9055633544921875,-0.363861083984375,0.0336761474609375
1772457350274780400,7.206780517578125,-0.9075775146484375,-0.36322021484375,0.0379486083984375
1772457350284848600,7.2168486328125,-0.911285400390625,-0.360931396484375,0.0389404296875
1772457350294917600,7.226917724609375,-0.918121337890625,-0.3601226806640625,0.036773681640625
1772457350304985600,7.236985595703125,-0.9316253662109375,-0.357452392578125,0.0331268310546875
1772457350315054600,7.2470546875,-0.9434814453125,-0.3553466796875,0.0297088623046875
1772457350325123600,7.25712353515625,-0.9482421875,-0.3553009033203125,0.02691650390625
1772457350335191600,7.267191650390625,-0.9405975341796875,-0.356903076171875,0.03125
1772457350345260500,7.277260498046875,-0.926727294921875,-0.3603057861328125,0.036712646484375
1772457350355328500,7.28732861328125,-0.9134979248046875,-0.36090087890625,0.039947509765625
1772457350365397500,7.2973974609375,-0.9130706787109375,-0.3622283935546875,0.04248046875
1772457350375465700,7.3074658203125,-0.9223785400390625,-0.3585662841796875,0.039337158203125
1772457350385534500,7.317534423828125,-0.9310455322265625,-0.3571624755859375,0.0353851318359375
1772457350395603700,7.327603759765625,-0.932525634765625,-0.3583526611328125,0.035247802734375
1772457350405671700,7.337671630859375,-0.92425537109375,-0.3612518310546875,0.038726806640625
1772457350415740400,7.347740478515625,-0.9148101806640625,-0.361663818359375,0.0407257080078125
1772457350425808600,7.35780859375,-0.909912109375,-0.363006591796875,0.046844482421875
1772457350435877600,7.367877685546875,-0.9153900146484375,-0.360260009765625,0.0449676513671875
1772457350445945600,7.377945556640625,-0.9273223876953125,-0.3599090576171875,0.038818359375
1772457350456014600,7.3880146484375,-0.9372711181640625,-0.3597564697265625,0.035400390625
1772457350466082600,7.39808251953125,-0.9329986572265625,-0.3619384765625,0.0319671630859375
1772457350476151600,7.408151611328125,-0.92498779296875,-0.3681640625,0.0341796875
1772457350486220500,7.418220458984375,-0.916015625,-0.3683929443359375,0.038360595703125
1772457350496288500,7.42828857421875,-0.9136199951171875,-0.36614990234375,0.0423583984375
1772457350506357800,7.438357666015625,-0.918182373046875,-0.3638916015625,0.0409393310546875
1772457350516425700,7.44842578125,-0.9210357666015625,-0.3594207763671875,0.0399322509765625
1772457350526494500,7.458494384765625,-0.9272918701171875,-0.357696533203125,0.0350799560546875
1772457350536562700,7.468562744140625,-0.9247589111328125,-0.35986328125,0.034942626953125
1772457350546631700,7.478631591796875,-0.919769287109375,-0.3589019775390625,0.03564453125
1772457350556700400,7.488700439453125,-0.91851806640625,-0.3577423095703125,0.0394287109375
1772457350566768600,7.4987685546875,-0.9178314208984375,-0.3542938232421875,0.042083740234375
1772457350576837600,7.508837646484375,-0.919830322265625,-0.3529815673828125,0.038909912109375
1772457350586905600,7.518905517578125,-0.9207000732421875,-0.3525390625,0.036102294921875
1772457350596974600,7.528974609375,-0.921478271484375,-0.3533782958984375,0.0381622314453125
1772457350607042600,7.53904248046875,-0.916290283203125,-0.3554840087890625,0.0398712158203125
1772457350617111800,7.54911181640625,-0.915618896484375,-0.35565185546875,0.0390625
1772457350627180500,7.5591806640625,-0.91864013671875,-0.3558197021484375,0.0368194580078125
1772457350637248500,7.56924853515625,-0.919708251953125,-0.3554840087890625,0.0357513427734375
1772457350647317800,7.57931787109375,-0.9266510009765625,-0.3547210693359375,0.0370941162109375
1772457350657385500,7.589385498046875,-0.934295654296875,-0.3561553955078125,0.0339508056640625
1772457350667454500,7.599454345703125,-0.9338226318359375,-0.3563690185546875,0.0321502685546875
1772457350677522700,7.609522705078125,-0.9232330322265625,-0.3590087890625,0.0333099365234375
1772457350687591700,7.619591796875,-0.9200897216796875,-0.362030029296875,0.03411865234375
1772457350697659400,7.629659423828125,-0.9235382080078125,-0.3615875244140625,0.033447265625
1772457350707728600,7.639728759765625,-0.9331207275390625,-0.362060546875,0.0269317626953125
1772457350717797600,7.649797607421875,-0.941680908203125,-0.3599395751953125,0.021728515625
1772457350727865300,7.659865234375,-0.93841552734375,-0.3577117919921875,0.0234222412109375
1772457350737934600,7.6699345703125,-0.926055908203125,-0.359466552734375,0.0303955078125
1772457350748002800,7.6800029296875,-0.9152679443359375,-0.3607635498046875,0.0380096435546875
1772457350758071600,7.690071533203125,-0.9123077392578125,-0.3580474853515625,0.040374755859375
1772457350768139500,7.700139404296875,-0.9158172607421875,-0.3546905517578125,0.040283203125
1772457350778208800,7.710208740234375,-0.92059326171875,-0.3518524169921875,0.0346221923828125
1772457350788277500,7.720277587890625,-0.9240570068359375,-0.350555419921875,0.0318756103515625
1772457350798345700,7.730345703125,-0.920867919921875,-0.3538055419921875,0.0324554443359375
1772457350808414700,7.740414794921875,-0.921112060546875,-0.355682373046875,0.0332794189453125
1772457350818482700,7.750482666015625,-0.9205474853515625,-0.353668212890625,0.0343170166015625
1772457350828551700,7.7605517578125,-0.918426513671875,-0.352325439453125,0.03729248046875
1772457350838619600,7.77061962890625,-0.9185028076171875,-0.353240966796875,0.0379791259765625
1772457350848688600,7.780688720703125,-0.9278411865234375,-0.3520660400390625,0.036529541015625
1772457350858756900,7.7907568359375,-0.93341064453125,-0.351593017578125,0.0321502685546875
1772457350868825600,7.80082568359375,-0.9327850341796875,-0.3555908203125,0.0310211181640625
1772457350878894800,7.810894775390625,-0.9297943115234375,-0.3579559326171875,0.0298614501953125
1772457350888962800,7.820962890625,-0.9270782470703125,-0.3580169677734375,0.028656005859375
1772457350899031600,7.831031494140625,-0.9305267333984375,-0.35552978515625,0.031646728515625
1772457350909099500,7.841099609375,-0.9335479736328125,-0.3516845703125,0.0293731689453125
1772457350919168800,7.851168701171875,-0.931854248046875,-0.3489837646484375,0.031005859375
1772457350929236700,7.86123681640625,-0.932342529296875,-0.3491668701171875,0.0312652587890625
1772457350939305700,7.8713056640625,-0.929718017578125,-0.3493804931640625,0.0304718017578125
1772457350949374700,7.881374755859375,-0.932159423828125,-0.3501434326171875,0.033721923828125
1772457350959442700,7.891442626953125,-0.9300384521484375,-0.3500213623046875,0.032257080078125
1772457350969511700,7.90151171875,-0.9216461181640625,-0.34893798828125,0.0322723388671875
1772457350979579600,7.91157958984375,-0.919342041015625,-0.35009765625,0.0336151123046875
1772457350989648600,7.921648681640625,-0.9225921630859375,-0.34881591796875,0.02984619140625
1772457350999716900,7.931716796875,-0.9249420166015625,-0.3475341796875,0.0290985107421875
1772457351009785600,7.94178564453125,-0.9265594482421875,-0.3485260009765625,0.029998779296875
1772457351019853600,7.951853515625,-0.924713134765625,-0.350677490234375,0.030609130859375
1772457351029922800,7.9619228515625,-0.922393798828125,-0.3527679443359375,0.0304107666015625
1772457351039991600,7.971991455078125,-0.918182373046875,-0.3564453125,0.031158447265625
1772457351050057700,7.9820576171875,-0.9114990234375,-0.3586883544921875,0.02880859375
1772457351060126700,7.992126708984375,-0.9158782958984375,-0.35894775390625,0.0295257568359375
1772457351070195700,8.00219580078125,-0.9233551025390625,-0.3556976318359375,0.033233642578125
1772457351080263700,8.012263671875,-0.9300079345703125,-0.351409912109375,0.0338134765625
1772457351090332700,8.022332763671875,-0.9378204345703125,-0.3489532470703125,0.035675048828125
1772457351100400600,8.032400634765626,-0.94146728515625,-0.3444976806640625,0.0350189208984375
1772457351110469600,8.0424697265625,-0.946197509765625,-0.3444976806640625,0.031829833984375
1772457351120537900,8.052537841796875,-0.94842529296875,-0.343414306640625,0.0323028564453125
1772457351130606600,8.062606689453125,-0.9443817138671875,-0.3458099365234375,0.0343017578125
1772457351140675800,8.07267578125,-0.931243896484375,-0.3474578857421875,0.0359344482421875
1772457351150743800,8.082743896484375,-0.919189453125,-0.3477020263671875,0.03875732421875
1772457351160812500,8.0928125,-0.9099273681640625,-0.347869873046875,0.04241943359375
1772457351170880800,8.102880859375,-0.9135894775390625,-0.3471221923828125,0.043304443359375
1772457351180949800,8.11294970703125,-0.91705322265625,-0.345245361328125,0.0404205322265625
1772457351191017700,8.123017822265625,-0.921722412109375,-0.3461761474609375,0.0352325439453125
1772457351201086700,8.133086669921875,-0.9252471923828125,-0.347930908203125,0.033935546875
1772457351211155700,8.14315576171875,-0.9225921630859375,-0.347900390625,0.0345306396484375
1772457351221223700,8.1532236328125,-0.9172821044921875,-0.3511810302734375,0.03619384765625
1772457351231292700,8.163292724609375,-0.9167022705078125,-0.3546142578125,0.035797119140625
1772457351241360600,8.173360595703125,-0.9237213134765625,-0.3541717529296875,0.0341033935546875
1772457351251430000,8.183429931640624,-0.93170166015625,-0.350738525390625,0.0303802490234375
1772457351261497900,8.193497802734376,-0.94024658203125,-0.351715087890625,0.028656005859375
1772457351271566600,8.203566650390625,-0.9421234130859375,-0.352996826171875,0.0269775390625
1772457351281634800,8.213634765625,-0.936676025390625,-0.355133056640625,0.026397705078125
1772457351291703800,8.223703857421874,-0.9348602294921875,-0.35711669921875,0.030792236328125
1772457351301772500,8.2337724609375,-0.9315948486328125,-0.3555450439453125,0.0304412841796875
1772457351311840800,8.2438408203125,-0.931365966796875,-0.352020263671875,0.0357208251953125
1772457351321909800,8.25390966796875,-0.9331207275390625,-0.3498382568359375,0.0384063720703125
1772457351331977700,8.263977783203124,-0.9368896484375,-0.3502044677734375,0.03955078125
1772457351342046700,8.274046630859376,-0.9339447021484375,-0.346832275390625,0.0397186279296875
1772457351352114700,8.28411474609375,-0.930511474609375,-0.3464813232421875,0.038848876953125
1772457351362184000,8.294183837890625,-0.928070068359375,-0.3476104736328125,0.0348358154296875
1772457351372252700,8.304252685546874,-0.9272308349609375,-0.3472747802734375,0.033447265625
1772457351382320600,8.314320556640626,-0.9253997802734375,-0.3457489013671875,0.0333404541015625
1772457351392390000,8.324389892578125,-0.920440673828125,-0.345794677734375,0.03704833984375
1772457351402457600,8.33445751953125,-0.92156982421875,-0.344268798828125,0.039337158203125
1772457351412526600,8.344526611328124,-0.9234619140625,-0.343780517578125,0.04010009765625
1772457351422594800,8.3545947265625,-0.920318603515625,-0.3450164794921875,0.038543701171875
1772457351432663600,8.36466357421875,-0.9205780029296875,-0.3480377197265625,0.035919189453125
1772457351442731500,8.3747314453125,-0.9191436767578125,-0.346649169921875,0.035308837890625
1772457351452800800,8.38480078125,-0.9171295166015625,-0.3499755859375,0.035552978515625
1772457351462869800,8.394869873046876,-0.9175872802734375,-0.352447509765625,0.0340728759765625
1772457351472937500,8.4049375,-0.9244384765625,-0.3503265380859375,0.033782958984375
1772457351483006700,8.4150068359375,-0.92938232421875,-0.3506011962890625,0.0350494384765625
1772457351493074700,8.42507470703125,-0.93621826171875,-0.35089111328125,0.031707763671875
1772457351503143700,8.435143798828125,-0.9374847412109375,-0.3494873046875,0.0304412841796875
1772457351513211600,8.445211669921875,-0.9342803955078125,-0.35052490234375,0.030914306640625
1772457351523280600,8.45528076171875,-0.938629150390625,-0.3526153564453125,0.0297088623046875
1772457351533349600,8.465349609375,-0.9402618408203125,-0.349578857421875,0.0298309326171875
1772457351543417600,8.47541748046875,-0.931121826171875,-0.3496551513671875,0.031707763671875
1772457351553486600,8.485486572265625,-0.9220733642578125,-0.3509979248046875,0.0362548828125
1772457351563554800,8.495554931640624,-0.920166015625,-0.34783935546875,0.0396881103515625
1772457351573623600,8.50562353515625,-0.927215576171875,-0.3450775146484375,0.03955078125
1772457351583691500,8.51569140625,-0.930450439453125,-0.3436737060546875,0.038421630859375
1772457351593760800,8.5257607421875,-0.928253173828125,-0.3443756103515625,0.0368194580078125
1772457351603828700,8.535828857421874,-0.932220458984375,-0.3438262939453125,0.03790283203125
1772457351613897700,8.545897705078126,-0.9298553466796875,-0.3433074951171875,0.035858154296875
1772457351623966700,8.555966796875,-0.9261322021484375,-0.346832275390625,0.03900146484375
1772457351634034700,8.56603466796875,-0.9207763671875,-0.3476409912109375,0.0395965576171875
1772457351644103700,8.576103759765624,-0.918182373046875,-0.3492279052734375,0.039642333984375
1772457351654171600,8.586171630859376,-0.922943115234375,-0.3515625,0.036407470703125
1772457351664240600,8.59624072265625,-0.9270172119140625,-0.3483428955078125,0.031524658203125
1772457351674308900,8.606308837890625,-0.924957275390625,-0.3498687744140625,0.0322113037109375
1772457351684377600,8.616377685546874,-0.922607421875,-0.35223388671875,0.033294677734375
1772457351694446800,8.62644677734375,-0.923004150390625,-0.3527069091796875,0.0337371826171875
1772457351704514800,8.636514892578125,-0.925018310546875,-0.3512115478515625,0.032012939453125
1772457351714583600,8.64658349609375,-0.9275970458984375,-0.3525543212890625,0.028778076171875
1772457351724651800,8.65665185546875,-0.9292144775390625,-0.352996826171875,0.0286102294921875
1772457351734720800,8.666720703125,-0.932830810546875,-0.3503265380859375,0.0273590087890625
1772457351744788700,8.676788818359375,-0.9401092529296875,-0.3478240966796875,0.028533935546875
1772457351754857000,8.68685693359375,-0.9384307861328125,-0.3477935791015625,0.0285186767578125
1772457351764925000,8.696925048828126,-0.9316253662109375,-0.3498992919921875,0.027862548828125
1772457351774994200,8.706994140625,-0.9301910400390625,-0.35089111328125,0.028106689453125
1772457351785063000,8.71706298828125,-0.932159423828125,-0.3517913818359375,0.029632568359375
1772457351795131000,8.727130859375,-0.9316253662109375,-0.3472137451171875,0.03082275390625
1772457351805200100,8.7372001953125,-0.9282989501953125,-0.3455047607421875,0.03515625
1772457351815268000,8.74726806640625,-0.92388916015625,-0.3466949462890625,0.040557861328125
1772457351825337000,8.757337158203125,-0.917510986328125,-0.3470001220703125,0.0425567626953125
1772457351835405000,8.767405029296874,-0.9163360595703125,-0.3487701416015625,0.0408782958984375
1772457351845474000,8.77747412109375,-0.919281005859375,-0.3507080078125,0.0385589599609375
1772457351855543000,8.78754296875,-0.9160003662109375,-0.3491973876953125,0.03656005859375
1772457351865611000,8.797611083984375,-0.92083740234375,-0.3519439697265625,0.0399932861328125
1772457351875680000,8.807679931640624,-0.9282684326171875,-0.3511962890625,0.0406036376953125
1772457351885748200,8.817748291015626,-0.9299163818359375,-0.348297119140625,0.035125732421875
1772457351895817000,8.82781689453125,-0.9402618408203125,-0.3475799560546875,0.0313720703125
1772457351905885000,8.837885009765625,-0.9462738037109375,-0.34503173828125,0.029205322265625
1772457351915954200,8.8479541015625,-0.9431304931640625,-0.3441925048828125,0.0289764404296875
1772457351926022100,8.858022216796876,-0.9399261474609375,-0.3434600830078125,0.0320587158203125
1772457351936091100,8.868091064453125,-0.931243896484375,-0.3443450927734375,0.0384063720703125
1772457351946160000,8.87816015625,-0.92620849609375,-0.344482421875,0.043609619140625
1772457351956228000,8.88822802734375,-0.92681884765625,-0.3442840576171875,0.045501708984375
1772457351966297000,8.898297119140626,-0.93084716796875,-0.34222412109375,0.04339599609375
1772457351976365000,8.908364990234375,-0.9328155517578125,-0.34222412109375,0.0395660400390625
1772457351986434000,8.91843408203125,-0.925750732421875,-0.34552001953125,0.0379486083984375
1772457351996502300,8.928502197265624,-0.9218292236328125,-0.3470458984375,0.040496826171875
1772457352006571000,8.938571044921876,-0.9203948974609375,-0.347747802734375,0.0407562255859375
1772457352016639000,8.948638916015625,-0.9240875244140625,-0.347930908203125,0.0371856689453125
1772457352026708200,8.958708251953125,-0.9331817626953125,-0.348785400390625,0.032745361328125
1772457352036777000,8.96877685546875,-0.9404296875,-0.3480682373046875,0.0296783447265625
1772457352046845000,8.978844970703125,-0.9372406005859375,-0.351165771484375,0.0286712646484375
1772457352056914200,8.9889140625,-0.928802490234375,-0.3538970947265625,0.0320587158203125
1772457352066982100,8.998982177734375,-0.9209747314453125,-0.3540802001953125,0.0359344482421875
1772457352077051100,9.009051025390624,-0.91754150390625,-0.3551483154296875,0.0378265380859375
1772457352087119000,9.019119140625,-0.9218902587890625,-0.354522705078125,0.034942626953125
1772457352097188000,9.02918798828125,-0.9243621826171875,-0.354339599609375,0.0334625244140625
1772457352107257000,9.039257080078125,-0.9292449951171875,-0.353851318359375,0.03131103515625
1772457352117325000,9.049324951171876,-0.9293670654296875,-0.350860595703125,0.02960205078125
1772457352127394000,9.05939404296875,-0.927764892578125,-0.353179931640625,0.0301361083984375
1772457352137462000,9.0694619140625,-0.923980712890625,-0.3535614013671875,0.0335540771484375
1772457352147531000,9.079531005859375,-0.9231719970703125,-0.350860595703125,0.0334625244140625
1772457352157599000,9.089598876953126,-0.9228363037109375,-0.3478546142578125,0.0384368896484375
1772457352167668200,9.099668212890625,-0.9223480224609375,-0.3466949462890625,0.03790283203125
1772457352177736000,9.10973583984375,-0.92431640625,-0.3482818603515625,0.0339813232421875
1772457352187805200,9.11980517578125,-0.9277191162109375,-0.3468017578125,0.0324554443359375
1772457352197874200,9.129874267578124,-0.9256134033203125,-0.3480377197265625,0.032745361328125
1772457352207942000,9.13994189453125,-0.9233856201171875,-0.3491668701171875,0.03179931640625
1772457352218011100,9.15001123046875,-0.9198150634765625,-0.349609375,0.03302001953125
1772457352228079000,9.1600791015625,-0.9156646728515625,-0.3492584228515625,0.0377960205078125
1772457352238148000,9.170148193359376,-0.91033935546875,-0.3491973876953125,0.0406494140625
1772457352248216000,9.180216064453125,-0.9123382568359375,-0.35009765625,0.039703369140625
1772457352258285000,9.19028515625,-0.923553466796875,-0.3502197265625,0.032684326171875
1772457352268354300,9.200354248046875,-0.93292236328125,-0.3496856689453125,0.024932861328125
1772457352278422000,9.210422119140626,-0.9361724853515625,-0.351043701171875,0.0212860107421875
1772457352288491000,9.220490966796875,-0.9393463134765625,-0.352264404296875,0.0235748291015625
1772457352298559200,9.230559326171875,-0.94281005859375,-0.350006103515625,0.0250244140625
1772457352308628000,9.2406279296875,-0.9376983642578125,-0.3514862060546875,0.026702880859375
1772457352318696000,9.250696044921876,-0.931915283203125,-0.353607177734375,0.0302276611328125
1772457352328765200,9.26076513671875,-0.9290771484375,-0.3524627685546875,0.0351104736328125
1772457352338833200,9.270833251953125,-0.926788330078125,-0.35113525390625,0.0361785888671875
1772457352348902000,9.28090185546875,-0.9316864013671875,-0.34765625,0.037628173828125
1772457352358971100,9.29097119140625,-0.930023193359375,-0.346710205078125,0.037384033203125
1772457352369039000,9.3010390625,-0.9256744384765625,-0.348236083984375,0.0363006591796875
1772457352379107800,9.31110791015625,-0.92425537109375,-0.3477783203125,0.036590576171875
1772457352389176000,9.321176025390624,-0.920501708984375,-0.3484039306640625,0.0375823974609375
1772457352399245000,9.3312451171875,-0.9134674072265625,-0.350616455078125,0.0390777587890625
1772457352409313000,9.34131298828125,-0.909332275390625,-0.349151611328125,0.0436553955078125
1772457352419382000,9.351382080078125,-0.9114227294921875,-0.3486480712890625,0.042388916015625
1772457352429450000,9.361449951171876,-0.9121856689453125,-0.3488006591796875,0.0383453369140625
1772457352439519200,9.371519287109376,-0.91558837890625,-0.3498992919921875,0.03558349609375
1772457352449588000,9.381587890625,-0.9212799072265625,-0.350982666015625,0.033905029296875
1772457352459656000,9.391656005859375,-0.923614501953125,-0.35064697265625,0.032196044921875
1772457352469725200,9.40172509765625,-0.9242706298828125,-0.3528289794921875,0.0304718017578125
1772457352479793200,9.411793212890625,-0.9281463623046875,-0.3540802001953125,0.02960205078125
1772457352489862000,9.42186181640625,-0.9322509765625,-0.3523101806640625,0.029571533203125
1772457352499930000,9.43193017578125,-0.9377593994140625,-0.3494110107421875,0.029937744140625
1772457352509999000,9.4419990234375,-0.94342041015625,-0.3471221923828125,0.0335845947265625
1772457352520068000,9.452068115234376,-0.9396514892578125,-0.345458984375,0.03814697265625
1772457352530136000,9.462135986328125,-0.9333343505859375,-0.3476409912109375,0.0404510498046875
1772457352540205000,9.472205078125,-0.9242401123046875,-0.3485565185546875,0.0401153564453125
1772457352550273300,9.482273193359376,-0.91943359375,-0.3493194580078125,0.0400543212890625
1772457352560342000,9.492342041015625,-0.920562744140625,-0.3498382568359375,0.036712646484375
1772457352570410000,9.502409912109375,-0.9241790771484375,-0.3502655029296875,0.0323638916015625
1772457352580479200,9.512479248046875,-0.9315643310546875,-0.3469390869140625,0.029388427734375
1772457352590547200,9.522547119140626,-0.9288330078125,-0.345123291015625,0.03076171875
1772457352600616000,9.532615966796875,-0.917877197265625,-0.3504791259765625,0.0363006591796875
1772457352610685200,9.542685302734375,-0.9164886474609375,-0.3504638671875,0.0380096435546875
1772457352620753200,9.552753173828124,-0.9182586669921875,-0.3482818603515625,0.03802490234375
1772457352630822100,9.562822265625,-0.9218597412109375,-0.3491668701171875,0.037689208984375
1772457352640890000,9.57289013671875,-0.925018310546875,-0.348785400390625,0.0357513427734375
1772457352650959000,9.582958984375,-0.930511474609375,-0.3492431640625,0.0301513671875
1772457352661027000,9.593027099609374,-0.93359375,-0.34967041015625,0.0277557373046875
1772457352671096000,9.603095947265626,-0.9361114501953125,-0.3476715087890625,0.0276641845703125
1772457352681165000,9.6131650390625,-0.93255615234375,-0.349456787109375,0.02978515625
1772457352691233300,9.6232333984375,-0.925201416015625,-0.3511962890625,0.032501220703125
1772457352701302000,9.633302001953124,-0.92498779296875,-0.3527069091796875,0.029296875
1772457352711370000,9.643369873046876,-0.931304931640625,-0.3514251708984375,0.027496337890625
1772457352721439200,9.653439208984375,-0.9268035888671875,-0.3510894775390625,0.0274505615234375
1772457352731507000,9.6635068359375,-0.9215240478515625,-0.3536834716796875,0.0319061279296875
1772457352741576000,9.673575927734374,-0.9212493896484375,-0.34979248046875,0.0373687744140625
1772457352751644200,9.68364404296875,-0.9288177490234375,-0.3467254638671875,0.038330078125
1772457352761713200,9.693713134765625,-0.929443359375,-0.3437347412109375,0.0387725830078125
1772457352771782100,9.7037822265625,-0.9258880615234375,-0.3437347412109375,0.040496826171875
1772457352781850000,9.71385009765625,-0.9248046875,-0.34564208984375,0.042694091796875
1772457352791919000,9.723919189453126,-0.926788330078125,-0.3440704345703125,0.0414276123046875
1772457352801987000,9.733987060546875,-0.9307098388671875,-0.343292236328125,0.0372314453125
1772457352812056000,9.74405615234375,-0.938232421875,-0.3434906005859375,0.033294677734375
1772457352822124000,9.7541240234375,-0.9415740966796875,-0.3434600830078125,0.0324249267578125
1772457352832193000,9.764193115234375,-0.93896484375,-0.345703125,0.033050537109375
1772457352842262000,9.774261962890625,-0.9354400634765625,-0.3483428955078125,0.033782958984375
1772457352852330200,9.784330322265625,-0.9297637939453125,-0.351104736328125,0.036712646484375
1772457352862399000,9.79439892578125,-0.9274749755859375,-0.352813720703125,0.0348358154296875
1772457352872467000,9.804467041015625,-0.926300048828125,-0.351531982421875,0.0363006591796875
1772457352882536200,9.8145361328125,-0.9251251220703125,-0.3505859375,0.0356292724609375
1772457352892604200,9.824604248046874,-0.9268341064453125,-0.350860595703125,0.03350830078125
1772457352902673000,9.8346728515625,-0.9284210205078125,-0.3511810302734375,0.03204345703125
1772457352912741000,9.8447412109375,-0.9309844970703125,-0.347381591796875,0.0320281982421875
1772457352922810000,9.85481005859375,-0.9290924072265625,-0.3487091064453125,0.03143310546875
1772457352932879000,9.864879150390625,-0.9318084716796875,-0.3455657958984375,0.0323028564453125
1772457352942947000,9.874947021484376,-0.9306182861328125,-0.34375,0.0340728759765625
1772457352953016000,9.88501611328125,-0.9225311279296875,-0.344573974609375,0.0351104736328125
1772457352963084300,9.895084228515625,-0.916015625,-0.3473358154296875,0.0350189208984375
1772457352973153000,9.905153076171874,-0.9177703857421875,-0.3454742431640625,0.03765869140625
1772457352983221000,9.915220947265626,-0.92559814453125,-0.3438720703125,0.0357818603515625
1772457352993290200,9.925290283203125,-0.9331817626953125,-0.34295654296875,0.0335693359375
1772457353003358200,9.935358154296875,-0.930877685546875,-0.3435516357421875,0.0318145751953125
1772457353013427000,9.945427001953124,-0.92633056640625,-0.346221923828125,0.03521728515625
1772457353023496200,9.95549609375,-0.921539306640625,-0.3469696044921875,0.0365753173828125
1772457353033564200,9.965564208984375,-0.9216156005859375,-0.346649169921875,0.03857421875
1772457353043633200,9.975633056640625,-0.9228973388671875,-0.3448638916015625,0.0378265380859375
1772457353053701000,9.985701171875,-0.928558349609375,-0.3441009521484375,0.038330078125
1772457353063770000,9.99577001953125,-0.9357452392578125,-0.3425140380859375,0.0333404541015625
1772457353073838000,10.005838134765625,-0.9365692138671875,-0.3441009521484375,0.032958984375
1772457353083907000,10.015906982421875,-0.9387054443359375,-0.3428955078125,0.031646728515625
1772457353093976000,10.02597607421875,-0.9385528564453125,-0.3438262939453125,0.0300140380859375
1772457353104044300,10.036044189453126,-0.9316558837890625,-0.345184326171875,0.031768798828125
1772457353114113000,10.046113037109375,-0.928466796875,-0.34515380859375,0.0352325439453125
1772457353124181000,10.056180908203125,-0.929046630859375,-0.343292236328125,0.035400390625
1772457353134250200,10.066250244140624,-0.929595947265625,-0.3450469970703125,0.036407470703125
1772457353144318200,10.076318115234375,-0.9305267333984375,-0.3424530029296875,0.03619384765625
1772457353154387000,10.086386962890625,-0.9300994873046875,-0.343658447265625,0.033355712890625
1772457353164455200,10.096455078125,-0.92626953125,-0.3460235595703125,0.0334320068359375
1772457353174524200,10.106524169921874,-0.9202728271484375,-0.3468780517578125,0.035980224609375
1772457353184593200,10.11659326171875,-0.918426513671875,-0.347686767578125,0.0369110107421875
1772457353194661000,10.1266611328125,-0.921783447265625,-0.3495635986328125,0.032745361328125
1772457353204730000,10.136730224609375,-0.926483154296875,-0.34869384765625,0.0294036865234375
1772457353214798300,10.14679833984375,-0.9241180419921875,-0.3494873046875,0.0281982421875
1772457353224867000,10.1568671875,-0.920623779296875,-0.3503875732421875,0.032440185546875
1772457353234935000,10.16693505859375,-0.9233245849609375,-0.3499298095703125,0.0337677001953125
1772457353245004300,10.17700439453125,-0.924407958984375,-0.347320556640625,0.0358428955078125
1772457353255073000,10.187072998046874,-0.9267120361328125,-0.346588134765625,0.0343475341796875
1772457353265141000,10.19714111328125,-0.931610107421875,-0.344970703125,0.0352020263671875
1772457353275210200,10.207210205078125,-0.936492919921875,-0.346282958984375,0.031951904296875
1772457353285278200,10.2172783203125,-0.9352569580078125,-0.346832275390625,0.0316162109375
1772457353295347200,10.22734716796875,-0.9264984130859375,-0.3460540771484375,0.0356903076171875
1772457353305415200,10.237415283203125,-0.9230194091796875,-0.3466796875,0.0399017333984375
1772457353315484200,10.247484130859375,-0.9302825927734375,-0.34625244140625,0.0370635986328125
1772457353325552000,10.25755224609375,-0.938873291015625,-0.34326171875,0.03472900390625
1772457353335621000,10.26762109375,-0.9404144287109375,-0.341552734375,0.0321044921875
1772457353345690000,10.277690185546875,-0.9340362548828125,-0.3448333740234375,0.033447265625
1772457353355758000,10.287758056640625,-0.925384521484375,-0.3469696044921875,0.03826904296875
1772457353365827000,10.2978271484375,-0.9180145263671875,-0.350067138671875,0.0388946533203125
1772457353375895000,10.30789501953125,-0.91644287109375,-0.3497314453125,0.038543701171875
1772457353385964000,10.317964111328125,-0.9151611328125,-0.3493194580078125,0.0386810302734375
1772457353396032000,10.328031982421875,-0.912811279296875,-0.3481292724609375,0.04205322265625
1772457353406101200,10.338101318359374,-0.918487548828125,-0.34625244140625,0.044525146484375
1772457353416169200,10.348169189453126,-0.9245147705078125,-0.3416290283203125,0.04608154296875
1772457353426238000,10.358238037109375,-0.92974853515625,-0.3393707275390625,0.0403594970703125
1772457353436307200,10.36830712890625,-0.9416351318359375,-0.339691162109375,0.0389556884765625
1772457353446375200,10.378375244140624,-0.943817138671875,-0.3382720947265625,0.03704833984375
1772457353456444000,10.38844384765625,-0.93817138671875,-0.339324951171875,0.035675048828125
1772457353466512100,10.39851220703125,-0.9334259033203125,-0.341156005859375,0.0353851318359375
1772457353476581000,10.4085810546875,-0.928924560546875,-0.3430328369140625,0.0357513427734375
1772457353486649000,10.418649169921874,-0.9281005859375,-0.343231201171875,0.034698486328125
1772457353496718000,10.428718017578126,-0.93402099609375,-0.3421173095703125,0.034698486328125
1772457353506787000,10.438787109375,-0.937835693359375,-0.340789794921875,0.03204345703125
1772457353516855000,10.44885498046875,-0.9340972900390625,-0.3436737060546875,0.031951904296875
1772457353526924000,10.458924072265624,-0.93115234375,-0.3462066650390625,0.033447265625
1772457353536992000,10.468991943359375,-0.9243621826171875,-0.347686767578125,0.0345916748046875
1772457353547061200,10.479061279296875,-0.9195709228515625,-0.3508758544921875,0.0359649658203125
1772457353557129200,10.489129150390625,-0.9220733642578125,-0.3506927490234375,0.03582763671875
1772457353567198000,10.499197998046874,-0.929046630859375,-0.3477935791015625,0.0335540771484375
1772457353577266200,10.50926611328125,-0.9352874755859375,-0.34649658203125,0.031097412109375
1772457353587335200,10.519335205078125,-0.94061279296875,-0.34765625,0.0291290283203125
1772457353597404000,10.52940380859375,-0.9373321533203125,-0.3493804931640625,0.028594970703125
1772457353607472000,10.53947216796875,-0.9330291748046875,-0.3510284423828125,0.0254974365234375
1772457353617541000,10.549541015625,-0.9264678955078125,-0.3508758544921875,0.0290679931640625
1772457353627609000,10.559609130859375,-0.9193267822265625,-0.3514251708984375,0.035614013671875
1772457353637678000,10.569677978515625,-0.92181396484375,-0.350982666015625,0.0335845947265625
1772457353647746000,10.57974609375,-0.928253173828125,-0.3467254638671875,0.0348968505859375
1772457353657815300,10.589815185546875,-0.9289398193359375,-0.3426971435546875,0.033172607421875
1772457353667883300,10.59988330078125,-0.93060302734375,-0.3438568115234375,0.0350799560546875
1772457353677952000,10.609951904296874,-0.9306793212890625,-0.34063720703125,0.036407470703125
1772457353688021200,10.620021240234376,-0.930023193359375,-0.3407440185546875,0.0384368896484375
1772457353698089200,10.630089111328125,-0.9329833984375,-0.3406524658203125,0.0379791259765625
1772457353708158000,10.640157958984375,-0.9339141845703125,-0.3377532958984375,0.0376739501953125
1772457353718226200,10.65022607421875,-0.93048095703125,-0.336517333984375,0.0370635986328125
1772457353728295200,10.660295166015626,-0.930267333984375,-0.33636474609375,0.038116455078125
1772457353738363100,10.670363037109375,-0.9290313720703125,-0.339996337890625,0.038177490234375
1772457353748432100,10.68043212890625,-0.9264984130859375,-0.3405303955078125,0.03863525390625
1772457353758501600,10.690501708984375,-0.930023193359375,-0.342803955078125,0.0345001220703125
1772457353768569300,10.7005693359375,-0.93255615234375,-0.343505859375,0.037078857421875
1772457353778638600,10.710638671875,-0.9289398193359375,-0.343963623046875,0.0352020263671875
1772457353788706600,10.72070654296875,-0.9281768798828125,-0.346343994140625,0.036285400390625
1772457353798775600,10.730775634765624,-0.9276275634765625,-0.3455352783203125,0.034210205078125
1772457353808843500,10.740843505859376,-0.9254608154296875,-0.3477783203125,0.037200927734375
1772457353818912500,10.75091259765625,-0.926849365234375,-0.348114013671875,0.035430908203125
1772457353828980700,10.760980712890625,-0.9310302734375,-0.345916748046875,0.032196044921875
1772457353839049500,10.771049560546874,-0.9336395263671875,-0.3453369140625,0.0302886962890625
1772457353849118500,10.781118408203126,-0.932159423828125,-0.347625732421875,0.0269317626953125
1772457353859186700,10.791186767578125,-0.9276885986328125,-0.3495025634765625,0.0267181396484375
1772457353869255400,10.80125537109375,-0.9244384765625,-0.34991455078125,0.0264739990234375
1772457353879323400,10.811323486328124,-0.9245452880859375,-0.350616455078125,0.026092529296875
1772457353889392600,10.821392578125,-0.9299774169921875,-0.3491363525390625,0.0263214111328125
1772457353899460600,10.831460693359375,-0.9349212646484375,-0.3455047607421875,0.0254364013671875
1772457353909529600,10.841529541015625,-0.93231201171875,-0.345245361328125,0.025726318359375
1772457353919597600,10.85159765625,-0.924560546875,-0.3464813232421875,0.031646728515625
1772457353929666600,10.86166650390625,-0.9229278564453125,-0.3475494384765625,0.0323333740234375
1772457353939735600,10.871735595703125,-0.919708251953125,-0.3428955078125,0.0338592529296875
1772457353949803500,10.881803466796875,-0.9178619384765625,-0.342376708984375,0.036407470703125
1772457353959872500,10.89187255859375,-0.922576904296875,-0.34417724609375,0.03411865234375
1772457353969940700,10.901940673828125,-0.9248046875,-0.3440399169921875,0.0327911376953125
1772457353980009500,10.912009521484375,-0.9255523681640625,-0.34356689453125,0.0352630615234375
1772457353990077400,10.922077392578124,-0.921722412109375,-0.3456268310546875,0.03106689453125
1772457354000146700,10.932146728515624,-0.920806884765625,-0.347747802734375,0.0339508056640625
1772457354010214700,10.942214599609375,-0.92218017578125,-0.347625732421875,0.0354461669921875
1772457354020283400,10.952283447265625,-0.92572021484375,-0.347991943359375,0.0333099365234375
1772457354030352600,10.9623525390625,-0.9336395263671875,-0.344940185546875,0.03216552734375
1772457354040420600,10.972420654296876,-0.9357757568359375,-0.3424072265625,0.03125
1772457354050489600,10.982489501953125,-0.93377685546875,-0.3394012451171875,0.0414276123046875
1772457354060557600,10.9925576171875,-0.9389190673828125,-0.3407135009765625,0.0399932861328125
1772457354070626600,11.00262646484375,-0.9528350830078125,-0.340545654296875,0.0320281982421875
1772457354080694800,11.01269482421875,-0.943450927734375,-0.3420257568359375,0.024261474609375
1772457354090763500,11.022763427734375,-0.934539794921875,-0.3452606201171875,0.0264739990234375
1772457354100831500,11.03283154296875,-0.9391021728515625,-0.3468170166015625,0.030487060546875
1772457354110900700,11.042900634765624,-0.9393463134765625,-0.3445281982421875,0.02587890625
1772457354120969500,11.052969482421876,-0.9353179931640625,-0.343994140625,0.0241851806640625
1772457354131037400,11.063037353515625,-0.9286346435546875,-0.3440093994140625,0.0296478271484375
1772457354141106700,11.073106689453125,-0.9153594970703125,-0.346099853515625,0.0378570556640625
1772457354151174700,11.083174560546874,-0.9077606201171875,-0.348297119140625,0.040283203125
1772457354161243600,11.09324365234375,-0.9103240966796875,-0.3451995849609375,0.035980224609375
1772457354171311600,11.1033115234375,-0.9103546142578125,-0.3437042236328125,0.03076171875
1772457354181380600,11.113380615234375,-0.9090728759765625,-0.3464508056640625,0.034149169921875
1772457354191449600,11.12344970703125,-0.910797119140625,-0.3467254638671875,0.040557861328125
1772457354201517600,11.133517578125,-0.9123687744140625,-0.3426666259765625,0.0428314208984375
1772457354211586600,11.143586669921875,-0.914581298828125,-0.34271240234375,0.0387420654296875
1772457354221654500,11.153654541015625,-0.928131103515625,-0.341400146484375,0.033599853515625
1772457354231723500,11.1637236328125,-0.9402008056640625,-0.3392333984375,0.0244140625
1772457354241791500,11.17379150390625,-0.9513702392578125,-0.3402099609375,0.0167694091796875
1772457354251860700,11.18386083984375,-0.94921875,-0.344024658203125,0.011627197265625
1772457354261928400,11.193928466796875,-0.9484710693359375,-0.3482818603515625,0.011627197265625
1772457354271997700,11.203997802734374,-0.9493408203125,-0.345947265625,0.0143890380859375
1772457354282066700,11.214066650390626,-0.9465789794921875,-0.341827392578125,0.02197265625
