time,seconds_elapsed,z,y,x
1772457343126094300,0.05809423828125,0.00490287970751524,0.008331166580319405,-0.046002380549907684
1772457343136162300,0.068162353515625,0.003885552054271102,0.0011707255616784096,-0.03928855061531067
1772457343146231300,0.078231201171875,0.007735417690128088,-0.012918195687234402,-0.035655733197927475
1772457343156299300,0.08829931640625,0.012497948482632637,-0.02846386469900608,-0.039930373430252075
1772457343166368300,0.0983681640625,0.012544287368655205,-0.028324048966169357,-0.03676094487309456
1772457343176436200,0.108436279296875,0.013524597510695457,-0.002916161436587572,-0.02726650796830654
1772457343186505200,0.118505126953125,0.010046509094536304,0.01786155439913273,-0.011051053181290627
1772457343196574200,0.12857421875,0.00637960247695446,0.017296964302659035,-0.002901247702538967
1772457343206642200,0.13864208984375,0.003437075763940811,0.00014913702034391463,0.017018131911754608
1772457343216711200,0.148711181640625,0.005821936298161745,-0.03086071088910103,0.02388029918074608
1772457343226779100,0.158779052734375,0.006317550782114267,-0.04728442430496216,0.024583106860518456
1772457343236848400,0.168848388671875,0.010251838713884354,-0.03323625028133392,0.02575915865600109
1772457343246916400,0.178916259765625,0.008843026123940945,-0.004325506277382374,0.026730947196483612
1772457343256985000,0.188985107421875,0.009344499558210373,0.011603659018874168,0.023030750453472137
1772457343267054300,0.199054443359375,0.007262440398335457,0.005210208240896463,0.016955014318227768
1772457343277122300,0.209122314453125,0.003127083647996187,-0.01341540738940239,0.0076299565844237804
1772457343287191000,0.21919091796875,0.002014415105804801,-0.03873434662818909,-0.008252071216702461
1772457343297259300,0.22925927734375,-0.0008474178612232208,-0.03909094259142876,-0.029561886563897133
1772457343307328300,0.239328369140625,-0.009729859419167042,-0.005967345088720322,-0.04442685469985008
1772457343317397200,0.249397216796875,-0.01882881484925747,0.027577832341194153,-0.049738526344299316
1772457343327465200,0.25946533203125,-0.02021791972219944,0.029103023931384087,-0.04354747757315636
1772457343337534200,0.2695341796875,-0.020063722506165504,0.0011973571963608265,-0.037091709673404694
1772457343347602200,0.279602294921875,-0.0226198248565197,-0.03496943414211273,-0.03495585173368454
1772457343357671200,0.289671142578125,-0.020017649978399277,-0.046605318784713745,-0.03954847529530525
1772457343367739100,0.2997392578125,-0.02388456091284752,-0.032171785831451416,-0.047561660408973694
1772457343377808400,0.309808349609375,-0.024098144844174385,-0.014542457647621632,-0.06288868188858032
1772457343387877000,0.319877197265625,-0.02491040900349617,-0.012676114216446877,-0.07573018223047256
1772457343397945000,0.329945068359375,-0.014673218131065369,-0.03579927608370781,-0.08923054486513138
1772457343408014300,0.340014404296875,-0.0062403189949691296,-0.06083778291940689,-0.09171127527952194
1772457343418082300,0.350082275390625,0.002974484581500292,-0.06919105350971222,-0.08661079406738281
1772457343428151000,0.360151123046875,0.004745753016322851,-0.06959772109985352,-0.07526811957359314
1772457343438220300,0.37022021484375,0.009152219630777836,-0.056476593017578125,-0.0623248927295208
1772457343448288300,0.380288330078125,0.005327387247234583,-0.033427465707063675,-0.04839123412966728
1772457343458357200,0.390357177734375,-0.0006772418855689466,-0.008773784153163433,-0.03250521421432495
1772457343468425200,0.40042529296875,-0.008701612241566181,0.005664810072630644,-0.018982745707035065
1772457343478494200,0.410494140625,-0.01944080926477909,0.005792907904833555,-0.008112520910799503
1772457343488562400,0.4205625,-0.024380439892411232,-0.0006647250265814364,-0.0009398295660503209
1772457343498631200,0.430631103515625,-0.02490108832716942,-0.0011683288030326366,0.011166634038090706
1772457343508700200,0.4407001953125,-0.022839535027742386,0.0015044197207316756,0.01434991043061018
1772457343518768400,0.450768310546875,-0.015852199867367744,0.0006032059900462627,0.01270061545073986
1772457343528837000,0.460837158203125,-0.006882407236844301,-0.010481669567525387,0.008027033880352974
1772457343538905000,0.470905029296875,-0.0011675298446789384,-0.019213641062378883,0.004737497307360172
1772457343548974300,0.480974365234375,0.004509530495852232,-0.013117399998009205,0.007018494885414839
1772457343559042300,0.491042236328125,0.005468002520501614,-0.00808935146778822,0.016102537512779236
1772457343569111300,0.501111328125,0.004863198380917311,-0.010539193637669086,0.02328188717365265
1772457343579180300,0.51118017578125,0.0041273669339716434,-0.016517989337444305,0.033604297786951065
1772457343589248300,0.521248291015625,0.0010940266074612737,-0.01085930597037077,0.03672046214342117
1772457343599317200,0.531317138671875,0.0027774106711149216,0.0049311090260744095,0.03660408407449722
1772457343609385200,0.54138525390625,-0.0027952538803219795,0.009153284132480621,0.0367465615272522
1772457343619454200,0.5514541015625,-0.004463457968086004,0.010996191762387753,0.034022681415081024
1772457343629523200,0.561523193359375,-0.00980309583246708,0.008281365968286991,0.03509620204567909
1772457343639591200,0.571591064453125,-0.010350641794502735,0.003768905531615019,0.036311935633420944
1772457343649660400,0.581660400390625,-0.0071037160232663155,-0.010977549478411674,0.03181838244199753
1772457343659728400,0.591728271484375,-0.003751062322407961,-0.026040920987725258,0.030132602900266647
1772457343669797000,0.601797119140625,0.005921272095292807,-0.012886503711342812,0.024179106578230858
1772457343679865000,0.611864990234375,0.008216118440032005,-0.0016168050933629274,0.022900788113474846
1772457343689934300,0.621934326171875,0.006820089183747768,0.01434964407235384,0.02231409400701523
1772457343700003000,0.632003173828125,0.006994792725890875,0.028354410082101822,0.02328641340136528
1772457343710071300,0.6420712890625,0.0018224010709673166,0.025548502802848816,0.01697099395096302
1772457343720140300,0.652140380859375,0.0007046724203974009,0.010390589013695717,0.013303820975124836
1772457343730208300,0.662208251953125,0.00461685610935092,0.01642877422273159,0.008364190347492695
1772457343740277200,0.67227734375,0.011752530001103878,0.022173212841153145,0.0037760960403829813
1772457343750345200,0.68234521484375,0.019228288903832436,0.02021152898669243,0.0008873652550391853
1772457343760414200,0.692414306640625,0.02310638502240181,0.015122227370738983,0.0035081820096820593
1772457343770483200,0.702483154296875,0.01870710775256157,-0.0014924354618415236,0.0029561088886111975
1772457343780551200,0.71255126953125,0.01998595893383026,-0.012376242317259312,-0.0034794199746102095
1772457343790620400,0.722620361328125,0.021948175504803658,-0.013969877734780312,-0.01062175165861845
1772457343800688400,0.7326884765625,0.022425414994359016,0.0010719223646447062,-0.019101256504654884
1772457343810757000,0.742757080078125,0.022840334102511406,0.016502544283866882,-0.020680245012044907
1772457343820826400,0.752826416015625,0.023511983454227448,0.022595323622226715,-0.022342856973409653
1772457343830894300,0.762894287109375,0.019362512975931168,0.02280944213271141,-0.011202320456504822
1772457343840963000,0.772963134765625,0.013408483006060123,0.0200384221971035,0.004652808886021376
1772457343851031300,0.78303125,0.009863549843430519,0.020649617537856102,0.025105087086558342
1772457343861100300,0.793100341796875,0.006115949247032404,0.017586717382073402,0.04542234167456627
1772457343871168300,0.803168212890625,0.005453887395560741,0.005268797744065523,0.052082110196352005
1772457343881237200,0.8132373046875,0.005108742043375969,0.0014293185668066144,0.042754922062158585
1772457343891306200,0.82330615234375,0.008364456705749035,0.01804717816412449,0.03279896080493927
1772457343901374500,0.83337451171875,0.005081844050437212,0.0301379282027483,0.034560639411211014
1772457343911443200,0.843443115234375,0.0019153454340994358,0.023387880995869637,0.03767760470509529
1772457343921511200,0.85351123046875,-0.0007805725326761603,0.019757458940148354,0.047693487256765366
1772457343931580400,0.863580322265625,-0.004435494542121887,0.007049920037388802,0.058521099388599396
1772457343941648100,0.873648193359375,-0.007229949813336134,-0.005574262235313654,0.05073481798171997
1772457343951717000,0.883717041015625,-0.005419532768428326,-0.0019566244445741177,0.03291427344083786
1772457343961786400,0.893786376953125,0.001190433045849204,0.007281614933162928,0.012144546955823898
1772457343971854300,0.903854248046875,0.005018726922571659,0.014096111990511417,-0.0016471651615574956
1772457343981923300,0.91392333984375,0.01197037659585476,0.017315341159701347,-0.009886452928185463
1772457343991991300,0.9239912109375,0.016526512801647186,0.010211625136435032,-0.012864932417869568
1772457344002060300,0.934060302734375,0.017008012160658836,0.0021912488155066967,0.0005755090969614685
1772457344012128300,0.944128173828125,0.01804850809276104,-0.0009693906176835299,0.011718973517417908
1772457344022197200,0.954197265625,0.020371584221720695,-0.0062363240867853165,0.018629344180226326
1772457344032266200,0.964266357421875,0.017775535583496094,0.007266434840857983,0.026809509843587875
1772457344042334200,0.974334228515625,0.013636183924973011,0.03086523711681366,0.03158508986234665
1772457344052403200,0.9844033203125,0.010155964642763138,0.041131190955638885,0.041064079850912094
1772457344062471200,0.99447119140625,0.004435494542121887,0.03139840438961983,0.03857375681400299
1772457344072540200,1.0045400390625,0.0012101404136046767,0.013905695639550686,0.03285648301243782
1772457344082609200,1.014609130859375,0.002663161139935255,-0.006083192303776741,0.020010726526379585
1772457344092677400,1.024677490234375,0.004346278961747885,-0.009268333204090595,0.009051552042365074
1772457344102746400,1.034746337890625,0.006851514335721731,0.010006295517086983,-0.00413509039208293
1772457344112814000,1.04481396484375,0.006367351859807968,0.019215239211916924,-0.010402573272585869
1772457344122883300,1.05488330078125,-0.002029328839853406,0.019341208040714264,-0.005664010997861624
1772457344132951300,1.064951416015625,-0.002270611235871911,0.006199306342750788,0.00011664645717246458
1772457344143020000,1.07502001953125,-0.002600576728582382,-0.004723382648080587,0.0054791877046227455
1772457344153089300,1.08508935546875,0.0006519418093375862,-0.008165784180164337,0.013624466024339199
1772457344163157200,1.0951572265625,0.0012319782981649041,-0.009667540900409222,0.01031761895865202
1772457344173226200,1.105226318359375,0.003117230022326112,-0.0008980178972706199,0.01264096051454544
1772457344183294200,1.115294189453125,0.005371063016355038,0.005859220866113901,0.001728391507640481
1772457344193363200,1.12536328125,0.0019379822770133615,0.0008777778712101281,-0.008882973343133926
1772457344203431200,1.13543115234375,0.002017610939219594,-0.00002902845517382957,-0.013226056471467018
1772457344213500200,1.145500244140625,0.003906058380380273,0.006977482233196497,-0.009157545864582062
1772457344223569200,1.155569091796875,0.004033890087157488,0.01745489053428173,-0.004653075244277716
1772457344233637400,1.165637451171875,0.005621666554361582,0.01739417016506195,0.01176584605127573
1772457344243706000,1.1757060546875,0.0008764463127590716,0.010794857516884804,0.018761703744530678
1772457344253774000,1.185774169921875,0.00039468047907575965,-0.0019803266040980816,0.02797464281320572
1772457344263843300,1.19584326171875,0.004369714763015509,-0.012404737994074821,0.02598978951573372
1772457344273911300,1.205911376953125,0.007935420610010624,-0.01269901730120182,0.026157567277550697
1772457344283980000,1.21597998046875,0.01948501728475094,-0.0049494849517941475,0.018862370401620865
1772457344294049300,1.22604931640625,0.019224826246500015,0.00600383011624217,0.02678554132580757
1772457344304117200,1.2361171875,0.01776301860809326,0.009035306982696056,0.028373584151268005
1772457344314186200,1.246186279296875,0.01557949185371399,0.008753277361392975,0.036850426346063614
1772457344324254200,1.256254150390625,0.013100888580083847,0.0005507417372427881,0.038898129016160965
1772457344334323200,1.2663232421875,0.012324310839176178,0.0023928501177579165,0.04115356132388115
1772457344344391400,1.276391357421875,0.015367238782346249,0.00663340138271451,0.03579235076904297
1772457344354460200,1.286460205078125,0.019899405539035797,-0.002758502261713147,0.026388464495539665
1772457344364529200,1.296529052734375,0.02369840443134308,-0.014329670928418636,0.023322099819779396
1772457344374597400,1.306597412109375,0.025916552171111107,-0.01787593588232994,0.013580789789557457
1772457344384666000,1.316666015625,0.02298148162662983,-0.005366802215576172,0.01708684116601944
1772457344394734000,1.326734130859375,0.01956011913716793,0.005780390929430723,0.0133275231346488
1772457344404803300,1.33680322265625,0.01739124022424221,0.0095082838088274,0.008332232013344765
1772457344414872000,1.3468720703125,0.007476824801415205,0.00794127956032753,0.00794234499335289
1772457344424940300,1.356940185546875,0.004174771253019571,0.00586721021682024,0.011600730009377003
1772457344435009300,1.36700927734375,0.001044758129864931,-0.00412390474230051,0.017680460587143898
1772457344445077200,1.3770771484375,-0.000636495475191623,-0.013166136108338833,0.020732974633574486
1772457344455146200,1.387146240234375,-0.002499376656487584,-0.012643889524042606,0.011549330316483974
1772457344465214200,1.397214111328125,-0.003959055058658123,-0.011098990216851234,0.004757470916956663
1772457344475283200,1.407283203125,-0.006934072356671095,-0.0027944548055529594,-0.0025180187076330185
1772457344485352200,1.417352294921875,-0.009620669297873974,0.00015659387281630188,-0.007682953495532274
1772457344495420200,1.427420166015625,-0.01360316015779972,0.009644105099141598,-0.005281581077724695
1772457344505489400,1.437489501953125,-0.0148047786206007,0.01966904290020466,0.004503405187278986
1772457344515557400,1.447557373046875,-0.01894759200513363,0.01369024533778429,0.012524846941232681
1772457344525626000,1.457626220703125,-0.02437032014131546,-0.00720598129555583,0.00950668565928936
1772457344535694000,1.467694091796875,-0.025739718228578568,-0.026971962302923203,-0.0028397287242114544
1772457344545763300,1.477763427734375,-0.026850523427128792,-0.03148069605231285,-0.026372751221060753
1772457344555832000,1.48783203125,-0.024464063346385956,-0.016176307573914528,-0.04621277004480362
1772457344565900300,1.497900390625,-0.02142566256225109,-0.0006844323943369091,-0.05937544256448746
1772457344575969300,1.50796923828125,-0.016144348308444023,0.0031856733839958906,-0.06016773357987404
1772457344586037200,1.518037353515625,-0.012101936154067516,-0.014168549329042435,-0.052263736724853516
1772457344596106200,1.528106201171875,-0.00649704784154892,-0.032944634556770325,-0.04724261164665222
1772457344606174200,1.53817431640625,-0.00253453035838902,-0.033777669072151184,-0.043411657214164734
1772457344616243200,1.5482431640625,-0.0020905814599245787,0.005453088786453009,-0.023682160302996635
1772457344626312200,1.558312255859375,-0.0027451864443719387,0.03683897480368614,-0.005800365004688501
1772457344636380200,1.568380126953125,-0.011980229988694191,0.032042089849710464,0.0075971996411681175
1772457344646449400,1.578449462890625,-0.01594194769859314,-0.000258859246969223,0.009575928561389446
1772457344656517400,1.588517333984375,-0.013248427771031857,-0.03200054168701172,0.010066748596727848
1772457344666586000,1.598586181640625,-0.004997687879949808,-0.040886711329221725,-0.0008514125947840512
1772457344676654300,1.608654296875,-0.0025688852183520794,-0.010118413716554642,-0.007109308615326881
1772457344686723300,1.618723388671875,-0.0035095135681331158,0.026064889505505562,-0.01375283021479845
1772457344696792000,1.6287919921875,-0.003364105010405183,0.032407473772764206,-0.009678726084530354
1772457344706860300,1.6388603515625,0.0005291700945235789,0.006532734259963036,-0.00520754512399435
1772457344716929300,1.64892919921875,0.0022058964241296053,-0.02634532004594803,-0.00021065604232717305
1772457344726997200,1.658997314453125,0.0065194182097911835,-0.04107792675495148,0.00012170646368758753
1772457344737066200,1.669066162109375,0.0065196845680475235,-0.0258712787181139,-0.002974218223243952
1772457344747135200,1.67913525390625,0.00011851066665258259,-0.0062126219272613525,-0.007766842842102051
1772457344757204000,1.689203857421875,-0.006869091186672449,0.013302489183843136,-0.0016399745363742113
1772457344767273200,1.699273193359375,-0.009846239350736141,0.017225325107574463,0.004628041293472052
1772457344777341200,1.709341064453125,-0.01278770063072443,-0.005893575493246317,0.008379103615880013
1772457344787410000,1.719409912109375,-0.010753045789897442,-0.009275523945689201,0.010750914923846722
1772457344797478000,1.729477783203125,-0.012942430563271046,-0.011720038950443268,0.011834821663796902
1772457344807547100,1.739547119140625,-0.01369210984557867,-0.007357514929026365,0.01561411377042532
1772457344817615000,1.749614990234375,-0.014681207947432995,0.006456035189330578,0.012535233050584793
1772457344827684000,1.75968408203125,-0.011167965829372406,0.006201703101396561,0.006214486435055733
1772457344837753000,1.769753173828125,-0.006804642733186483,-0.0016506272368133068,0.0006221143994480371
1772457344847821000,1.779821044921875,-0.0052107409574091434,-0.0007819040911272168,-0.003855191869661212
1772457344857890000,1.78989013671875,-0.004739094991236925,0.0013009541435167193,-0.011884355917572975
1772457344867958000,1.7999580078125,-0.004592088516801596,0.0030988543294370174,-0.013966682367026806
1772457344878027000,1.810027099609375,-0.009710151702165604,0.0052296495996415615,-0.010922955349087715
1772457344888096000,1.820095947265625,-0.01357306633144617,0.004623514134436846,-0.010647584684193134
1772457344898164000,1.8301640625,-0.013144830241799355,0.000988032785244286,-0.011373828165233135
1772457344908233200,1.840233154296875,-0.009814281016588211,-0.0010215885704383254,-0.014219948090612888
1772457344918301200,1.85030126953125,-0.004917260725051165,0.0029233519453555346,-0.011151720769703388
1772457344928370000,1.860369873046875,0.00023222764139063656,0.008538627065718174,-0.017064737156033516
1772457344938438100,1.870438232421875,0.002725212834775448,0.013963486067950726,-0.016591226682066917
1772457344948507100,1.880507080078125,0.0028192223981022835,0.014162956736981869,-0.020738834515213966
1772457344958575900,1.890575927734375,-0.0029667613562196493,0.0021204089280217886,-0.01792547106742859
1772457344968644000,1.90064404296875,-0.004606469534337521,-0.005774531979113817,-0.011442005634307861
1772457344978713000,1.910713134765625,-0.008459530770778656,-0.0057167415507137775,-0.008379636332392693
1772457344988781000,1.920781005859375,-0.007939682342112064,-0.006853911560028791,-0.013537912629544735
1772457344998850000,1.93085009765625,-0.011064369231462479,-0.0031736891251057386,-0.026087526232004166
1772457345008918000,1.94091796875,-0.01104519423097372,0.01588975079357624,-0.026766633614897728
1772457345018987300,1.9509873046875,-0.006699714343994856,0.03337846323847771,-0.025171665474772453
1772457345029056000,1.961055908203125,-0.004741225857287645,0.03917616605758667,-0.016717728227376938
1772457345039124000,1.9711240234375,-0.008428905159235,0.033420540392398834,-0.004035754129290581
1772457345049193200,1.981193115234375,-0.011722968891263008,0.019993148744106293,0.007355118170380592
1772457345059261200,1.99126123046875,-0.014816230162978172,0.003022954100742936,0.011461446061730385
1772457345069330000,2.001329833984375,-0.01726074516773224,-0.009826797991991043,0.013117399998009205
1772457345079399200,2.011399169921875,-0.015224493108689785,-0.009190035983920097,0.004757737275213003
1772457345089467100,2.021467041015625,-0.008400674909353256,0.007844607345759869,-0.007822769694030285
1772457345099536100,2.0315361328125,-0.0024580976460129023,0.029470007866621017,-0.00458702864125371
1772457345109604000,2.04160400390625,0.0019971043802797794,0.029933931306004524,0.003811249742284417
1772457345119673000,2.051673095703125,0.001189900329336524,0.020909808576107025,0.01986611634492874
1772457345129741000,2.061740966796875,-0.0028248149901628494,0.00743101816624403,0.034865573048591614
1772457345139810000,2.07181005859375,-0.007734618615359068,-0.01248196978121996,0.046058572828769684
1772457345149878000,2.0818779296875,-0.008130364120006561,-0.023148195818066597,0.03334037959575653
1772457345159947300,2.091947265625,-0.009107477962970734,-0.017606157809495926,0.006887999828904867
1772457345170016000,2.10201611328125,-0.006391853094100952,-0.004729507956653833,-0.018868230283260345
1772457345180084000,2.112083984375,-0.001395230065099895,-0.0034136399626731873,-0.03899373859167099
1772457345190153200,2.1221533203125,0.000675377668812871,-0.0019896477460861206,-0.045158155262470245
1772457345200221200,2.13222119140625,0.002867691917344928,-0.001975799212232232,-0.04168592765927315
1772457345210290000,2.1422900390625,0.0033936661202460527,-0.003320429241284728,-0.026916835457086563
1772457345220359200,2.152359130859375,0.004590490832924843,-0.012440957129001617,-0.020593158900737762
1772457345230427100,2.16242724609375,0.008577242493629456,-0.019879965111613274,-0.012046276591718197
1772457345240496000,2.17249609375,0.009408948011696339,-0.011725897900760174,-0.0027545075863599777
1772457345250564000,2.182564208984375,0.010608435608446598,-0.007382016163319349,-0.009184177033603191
1772457345260633000,2.192633056640625,0.01318104937672615,-0.003288471372798085,-0.01179221086204052
1772457345270701000,2.202701171875,0.015897206962108612,0.006995857693254948,-0.011435081250965595
1772457345280770000,2.21277001953125,0.017884723842144012,0.006477074231952429,-0.011197526939213276
1772457345290839000,2.222839111328125,0.02015453577041626,0.010872354730963707,-0.014915832318365574
1772457345300907000,2.232906982421875,0.018864767625927925,0.00025992453447543085,-0.014884141273796558
1772457345310976000,2.24297607421875,0.01715874671936035,-0.006632602773606777,-0.013501959852874279
1772457345321044000,2.2530439453125,0.012715795077383518,-0.0036796897184103727,-0.009073922410607338
1772457345331113200,2.26311328125,0.0021116205025464296,-0.004588892683386803,-0.003906857222318649
1772457345341181000,2.273180908203125,-0.00475347600877285,0.008051268756389618,0.002403502818197012
1772457345351250200,2.283250244140625,-0.01104226429015398,0.019961990416049957,0.012525112368166447
1772457345361319200,2.293319091796875,-0.012975187040865421,0.015520104207098484,0.015264173969626427
1772457345371387000,2.303386962890625,-0.009368201717734337,0.008140751160681248,0.015682024881243706
1772457345381456100,2.3134560546875,-0.013039901852607727,-0.008388690650463104,0.008739962242543697
1772457345391524000,2.323524169921875,-0.005417935084551573,-0.014504640363156796,-0.00015180018090177327
1772457345401593000,2.333593017578125,-0.003058906877413392,0.0017393104499205947,0.0070674968883395195
1772457345411661000,2.3436611328125,0.004829376470297575,0.015248727984726429,0.01786608248949051
1772457345421730000,2.35372998046875,0.009558085352182388,0.010522149503231049,0.0311664417386055
1772457345431799300,2.36379931640625,0.015222894959151745,-0.016686568036675453,0.03826536238193512
1772457345441867000,2.373866943359375,0.01519812736660242,-0.04044276475906372,0.03931038826704025
1772457345451936000,2.38393603515625,0.009255283512175083,-0.05294737219810486,0.03641899302601814
1772457345462004200,2.394004150390625,0.0012237224727869034,-0.03292039781808853,0.028909945860505104
1772457345472073000,2.404072998046875,-0.008261125534772873,0.004508997779339552,0.02666090615093708
1772457345482141000,2.414140869140625,-0.01661546155810356,0.026768231764435768,0.026694728061556816
1772457345492210200,2.424210205078125,-0.023786023259162903,0.01792627014219761,0.02305285446345806
1772457345502279200,2.434279052734375,-0.022357236593961716,-0.00803475733846426,0.019091403111815453
1772457345512347000,2.444346923828125,-0.02245204523205757,-0.029338713735342026,0.016527045518159866
1772457345522416000,2.454416015625,-0.019098859280347824,-0.021204087883234024,0.012929114513099194
1772457345532484000,2.464484130859375,-0.01435284037142992,-0.005327387247234583,0.008414257317781448
1772457345542553000,2.474552978515625,-0.012500079348683357,0.0052197957411408424,0.0029228192288428545
1772457345552621000,2.48462109375,-0.0054882424883544445,0.00544430036097765,-0.0010684601729735732
1772457345562690000,2.49468994140625,-0.002523078816011548,0.00022770027862861753,0.0019470370607450604
1772457345572759000,2.504759033203125,0.004575310740619898,-0.013313674367964268,0.0019267969764769077
1772457345582827000,2.514826904296875,0.01191205345094204,-0.017371000722050667,-0.0006623281515203416
1772457345592896000,2.52489599609375,0.0133261913433671,-0.01631106249988079,-0.005092230159789324
1772457345602964200,2.534964111328125,0.016829580068588257,-0.009197226725518703,-0.004640558268874884
1772457345613033000,2.545032958984375,0.021705295890569687,0.0037406759802252054,-0.0014120079576969147
1772457345623101000,2.555100830078125,0.021076256409287453,0.011656123213469982,0.006045908201485872
1772457345633170200,2.565170166015625,0.018562499433755875,0.003817375050857663,0.016339559108018875
1772457345643239000,2.575239013671875,0.013981595635414124,-0.014421016909182072,0.0202203169465065
1772457345653307000,2.585306884765625,0.014219149947166443,-0.018856512382626534,0.018036257475614548
1772457345663376100,2.595376220703125,0.008018244989216328,-0.004926581867039204,0.021275727078318596
1772457345673444000,2.605444091796875,0.005514075048267841,0.010922955349087715,0.024809742346405983
1772457345683513000,2.61551318359375,0.0033771544694900513,0.007160441018640995,0.02995789796113968
1772457345693581000,2.6255810546875,-0.0028791434597223997,-0.0017603494925424457,0.028802886605262756
1772457345703650000,2.635650146484375,-0.002528405049815774,-0.0002902845444623381,0.03772980347275734
1772457345713719000,2.645718994140625,-0.006262157112360001,0.0002468750171829015,0.044930990785360336
1772457345723787000,2.655787109375,-0.01272884476929903,-0.0016010924009606242,0.054791610687971115
1772457345733856000,2.66585595703125,-0.016630375757813454,-0.007833422161638737,0.06043484807014465
1772457345743923500,2.67592333984375,-0.016097210347652435,-0.012582104653120041,0.06479045003652573
1772457345753992400,2.685992431640625,-0.013503025285899639,-0.0126420259475708,0.061153899878263474
1772457345764060400,2.696060302734375,-0.011742143891751766,-0.012222311459481716,0.054313305765390396
1772457345774129400,2.70612939453125,-0.012472914531826973,-0.006728476379066706,0.0389479324221611
1772457345784198400,2.716198486328125,-0.01666686125099659,0.009712282568216324,0.02315645106136799
1772457345794266400,2.726266357421875,-0.021737786009907722,0.015416506677865982,0.009720537811517715
1772457345804335400,2.73633544921875,-0.028860410675406456,0.006653641816228628,-0.0008279767935164273
1772457345814403600,2.746403564453125,-0.026432672515511513,-0.006169478874653578,-0.011128551326692104
1772457345824472300,2.756472412109375,-0.017051154747605324,-0.019726300612092018,-0.017834924161434174
1772457345834540300,2.766540283203125,-0.007455253042280674,-0.020058130845427513,-0.030279075726866722
1772457345844609500,2.776609619140625,-0.004135889001190662,-0.011113104410469532,-0.03169427812099457
1772457345854678300,2.78667822265625,-0.006499977316707373,-0.0016817862633615732,-0.02281104028224945
1772457345864746200,2.796746337890625,-0.01134027261286974,0.006858705077320337,-0.00336170825175941
1772457345874815500,2.8068154296875,-0.015320898965001106,-0.00034408041392453015,0.011054781265556812
1772457345884883500,2.816883544921875,-0.01570838876068592,-0.007468835450708866,0.02107066474854946
1772457345894952400,2.826952392578125,-0.009724000468850136,-0.011950935237109661,0.01679282821714878
1772457345905021400,2.837021484375,-0.007226487621665001,-0.005507683381438255,0.008976717479526997
1772457345915089400,2.84708935546875,-0.0038538603112101555,0.00475587323307991,-0.0020330571569502354
1772457345925158400,2.857158447265625,-0.004278901033103466,0.015274027362465858,-0.006395581178367138
1772457345935226400,2.867226318359375,-0.005042162723839283,0.019118567928671837,0.0013688647886738181
1772457345945295400,2.87729541015625,-0.007379086688160896,0.01375283021479845,0.008941829204559326
1772457345955363600,2.887363525390625,-0.007435545790940523,-0.007267766632139683,0.013673467561602592
1772457345965432300,2.897432373046875,-0.00367170013487339,-0.008830509148538113,0.0129951611161232
1772457345975501600,2.90750146484375,0.0019518306944519281,0.009196694009006023,0.017051421105861664
1772457345985569500,2.917569580078125,0.00040240364614874125,0.0285248514264822,0.014699317514896393
1772457345995638300,2.92763818359375,0.0023467775899916887,0.03694336861371994,0.017436780035495758
1772457346005706500,2.93770654296875,-0.002716158051043749,0.023419305682182312,0.02708115242421627
1772457346015775500,2.947775390625,-0.0016373114194720984,-0.0029939257074147463,0.027826838195323944
1772457346025843500,2.957843505859375,0.0010910971323028207,-0.01884239725768566,0.024418257176876068
1772457346035912400,2.967912353515625,0.0028394623659551144,-0.023685354739427567,0.019245333969593048
1772457346045981400,2.9779814453125,0.00631914846599102,-0.006136455573141575,0.014014085754752159
1772457346056049400,2.98804931640625,0.00003062635369133204,0.010270214639604092,0.006676012184470892
1772457346066118400,2.998118408203125,-0.00007669904152862728,0.01696193963289261,0.0019481023773550987
1772457346076186400,3.008186279296875,-0.00941933412104845,0.00517691858112812,-0.004306331276893616
1772457346086255600,3.018255615234375,-0.011267834343016148,-0.005027248989790678,-0.0008681904873810709
1772457346096323600,3.028323486328125,-0.01381328422576189,-0.01200952474027872,-0.008153267204761505
1772457346106392300,3.038392333984375,-0.009833189658820629,-0.011837750673294067,-0.015033544041216373
1772457346116461600,3.048461669921875,-0.013666011393070221,0.006336725316941738,-0.01362526509910822
1772457346126529500,3.058529541015625,-0.021229388192296028,0.02371198683977127,-0.0062544336542487144
1772457346136598300,3.068598388671875,-0.024355938658118248,0.019281553104519844,0.0051958272233605385
1772457346146666500,3.07866650390625,-0.02755546197295189,0.0016708672046661377,0.01329742930829525
1772457346156735500,3.088735595703125,-0.02437777817249298,-0.01423219870775938,0.007870174013078213
1772457346166803500,3.098803466796875,-0.019656792283058167,-0.021108480170369148,-0.0013917679898440838
1772457346176872400,3.10887255859375,-0.01426149345934391,-0.010869692079722881,-0.009136239998042583
1772457346186941400,3.11894140625,-0.007860053330659866,-0.005931125953793526,-0.02191328816115856
1772457346197009700,3.129009765625,-0.0021547635551542044,-0.00549276964738965,-0.02022218145430088
1772457346207078400,3.139078369140625,0.002841060282662511,-0.008816927671432495,-0.016815731301903725
1772457346217146400,3.149146484375,0.0067902617156505585,-0.013784521259367466,-0.015994945541024208
1772457346227215600,3.159215576171875,0.006910370197147131,-0.012686233967542648,-0.007660849019885063
1772457346237283600,3.16928369140625,0.010012686252593994,-0.016411464661359787,-0.0067969197407364845
1772457346247352300,3.179352294921875,0.007980428636074066,-0.017901502549648285,-0.003620301140472293
1772457346257421600,3.189421630859375,0.010147709399461746,-0.014912636950612068,-0.00016112125013023615
1772457346267489500,3.199489501953125,0.010661432519555092,0.0013440974289551377,-0.00035926041891798377
1772457346277558500,3.20955859375,0.014994129538536072,0.019829364493489265,0.007774832658469677
1772457346287626500,3.21962646484375,0.016203736886382103,0.027271568775177002,0.025195101276040077
1772457346297695500,3.229695556640625,0.013044961728155613,0.013627661392092705,0.041062481701374054
1772457346307763500,3.239763427734375,0.010509632527828217,-0.012359198182821274,0.045882005244493484
1772457346317832400,3.24983251953125,0.010248908773064613,-0.03418992832303047,0.042745597660541534
1772457346327901400,3.2599013671875,0.012310994789004326,-0.03641020506620407,0.02707902155816555
1772457346337969700,3.2699697265625,0.010932542383670807,-0.010280334390699863,0.014545120298862457
1772457346348038400,3.280038330078125,0.016287360340356827,0.010434797964990139,0.0023901870008558035
1772457346358106400,3.2901064453125,0.015500662848353386,0.008842493407428265,-0.009915214963257313
1772457346368175600,3.300175537109375,0.01588468998670578,0.0028839372098445892,-0.012386362068355083
1772457346378243300,3.310243408203125,0.016705743968486786,-0.004583300091326237,-0.016924921423196793
1772457346388312300,3.320312255859375,0.016919327899813652,-0.013302222825586796,-0.027483556419610977
1772457346398381600,3.330381591796875,0.014226606115698814,-0.012045211158692837,-0.041435856372117996
1772457346408449500,3.340449462890625,0.01044358592480421,-0.008115983568131924,-0.05525446683168411
1772457346418518500,3.3505185546875,0.0033047166652977467,0.007645136676728725,-0.054967910051345825
1772457346428586500,3.36058642578125,-0.007195861078798771,0.02269545942544937,-0.053163617849349976
1772457346438655500,3.370655517578125,-0.013556821271777153,0.023682426661252975,-0.037527136504650116
1772457346448723500,3.380723388671875,-0.013727529905736446,0.02273407392203808,-0.025852102786302567
1772457346458792400,3.39079248046875,-0.014169082045555115,0.019054651260375977,-0.022637933492660522
1772457346468861400,3.400861328125,-0.01366281509399414,0.0028431906830519438,-0.02112206257879734
1772457346478929400,3.410929443359375,-0.013909157365560532,-0.006387591827660799,-0.028971996158361435
1772457346488998400,3.420998291015625,-0.009447031654417515,-0.00640729907900095,-0.03226206451654434
1772457346499066400,3.43106640625,-0.008217982016503811,-0.004446680191904306,-0.033486321568489075
1772457346509135400,3.44113525390625,-0.006637396290898323,-0.001210406655445695,-0.025194834917783737
1772457346519203300,3.451203369140625,-0.006862965878099203,0.007276022341102362,-0.012004198506474495
1772457346529272600,3.4612724609375,-0.00219551008194685,0.009605223312973976,0.006069344002753496
1772457346539341600,3.471341552734375,0.003072488820180297,0.0104752779006958,0.016751017421483994
1772457346549409300,3.4814091796875,0.003266633255407214,0.00005512743518920615,0.023123960942029953
1772457346559478500,3.491478515625,0.0007960188668221235,-0.0038778288289904594,0.027047064155340195
1772457346569546500,3.50154638671875,0.0027164241764694452,0.0005209143273532391,0.029355758801102638
1772457346579615200,3.511615234375,0.003765443339943886,0.011993279680609703,0.027104321867227554
1772457346589683500,3.521683349609375,0.003433080855756998,0.010338923893868923,0.021977471187710762
1772457346599752400,3.53175244140625,0.008409730158746243,0.006788664031773806,0.0191918034106493
1772457346609821400,3.541821533203125,0.015086274594068527,-0.001740109408274293,0.01804584637284279
1772457346619889400,3.551889404296875,0.021891983225941658,-0.0016783240716904402,0.009588711895048618
1772457346629958400,3.56195849609375,0.01561278197914362,-0.0002282329078298062,0.0047119311057031155
1772457346640026400,3.5720263671875,0.011867045424878597,0.0011145329335704446,0.0033372072502970695
1772457346650095400,3.582095458984375,0.008293882943689823,-0.00012516857532318681,0.0076115806587040424
1772457346660163300,3.592163330078125,0.01022920198738575,-0.015558186918497086,0.01847567968070507
1772457346670232600,3.602232666015625,0.0081514036282897,-0.024892300367355347,0.022217154502868652
1772457346680301300,3.61230126953125,0.012440957129001617,-0.0243745818734169,0.019958527758717537
1772457346690369300,3.622369384765625,0.011122159659862518,-0.015048724599182606,0.014740862883627415
1772457346700438500,3.6324384765625,0.007669637445360422,0.003129480639472604,0.012942696921527386
1772457346710506500,3.642506591796875,0.005181712564080954,0.013617008924484253,0.0094520915299654
1772457346720575200,3.6525751953125,-0.005800630897283554,0.008194812573492527,0.016116386279463768
1772457346730643500,3.6626435546875,-0.01062334980815649,-0.004559065215289593,0.019514046609401703
1772457346740712400,3.67271240234375,-0.013254286721348763,-0.013351758010685444,0.025740783661603928
1772457346750781200,3.68278125,-0.008133826777338982,-0.009399360977113247,0.02244512178003788
1772457346760849200,3.69284912109375,-0.0030802120454609394,0.0026146916206926107,0.021407820284366608
1772457346770918100,3.702918212890625,-0.0025835325941443443,0.003501257859170437,0.012831375934183598
1772457346780986400,3.712986328125,0.00046152580762282014,-0.0035175031516700983,0.014993330463767052
1772457346791055000,3.72305517578125,-0.00037950044497847557,-0.017369668930768967,0.007650462910532951
1772457346801123000,3.733123046875,-0.002606702037155628,-0.0223255455493927,0.008402006700634956
1772457346811192300,3.7431923828125,0.00006364954606397077,-0.009251555427908897,0.008406267501413822
1772457346821261000,3.753260986328125,0.0004135889175813645,0.01182363647967577,0.00974583812057972
1772457346831329000,3.7633291015625,-0.002826412906870246,0.02971901372075081,0.00848669558763504
1772457346841398300,3.773398193359375,-0.006895722821354866,0.021266939118504524,0.0134439030662179
1772457346851466200,3.78346630859375,-0.013680924661457539,0.0005374259199015796,0.012554408051073551
1772457346861535200,3.79353515625,-0.01678031124174595,-0.020494356751441956,0.016773920506238937
1772457346871603200,3.803603271484375,-0.016930513083934784,-0.025247832760214806,0.011258513666689396
1772457346881672200,3.813672119140625,-0.009495234116911888,-0.009891512803733349,0.0035683694295585155
1772457346891741200,3.8237412109375,-0.006990797817707062,0.008305068127810955,-0.005931125953793526
1772457346901809200,3.83380908203125,-0.006981743033975363,0.017847971990704536,-0.011502192355692387
1772457346911878100,3.843878173828125,-0.0035238948184996843,0.017886588349938393,-0.009726396761834621
1772457346921946400,3.8539462890625,0.000999484327621758,0.01179354265332222,-0.004060255363583565
1772457346932015000,3.86401513671875,0.0014887070283293724,0.0030573089607059956,0.007739678490906954
1772457346942083000,3.8740830078125,-0.0016117451013997197,-0.00971680972725153,0.014346981421113014
1772457346952152300,3.88415234375,-0.008767126128077507,-0.008311459794640541,0.01818246580660343
1772457346962221000,3.894220947265625,-0.014258031733334064,0.007153517100960016,0.01805383525788784
1772457346972289000,3.9042890625,-0.013561082072556019,0.008162588812410831,0.020380638539791107
1772457346982358300,3.914358154296875,-0.012646553106606007,0.008291219361126423,0.020265057682991028
1772457346992426200,3.92442626953125,-0.006174805108457804,0.007860852405428886,0.02257348597049713
1772457347002495200,3.9344951171875,-0.003907389938831329,-0.00236249016597867,0.020380105823278427
1772457347012563200,3.944563232421875,-0.0049529471434652805,0.0036943370942026377,0.022709572687745094
1772457347022632200,3.954632080078125,-0.009696036577224731,0.008064850233495235,0.023559920489788055
1772457347032701200,3.964701171875,-0.009269132278859615,0.0012026835465803742,0.016654077917337418
1772457347042769200,3.97476904296875,-0.014208496548235416,-0.014794658869504929,0.013306218199431896
1772457347052836000,3.984836181640625,-0.018258366733789444,-0.014626612886786461,0.011030014604330063
1772457347062905300,3.9949052734375,-0.017237842082977295,0.0031430625822395086,0.008828379213809967
1772457347072973300,4.004973388671875,-0.013096626847982407,0.007784419693052769,0.011503257788717747
1772457347083042000,4.0150419921875,-0.013863883912563324,0.00971547793596983,0.010715494863688946
1772457347093110000,4.025110107421875,-0.010979680344462395,0.0051992894150316715,0.011636681854724884
1772457347103179300,4.03517919921875,-0.009851831942796707,-0.01372220367193222,0.0035425368696451187
1772457347113247200,4.045247314453125,-0.008808937855064869,-0.028618594631552696,-0.005573463626205921
1772457347123316200,4.055316162109375,-0.009618804790079594,-0.014974421821534634,-0.009098157286643982
1772457347133385200,4.06538525390625,-0.013618074357509613,-0.002614957746118307,-0.006938067264854908
1772457347143453200,4.075453125,-0.013883058913052082,0.00824035331606865,0.0032352081034332514
1772457347153522200,4.085522216796875,-0.012793026864528656,0.016109194606542587,0.014146445319056511
1772457347163590100,4.095590087890625,-0.01744130812585354,0.00965822022408247,0.01865491084754467
1772457347173659100,4.1056591796875,-0.01629961095750332,-0.0033960631117224693,0.01537549402564764
1772457347183727400,4.115727294921875,-0.01290461327880621,-0.014197844080626965,0.002484995638951659
1772457347193796000,4.125796142578125,-0.007306915242224932,-0.021388912573456764,-0.013998639769852161
1772457347203865300,4.135865234375,-0.003565173828974366,-0.019707657396793365,-0.030106237158179283
1772457347213933300,4.145933349609375,0.00006817692337790504,-0.008953015320003033,-0.03394917771220207
1772457347224002000,4.156001953125,-0.00038163099088706076,0.0013164004776626825,-0.02298680879175663
1772457347234070300,4.1660703125,-0.001748897833749652,0.006417685654014349,-0.006670153234153986
1772457347244139300,4.17613916015625,0.002662095706909895,-0.0027838023379445076,0.009666209109127522
1772457347254207200,4.186207275390625,0.009997772984206676,-0.01607510633766651,0.02268666960299015
1772457347264276200,4.196276123046875,0.015398130752146244,-0.023742081597447395,0.023802535608410835
1772457347274345200,4.20634521484375,0.018215222284197807,-0.020599285140633583,0.015176822431385517
1772457347284413200,4.2164130859375,0.01702345907688141,0.002560895634815097,0.003308711340650916
1772457347294482200,4.226482177734375,0.011394867673516273,0.016352076083421707,-0.003891677362844348
1772457347304550100,4.236550048828125,0.007366836071014404,0.023310381919145584,-0.011906993575394154
1772457347314619400,4.246619384765625,0.007477091159671545,0.01871935836970806,-0.01179434172809124
1772457347324687400,4.256687255859375,0.005455751903355122,0.012178368866443634,-0.016566459089517593
1772457347334756000,4.266756103515625,0.007454986684024334,-0.008482168428599834,-0.017196830362081528
1772457347344825300,4.276825439453125,0.0036677054595202208,-0.01708684116601944,-0.02749713882803917
1772457347354893300,4.286893310546875,0.003944674041122198,-0.009406817145645618,-0.032338764518499374
1772457347364962000,4.296962158203125,0.0038277613930404186,-0.007995075546205044,-0.03431003540754318
1772457347375030300,4.3070302734375,-0.0002210423699580133,-0.007187072653323412,-0.02623639814555645
1772457347385099300,4.317099365234375,-0.005239502992480993,-0.00615190202370286,-0.013757357373833656
1772457347395167200,4.327167236328125,-0.007272560149431229,-0.0023001721128821373,-0.007707986980676651
1772457347405238300,4.33723828125,-0.00503949960693717,0.013048424385488033,-0.00047883635852485895
1772457347415306000,4.347305908203125,-0.0030447919853031635,0.016213323920965195,0.005338306538760662
1772457347425375200,4.357375244140625,-0.0015326491557061672,0.0031851406674832106,0.005416070576757193
1772457347435443200,4.367443115234375,0.00017443705291952938,-0.013839116320014,0.009048622101545334
1772457347445512200,4.37751220703125,0.005845105741173029,-0.026645991951227188,0.007656854577362537
1772457347455581200,4.387581298828125,0.005652825813740492,-0.028025776147842407,0.01104466151446104
1772457347465649200,4.397649169921875,0.010547716170549393,-0.012566657736897469,0.011829229071736336
1772457347475718100,4.40771826171875,0.012983709573745728,-0.008260592818260193,0.00717562111094594
1772457347485786000,4.4177861328125,0.008329303003847599,-0.015207448974251747,0.0009872338268905878
1772457347495855000,4.427855224609375,0.007733819540590048,-0.017711885273456573,-0.004018976353108883
1772457347505923300,4.43792333984375,0.004515655804425478,-0.01732093282043934,-0.011273160576820374
1772457347515992000,4.447991943359375,0.003337473375722766,-0.009584450162947178,-0.008510397747159004
1772457347526061300,4.458061279296875,0.002671683207154274,-0.0004950816510245204,-0.006272276863455772
1772457347536129300,4.46812939453125,-0.00043995422311127186,0.003495132550597191,-0.009101619012653828
1772457347546198000,4.478197998046875,-0.0003789678157772869,0.00098190747667104,-0.010842260904610157
1772457347556266200,4.488266357421875,-0.0037446708884090185,-0.010773551650345325,-0.012652678415179253
1772457347566335200,4.498335205078125,-0.005341768264770508,-0.025480326265096664,-0.016080433502793312
1772457347576403200,4.5084033203125,-0.001672198879532516,-0.020308732986450195,-0.021039504557847977
1772457347586472200,4.51847216796875,0.0028631645254790783,-0.016776317730545998,-0.019164107739925385
1772457347596541200,4.528541259765625,0.004394481889903545,-0.008697351440787315,-0.021746840327978134
1772457347606609200,4.538609130859375,0.0030101709999144077,0.005876531358808279,-0.019333217293024063
1772457347616678100,4.54867822265625,0.0008817726047709584,0.01122176181524992,-0.008177502080798149
1772457347626746000,4.55874609375,-0.0012756541837006807,-0.005977198481559753,-0.009060340002179146
1772457347636815400,4.5688154296875,-0.000303334032651037,-0.02672029472887516,-0.010882741771638393
1772457347646883300,4.57888330078125,0.0019331886433064938,-0.028130970895290375,-0.012023906223475933
1772457347656952000,4.5889521484375,0.009275257587432861,-0.009698167443275452,-0.014098508283495903
1772457347667021300,4.599021240234375,0.011517106555402279,0.009488842450082302,-0.010586597956717014
1772457347677089300,4.60908935546875,0.011873703449964523,0.01871855929493904,-0.006339122075587511
1772457347687158000,4.619157958984375,0.007966846227645874,0.010273942723870277,0.003043993143364787
1772457347697226200,4.629226318359375,0.008284561336040497,-0.009765544906258583,0.0015579492319375277
1772457347707295200,4.639295166015625,0.00538491178303957,-0.02004747837781906,0.0033622407354414463
1772457347717363200,4.64936328125,0.00037284253630787134,-0.01737925596535206,0.0015699334908276796
1772457347727432200,4.65943212890625,0.0019387812353670597,-0.001972603378817439,0.006099704187363386
1772457347737501200,4.669501220703125,0.009995109401643276,0.004234426189213991,0.005538842175155878
1772457347747569000,4.67956884765625,0.015359515324234962,0.0004511394945438951,0.01335894875228405
1772457347757637600,4.6896376953125,0.012268916703760624,-0.00526693370193243,0.02220543660223484
1772457347767705900,4.699705810546875,0.006645385641604662,-0.021754829213023186,0.022298913449048996
1772457347777774800,4.70977490234375,0.00518810423091054,-0.028001274913549423,0.01654328964650631
1772457347787842800,4.7198427734375,0.005408880300819874,-0.027721643447875977,0.007727694697678089
1772457347797911800,4.729911865234375,0.0025720810517668724,-0.02328002266585827,0.0017470336752012372
1772457347807979800,4.739979736328125,-0.0001560612436151132,-0.013207148760557175,-0.009890447370707989
1772457347818048800,4.750048828125,-0.0015462313313037157,-0.006699181627482176,-0.015107846818864346
1772457347828117800,4.76011767578125,-0.00010253170330543071,0.003658917034044862,-0.01522662304341793
1772457347838185700,4.770185791015625,-0.006209160201251507,0.009785785339772701,-0.013345632702112198
1772457347848255000,4.7802548828125,-0.013790912926197052,0.0033396040089428425,-0.0015691345324739814
1772457347858323000,4.790322998046875,-0.025771675631403923,-0.018321482464671135,0.0006157228490337729
1772457347868391700,4.8003916015625,-0.02749980054795742,-0.021443506702780724,0.0006386260502040386
1772457347878460000,4.8104599609375,-0.03044658899307251,-0.002151035238057375,0.0013206616276875138
1772457347888529000,4.82052880859375,-0.030976824462413788,0.01395895890891552,-0.001088966615498066
1772457347898597600,4.83059765625,-0.025914154946804047,0.018144115805625916,-0.012659869156777859
1772457347908665900,4.840665771484375,-0.020234964787960052,0.00905767735093832,-0.024150876328349113
1772457347918734800,4.85073486328125,-0.015663115307688713,0.0009677927591837943,-0.03399312123656273
1772457347928802800,4.860802734375,-0.01371980644762516,-0.009195894934237003,-0.039332225918769836
1772457347938871800,4.870871826171875,-0.0070978570729494095,-0.022525282576680183,-0.04012478142976761
1772457347948939800,4.880939697265625,-0.0011041465913876891,-0.028021514415740967,-0.03749757260084152
1772457347959009000,4.891009033203125,0.003192597534507513,-0.021494640037417412,-0.016456205397844315
1772457347969077800,4.901077880859375,0.005212338641285896,-0.0044107274152338505,0.002929743379354477
1772457347979145700,4.911145751953125,0.0021078919526189566,-0.00395665830001235,0.024942634627223015
1772457347989215000,4.921215087890625,0.000595216522924602,-0.01575632579624653,0.03470791131258011
1772457347999283000,4.931282958984375,0.001079645473510027,-0.014664163812994957,0.046672698110342026
1772457348009351700,4.9413515625,0.0041468082927167416,-0.005471464246511459,0.04849483072757721
1772457348019420000,4.951419921875,0.001511343871243298,0.006966562941670418,0.048706285655498505
1772457348029489000,4.961489013671875,0.0005536712124012411,0.01197863183915615,0.04020281136035919
1772457348039558000,4.971557861328125,0.0011891013709828258,0.009998305700719357,0.035180624574422836
1772457348049625900,4.9816259765625,0.0004700479330495,-0.00293267285451293,0.023507190868258476
1772457348059694800,4.99169482421875,0.004532167688012123,-0.013343768194317818,0.01630999706685543
1772457348069762800,5.0017626953125,0.004009388852864504,-0.006199306342750788,0.00845606904476881
1772457348079831800,5.011831787109375,0.005555886775255203,-0.0031609057914465666,0.009986321441829205
1772457348089899800,5.021899658203125,0.008808405138552189,0.0059867859818041325,0.003605920122936368
1772457348099969000,5.031968994140625,0.010551976971328259,0.001472461735829711,0.00034594463068060577
1772457348110037800,5.042037841796875,0.015350193716585636,-0.0038509308360517025,-0.0010713896481320262
1772457348120105700,5.052105712890625,0.01338957529515028,-0.0007371630053967237,0.00310604483820498
1772457348130175000,5.062175048828125,0.011007110588252544,0.016320915892720222,0.00872131995856762
1772457348140242700,5.07224267578125,0.005440571811050177,0.022458437830209732,0.010576478205621243
1772457348150311700,5.082311767578125,0.002282062778249383,0.012385296635329723,0.01625806652009487
1772457348160380000,5.0923798828125,0.000016245283404714428,0.0036096484400331974,0.015417838469147682
1772457348170449000,5.102448974609375,-0.0024687503464519978,-0.011035340838134289,0.0017238641157746315
1772457348180518000,5.112517822265625,-0.000996821210719645,-0.01823466457426548,-0.0037444045301526785
1772457348190585900,5.1225859375,-0.0018216022290289402,-0.010638795793056488,-0.009618006646633148
1772457348200654800,5.13265478515625,-0.0012634035665541887,0.004064250271767378,-0.012748019769787788
1772457348210722800,5.142722900390625,-0.0008809737046249211,0.01242231484502554,-0.010698717087507248
1772457348220791800,5.152791748046875,-0.0028961875941604376,0.011404987424612045,-0.0065018413588404655
1772457348230859800,5.16285986328125,-0.0010029464028775692,0.010689661838114262,-0.002207494108006358
1772457348240928800,5.1729287109375,-0.0017329188995063305,0.012484099715948105,0.007102916948497295
1772457348250997800,5.182997802734375,-0.002573678968474269,0.010246246121823788,0.010297112166881561
1772457348261065700,5.193065673828125,-0.0015286544803529978,0.0023177489638328552,0.014999722130596638
1772457348271135000,5.203135009765625,-0.007707986980676651,0.0033665020018815994,0.018132131546735764
1772457348281202700,5.21320263671875,-0.006301305256783962,-0.0019030949333682656,0.015442606061697006
1772457348291272000,5.22327197265625,-0.009074721485376358,-0.003064233111217618,0.005166798830032349
1772457348301340000,5.23333984375,-0.0073173013515770435,0.002272741636261344,-0.004019509069621563
1772457348311408600,5.24340869140625,-0.003072488820180297,0.01076582819223404,-0.0062576294876635075
1772457348321478000,5.253477783203125,0.0021877868566662073,0.013408749364316463,-0.008715727366507053
1772457348331545900,5.2635458984375,-0.0006197175825946033,-0.000002663161012605997,-0.0025068335235118866
1772457348341614800,5.27361474609375,-0.004875448998063803,-0.01455710455775261,0.00008681904728291556
1772457348351682800,5.283682861328125,-0.006427273154258728,-0.02190689742565155,0.00015233281010296196
1772457348361751800,5.293751708984375,-0.005843508057296276,-0.02160835638642311,-0.0033848776947706938
1772457348371819800,5.30381982421875,-0.00890987180173397,-0.014079333283007145,-0.01152882445603609
1772457348381888800,5.313888671875,-0.011211642064154148,0.0022122878581285477,-0.012344017624855042
1772457348391957800,5.323957763671875,-0.010871290229260921,0.01714836061000824,-0.009652893990278244
1772457348402026000,5.33402587890625,-0.010164220817387104,0.015248195268213749,0.00020453077740967274
1772457348412094700,5.3440947265625,-0.012368518859148026,-0.0019648801535367966,-0.0008082693675532937
1772457348422162700,5.35416259765625,-0.008757805451750755,-0.020114855840802193,-0.0004934837343171239
1772457348432232000,5.36423193359375,-0.003572630463168025,-0.01678270846605301,-0.00007137271313695237
1772457348442300000,5.3742998046875,-0.0017805894603952765,-0.005406217183917761,-0.00498170917853713
1772457348452368600,5.38436865234375,0.0009488842915743589,0.014758173376321793,-0.0065196845680475235
1772457348462438000,5.39443798828125,-0.0010713896481320262,0.017302025109529495,0.002266616327688098
1772457348472505900,5.404505859375,-0.0020474381744861603,0.004631503485143185,0.006457899231463671
1772457348482574800,5.414574951171875,0.0017638115677982569,-0.015427958220243454,0.006393450777977705
1772457348492642800,5.424642822265625,0.006099171470850706,-0.030534207820892334,0.006302104331552982
1772457348502711800,5.4347119140625,0.009780459105968475,-0.027843348681926727,-0.000693220819812268
1772457348512779800,5.44477978515625,0.012604741379618645,-0.005342567339539528,-0.0038370825350284576
1772457348522848800,5.454848876953125,0.010072074830532074,0.0031933963764458895,-0.00583791546523571
1772457348532916700,5.464916748046875,0.004554538056254387,-0.005228850524872541,-0.005646966863423586
1772457348542986000,5.474986083984375,-0.004098871257156134,-0.013036972843110561,-0.01068193931132555
1772457348553054700,5.4850546875,-0.009132778272032738,-0.0019632822368294,-0.007254450581967831
1772457348563122700,5.495122802734375,-0.016892164945602417,0.009840646758675575,-0.0029670277144759893
1772457348573192000,5.50519189453125,-0.020747888833284378,0.010055829770863056,-0.0029888655990362167
1772457348583260000,5.515260009765625,-0.019809924066066742,0.004166515544056892,0.005351888481527567
1772457348593328600,5.52532861328125,-0.014882543124258518,0.0029473204631358385,0.01176318246871233
1772457348603396900,5.53539697265625,-0.011891813017427921,-0.001955292886123061,0.01221458800137043
1772457348613465900,5.5454658203125,-0.008742358535528183,-0.004284227266907692,0.011484615504741669
1772457348623534800,5.555534912109375,-0.012384497560560703,-0.006893326062709093,0.009158611297607422
1772457348633602800,5.565602783203125,-0.011122159659862518,0.00202293717302382,0.009279252029955387
1772457348643671800,5.575671875,-0.009558351710438728,0.010788732208311558,0.015295333229005337
1772457348653740000,5.585739990234375,-0.011947473511099815,0.01888500712811947,0.02232474647462368
1772457348663808800,5.595808837890625,-0.012196212075650692,0.01215892843902111,0.023755928501486778
1772457348673876700,5.605876708984375,-0.013284912332892418,-0.0027172232512384653,0.02021206170320511
1772457348683946000,5.615946044921875,-0.01678856648504734,-0.011176754720509052,0.0116188395768404
1772457348694014700,5.6260146484375,-0.01883014664053917,-0.015241270884871483,-0.007847003638744354
1772457348704082700,5.636082763671875,-0.0181766077876091,-0.00947898905724287,-0.024344487115740776
1772457348714152000,5.64615185546875,-0.007499727886170149,-0.002198173198848963,-0.0362062081694603
1772457348724220000,5.656219970703125,-0.0024892566725611687,0.008528240956366062,-0.038184404373168945
1772457348734289000,5.666288818359375,0.006392118986696005,0.009076053276658058,-0.02744467370212078
1772457348744357600,5.676357666015625,0.012522982433438301,0.004247741773724556,-0.011750399135053158
1772457348754426600,5.686426513671875,0.012959474697709084,0.006420615129172802,0.009578591212630272
1772457348764495600,5.69649560546875,0.009791910648345947,-0.004236556589603424,0.029705964028835297
1772457348774563600,5.7065634765625,0.004596882499754429,-0.009182579815387726,0.030616233125329018
1772457348784632600,5.716632568359375,0.002442118711769581,-0.007516505662351847,0.024575917050242424
1772457348794700500,5.726700439453125,0.003739877138286829,-0.0018879148410633206,0.010965831577777863
1772457348804769500,5.73676953125,0.0037020600866526365,0.016290556639432907,0.003910852130502462
1772457348814837800,5.746837646484375,0.01062414888292551,0.033731862902641296,0.004997687879949808
1772457348824906500,5.756906494140625,0.012293684296309948,0.03436702862381935,0.012280101887881756
1772457348834975700,5.766975830078125,0.0095658078789711,0.00839934404939413,0.013765080831944942
1772457348845043700,5.777043701171875,0.012231365777552128,-0.017014935612678528,0.015183214098215103
1772457348855112400,5.787112548828125,0.01398612279444933,-0.03470604866743088,0.015036473982036114
1772457348865180700,5.7971806640625,0.011698734015226364,-0.024022778496146202,0.01167529821395874
1772457348875249700,5.807249755859375,0.012572516687214375,-0.0031856733839958906,0.01104253064841032
1772457348885317600,5.817317626953125,0.010806840844452381,0.0067780110985040665,0.011124024167656898
1772457348895386600,5.82738671875,0.011060107499361038,0.016080966219305992,0.012590359896421432
1772457348905455600,5.83745556640625,0.013272661715745926,0.015122227370738983,0.021519672125577927
1772457348915523600,5.847523681640625,0.011504323221743107,0.006849383935332298,0.01769883558154106
1772457348925592600,5.857592529296875,0.009719472378492355,0.00640889722853899,0.016467656940221786
1772457348935660500,5.86766064453125,0.013280118815600872,0.008279501460492611,0.016397349536418915
1772457348945729500,5.8777294921875,0.011108310893177986,0.0057007623836398125,0.019474631175398827
1772457348955797800,5.8877978515625,0.008801480755209923,0.0011289139511063695,0.018999790772795677
1772457348965866500,5.897866455078125,0.003686347510665655,-0.0033358754590153694,0.022296516224741936
1772457348975935700,5.907935791015625,0.0022218753583729267,0.004024835303425789,0.029685458168387413
1772457348986003700,5.918003662109375,0.0025446503423154354,0.01901443675160408,0.034456778317689896
1772457348996072400,5.928072509765625,-0.0018133464036509395,0.02534051053225994,0.03443893417716026
1772457349006140700,5.938140625,-0.004267715383321047,0.018683938309550285,0.04284253716468811
1772457349016209700,5.948209716796875,-0.004612328484654427,0.008340754546225071,0.04634752497076988
1772457349026277600,5.958277587890625,-0.010526943020522594,-0.001585912425071001,0.047393083572387695
1772457349036346600,5.9683466796875,-0.007967378944158554,-0.001255680457688868,0.040760744363069534
1772457349046415600,5.97841552734375,-0.01543701346963644,0.017241571098566055,0.03928748518228531
1772457349056483600,5.988483642578125,-0.019594740122556686,0.02111034467816353,0.0335739403963089
1772457349066552600,5.998552490234375,-0.02172473631799221,0.010993795469403267,0.023576699197292328
1772457349076620500,6.00862060546875,-0.01889379695057869,0.010943461209535599,0.02610856667160988
1772457349086689800,6.018689697265625,-0.013346964493393898,0.014510232955217361,0.02575862593948841
1772457349096757800,6.0287578125,-0.01390116848051548,0.009904562495648861,0.020050672814249992
1772457349106826500,6.038826416015625,-0.012792760506272316,0.01395975798368454,0.014317420311272144
1772457349116895700,6.048895751953125,-0.01085584331303835,0.016696954146027565,0.007758054416626692
1772457349126963700,6.058963623046875,-0.007637679576873779,0.011889948509633541,-0.0025214808993041515
1772457349137032400,6.069032470703125,-0.007362042553722858,0.00015206649550236762,-0.005287972744554281
1772457349147100700,6.0791005859375,-0.00424374733120203,-0.004172108136117458,-0.004263454582542181
1772457349157169700,6.089169677734375,-0.005033107940107584,0.0036543896421790123,-0.001160339335910976
1772457349167237600,6.099237548828125,-0.007754592224955559,0.004180896561592817,-0.00031558459158986807
1772457349177306600,6.109306640625,-0.010498980060219765,-0.005359611473977566,-0.0031726236920803785
1772457349187374600,6.11937451171875,-0.008765794336795807,-0.009166333824396133,-0.011961587704718113
1772457349197443800,6.12944384765625,-0.005995308049023151,-0.008355401456356049,-0.00917565543204546
1772457349207512600,6.1395126953125,-0.004829908721148968,-0.005846437532454729,-0.00968325324356556
1772457349217580500,6.14958056640625,-0.0005736448802053928,-0.008892827667295933,-0.017187776044011116
1772457349227649800,6.15964990234375,0.000004261057711119065,-0.003495665267109871,-0.01452807616442442
1772457349237717500,6.169717529296875,0.0005440838285721838,-0.0004540689697023481,-0.0131522873416543
1772457349247786500,6.179786376953125,-0.0008194546680897474,-0.003930293023586273,-0.008840363472700119
1772457349257854700,6.189854736328125,-0.0041585261933505535,-0.006001699715852737,-0.003436543047428131
1772457349267923700,6.199923828125,-0.002936135046184063,0.001133707701228559,0.005257878918200731
1772457349277992700,6.20999267578125,-0.0060355220921337605,-0.0014354437589645386,0.008326905779540539
1772457349288060700,6.220060791015625,-0.008904279209673405,-0.014189322479069233,0.017951570451259613
1772457349298129700,6.230129638671875,-0.0049345712177455425,-0.020068516954779625,0.01907835341989994
1772457349308197400,6.240197265625,-0.008231564424932003,-0.01709136925637722,0.019628295674920082
1772457349318266600,6.2502666015625,-0.005048021674156189,-0.007455785758793354,0.013127786107361317
1772457349328334600,6.26033447265625,-0.005724464543163776,-0.00012996226723771542,0.0016884441720321774
1772457349338403600,6.270403564453125,-0.008251005783677101,-0.008809470571577549,-0.0028210864402353764
1772457349348472600,6.28047265625,-0.011729893274605274,-0.015721704810857773,-0.005327919963747263
1772457349358540500,6.29054052734375,-0.016530239954590797,-0.018848255276679993,-0.014247112907469273
1772457349368609800,6.30060986328125,-0.016630908474326134,-0.01079778652638197,-0.013520602136850357
1772457349378677500,6.310677490234375,-0.017488179728388786,0.0038663772866129875,-0.014422881416976452
1772457349388746500,6.32074658203125,-0.012570919468998909,-0.0034416031558066607,-0.02004215121269226
1772457349398814700,6.330814697265625,-0.014793327078223228,-0.0037558560725301504,-0.014564828015863895
1772457349408883500,6.340883544921875,-0.010901915840804577,-0.006409695837646723,-0.014279603026807308
1772457349418952700,6.35095263671875,-0.012771988287568092,-0.014629276469349861,-0.009727728553116322
1772457349429020700,6.361020751953125,-0.013364274986088276,-0.010831608437001705,-0.010543987154960632
1772457349439089700,6.371089599609375,-0.01113121397793293,0.003674097126349807,-0.009948237799108028
1772457349449157600,6.38115771484375,-0.016568323597311974,0.01829751394689083,-0.01119513064622879
1772457349459226600,6.3912265625,-0.019155850633978844,0.03408127278089523,-0.011443602852523327
1772457349469294600,6.401294677734375,-0.02226056531071663,0.036063726991415024,-0.006856308318674564
1772457349479363600,6.411363525390625,-0.029211947694420815,0.009314938448369503,-0.0054424358531832695
1772457349489432600,6.4214326171875,-0.025230787694454193,-0.022787604480981827,-0.007529288996011019
1772457349499500500,6.43150048828125,-0.014239655807614326,-0.015867380425333977,-0.012831375934183598
1772457349509569500,6.441569580078125,-0.0008937568636611104,-0.002513491315767169,-0.013039901852607727
1772457349519637500,6.451637451171875,0.004463724326342344,0.012559201568365097,-0.008474977687001228
1772457349529706800,6.461706787109375,0.007444600574672222,0.02756664715707302,0.00788775086402893
1772457349539774700,6.471774658203125,0.004293814767152071,0.027689151465892792,0.01804238371551037
1772457349549843500,6.481843505859375,0.0022354573011398315,0.006168946158140898,0.024689100682735443
1772457349559911700,6.49191162109375,0.0007451524725183845,-0.019541477784514427,0.025228390470147133
1772457349569980700,6.501980712890625,0.0030711572617292404,-0.0364147312939167,0.018001370131969452
1772457349580049400,6.51204931640625,0.012249208986759186,-0.028736306354403496,0.003287672298029065
1772457349590117600,6.52211767578125,0.017360614612698555,-0.01369370799511671,-0.008474444970488548
1772457349600186600,6.5321865234375,0.015263641253113747,0.0010426276130601764,-0.016053268685936928
1772457349610254600,6.542254638671875,0.012023373506963253,0.006422479171305895,-0.018369419500231743
1772457349620323600,6.552323486328125,0.009248625487089157,-0.007595601491630077,-0.021680528298020363
1772457349630392600,6.562392578125,0.008291752077639103,-0.019148394465446472,-0.024931449443101883
1772457349640460800,6.572460693359375,0.005702094174921513,-0.015341672115027905,-0.026567429304122925
1772457349650529500,6.582529541015625,0.0008024104172363877,-0.00971387978643179,-0.02449575625360012
1772457349660597500,6.592597412109375,0.007744738832116127,-0.0031409321818500757,-0.02526381053030491
1772457349670666800,6.602666748046875,0.010114951990544796,0.0006460828590206802,-0.02424302138388157
1772457349680734700,6.612734619140625,0.008443019352853298,0.0019105518003925681,-0.017703363671898842
1772457349690803500,6.622803466796875,0.00039254993316717446,0.0031902005430310965,-0.0065801385790109634
1772457349700871700,6.63287158203125,-0.00552126532420516,0.011518438346683979,0.004652009811252356
1772457349710940700,6.642940673828125,-0.014116085134446621,0.012140286155045033,0.01841123215854168
1772457349721009700,6.653009765625,-0.01570865511894226,0.0034144388046115637,0.02359773777425289
1772457349731077600,6.66307763671875,-0.00791278388351202,-0.0062760054133832455,0.0254619512706995
1772457349741146600,6.673146728515625,-0.006691991351544857,-0.013733122497797012,0.02570483088493347
1772457349751214600,6.683214599609375,-0.002115348819643259,-0.003919906914234161,0.026812439784407616
1772457349761283600,6.69328369140625,-0.0031997880432754755,0.0021022993605583906,0.030005302280187607
1772457349771351600,6.7033515625,-0.0019254654180258512,-0.0016674051294103265,0.03842621669173241
1772457349781420500,6.713420654296875,-0.004848551005125046,-0.004477572627365589,0.04115648940205574
1772457349791489500,6.723489501953125,-0.0049308426678180695,-0.003552124137058854,0.040411338210105896
1772457349801557500,6.7335576171875,-0.00765818590298295,-0.0023699470330029726,0.03802807629108429
1772457349811626800,6.743626708984375,-0.0067878649570047855,0.0010844392236322165,0.0345555804669857
1772457349821694700,6.75369482421875,-0.004947354551404715,0.009471265599131584,0.02750805765390396
1772457349831763500,6.763763427734375,0.00016298545233439654,0.012722985818982124,0.02616875246167183
1772457349841831700,6.773831787109375,-0.0013203952694311738,0.01299196481704712,0.029735524207353592
1772457349851900700,6.783900634765625,0.001657018787227571,0.0034527883399277925,0.02478470839560032
1772457349861969400,6.793969482421875,0.0005067995516583323,-0.011121893301606178,0.02491733431816101
1772457349872037600,6.80403759765625,0.007852330803871155,-0.006702643819153309,0.019900737330317497
1772457349882106600,6.814106689453125,0.007693872321397066,-0.004336158744990826,0.007459514308720827
1772457349892174600,6.824174560546875,0.008027033880352974,0.01549507025629282,-0.003126284806057811
1772457349902243600,6.83424365234375,0.012533901259303093,0.03388446196913719,-0.0010452907299622893
1772457349912311600,6.8443115234375,0.00977353472262621,0.03502403199672699,0.01110671367496252
1772457349922380800,6.854380859375,0.006895190104842186,0.016409067437052727,0.020416857674717903
1772457349932448500,6.864448486328125,0.005019525997340679,-0.000910268456209451,0.029990389943122864
1772457349942517500,6.874517578125,0.0028565065003931522,-0.008501608856022358,0.03780117630958557
1772457349952586800,6.884586669921875,0.007392934989184141,-0.0005954828229732811,0.036973997950553894
1772457349962654500,6.894654541015625,0.01248250249773264,0.014004232361912727,0.037277329713106155
1772457349972723500,6.904723388671875,0.014931811019778252,0.01122282724827528,0.029032183811068535
1772457349982791700,6.914791748046875,0.011594604700803757,0.005598763469606638,0.01836009882390499
1772457349992860700,6.924860595703125,0.007803861051797867,-0.00010093380114994943,0.013110209256410599
1772457350002928400,6.934928466796875,0.005672000348567963,-0.0038362834602594376,0.007545800413936377
1772457350012997600,6.94499755859375,0.003025617217645049,-0.006215019151568413,0.007984689436852932
1772457350023066600,6.955066650390625,0.003070358419790864,-0.003998470026999712,-0.003454386256635189
1772457350033134300,6.96513427734375,0.004745753016322851,0.00192226970102638,-0.010336793027818203
1772457350043203600,6.97520361328125,0.005865079816430807,0.011388476006686687,-0.015597867779433727
1772457350053271600,6.985271484375,0.004221909213811159,0.01312325894832611,-0.02707529254257679
1772457350063340500,6.995340576171875,0.004384362138807774,0.012869725935161114,-0.03147882968187332
1772457350073408500,7.005408447265625,0.0030162963084876537,0.01582317240536213,-0.024953819811344147
1772457350083477500,7.0154775390625,0.0007219829712994397,-0.0008953547803685069,-0.01824345253407955
1772457350093546800,7.025546630859375,-0.0008532768115401268,-0.01233389787375927,-0.009134642779827118
1772457350103614500,7.035614501953125,-0.002823483431711793,-0.014508634805679321,-0.005435245577245951
1772457350113683500,7.045683349609375,-0.004352670628577471,-0.0037033918779343367,0.0010365023044869304
1772457350123751700,7.055751708984375,-0.003945739474147558,0.007898403331637383,0.004336158744990826
1772457350133820400,7.0658203125,-0.008491755463182926,0.002639458980411291,0.007127151824533939
1772457350143888400,7.075888427734375,-0.005604089703410864,-0.006945523899048567,0.017654361203312874
1772457350153957600,7.08595751953125,-0.0026045716367661953,-0.023485084995627403,0.01750096306204796
1772457350164026600,7.096026611328125,0.0018002968281507492,-0.018544388934969902,0.020504476502537727
1772457350174094600,7.106094482421875,0.00490314606577158,-0.010065151378512383,0.02045147866010666
1772457350184163600,7.11616357421875,0.004785966593772173,-0.01011175662279129,0.01571371592581272
1772457350194231600,7.1262314453125,0.002356897573918104,-0.010516290552914143,0.007964449934661388
1772457350204300500,7.136300537109375,0.0007534082396887243,-0.0075878784991800785,0.008919725194573402
1772457350214368500,7.146368408203125,0.0012514194240793586,-0.0033872744534164667,0.013426592573523521
1772457350224437500,7.1564375,0.003175287041813135,0.0025603631511330605,0.019112974405288696
1772457350234505700,7.166505615234375,0.0037414750549942255,-0.005312207154929638,0.020350545644760132
1772457350244574500,7.176574462890625,-0.0014764565275982022,-0.015141935087740421,0.00947818998247385
1772457350254643700,7.186643798828125,-0.004541222471743822,-0.01581571437418461,-0.006376673001796007
1772457350264711700,7.196711669921875,-0.0070733558386564255,-0.016165386885404587,-0.02622814103960991
1772457350274780400,7.206780517578125,-0.006366552785038948,-0.01503966934978962,-0.04159564524888992
1772457350284848600,7.2168486328125,-0.00020932445477228612,-0.01860005035996437,-0.05383340269327164
1772457350294917600,7.226917724609375,-0.00028282770654186606,-0.02551041916012764,-0.052140966057777405
1772457350304985600,7.236985595703125,0.000708134553860873,-0.020560668781399727,-0.03527196869254112
1772457350315054600,7.2470546875,-0.0041004689410328865,-0.009741577319800854,-0.011382350698113441
1772457350325123600,7.25712353515625,-0.007783621083945036,-0.004720719531178474,0.012495817616581917
1772457350335191600,7.267191650390625,-0.010932009667158127,-0.00824807584285736,0.0229782871901989
1772457350345260500,7.277260498046875,-0.00896579772233963,-0.020854149013757706,0.02316603995859623
1772457350355328500,7.28732861328125,-0.006168147549033165,-0.03560353443026543,0.011772769503295422
1772457350365397500,7.2973974609375,-0.006126335822045803,-0.02977733686566353,-0.003564108395949006
1772457350375465700,7.3074658203125,-0.0033835461363196373,-0.0024791366886347532,-0.015671370550990105
1772457350385534500,7.317534423828125,-0.005203284323215485,0.023031016811728477,-0.015237808227539062
1772457350395603700,7.327603759765625,-0.007248059380799532,0.03166365250945091,-0.010402040556073189
1772457350405671700,7.337671630859375,-0.012372779659926891,0.0070403325371444225,-0.002508431440219283
1772457350415740400,7.347740478515625,-0.014231134206056595,-0.024529045447707176,0.0031790153589099646
1772457350425808600,7.35780859375,-0.012695022858679295,-0.049903109669685364,0.0022719427943229675
1772457350435877600,7.367877685546875,-0.008044877089560032,-0.04307370260357857,-0.00044794369023293257
1772457350445945600,7.377945556640625,-0.00487225316464901,-0.008651811629533768,-0.0005957491230219603
1772457350456014600,7.3880146484375,-0.0036104475148022175,0.011989018879830837,0.0010807107901200652
1772457350466082600,7.39808251953125,-0.0065740132704377174,0.010303770191967487,0.007744738832116127
1772457350476151600,7.408151611328125,-0.010950651951134205,-0.00780572509393096,0.0088187912479043
1772457350486220500,7.418220458984375,-0.00965768750756979,-0.025118136778473854,0.00884968414902687
1772457350496288500,7.42828857421875,-0.007951666601002216,-0.029034581035375595,0.005531119182705879
1772457350506357800,7.438357666015625,-0.00493244081735611,-0.014657239429652691,-0.004285558592528105
1772457350516425700,7.44842578125,-0.0017393104499205947,-0.004221376497298479,-0.006874151527881622
1772457350526494500,7.458494384765625,-0.00037710359902121127,0.006900516804307699,-0.004643221385776997
1772457350536562700,7.468562744140625,-0.003948668949306011,-0.002986468840390444,-0.000604004948399961
1772457350546631700,7.478631591796875,-0.008698150515556335,-0.021510351449251175,0.002124137245118618
1772457350556700400,7.488700439453125,-0.005172391422092915,-0.0278026033192873,-0.0001691107318038121
1772457350566768600,7.4987685546875,-0.0018735338235273957,-0.025303758680820465,0.0006135923322290182
1772457350576837600,7.508837646484375,0.002956907730549574,-0.013440174981951714,-0.004200071096420288
1772457350586905600,7.518905517578125,0.00561181316152215,-0.006414756178855896,-0.011063303798437119
1772457350596974600,7.528974609375,0.011753861792385578,-0.0025995115283876657,-0.010906710289418697
1772457350607042600,7.53904248046875,0.012956012040376663,-0.013026585802435875,-0.013472133316099644
1772457350617111800,7.54911181640625,0.011426026001572609,-0.018093250691890717,-0.017723869532346725
1772457350627180500,7.5591806640625,0.012929913587868214,-0.0223844014108181,-0.023419305682182312
1772457350637248500,7.56924853515625,0.012446283362805843,-0.0213625468313694,-0.027690483257174492
1772457350647317800,7.57931787109375,0.01230273861438036,-0.009277653880417347,-0.023975906893610954
1772457350657385500,7.589385498046875,0.015203986316919327,0.0070459251292049885,-0.021881330758333206
1772457350667454500,7.599454345703125,0.016987772658467293,0.0052110073156654835,-0.016892164945602417
1772457350677522700,7.609522705078125,0.015033011324703693,-0.014039386063814163,-0.018458636477589607
1772457350687591700,7.619591796875,0.016773654147982597,-0.02448909729719162,-0.022517027333378792
1772457350697659400,7.629659423828125,0.014735270291566849,-0.016867397353053093,-0.021947909146547318
1772457350707728600,7.639728759765625,0.004453337751328945,0.00953651312738657,-0.01882641762495041
1772457350717797600,7.649797607421875,-0.0020178770646452904,0.031849008053541183,-0.006569485645741224
1772457350727865300,7.659865234375,-0.010631605051457882,0.025171665474772453,0.006052832584828138
1772457350737934600,7.6699345703125,-0.01110484916716814,-0.007251787465065718,0.017945710569620132
1772457350748002800,7.6800029296875,-0.00734340026974678,-0.03274862468242645,0.014255900867283344
1772457350758071600,7.690071533203125,-0.0024708807468414307,-0.039621978998184204,0.003358246060088277
1772457350768139500,7.700139404296875,0.003369697602465749,-0.01756674237549305,-0.005893042776733637
1772457350778208800,7.710208740234375,0.006424609571695328,0.006351106334477663,-0.020561734214425087
1772457350788277500,7.720277587890625,0.006007292307913303,0.017076721414923668,-0.02093750610947609
1772457350798345700,7.730345703125,0.002454369328916073,0.00851599033921957,-0.01739523559808731
1772457350808414700,7.740414794921875,-0.0027505126781761646,-0.010044378228485584,-0.014094780199229717
1772457350818482700,7.750482666015625,-0.0025710156187415123,-0.02081579901278019,-0.003061303636059165
1772457350828551700,7.7605517578125,0.0014511564513668418,-0.02917732670903206,-0.016956878826022148
1772457350838619600,7.77061962890625,0.0037175065372139215,-0.021319402381777763,-0.023543940857052803
1772457350848688600,7.780688720703125,0.013232980854809284,0.004740160424262285,-0.02929503843188286
1772457350858756900,7.7907568359375,0.01443832740187645,0.014328339137136936,-0.026402046903967857
1772457350868825600,7.80082568359375,0.008331965655088425,0.003783819265663624,-0.0181137565523386
1772457350878894800,7.810894775390625,0.0012474246323108673,-0.020918864756822586,-0.0070254188030958176
1772457350888962800,7.820962890625,-0.0028639633674174547,-0.029155489057302475,-0.004914597608149052
1772457350899031600,7.831031494140625,-0.0011653993278741837,-0.023603862151503563,-0.0029816750902682543
1772457350909099500,7.841099609375,-0.0036762275267392397,-0.010777014307677746,-0.007790012285113335
1772457350919168800,7.851168701171875,-0.0018823222490027547,0.0011491540353745222,-0.0065622953698039055
1772457350929236700,7.86123681640625,-0.002083390951156616,0.0012090750969946384,-0.007986820302903652
1772457350939305700,7.8713056640625,-0.002058357233181596,-0.0035989959724247456,0.0015494271647185087
1772457350949374700,7.881374755859375,-0.0004114583716727793,-0.0044054011814296246,0.006296511739492416
1772457350959442700,7.891442626953125,-0.002511893631890416,-0.011976768262684345,0.009850233793258667
1772457350969511700,7.90151171875,-0.0038005972746759653,-0.022827284410595894,0.007702660746872425
1772457350979579600,7.91157958984375,-0.0033475933596491814,-0.019155850633978844,-0.001817341079004109
1772457350989648600,7.921648681640625,-0.0009510148083791137,-0.0043867588974535465,-0.006971622817218304
1772457350999716900,7.931716796875,-0.0011408982099965215,0.007348460145294666,-0.013875601813197136
1772457351009785600,7.94178564453125,-0.00250576832331717,0.011835088022053242,-0.009230249561369419
1772457351019853600,7.951853515625,-0.0043742419220507145,0.007221161387860775,-0.0007752461824566126
1772457351029922800,7.9619228515625,-0.005887450184673071,0.001609614584594965,-0.00009853696246864274
1772457351039991600,7.971991455078125,-0.014407701790332794,-0.0036786242853850126,-0.01329929381608963
1772457351050057700,7.9820576171875,-0.022639531642198563,-0.012557603418827057,-0.03099440038204193
1772457351060126700,7.992126708984375,-0.026640664786100388,-0.011604191735386848,-0.03927763178944588
1772457351070195700,8.00219580078125,-0.02377377264201641,-0.009212406352162361,-0.04790494218468666
1772457351080263700,8.012263671875,-0.021497301757335663,-0.007223558146506548,-0.04735260084271431
1772457351090332700,8.022332763671875,-0.015747005119919777,-0.007139668334275484,-0.03074832446873188
1772457351100400600,8.032400634765626,-0.01731960102915764,-0.012505139224231243,-0.011891546659171581
1772457351110469600,8.0424697265625,-0.014720888808369637,-0.012105398811399937,0.01245240867137909
1772457351120537900,8.052537841796875,-0.014334198087453842,-0.009093363769352436,0.028928320854902267
1772457351130606600,8.062606689453125,-0.013320332393050194,-0.010056362487375736,0.04033117741346359
1772457351140675800,8.07267578125,-0.010702178813517094,-0.008241684176027775,0.033845316618680954
1772457351150743800,8.082743896484375,-0.004884770140051842,-0.019294070079922676,0.02021312527358532
1772457351160812500,8.0928125,0.0008412926108576357,-0.019119365140795708,0.002906307578086853
1772457351170880800,8.102880859375,0.004815527703613043,-0.011599930934607983,-0.01197836548089981
1772457351180949800,8.11294970703125,0.007681888062506914,-0.0019467707024887204,-0.02039661817252636
1772457351191017700,8.123017822265625,0.004268248099833727,0.006135923322290182,-0.02203339710831642
1772457351201086700,8.133086669921875,0.00250496924854815,0.005693039391189814,-0.014328871853649616
1772457351211155700,8.14315576171875,-0.0012620720081031322,-0.006960437633097172,-0.015239939093589783
1772457351221223700,8.1532236328125,-0.0012974920682609081,-0.029712887480854988,-0.016687633469700813
1772457351231292700,8.163292724609375,-0.0008175904513336718,-0.039560191333293915,-0.019885823130607605
1772457351241360600,8.173360595703125,0.0041007352992892265,-0.02816585823893547,-0.025015071034431458
1772457351251430000,8.183429931640624,0.006715693045407534,-0.010945858433842659,-0.025858495384454727
1772457351261497900,8.193497802734376,0.0028298748657107353,0.007866977714002132,-0.014576545916497707
1772457351271566600,8.203566650390625,-0.002114816103130579,0.017856229096651077,-0.0067226174287498
1772457351281634800,8.213634765625,-0.00757935643196106,0.014597584493458271,0.0024706146214157343
1772457351291703800,8.223703857421874,-0.016930513083934784,0.00370099488645792,0.004459729418158531
1772457351301772500,8.2337724609375,-0.019481290131807327,-0.002907639369368553,0.006697317585349083
1772457351311840800,8.2438408203125,-0.017765149474143982,-0.007558583747595549,0.010040916502475739
1772457351321909800,8.25390966796875,-0.01685594581067562,-0.00586800929158926,0.014884141273796558
1772457351331977700,8.263977783203124,-0.012141884304583073,-0.006877347361296415,0.018998192623257637
1772457351342046700,8.274046630859376,-0.008930910378694534,-0.005640575196594,0.018982479348778725
1772457351352114700,8.28411474609375,-0.0044346959330141544,-0.007075486239045858,0.022879749536514282
1772457351362184000,8.294183837890625,-0.009369799867272377,-0.0043534692376852036,0.022880814969539642
1772457351372252700,8.304252685546874,-0.010986871086061,-0.003650128608569503,0.017966749146580696
1772457351382320600,8.314320556640626,-0.014551511965692043,-0.010243848897516727,0.02213459648191929
1772457351392390000,8.324389892578125,-0.010324276052415371,-0.014709703624248505,0.013746704906225204
1772457351402457600,8.33445751953125,-0.006250705569982529,-0.009065666235983372,0.00944889523088932
1772457351412526600,8.344526611328124,0.00424348097294569,0.00020266656065359712,0.006578540429472923
1772457351422594800,8.3545947265625,0.004524444229900837,-0.0006679208017885685,-0.0028101676143705845
1772457351432663600,8.36466357421875,0.0006647250265814364,0.010013218969106674,-0.009881659410893917
1772457351442731500,8.3747314453125,-0.0004942826926708221,0.0022423816844820976,-0.011390073224902153
1772457351452800800,8.38480078125,-0.004792091902345419,-0.01242018397897482,-0.016115853562951088
1772457351462869800,8.394869873046876,-0.007965248078107834,-0.02352157048881054,-0.014066550880670547
1772457351472937500,8.4049375,-0.00631994754076004,-0.020836306735873222,-0.013429788872599602
1772457351483006700,8.4150068359375,-0.004507400095462799,-0.012770123779773712,-0.015966715291142464
1772457351493074700,8.42507470703125,-0.0029963224660605192,0.0028447885997593403,-0.013714213855564594
1772457351503143700,8.435143798828125,-0.002350239548832178,0.008199873380362988,-0.012762666679918766
1772457351513211600,8.445211669921875,-0.0037031255196779966,-0.0018466358305886388,-0.007140201050788164
1772457351523280600,8.45528076171875,-0.006071208510547876,0.002802710747346282,0.0026495789643377066
1772457351533349600,8.465349609375,-0.011381018906831741,0.0011667308863252401,0.01768445409834385
1772457351543417600,8.47541748046875,-0.017368070781230927,-0.016322247684001923,0.018440259620547295
1772457351553486600,8.485486572265625,-0.015796806663274765,-0.02779381349682808,0.02070394717156887
1772457351563554800,8.495554931640624,-0.010875551030039787,-0.026563433930277824,0.012142150662839413
1772457351573623600,8.50562353515625,-0.004914863966405392,-0.003698065411299467,0.0019624833948910236
1772457351583691500,8.51569140625,-0.002243446884676814,0.0088776471093297,-0.002323608146980405
1772457351593760800,8.5257607421875,0.0023816649336367846,0.011200723238289356,0.0007198524544946849
1772457351603828700,8.535828857421874,0.0014271880500018597,0.008085357025265694,0.006197974551469088
1772457351613897700,8.545897705078126,-0.0020756677258759737,-0.005724198184907436,0.00977486651390791
1772457351623966700,8.555966796875,-0.0003408846096135676,-0.013719541020691395,0.019296465441584587
1772457351634034700,8.56603466796875,0.002724680118262768,-0.024602815508842468,0.015915583819150925
1772457351644103700,8.576103759765624,0.002487925114110112,-0.026457706466317177,0.0018967032665386796
1772457351654171600,8.586171630859376,0.0024261397775262594,-0.010130930691957474,-0.0034266894217580557
1772457351664240600,8.59624072265625,0.0014335796004161239,0.00577826052904129,-0.012052668258547783
1772457351674308900,8.606308837890625,0.0010218549286946654,0.0006740460521541536,-0.01745169423520565
1772457351684377600,8.616377685546874,-0.00009400958515470847,-0.0030929953791201115,-0.016050605103373528
1772457351694446800,8.62644677734375,-0.00017896443023346364,-0.011195396073162556,-0.013759754598140717
1772457351704514800,8.636514892578125,-0.0015334481140598655,-0.016802415251731873,-0.01278477068990469
1772457351714583600,8.64658349609375,-0.008761000819504261,-0.019829098135232925,-0.009322129189968109
1772457351724651800,8.65665185546875,-0.012766661122441292,-0.025973543524742126,-0.011480088345706463
1772457351734720800,8.666720703125,-0.014480139128863811,-0.014533136039972305,-0.009977000765502453
1772457351744788700,8.676788818359375,-0.013561614789068699,0.005546565633267164,-0.0023257385473698378
1772457351754857000,8.68685693359375,-0.015735553577542305,0.009198025800287724,0.0062576294876635075
1772457351764925000,8.696925048828126,-0.02124110609292984,-0.0014769891276955605,0.008159925229847431
1772457351774994200,8.706994140625,-0.024751152843236923,-0.012418586760759354,0.00875168014317751
1772457351785063000,8.71706298828125,-0.026441194117069244,-0.012921124696731567,0.014885205775499344
1772457351795131000,8.727130859375,-0.03117070160806179,-0.013668141327798367,0.022963106632232666
1772457351805200100,8.7372001953125,-0.027647873386740685,-0.008364190347492695,0.023154854774475098
1772457351815268000,8.74726806640625,-0.023232351988554,-0.0035214978270232677,0.019635487347841263
1772457351825337000,8.757337158203125,-0.018066618591547012,-0.0013664679136127234,0.0038421424105763435
1772457351835405000,8.767405029296874,-0.015837552025914192,0.004503671545535326,-0.006248041987419128
1772457351845474000,8.77747412109375,-0.016682572662830353,-0.0017856494523584843,-0.011506720446050167
1772457351855543000,8.78754296875,-0.01564101129770279,-0.01990792714059353,-0.020050672814249992
1772457351865611000,8.797611083984375,-0.013164271600544453,-0.025103755295276642,-0.01954520493745804
1772457351875680000,8.807679931640624,-0.012002067640423775,-0.034445058554410934,-0.014446317218244076
1772457351885748200,8.817748291015626,-0.011818310245871544,-0.03545093536376953,-0.009911220520734787
1772457351895817000,8.82781689453125,-0.012417787685990334,-0.011237474158406258,0.0005193164106458426
1772457351905885000,8.837885009765625,-0.0158868208527565,0.004399808589369059,0.008024370297789574
1772457351915954200,8.8479541015625,-0.01793745532631874,0.00902625173330307,0.021257618442177773
1772457351926022100,8.858022216796876,-0.01811854913830757,-0.0002620550512801856,0.027422303333878517
1772457351936091100,8.868091064453125,-0.015381619334220886,-0.01296506728976965,0.024293089285492897
1772457351946160000,8.87816015625,-0.009859820827841759,-0.02232448011636734,0.0235239677131176
1772457351956228000,8.88822802734375,-0.0030389330349862576,-0.015301991254091263,0.017349163070321083
1772457351966297000,8.898297119140626,0.00336197461001575,0.008341819047927856,0.018339060246944427
1772457351976365000,8.908364990234375,0.0033598439767956734,0.017895109951496124,0.013470801524817944
1772457351986434000,8.91843408203125,0.0027917916886508465,0.004025101661682129,0.014613564126193523
1772457351996502300,8.928502197265624,0.0006996124284341931,-0.016262592747807503,0.014786136336624622
1772457352006571000,8.938571044921876,0.002298840554431081,-0.03188176825642586,0.014135260134935379
1772457352016639000,8.948638916015625,0.003608316881582141,-0.026704581454396248,0.015165903605520725
1772457352026708200,8.958708251953125,0.002828276949003339,-0.006527940277010202,0.018802449107170105
1772457352036777000,8.96877685546875,0.003385676769539714,0.012591691687703133,0.015266038477420807
1772457352046845000,8.978844970703125,0.000365918327588588,0.017908958718180656,0.023060578852891922
1772457352056914200,8.9889140625,-0.0006181196658872068,0.013093431480228901,0.025742115452885628
1772457352066982100,8.998982177734375,0.0009475527331233025,-0.004979046061635017,0.015957394614815712
1772457352077051100,9.009051025390624,0.0017558221006765962,-0.01254881452769041,0.019507920369505882
1772457352087119000,9.019119140625,0.0013917679898440838,-0.022669892758131027,0.021339643746614456
1772457352097188000,9.02918798828125,-0.0010242518037557602,-0.020003534853458405,0.022834742441773415
1772457352107257000,9.039257080078125,-0.005596100352704525,-0.006983873434364796,0.024602815508842468
1772457352117325000,9.049324951171876,-0.008855010382831097,0.00006338323146337643,0.025293372571468353
1772457352127394000,9.05939404296875,-0.009357815608382225,-0.0006002765148878098,0.020299412310123444
1772457352137462000,9.0694619140625,-0.010581005364656448,-0.0044014062732458115,0.01997504010796547
1772457352147531000,9.079531005859375,-0.005874666851013899,-0.012979714199900627,0.017226390540599823
1772457352157599000,9.089598876953126,0.00012357067316770554,-0.018097776919603348,0.017173128202557564
1772457352167668200,9.099668212890625,0.0021313277538865805,-0.017708422616124153,0.014642326161265373
1772457352177736000,9.10973583984375,0.003418699838221073,-0.0059811933897435665,0.01583116129040718
1772457352187805200,9.11980517578125,0.004569451790302992,0.00019973708549514413,0.013397564180195332
1772457352197874200,9.129874267578124,-0.0013994910987094045,0.0035478631034493446,0.01073733251541853
1772457352207942000,9.13994189453125,-0.0035537220537662506,0.0016993631143122911,0.009980728849768639
1772457352218011100,9.15001123046875,-0.0010426276130601764,-0.0007797735743224621,0.005016862880438566
1772457352228079000,9.1600791015625,0.006750048138201237,-0.004866660572588444,-0.007212905213236809
1772457352238148000,9.170148193359376,0.010946391150355339,-0.012416722252964973,-0.018920160830020905
1772457352248216000,9.180216064453125,0.013511814177036285,-0.012355202808976173,-0.02833523415029049
1772457352258285000,9.19028515625,0.012723518535494804,0.008008657954633236,-0.03273823857307434
1772457352268354300,9.200354248046875,0.004334028344601393,0.023133281618356705,-0.03575240448117256
1772457352278422000,9.210422119140626,-0.00640676636248827,0.027286216616630554,-0.031008249148726463
1772457352288491000,9.220490966796875,-0.006646451074630022,0.02719646692276001,-0.017471134662628174
1772457352298559200,9.230559326171875,-0.011797270737588406,0.02215270698070526,-0.0037385455798357725
1772457352308628000,9.2406279296875,-0.011353055946528912,0.0009302421822212636,0.012928581796586514
1772457352318696000,9.250696044921876,-0.016098009422421455,-0.01918754354119301,0.024830780923366547
1772457352328765200,9.26076513671875,-0.016951020807027817,-0.03659023344516754,0.026928020641207695
1772457352338833200,9.270833251953125,-0.010644388385117054,-0.026677150279283524,0.023367905989289284
1772457352348902000,9.28090185546875,-0.003772634081542492,-0.002671150490641594,0.01948581635951996
1772457352358971100,9.29097119140625,-0.00014913702034391463,0.009071258828043938,0.013251889497041702
1772457352369039000,9.3010390625,-0.000979244359768927,0.011321363970637321,0.00983585324138403
1772457352379107800,9.31110791015625,-0.003931358456611633,0.004043211229145527,0.013405021280050278
1772457352389176000,9.321176025390624,-0.006703176535665989,-0.00242161238566041,0.015901468694210052
1772457352399245000,9.3312451171875,-0.00854368694126606,-0.028261732310056686,0.014010624028742313
1772457352409313000,9.34131298828125,-0.003519367426633835,-0.030884413048624992,0.005388640332967043
1772457352419382000,9.351382080078125,0.003382747294381261,-0.023242471739649773,-0.0051782503724098206
1772457352429450000,9.361449951171876,0.009553557261824608,-0.009302421472966671,-0.022292256355285645
1772457352439519200,9.371519287109376,0.010982343927025795,0.00261841993778944,-0.03309137374162674
1772457352449588000,9.381587890625,0.009072590619325638,0.011239605024456978,-0.0397878922522068
1772457352459656000,9.391656005859375,0.006048038601875305,0.005465605296194553,-0.029468409717082977
1772457352469725200,9.40172509765625,-0.0011238539591431618,-0.008518919348716736,-0.02570243366062641
1772457352479793200,9.411793212890625,-0.011012437753379345,-0.011895541101694107,-0.019051987677812576
1772457352489862000,9.42186181640625,-0.014385863207280636,-0.013073191046714783,-0.014931012876331806
1772457352499930000,9.43193017578125,-0.01110351737588644,-0.00580755528062582,-0.00634977500885725
1772457352509999000,9.4419990234375,-0.007948470301926136,0.014571752399206161,-0.0036490634083747864
1772457352520068000,9.452068115234376,-0.0021901836153119802,0.01444205641746521,0.0065678879618644714
1772457352530136000,9.462135986328125,0.0017616810509935021,0.0049406965263187885,0.010187922976911068
1772457352540205000,9.472205078125,0.005008607171475887,-0.008051535114645958,0.0067481836304068565
1772457352550273300,9.482273193359376,0.006042978726327419,-0.012881710194051266,0.004849083721637726
1772457352560342000,9.492342041015625,0.007794273551553488,-0.01757260225713253,0.003147589974105358
1772457352570410000,9.502409912109375,0.0008809737046249211,-0.005533782299607992,0.003739078063517809
1772457352580479200,9.512479248046875,-0.0029947245493531227,0.013292369432747364,0.00012729909212794155
1772457352590547200,9.522547119140626,-0.002681004349142313,0.018204037100076675,-0.00079735042527318
1772457352600616000,9.532615966796875,-0.003858654061332345,0.004163586068898439,-0.008049936965107918
1772457352610685200,9.542685302734375,-0.0011089402250945568,-0.005902097560465336,-0.018217619508504868
1772457352620753200,9.552753173828124,-0.0023608922492712736,-0.009769540280103683,-0.02111673727631569
1772457352630822100,9.562822265625,0.006764162797480822,-0.0095096156001091,-0.02526887133717537
1772457352640890000,9.57289013671875,0.00574869941920042,-0.004503937903791666,-0.030493460595607758
1772457352650959000,9.582958984375,0.0021904499735683203,-0.0023403859231621027,-0.022311164066195488
1772457352661027000,9.593027099609374,-0.0002950782363768667,0.0033489251509308815,-0.013864949345588684
1772457352671096000,9.603095947265626,-0.0007190534961409867,0.002567020943388343,-0.004200870171189308
1772457352681165000,9.6131650390625,0.0003067961661145091,-0.009440639987587929,0.0037204360123723745
1772457352691233300,9.6232333984375,-0.0031284152064472437,-0.01985386572778225,0.00917299184948206
1772457352701302000,9.633302001953124,-0.003976366017013788,-0.00896579772233963,0.003769438248127699
1772457352711370000,9.643369873046876,-0.009584450162947178,0.012551744468510151,0.002142513170838356
1772457352721439200,9.653439208984375,-0.014462295919656754,0.013611416332423687,-0.008921856060624123
1772457352731507000,9.6635068359375,-0.018604310229420662,-0.0000018642127770363004,-0.018061557784676552
1772457352741576000,9.673575927734374,-0.015677763149142265,-0.005027515348047018,-0.019700733944773674
1772457352751644200,9.68364404296875,-0.011304053477942944,0.0026197514962404966,-0.018521485850214958
1772457352761713200,9.693713134765625,-0.010425742715597153,-0.0006476807757280767,-0.012536564841866493
1772457352771782100,9.7037822265625,-0.007016896735876799,-0.009603092446923256,-0.013609285466372967
1772457352781850000,9.71385009765625,-0.0035513252951204777,-0.02364647388458252,-0.013676663860678673
1772457352791919000,9.723919189453126,-0.0026671558152884245,-0.026504311710596085,-0.0153752276673913
1772457352801987000,9.733987060546875,0.0014018879737704992,-0.0215364508330822,-0.01426628790795803
1772457352812056000,9.74405615234375,0.001743305241689086,-0.0014207963831722736,-0.008187622763216496
1772457352822124000,9.7541240234375,-0.0006492786924354732,0.012169580906629562,-0.004298608284443617
1772457352832193000,9.764193115234375,-0.004232561681419611,0.01031522173434496,0.009887784719467163
1772457352842262000,9.774261962890625,-0.0046389601193368435,-0.0027166905347257853,0.019748670980334282
1772457352852330200,9.784330322265625,-0.00875061471015215,-0.018728148192167282,0.02322995476424694
1772457352862399000,9.79439892578125,-0.006938599981367588,-0.01932602748274803,0.023937823250889778
1772457352872467000,9.804467041015625,-0.007980694994330406,-0.01161297969520092,0.016232233494520187
1772457352882536200,9.8145361328125,-0.008956210687756538,-0.012001534923911095,0.007642473094165325
1772457352892604200,9.824604248046874,-0.010824950411915779,-0.0031582426745444536,0.004838431254029274
1772457352902673000,9.8346728515625,-0.012656939215958118,0.001327053178101778,0.0015374429058283567
1772457352912741000,9.8447412109375,-0.013793842867016792,-0.0036645096261054277,0.00987180508673191
1772457352922810000,9.85481005859375,-0.016354471445083618,-0.005656820256263018,0.014749119058251381
1772457352932879000,9.864879150390625,-0.01575659215450287,0.0014468954177573323,0.018262360244989395
1772457352942947000,9.874947021484376,-0.015935290604829788,0.0009171926649287343,0.017377657815814018
1772457352953016000,9.88501611328125,-0.012301407754421234,-0.0080336919054389,0.013286244124174118
1772457352963084300,9.895084228515625,-0.01743944361805916,-0.018031997606158257,0.004283694550395012
1772457352973153000,9.905153076171874,-0.01245267502963543,-0.014043115079402924,-0.0004689826746471226
1772457352983221000,9.915220947265626,-0.006632602773606777,0.005584648810327053,-0.00583818182349205
1772457352993290200,9.925290283203125,-0.008106395602226257,0.019760655239224434,-0.0006908240029588342
1772457353003358200,9.935358154296875,-0.009109342470765114,0.016859672963619232,0.00044661210267804563
1772457353013427000,9.945427001953124,-0.011573032476007938,-0.002520682057365775,0.00007243797881528735
1772457353023496200,9.95549609375,-0.010232663713395596,-0.016270581632852554,0.00008335694292327389
1772457353033564200,9.965564208984375,-0.008083226159214973,-0.02707449346780777,-0.004119643941521645
1772457353043633200,9.975633056640625,-0.004569718148559332,-0.028504345566034317,-0.008315986953675747
1772457353053701000,9.985701171875,-0.0006894923863001168,-0.01594674214720726,-0.009887518361210823
1772457353063770000,9.99577001953125,0.0010394317796453834,0.001499625970609486,-0.012440957129001617
1772457353073838000,10.005838134765625,0.0038155107758939266,0.006048038601875305,-0.00899775605648756
1772457353083907000,10.015906982421875,-0.0009619337506592274,0.01070910319685936,-0.001526523963548243
1772457353093976000,10.02597607421875,-0.006828611250966787,0.0007728493656031787,0.015440208837389946
1772457353104044300,10.036044189453126,-0.00794687308371067,-0.015473764389753342,0.02154124528169632
1772457353114113000,10.046113037109375,-0.007454986684024334,-0.021921543404459953,0.02088797092437744
1772457353124181000,10.056180908203125,-0.006441920530050993,-0.01571637950837612,0.016143282875418663
1772457353134250200,10.066250244140624,-0.0046237800270318985,-0.0017664746847003698,0.013036972843110561
1772457353144318200,10.076318115234375,-0.0009155947482213378,0.009223858825862408,0.008636098355054855
1772457353154387000,10.086386962890625,-0.000711064029019326,0.013610617257654667,0.0037795582320541143
1772457353164455200,10.096455078125,-0.0048975530080497265,0.0018303906545042992,0.009300291538238525
1772457353174524200,10.106524169921874,-0.0041007352992892265,-0.009748767130076885,0.008006260730326176
1772457353184593200,10.11659326171875,-0.006048304960131645,-0.016890300437808037,0.004114849958568811
1772457353194661000,10.1266611328125,-0.00509968725964427,-0.009327455423772335,0.0005520732956938446
1772457353204730000,10.136730224609375,-0.013075854629278183,0.0031095067970454693,-0.003376621985808015
1772457353214798300,10.14679833984375,-0.012632970698177814,-0.0019145464757457376,-0.008340221829712391
1772457353224867000,10.1568671875,-0.012314456515014172,-0.011802596971392632,-0.013360812328755856
1772457353234935000,10.16693505859375,-0.013895043171942234,-0.015743276104331017,-0.0114971324801445
1772457353245004300,10.17700439453125,-0.01239142194390297,-0.014192517846822739,-0.012945892289280891
1772457353255073000,10.187072998046874,-0.008442752994596958,-0.01019564550369978,-0.015056713484227657
1772457353265141000,10.19714111328125,-0.009638246148824692,-0.000055660068028373644,-0.014346981421113014
1772457353275210200,10.207210205078125,-0.012419119477272034,0.009757822379469872,-0.012212724424898624
1772457353285278200,10.2172783203125,-0.01440929900854826,0.00155288923997432,-0.004601143300533295
1772457353295347200,10.22734716796875,-0.013793310150504112,-0.017435450106859207,0.002034921431913972
1772457353305415200,10.237415283203125,-0.0180495735257864,-0.0329694002866745,0.0013398362789303064
1772457353315484200,10.247484130859375,-0.014340323396027088,-0.025164742022752762,0.00310577847994864
1772457353325552000,10.25755224609375,-0.009465673007071018,-0.002011485630646348,0.0017180051654577255
1772457353335621000,10.26762109375,-0.008549279533326626,0.012718192301690578,0.011746138334274292
1772457353345690000,10.277690185546875,-0.011478756554424763,0.013116334564983845,0.016991499811410904
1772457353355758000,10.287758056640625,-0.010578874498605728,-0.0006056028068996966,0.016142217442393303
1772457353365827000,10.2978271484375,-0.015362444333732128,-0.006155364215373993,0.010374077595770359
1772457353375895000,10.30789501953125,-0.01575366221368313,-0.007465905509889126,0.0017265273490920663
1772457353385964000,10.317964111328125,-0.01512995082885027,-0.009313340298831463,-0.016169382259249687
1772457353396032000,10.328031982421875,-0.012168781831860542,-0.012925918214023113,-0.03147296980023384
1772457353406101200,10.338101318359374,-0.002639725338667631,-0.0008817726047709584,-0.03923342376947403
1772457353416169200,10.348169189453126,0.005233111325651407,-0.007354585453867912,-0.03959561139345169
1772457353426238000,10.358238037109375,0.010936536826193333,-0.015797872096300125,-0.028565332293510437
1772457353436307200,10.36830712890625,0.013517939485609531,-0.01170299481600523,-0.01188116054981947
1772457353446375200,10.378375244140624,0.013862285763025284,-0.014575480483472347,0.0054419031366705894
1772457353456444000,10.38844384765625,0.016227172687649727,-0.018694858998060226,0.0146489841863513
1772457353466512100,10.39851220703125,0.013688914477825165,-0.02599964290857315,0.017969146370887756
1772457353476581000,10.4085810546875,0.011814847588539124,-0.032889507710933685,0.012346681207418442
1772457353486649000,10.418649169921874,0.015214106999337673,-0.020072776824235916,0.004048537462949753
1772457353496718000,10.428718017578126,0.015990417450666428,0.0005669869715347886,0.0024682176299393177
1772457353506787000,10.438787109375,0.01612703874707222,0.015353656373918056,0.002357163932174444
1772457353516855000,10.44885498046875,0.016688166186213493,0.015564578585326672,0.0012743226252496243
1772457353526924000,10.458924072265624,0.011991681531071663,0.002231196267530322,0.005300223361700773
1772457353536992000,10.468991943359375,0.008642490021884441,-0.01679016463458538,0.0076059880666434765
1772457353547061200,10.479061279296875,0.0017608820926398039,-0.03964062035083771,0.0057249972596764565
1772457353557129200,10.489129150390625,0.0029976540245115757,-0.03633243963122368,0.002853044541552663
1772457353567198000,10.499197998046874,0.005591306835412979,-0.020425379276275635,-0.004229099955409765
1772457353577266200,10.50926611328125,0.007404386531561613,-0.0027750139124691486,-0.0014410364674404263
1772457353587335200,10.519335205078125,0.0046386937610805035,0.0057255299761891365,0.0036693033762276173
1772457353597404000,10.52940380859375,0.0029401297215372324,0.004781439434736967,0.009590575471520424
1772457353607472000,10.53947216796875,-0.005301021970808506,-0.0033955303952097893,0.01967969536781311
1772457353617541000,10.549541015625,-0.007958324626088142,-0.018315624445676804,0.01992230862379074
1772457353627609000,10.559609130859375,-0.009133310988545418,-0.02311117760837078,0.006993727292865515
1772457353637678000,10.569677978515625,-0.009600961580872536,-0.016982179135084152,0.0030360035598278046
1772457353647746000,10.57974609375,-0.0046783750876784325,0.0017800568602979183,-0.0062432484701275826
1772457353657815300,10.589815185546875,-0.007925567217171192,0.0043502734042704105,-0.009588977321982384
1772457353667883300,10.59988330078125,-0.009889115579426289,-0.001017327536828816,-0.0011169298086315393
1772457353677952000,10.609951904296874,-0.008242749609053135,-0.011871307156980038,0.0032112395856529474
1772457353688021200,10.620021240234376,-0.006703442893922329,-0.019306587055325508,0.007023554760962725
1772457353698089200,10.630089111328125,-0.005724464543163776,-0.0172631423920393,0.01501277182251215
1772457353708158000,10.640157958984375,-0.0030831415206193924,-0.0073418025858700275,0.013199158944189548
1772457353718226200,10.65022607421875,0.002837864449247718,0.0002205097407568246,0.009553291834890842
1772457353728295200,10.660295166015626,0.009177252650260925,0.004868258256465197,0.013095828704535961
1772457353738363100,10.670363037109375,0.009133843705058098,-0.000015180017726379447,0.013605823740363121
1772457353748432100,10.68043212890625,0.009124522097408772,-0.011772503145039082,0.016032762825489044
1772457353758501600,10.690501708984375,0.007997472770512104,-0.01218635868281126,0.017715347930788994
1772457353768569300,10.7005693359375,0.010032393969595432,-0.0019952403381466866,0.014327540062367916
1772457353778638600,10.710638671875,0.010520817711949348,0.0014197311829775572,0.012219647876918316
1772457353788706600,10.72070654296875,0.010540791787207127,0.0013824469642713666,0.011625763028860092
1772457353798775600,10.730775634765624,0.01019937451928854,-0.010615892708301544,0.011678493581712246
1772457353808843500,10.740843505859376,0.016461797058582306,-0.01848047412931919,0.008612662553787231
1772457353818912500,10.75091259765625,0.015722237527370453,-0.02123338356614113,0.006234460044652224
1772457353828980700,10.760980712890625,0.015395468100905418,-0.013310212641954422,0.009469402022659779
1772457353839049500,10.771049560546874,0.013686517253518105,-0.0038107172586023808,0.004609399009495974
1772457353849118500,10.781118408203126,0.0105929896235466,0.002514290390536189,0.00974743627011776
1772457353859186700,10.791186767578125,0.007123955991119146,-0.0038013961166143417,0.01128194946795702
1772457353869255400,10.80125537109375,0.0036690370179712772,-0.021387580782175064,0.013400494121015072
1772457353879323400,10.811323486328124,-0.0036195022985339165,-0.024583106860518456,0.015687882900238037
1772457353889392600,10.821392578125,-0.007670969236642122,-0.015155251137912273,0.01611771620810032
1772457353899460600,10.831460693359375,-0.006816360633820295,0.008318116888403893,0.012829245999455452
1772457353909529600,10.841529541015625,-0.01059245690703392,0.012348544783890247,0.012205000966787338
1772457353919597600,10.85159765625,-0.012323778122663498,0.0025414545089006424,0.009033176116645336
1772457353929666600,10.86166650390625,-0.014036190696060658,-0.0078073227778077126,0.006731139495968819
1772457353939735600,10.871735595703125,-0.009640643373131752,-0.015976835042238235,0.0022093583829700947
1772457353949803500,10.881803466796875,-0.00387303507886827,-0.018546519801020622,-0.004515922162681818
1772457353959872500,10.89187255859375,-0.0075849490240216255,-0.006505303550511599,-0.01133894082158804
1772457353969940700,10.901940673828125,-0.004775047767907381,0.0013968279818072915,-0.01347426325082779
1772457353980009500,10.912009521484375,-0.0030336068011820316,0.009472331032156944,-0.01212750282138586
1772457353990077400,10.922077392578124,-0.007199056912213564,-0.0043683829717338085,-0.014121677726507187
1772457354000146700,10.932146728515624,-0.009553291834890842,-0.010762632824480534,-0.01757473312318325
1772457354010214700,10.942214599609375,-0.007121026515960693,-0.027712320908904076,-0.02508750930428505
1772457354020283400,10.952283447265625,-0.006858172360807657,-0.023742614313960075,-0.01889832317829132
1772457354030352600,10.9623525390625,-0.0031792817171663046,-0.01636006496846676,-0.01726900227367878
1772457354040420600,10.972420654296876,-0.002767290687188506,-0.003870638320222497,-0.019529227167367935
1772457354050489600,10.982489501953125,0.0064951833337545395,-0.00890800729393959,-0.024153273552656174
1772457354060557600,10.9925576171875,0.01744263991713524,0.00008468852320220321,-0.014942730776965618
1772457354070626600,11.00262646484375,0.01197783276438713,0.015225558541715145,-0.00005725796290789731
1772457354080694800,11.01269482421875,-0.0027742148377001286,-0.007919974625110626,0.016284963116049767
1772457354090763500,11.022763427734375,-0.010964234359562397,-0.028193287551403046,0.024534104391932487
1772457354100831500,11.03283154296875,-0.006850715726613998,-0.01847701147198677,0.031559258699417114
1772457354110900700,11.042900634765624,-0.013681191019713879,-0.008779110386967659,0.0371985025703907
1772457354120969500,11.052969482421876,-0.019304456189274788,-0.0030365362763404846,0.03921531140804291
1772457354131037400,11.063037353515625,-0.017247164621949196,-0.0006167881074361503,0.04250005632638931
1772457354141106700,11.073106689453125,-0.007266434840857983,-0.009383114986121655,0.02629552036523819
1772457354151174700,11.083174560546874,0.00007909588020993397,-0.010294715873897076,0.013392504304647446
1772457354161243600,11.09324365234375,-0.004116980824619532,0.001547030289657414,0.0018106831703335047
1772457354171311600,11.1033115234375,-0.01197090931236744,0.005648298189043999,-0.013589845038950443
1772457354181380600,11.113380615234375,-0.008392419666051865,-0.00863530021160841,-0.028269721195101738
1772457354191449600,11.12344970703125,-0.002374740783125162,-0.023437416180968285,-0.03621312975883484
1772457354201517600,11.133517578125,0.006426474079489708,-0.035780634731054306,-0.05068102106451988
1772457354211586600,11.143586669921875,0.012381035834550858,-0.03730183094739914,-0.06167668104171753
1772457354221654500,11.153654541015625,0.019402991980314255,-0.01738698035478592,-0.05988970026373863
1772457354231723500,11.1637236328125,0.014817828312516212,0.0027238810434937477,-0.044492900371551514
1772457354241791500,11.17379150390625,0.006837133318185806,0.007424094248563051,-0.026799922809004784
1772457354251860700,11.18386083984375,-0.011947739869356155,-0.0021933794487267733,-0.007111705373972654
1772457354261928400,11.193928466796875,-0.029099028557538986,-0.012514193542301655,0.008442752994596958
1772457354271997700,11.203997802734374,-0.032399751245975494,-0.01083001121878624,0.01835557073354721
1772457354282066700,11.214066650390626,-0.03267858549952507,-0.005506617948412895,0.0236483383923769
