time,seconds_elapsed,z,y,x
1772457343131128300,0.06312841796875,0.006357698235660791,0.01286817342042923,-0.04566271975636482
1772457343141196300,0.0731962890625,0.00779234291985631,-0.0007837233133614063,-0.04119926318526268
1772457343151265000,0.08326513671875,0.012382300570607185,-0.014550136402249336,-0.042371053248643875
1772457343161334300,0.093334228515625,0.018398381769657135,-0.026710662990808487,-0.039789386093616486
1772457343171402200,0.10340234375,0.01936781220138073,-0.010278994217514992,-0.03627031669020653
1772457343181471200,0.11347119140625,0.015955504029989243,0.018287669867277145,-0.022668758407235146
1772457343191539200,0.123539306640625,0.011847440153360367,0.026797190308570862,-0.012276808731257915
1772457343201608200,0.133608154296875,0.007314207032322884,0.018075870350003242,0.0044936491176486015
1772457343211676200,0.14367626953125,0.008820906281471252,-0.006316178012639284,0.01553734578192234
1772457343221745200,0.1537451171875,0.009569787420332432,-0.03529376536607742,0.018380802124738693
1772457343231814100,0.163814208984375,0.01334131509065628,-0.03680974990129471,0.019786003977060318
1772457343241882400,0.17388232421875,0.011446209624409676,-0.013874869793653488,0.021312527358531952
1772457343251951000,0.183951171875,0.015261898748576641,0.01076248474419117,0.01997441239655018
1772457343262019000,0.19401904296875,0.012373434379696846,0.01672689989209175,0.017563452944159508
1772457343272088300,0.20408837890625,0.008926307782530785,0.0016142993699759245,0.012681865133345127
1772457343282157000,0.214156982421875,0.009654948487877846,-0.01897566393017769,-0.004288863390684128
1772457343292225000,0.22422509765625,0.005284474231302738,-0.03961014002561569,-0.02579498663544655
1772457343302294300,0.234294189453125,-0.0032727953512221575,-0.02081461250782013,-0.041477277874946594
1772457343312362200,0.2443623046875,-0.009905664250254631,0.017959414049983025,-0.04989659786224365
1772457343322431200,0.25443115234375,-0.016562234610319138,0.03990785777568817,-0.04969526082277298
1772457343332499200,0.264499267578125,-0.018700120970606804,0.023657893761992455,-0.0430661141872406
1772457343342568200,0.274568115234375,-0.018933946266770363,-0.011604223400354385,-0.03907722979784012
1772457343352637200,0.28463720703125,-0.017902761697769165,-0.03958723321557045,-0.0400589257478714
1772457343362705200,0.294705078125,-0.020837299525737762,-0.03675203397870064,-0.047001518309116364
1772457343372774100,0.304774169921875,-0.023099882528185844,-0.017992230132222176,-0.05981828644871712
1772457343382842400,0.31484228515625,-0.023392563685774803,-0.0038223499432206154,-0.07352983951568604
1772457343392911000,0.3249111328125,-0.018497396260499954,-0.018224839121103287,-0.08796822279691696
1772457343402980400,0.33498046875,-0.0048942347057163715,-0.04267585277557373,-0.09720619767904282
1772457343413048300,0.34504833984375,0.0004201219417154789,-0.05719947814941406,-0.09465693682432175
1772457343423117000,0.355116943359375,0.006409305147826672,-0.06681961566209793,-0.08598195761442184
1772457343433185300,0.365185302734375,0.008655188605189323,-0.05909035727381706,-0.07028958201408386
1772457343443254300,0.375254150390625,0.01067999005317688,-0.039617858827114105,-0.05620891600847244
1772457343453322200,0.385322265625,0.005302111618220806,-0.01653650775551796,-0.04065530747175217
1772457343463391200,0.39539111328125,0.0003142773639410734,0.004147730767726898,-0.031972069293260574
1772457343473460200,0.405460205078125,-0.010352266021072865,0.012497957795858383,-0.014786332845687866
1772457343483528200,0.415528076171875,-0.01919795572757721,0.007523172535002232,-0.007810449227690697
1772457343493597200,0.42559716796875,-0.022344717755913734,0.0033564656041562557,0.002682426245883107
1772457343503665200,0.4356650390625,-0.02106320485472679,0.007668123580515385,0.007012993097305298
1772457343513734400,0.445734375,-0.017037253826856613,0.010759370401501656,0.010364223271608353
1772457343523802400,0.45580224609375,-0.00783896166831255,0.0015938349533826113,0.006706904619932175
1772457343533871000,0.46587109375,-0.0017079808749258518,-0.011463074013590813,0.003943426068872213
1772457343543940400,0.4759404296875,0.0028151320293545723,-0.01012137345969677,0.002497596200555563
1772457343554008300,0.48600830078125,0.010028274729847908,-0.0013207667507231236,0.006310422904789448
1772457343564077000,0.4960771484375,0.008751820772886276,-0.0006110346876084805,0.015635749325156212
1772457343574145300,0.506145263671875,0.008858416229486465,-0.008399411104619503,0.0301414392888546
1772457343584214300,0.51621435546875,0.007841887883841991,-0.009978133253753185,0.03104212135076523
1772457343594283300,0.526283203125,0.00811685435473919,0.0038393354043364525,0.03137823939323425
1772457343604351200,0.536351318359375,0.004974856972694397,0.014816353097558022,0.03173963353037834
1772457343614420200,0.546420166015625,0.003910016734153032,0.012731362134218216,0.031866177916526794
1772457343624488400,0.556488525390625,-0.003627794561907649,0.01619560271501541,0.03106350265443325
1772457343634557200,0.56655712890625,-0.007028009742498398,0.012850673869252205,0.03191007301211357
1772457343644625200,0.576625244140625,-0.008324703201651573,0.004156784154474735,0.02980777435004711
1772457343654694400,0.5866943359375,0.0024088826030492783,-0.013205351307988167,0.028987977653741837
1772457343664763100,0.59676318359375,0.006073658354580402,-0.016976121813058853,0.02328374981880188
1772457343674831000,0.6068310546875,0.011326003819704056,-0.002837512642145157,0.019935932010412216
1772457343684900400,0.616900390625,0.011700177565217018,0.012153420597314835,0.015592316165566444
1772457343694968300,0.62696826171875,0.009143739938735962,0.02857949398458004,0.016783563420176506
1772457343705037300,0.637037353515625,0.0038770725950598717,0.034453894942998886,0.015695663169026375
1772457343715105300,0.647105224609375,0.006520004477351904,0.023146264255046844,0.015033810399472713
1772457343725174300,0.65717431640625,0.0058315773494541645,0.01817840337753296,0.004669319838285446
1772457343735243300,0.6672431640625,0.010542422533035278,0.023303616791963577,0.0022811084054410458
1772457343745311200,0.677311279296875,0.017638947814702988,0.025598198175430298,0.0011055893264710903
1772457343755380200,0.687380126953125,0.024400368332862854,0.025556044653058052,-0.0002335666213184595
1772457343765448400,0.697448486328125,0.021339064463973045,0.01231134682893753,0.005164395086467266
1772457343775517200,0.70751708984375,0.022945217788219452,-0.004300652537494898,-0.0019363918108865619
1772457343785586400,0.71758642578125,0.023026710376143456,-0.00851244293153286,-0.009822011925280094
1772457343795654400,0.727654296875,0.024920020252466202,-0.0003295755013823509,-0.018855467438697815
1772457343805723100,0.73772314453125,0.024387121200561523,0.015300251543521881,-0.02328989841043949
1772457343815791000,0.747791015625,0.027349434792995453,0.02546853944659233,-0.030606547370553017
1772457343825860400,0.7578603515625,0.024461502209305763,0.02883717231452465,-0.019228192046284676
1772457343835928300,0.76792822265625,0.019375013187527657,0.026679975911974907,-0.009219850413501263
1772457343845997300,0.777997314453125,0.012635352090001106,0.02375342883169651,0.010694469325244427
1772457343856066300,0.78806640625,0.013145366683602333,0.02506202645599842,0.031911417841911316
1772457343866134300,0.79813427734375,0.012300345115363598,0.0179564468562603,0.04560805484652519
1772457343876203300,0.808203369140625,0.011232821270823479,0.006109452340751886,0.04379627853631973
1772457343886271200,0.818271240234375,0.008936910890042782,0.010796083137392998,0.03728325292468071
1772457343896340200,0.82834033203125,0.00919327512383461,0.030962489545345306,0.029342230409383774
1772457343906408200,0.838408203125,0.009236417710781097,0.033480241894721985,0.03027939796447754
1772457343916477200,0.848477294921875,0.003137789899483323,0.02973039820790291,0.03707466274499893
1772457343926546400,0.85854638671875,0.0023007583804428577,0.019116103649139404,0.04908125847578049
1772457343936614400,0.868614501953125,-0.00234020478092134,0.004898741841316223,0.05218946188688278
1772457343946683100,0.87868310546875,0.00010803923942148685,-0.00044302642345428467,0.039203088730573654
1772457343956751400,0.88875146484375,-0.0010206378065049648,0.00718791875988245,0.020758280530571938
1772457343966820400,0.8988203125,0.005258563440293074,0.016158509999513626,0.00441126711666584
1772457343976888000,0.90888818359375,0.010268826968967915,0.024974524974822998,-0.010264306329190731
1772457343986957300,0.918957275390625,0.012881387025117874,0.014565826393663883,-0.013395384885370731
1772457343997026300,0.9290263671875,0.020419001579284668,0.008139124140143394,-0.009487209841609001
1772457344007094300,0.93909423828125,0.021551109850406647,0.0058938125148415565,0.004140451084822416
1772457344017163300,0.949163330078125,0.0238147284835577,0.0004787691868841648,0.015107894316315651
1772457344027231200,0.959231201171875,0.022583017125725746,0.005785916466265917,0.021802283823490143
1772457344037300200,0.96930029296875,0.021027840673923492,0.027073893696069717,0.027044132351875305
1772457344047369200,0.979369140625,0.01309934351593256,0.04522467032074928,0.03256300464272499
1772457344057437200,0.989437255859375,0.010131092742085457,0.04250333458185196,0.03357913717627525
1772457344067506400,0.99950634765625,0.005388268269598484,0.027728382498025894,0.0329759307205677
1772457344077574100,1.00957421875,0.004433446563780308,0.007146868854761124,0.026736026629805565
1772457344087643100,1.01964306640625,0.005233726464211941,-0.004065571818500757,0.008773271925747395
1772457344097711400,1.02971142578125,0.008412327617406845,0.0027092788368463516,-0.0007426515221595764
1772457344107780000,1.039780029296875,0.011011306196451187,0.019078131765127182,-0.01024560909718275
1772457344117849300,1.049849365234375,0.003911565989255905,0.026036784052848816,-0.00853114202618599
1772457344127917300,1.059917236328125,0.0030281953513622284,0.02166653797030449,-0.0074858516454696655
1772457344137986300,1.069986328125,0.0026465351693332195,0.00530825974419713,0.0019419838208705187
1772457344148054000,1.080053955078125,0.004186108708381653,-0.0024356800131499767,0.0077703120186924934
1772457344158123300,1.090123291015625,0.004709339700639248,-0.0019996454939246178,0.012030640617012978
1772457344168191200,1.100191162109375,0.006543192081153393,-0.0021136286668479443,0.01107909344136715
1772457344178260200,1.11026025390625,0.007407369092106819,0.012417334131896496,0.009297812357544899
1772457344188329200,1.1203291015625,0.006094164215028286,0.009867623448371887,-0.007576508913189173
1772457344198397200,1.130397216796875,0.007120379246771336,0.004101315513253212,-0.015029809437692165
1772457344208466200,1.140466064453125,0.00699787400662899,0.00944601371884346,-0.011561041697859764
1772457344218534100,1.1505341796875,0.008998469449579716,0.018194574862718582,-0.013187679462134838
1772457344228603100,1.16060302734375,0.006560079753398895,0.022786129266023636,0.0009353302884846926
1772457344238671400,1.17067138671875,0.006897067651152611,0.0176713764667511,0.012719823978841305
1772457344248740000,1.180739990234375,0.0035172500647604465,0.010119982995092869,0.019118335098028183
1772457344258809300,1.190809326171875,0.003574103582650423,-0.00261000357568264,0.022634269669651985
1772457344268877300,1.200877197265625,0.007789354771375656,-0.0071962326765060425,0.023120030760765076
1772457344278946000,1.210946044921875,0.013972247950732708,-0.0034911292605102062,0.02009734883904457
1772457344289014300,1.22101416015625,0.023055225610733032,0.008088028989732265,0.01744377426803112
1772457344299083300,1.231083251953125,0.023606400936841965,0.015275520272552967,0.025234580039978027
1772457344309151200,1.241151123046875,0.019383959472179413,0.016063015908002853,0.03078886866569519
1772457344319220200,1.25122021484375,0.018751904368400574,0.010010489262640476,0.03628317266702652
1772457344329289200,1.261289306640625,0.01800781674683094,0.006335593294352293,0.03647571802139282
1772457344339357200,1.271357177734375,0.016181280836462975,0.011124147102236748,0.03550582379102707
1772457344349426200,1.28142626953125,0.02259949967265129,0.010013076476752758,0.028919825330376625
1772457344359494100,1.291494140625,0.024631857872009277,-0.0028770416975021362,0.024056900292634964
1772457344369563400,1.3015634765625,0.027552545070648193,-0.014221842400729656,0.01860993728041649
1772457344379632000,1.311632080078125,0.030516140162944794,-0.007860805839300156,0.011262830346822739
1772457344389700000,1.3217001953125,0.024161837995052338,0.0070845880545675755,0.0133744515478611
1772457344399769300,1.331769287109375,0.02394004538655281,0.014468997716903687,0.008209344930946827
1772457344409837300,1.34183740234375,0.014542815275490284,0.014905223622918129,0.0038225860334932804
1772457344419906000,1.351906005859375,0.0071526519022881985,0.015067411586642265,0.0056862193159759045
1772457344429974300,1.361974365234375,0.005136905238032341,0.006276849657297134,0.01421339437365532
1772457344440043300,1.372043212890625,0.0030265774112194777,-0.0030060941353440285,0.015331955626606941
1772457344450112300,1.3821123046875,0.002614053664728999,-0.011623017489910126,0.009953702799975872
1772457344460180200,1.39218017578125,0.0022757037077099085,-0.0035045603290200233,0.00731821171939373
1772457344470249200,1.402249267578125,-0.003511877730488777,-0.0016347551718354225,-0.0024420074187219143
1772457344480317400,1.4123173828125,-0.0059743644669651985,0.003410946810618043,-0.008847735822200775
1772457344490386200,1.42238623046875,-0.0070577384904026985,0.00841502659022808,-0.011046708561480045
1772457344500454100,1.4324541015625,-0.011258194223046303,0.022127605974674225,-0.0020335903391242027
1772457344510523400,1.4425234375,-0.015437759459018707,0.024609938263893127,0.006558033637702465
1772457344520592100,1.452592041015625,-0.01856388710439205,0.010359363630414009,0.006868074648082256
1772457344530660000,1.46266015625,-0.020946882665157318,-0.01135924831032753,0.0033926500473171473
1772457344540729300,1.472729248046875,-0.02320866473019123,-0.025322770699858665,-0.017208533361554146
1772457344550797300,1.48279736328125,-0.022676566615700722,-0.0215621218085289,-0.042773280292749405
1772457344560866300,1.4928662109375,-0.02018788270652294,-0.0023745414800941944,-0.05424002185463905
1772457344570934300,1.502934326171875,-0.013961412012577057,0.010096775367856026,-0.06106783077120781
1772457344581003300,1.513003173828125,-0.009335963986814022,0.0026516804937273264,-0.06251899898052216
1772457344591072300,1.523072265625,-0.0009771003387868404,-0.01727249100804329,-0.05742757394909859
1772457344601140200,1.53314013671875,-0.0018540793098509312,-0.03425254300236702,-0.05082905665040016
1772457344611209200,1.543209228515625,-0.002420001197606325,-0.012303301133215427,-0.03981848433613777
1772457344621277400,1.55327734375,-0.0014075657818466425,0.031805455684661865,-0.019511355087161064
1772457344631346200,1.56334619140625,-0.0030978743452578783,0.04578785225749016,-0.0031467631924897432
1772457344641414100,1.5734140625,-0.010746551677584648,0.022321481257677078,0.008930209092795849
1772457344651483400,1.5834833984375,-0.012235525995492935,-0.010498782619833946,0.007897434756159782
1772457344661552000,1.59355224609375,-0.007809252943843603,-0.03652041405439377,-0.0004299962893128395
1772457344671620000,1.6036201171875,-0.003664309624582529,-0.022287417203187943,-0.008307626470923424
1772457344681689300,1.613689453125,-0.00022133532911539078,0.013655899092555046,-0.015979163348674774
1772457344691757300,1.62375732421875,-0.0015808790922164917,0.038200389593839645,-0.011519167572259903
1772457344701826300,1.633826416015625,0.0009853534866124392,0.026800883933901787,-0.010182582773268223
1772457344711894300,1.643894287109375,0.004179016221314669,-0.00823220144957304,-0.007458968088030815
1772457344721963300,1.65396337890625,0.009589681401848793,-0.03536068648099899,-0.007194445934146643
1772457344732032300,1.6640322265625,0.007246099412441254,-0.029105449095368385,-0.005335026886314154
1772457344742101000,1.67410107421875,0.005324569530785084,-0.01092020608484745,-0.010493345558643341
1772457344752170000,1.684169921875,0.0010400761384516954,0.01188231073319912,-0.01133250817656517
1772457344762238000,1.694238037109375,-0.004922544118016958,0.025599949061870575,-0.004432243295013905
1772457344772307200,1.70430712890625,-0.011404145509004593,0.009430833160877228,0.002556690713390708
1772457344782375200,1.714375244140625,-0.00748403137549758,-0.006978651508688927,0.0067101139575243
1772457344792444000,1.72444384765625,-0.007702144328504801,-0.008277742192149162,0.011723514646291733
1772457344802513200,1.73451318359375,-0.010938793420791626,-0.006564531475305557,0.011393864639103413
1772457344812581000,1.7445810546875,-0.011170221492648125,0.002815388608723879,0.01269668247550726
1772457344822649900,1.75464990234375,-0.00880180299282074,0.012018512934446335,0.0055580660700798035
1772457344832718000,1.764718017578125,-0.004142336547374725,0.008006193675100803,0.0016197834629565477
1772457344842787000,1.774787109375,-0.00013617263175547123,0.0018374384380877018,-0.005389943718910217
1772457344852856000,1.78485595703125,0.0006537209264934063,0.007505443878471851,-0.011725337244570255
1772457344862924000,1.794924072265625,0.0010211574845016003,0.007105777505785227,-0.018272649496793747
1772457344872993000,1.804992919921875,-0.004568817559629679,0.009263737127184868,-0.015367940068244934
1772457344883061200,1.815061279296875,-0.003984125331044197,0.012919114902615547,-0.012153211049735546
1772457344893130000,1.8251298828125,-0.011011941358447075,0.0077794804237782955,-0.011078359559178352
1772457344903198000,1.835197998046875,-0.007095526438206434,0.005015309900045395,-0.014857672154903412
1772457344913267200,1.84526708984375,-0.0024736099876463413,0.00414472259581089,-0.016178598627448082
1772457344923336000,1.8553359375,0.0006572813726961613,0.012144784443080425,-0.022085025906562805
1772457344933404000,1.86540380859375,0.004794768523424864,0.01917899213731289,-0.022102605551481247
1772457344943473200,1.87547314453125,0.0057141720317304134,0.019326988607645035,-0.021368442103266716
1772457344953541000,1.885541015625,0.004317610524594784,0.016185257583856583,-0.01741418056190014
1772457344963610000,1.895610107421875,-0.0013280757702887058,0.0057399580255150795,-0.01653524488210678
1772457344973678000,1.905677978515625,-0.006503928918391466,-0.0012204800732433796,-0.012753289192914963
1772457344983747000,1.9157470703125,-0.005033035762608051,0.0005476684309542179,-0.013910412788391113
1772457344993816000,1.925816162109375,-0.009246156550943851,0.0008765687234699726,-0.02395053021609783
1772457345003884000,1.935884033203125,-0.007105566561222076,0.009070963598787785,-0.02464885264635086
1772457345013953000,1.945953125,-0.006070395931601524,0.029737893491983414,-0.02945372834801674
1772457345024021200,1.956021240234375,-0.0041182991117239,0.042252086102962494,-0.027400963008403778
1772457345034090000,1.966090087890625,-0.00459793396294117,0.03988906368613243,-0.013952799141407013
1772457345044158000,1.976157958984375,-0.007618955336511135,0.03292626887559891,-0.00030198157764971256
1772457345054227200,1.986227294921875,-0.012138872407376766,0.01554248295724392,0.010003652423620224
1772457345064296000,1.9962958984375,-0.01455225795507431,0.0005770400166511536,0.006935403682291508
1772457345074364200,2.0063642578125,-0.011706403456628323,-0.005880326498299837,0.005091430619359016
1772457345084433200,2.01643310546875,-0.008186857216060162,0.001765914261341095,-0.0047570038586854935
1772457345094501000,2.026501220703125,-0.0006684870459139347,0.023120470345020294,-0.008125903084874153
1772457345104570000,2.036570068359375,0.0047803581692278385,0.0369347408413887,-0.004316704347729683
1772457345114638000,2.04663818359375,0.00670182891190052,0.034610338509082794,0.009866759181022644
1772457345124707000,2.05670703125,0.0018830359913408756,0.022008754312992096,0.028037255629897118
1772457345134776000,2.066776123046875,-0.0029870865400880575,0.0021580830216407776,0.03682275488972664
1772457345144844000,2.076843994140625,-0.002884890651330352,-0.012815311551094055,0.0381450280547142
1772457345154913300,2.086913330078125,-0.00585617870092392,-0.015929080545902252,0.018120720982551575
1772457345164981200,2.096981201171875,-0.005076504312455654,-0.0065737757831811905,-0.010547680780291557
1772457345175050000,2.107050048828125,0.00011266511864960194,0.003024256555363536,-0.0317259356379509
1772457345185118000,2.117117919921875,0.005501119419932365,0.0038407063111662865,-0.049286358058452606
1772457345195187200,2.127187255859375,0.004606297239661217,0.0010382616892457008,-0.047952115535736084
1772457345205256000,2.137255859375,0.003541328012943268,0.00487968185916543,-0.03619663417339325
1772457345215324200,2.14732421875,0.00556905847042799,-0.0011510467156767845,-0.026015102863311768
1772457345225393200,2.15739306640625,0.008528155274689198,-0.010757981799542904,-0.01761971227824688
1772457345235461000,2.167461181640625,0.010367601178586483,-0.009467680007219315,-0.009739418514072895
1772457345245530000,2.177530029296875,0.015020351856946945,-0.002281025517731905,-0.01125506591051817
1772457345255598000,2.18759814453125,0.013275714591145515,0.0005118311382830143,-0.014727828092873096
1772457345265667000,2.1976669921875,0.01602010242640972,0.006035493686795235,-0.015907607972621918
1772457345275736000,2.207736083984375,0.01842227391898632,0.010938373394310474,-0.015181364491581917
1772457345285804000,2.217803955078125,0.02058825083076954,0.012670302763581276,-0.01671026460826397
1772457345295873300,2.227873291015625,0.023572590202093124,0.011561628431081772,-0.01640639826655388
1772457345305941000,2.23794091796875,0.020630180835723877,0.0006379107944667339,-0.020758718252182007
1772457345316010000,2.248010009765625,0.021355891600251198,-0.002334976103156805,-0.016193794086575508
1772457345326079200,2.258079345703125,0.011327328160405159,0.0014906185679137707,-0.012110820040106773
1772457345336147000,2.26814697265625,0.003347432939335704,0.003995588049292564,-0.004027592949569225
1772457345346216000,2.2782158203125,-0.003408555407077074,0.01944412849843502,0.003292444394901395
1772457345356284200,2.2882841796875,-0.008100246079266071,0.025479918345808983,0.009110918268561363
1772457345366353200,2.298353271484375,-0.007056199945509434,0.019366860389709473,0.011526469141244888
1772457345376420900,2.3084208984375,-0.0068255700170993805,0.006523231975734234,0.009034017100930214
1772457345386490000,2.318489990234375,-0.0077819800935685635,-0.008136177435517311,0.004195599816739559
1772457345396559000,2.32855908203125,-0.0022548558190464973,-0.0009198090992867947,-0.0008156702388077974
1772457345406627000,2.338626953125,0.007764656562358141,0.013992980122566223,0.007178599014878273
1772457345416696000,2.348696044921875,0.008670929819345474,0.020131565630435944,0.02269604057073593
1772457345426764000,2.358763916015625,0.017171710729599,0.0050971475429832935,0.029650596901774406
1772457345436833000,2.3688330078125,0.0183794554322958,-0.0236375629901886,0.03501979634165764
1772457345446901000,2.37890087890625,0.014671871438622475,-0.04451005160808563,0.03866139054298401
1772457345456970000,2.388969970703125,0.007656571920961142,-0.041928909718990326,0.028813285753130913
1772457345467039200,2.399039306640625,-0.001312323147431016,-0.009402014315128326,0.027468396350741386
1772457345477107000,2.40910693359375,-0.009912203066051006,0.02378310263156891,0.01966346986591816
1772457345487176200,2.41917626953125,-0.0169481560587883,0.03218940645456314,0.017695212736725807
1772457345497244200,2.429244140625,-0.019514910876750946,0.011060685850679874,0.01975330337882042
1772457345507313000,2.43931298828125,-0.0215397197753191,-0.018708165735006332,0.017360318452119827
1772457345517380900,2.449380859375,-0.0192030631005764,-0.023721832782030106,0.010990303941071033
1772457345527450000,2.4594501953125,-0.013666362501680851,-0.009027992375195026,0.007379913702607155
1772457345537519000,2.46951904296875,-0.010847406461834908,0.007052173838019371,0.0014834085013717413
1772457345547587000,2.479587158203125,-0.004555815830826759,0.01072315126657486,0.000997353345155716
1772457345557656000,2.489656005859375,-0.0012742688413709402,0.011035806499421597,-0.0018426417373120785
1772457345567724000,2.49972412109375,0.0036057361867278814,0.0003946898505091667,0.0016945903189480305
1772457345577793000,2.50979296875,0.011469517834484577,-0.010883264243602753,-0.0027992278337478638
1772457345587861000,2.519861083984375,0.016370585188269615,-0.015589222311973572,-0.0032454009633511305
1772457345597930000,2.529929931640625,0.020535770803689957,-0.009115342982113361,-0.010816235095262527
1772457345607999000,2.5399990234375,0.022225070744752884,-0.0008367556147277355,-0.006759931333363056
1772457345618067000,2.55006689453125,0.022693786770105362,0.01693291962146759,-0.0010682232677936554
1772457345628136200,2.56013623046875,0.02468857169151306,0.014953467063605785,0.007519525475800037
1772457345638204200,2.5702041015625,0.018865836784243584,-0.002872668206691742,0.013943335972726345
1772457345648273000,2.58027294921875,0.019177574664354324,-0.016635920852422714,0.016671394929289818
1772457345658341000,2.590341064453125,0.01377162430435419,-0.007258398458361626,0.016767533496022224
1772457345668410000,2.60041015625,0.008747698739171028,0.00737479655072093,0.021248597651720047
1772457345678478800,2.610478759765625,0.005721814930438995,0.018139293417334557,0.02271733060479164
1772457345688547000,2.620547119140625,0.0009238345082849264,0.007525722496211529,0.023307999595999718
1772457345698616000,2.630615966796875,-0.00022105849348008633,0.0027911546640098095,0.03012063167989254
1772457345708684000,2.64068408203125,-0.000726733822375536,0.009415652602910995,0.04136400669813156
1772457345718753000,2.6507529296875,-0.00559472618624568,0.004908252507448196,0.04599977284669876
1772457345728821000,2.660821044921875,-0.013642886653542519,0.0016512456350028515,0.05586858466267586
1772457345738890200,2.67089013671875,-0.012964846566319466,-0.0011986028403043747,0.05836423113942146
1772457345748958500,2.68095849609375,-0.009337018243968487,-0.008411204442381859,0.06409800797700882
1772457345759026400,2.6910263671875,-0.00896577350795269,-0.007554997224360704,0.054784130305051804
1772457345769095400,2.701095458984375,-0.008318311534821987,-0.00781598873436451,0.04278375953435898
1772457345779163400,2.711163330078125,-0.01148907095193863,0.0036374677438288927,0.030230684205889702
1772457345789232400,2.721232421875,-0.0169961117208004,0.020503534004092216,0.014360858127474785
1772457345799300400,2.73130029296875,-0.023635638877749443,0.01812346652150154,0.0013305430766195059
1772457345809369600,2.74136962890625,-0.02358631230890751,0.007101061288267374,-0.007201117929071188
1772457345819438300,2.751438232421875,-0.01853056810796261,-0.007470158394426107,-0.019008507952094078
1772457345829506300,2.76150634765625,-0.006982025224715471,-0.015737788751721382,-0.023601185530424118
1772457345839575600,2.771575439453125,-0.0006378430407494307,-0.013035213574767113,-0.035021353513002396
1772457345849643500,2.7816435546875,-0.00004648277536034584,-0.0015252204611897469,-0.030448734760284424
1772457345859712300,2.791712158203125,-0.0019074995070695877,0.009444072842597961,-0.013315820135176182
1772457345869781500,2.801781494140625,-0.008985857479274273,0.010759826749563217,0.003211267525330186
1772457345879849500,2.811849365234375,-0.013762236572802067,-0.0005780486389994621,0.015483114868402481
1772457345889918200,2.821918212890625,-0.010611312463879585,-0.005749032367020845,0.018442124128341675
1772457345899986400,2.831986328125,-0.0056106941774487495,-0.005270462948828936,0.010702445171773434
1772457345910055400,2.842055419921875,-0.004708534572273493,0.005214514676481485,-0.0039323195815086365
1772457345920123400,2.852123291015625,-0.00030393293127417564,0.017604870721697807,-0.011856023222208023
1772457345930192400,2.8621923828125,-0.001218787394464016,0.023292966187000275,-0.00791032426059246
1772457345940261400,2.872261474609375,-0.004317641723901033,0.02494199573993683,-0.0012494921684265137
1772457345950329600,2.88232958984375,-0.0049860551953315735,0.006572006270289421,0.007664605975151062
1772457345960398300,2.8923984375,-0.0037817738484591246,-0.00799921341240406,0.01414487510919571
1772457345970466300,2.90246630859375,0.0008133326191455126,0.003253134898841381,0.013002973981201649
1772457345980535600,2.91253564453125,0.0068222228437662125,0.027869798243045807,0.014168639667332172
1772457345990603500,2.922603515625,0.007846405729651451,0.03898126631975174,0.013486884534358978
1772457346000672300,2.93267236328125,0.004598414059728384,0.03839670121669769,0.015636855736374855
1772457346010741500,2.942741455078125,0.002752518281340599,0.01569017395377159,0.023714181035757065
1772457346020809500,2.9528095703125,0.0003471511881798506,-0.007675335742533207,0.02585216797888279
1772457346030878500,2.96287841796875,0.005227671004831791,-0.015611137263476849,0.019172901287674904
1772457346040946400,2.972946533203125,0.004977067466825247,-0.010348198004066944,0.010357839055359364
1772457346051015400,2.983015380859375,0.006831240840256214,0.009648870676755905,0.009219799190759659
1772457346061083600,2.993083740234375,0.00467301532626152,0.024800125509500504,0.0018881158903241158
1772457346071152400,3.00315234375,-0.002354644238948822,0.020295921713113785,-0.0006437008269131184
1772457346081221400,3.013221435546875,-0.00836113840341568,0.009877902455627918,-0.006884552538394928
1772457346091289600,3.02328955078125,-0.011144359596073627,-0.0059628477320075035,-0.008652793243527412
1772457346101358300,3.0333583984375,-0.007333375513553619,-0.009227883070707321,-0.016924571245908737
1772457346111426300,3.04342626953125,-0.011361060664057732,-0.0003713490441441536,-0.018368873745203018
1772457346121495600,3.05349560546875,-0.013632470741868019,0.0234381090849638,-0.014164541848003864
1772457346131563500,3.0635634765625,-0.01889689825475216,0.027336178347468376,-0.005426759831607342
1772457346141632500,3.073632568359375,-0.022258872166275978,0.01475087832659483,0.0037174702156335115
1772457346151701500,3.083701416015625,-0.021115843206644058,-0.003780728206038475,0.0024703119415789843
1772457346161769500,3.09376953125,-0.016586605459451675,-0.016186265274882317,0.002205061027780175
1772457346171838500,3.10383837890625,-0.013673562556505203,-0.012781871482729912,-0.009805409237742424
1772457346181906400,3.113906494140625,-0.006316847167909145,-0.0021875505335628986,-0.018123526126146317
1772457346191975400,3.123975341796875,0.0006257179193198681,0.002957867691293359,-0.025098364800214767
1772457346202043600,3.134043701171875,0.004614866804331541,-0.0001665530726313591,-0.023095933720469475
1772457346212112400,3.1441123046875,0.009539861232042313,-0.007029899396002293,-0.021090632304549217
1772457346222181600,3.154181640625,0.01181207038462162,-0.008539112284779549,-0.014881471171975136
1772457346232249600,3.16424951171875,0.0117001011967659,-0.007581743877381086,-0.010452454909682274
1772457346242318300,3.174318359375,0.012753915041685104,-0.010542379692196846,-0.010166164487600327
1772457346252386300,3.18438623046875,0.013285430148243904,-0.012817632406949997,-0.006840315647423267
1772457346262455600,3.19445556640625,0.01410301961004734,-0.0019191782921552658,-0.002971008885651827
1772457346272523500,3.2045234375,0.014835458248853683,0.01644788309931755,0.002335325349122286
1772457346282592500,3.214592529296875,0.017386768013238907,0.030854517593979836,0.018568355590105057
1772457346292661500,3.22466162109375,0.015230445191264153,0.028043780475854874,0.02884439378976822
1772457346302729500,3.2347294921875,0.015407012775540352,0.006636492908000946,0.0402645617723465
1772457346312798500,3.244798583984375,0.010768052190542221,-0.018994035199284554,0.04220813512802124
1772457346322866400,3.254866455078125,0.01401125080883503,-0.03322570398449898,0.032549649477005005
1772457346332935400,3.264935302734375,0.012463675811886787,-0.021359341219067574,0.019208336248993874
1772457346343003400,3.27500341796875,0.017281334847211838,0.006587072275578976,0.004620338790118694
1772457346353072400,3.285072265625,0.01829417422413826,0.016563236713409424,-0.008123188279569149
1772457346363141600,3.2951416015625,0.02172565832734108,0.009682692587375641,-0.01249609887599945
1772457346373209600,3.305209716796875,0.019613396376371384,0.005953201092779636,-0.019861288368701935
1772457346383278300,3.3152783203125,0.01971379667520523,-0.004843253642320633,-0.02573089301586151
1772457346393346600,3.3253466796875,0.02070985920727253,-0.006979945581406355,-0.04146861284971237
1772457346403415600,3.33541552734375,0.015133199281990528,-0.004289620090276003,-0.05234682559967041
1772457346413483300,3.345483154296875,0.009365887381136417,0.0020096309017390013,-0.062138184905052185
1772457346423552500,3.355552490234375,0.0008538919501006603,0.02168160304427147,-0.057198554277420044
1772457346433621500,3.36562158203125,-0.007735236547887325,0.02871672436594963,-0.0461360439658165
1772457346443689500,3.375689453125,-0.009298778139054775,0.026707902550697327,-0.03782937675714493
1772457346453758500,3.385758544921875,-0.011346078477799892,0.028158865869045258,-0.027011912316083908
1772457346463826400,3.395826416015625,-0.011442750692367554,0.015314973890781403,-0.022464830428361893
1772457346473895400,3.4058955078125,-0.011419286020100117,0.0027649032417684793,-0.03245086222887039
1772457346483963400,3.41596337890625,-0.0102006234228611,-0.002699104603379965,-0.03383916988968849
1772457346494032400,3.426032470703125,-0.0063392953015863895,-0.00005896063521504402,-0.03596256673336029
1772457346504101600,3.4361015625,-0.007586187217384577,0.00344016682356596,-0.030563006177544594
1772457346514169300,3.44616943359375,-0.006379242520779371,0.006775243207812309,-0.02187843807041645
1772457346524238300,3.45623828125,-0.0008555799722671509,0.014139682985842228,-0.00839938037097454
1772457346534306600,3.466306640625,0.00668017752468586,0.01778775453567505,0.006693672854453325
1772457346544375300,3.476375244140625,0.006420785561203957,0.012354640290141106,0.017763901501893997
1772457346554443300,3.486443359375,0.00440715067088604,0.0004439959302544594,0.025266213342547417
1772457346564512500,3.496512451171875,0.005322746001183987,0.0044310144148766994,0.026512572541832924
1772457346574581500,3.50658154296875,0.004020321182906628,0.014317657798528671,0.024358637630939484
1772457346584649500,3.5166494140625,0.0010181397665292025,0.017336085438728333,0.022629447281360626
1772457346594718500,3.526718505859375,0.008754367008805275,0.011347586289048195,0.022251753136515617
1772457346604786400,3.536786376953125,0.01733720302581787,0.0059791868552565575,0.01762823946774006
1772457346614855400,3.54685546875,0.025061897933483124,0.0037905629724264145,0.010587123222649097
1772457346624923400,3.55692333984375,0.02359236590564251,0.004894176963716745,0.0039569176733493805
1772457346634992400,3.566992431640625,0.01797403395175934,0.00637390511110425,0.00048279506154358387
1772457346645061400,3.577061279296875,0.011871667578816414,0.002827639691531658,0.003817072371020913
1772457346655129300,3.58712939453125,0.009999713860452175,-0.006016909144818783,0.008769406005740166
1772457346665198600,3.597198486328125,0.012518798932433128,-0.013578156940639019,0.013714896515011787
1772457346675266600,3.6072666015625,0.014413041062653065,-0.017902597784996033,0.020227808505296707
1772457346685335300,3.617335205078125,0.016270063817501068,-0.015355016104876995,0.014109461568295956
1772457346695403300,3.6274033203125,0.014837351627647877,0.00032757828012108803,0.010475298389792442
1772457346705472500,3.637472412109375,0.011355002410709858,0.01452222652733326,0.011022844351828098
1772457346715541200,3.647541259765625,0.0012272903695702553,0.015084192156791687,0.01038703229278326
1772457346725609500,3.657609375,-0.009567299857735634,0.00673784501850605,0.01841353438794613
1772457346735678500,3.667678466796875,-0.007321548648178577,-0.004804371856153011,0.019126057624816895
1772457346745746200,3.67774609375,-0.009281368926167488,-0.010051864199340343,0.018647223711013794
1772457346755815200,3.687815185546875,-0.0034222868271172047,0.004052693024277687,0.01815323531627655
1772457346765883100,3.697883056640625,0.00003955629654228687,0.009877292439341545,0.01198189053684473
1772457346775952100,3.7079521484375,0.0009410066995769739,0.0009692097082734108,0.0106300488114357
1772457346786021000,3.718021240234375,0.0028366446495056152,-0.005160587839782238,0.006040890235453844
1772457346796089000,3.728089111328125,0.003068281337618828,-0.014963570982217789,0.0061263348907232285
1772457346806158300,3.738158447265625,0.004375893622636795,-0.012279370799660683,0.007060571573674679
1772457346816226300,3.748226318359375,0.003441737499088049,0.0020896403584629297,0.007740138564258814
1772457346826295000,3.758294921875,0.0007876311428844929,0.029026715084910393,0.008094072341918945
1772457346836363300,3.76836328125,-0.003531564259901643,0.03835025057196617,0.005979861132800579
1772457346846432300,3.778432373046875,-0.009176134131848812,0.015165302902460098,0.010774349793791771
1772457346856501000,3.7885009765625,-0.013675129041075706,-0.0049692969769239426,0.01398869976401329
1772457346866569200,3.7985693359375,-0.013183241710066795,-0.021577302366495132,0.01067599281668663
1772457346876638200,3.80863818359375,-0.0068974243476986885,-0.01586531475186348,0.0025672365445643663
1772457346886706200,3.8187060546875,-0.006347214803099632,0.004296944476664066,-0.006991380825638771
1772457346896775200,3.828775146484375,-0.0035611544735729694,0.018920019268989563,-0.012858296744525433
1772457346906843100,3.838843017578125,-0.0013038595207035542,0.020963730290532112,-0.01281595230102539
1772457346916912000,3.848912109375,0.0022952239960432053,0.019311731681227684,-0.009614503011107445
1772457346926981000,3.858981201171875,0.0035482412204146385,0.012198428623378277,-0.00030089542269706726
1772457346937049000,3.869049072265625,0.0007827566005289555,-0.0004711803048849106,0.008471781387925148
1772457346947118300,3.879118408203125,-0.0022979883942753077,-0.005380451213568449,0.014701713807880878
1772457346957186300,3.889186279296875,-0.007418395485728979,0.006347425282001495,0.014639567583799362
1772457346967255000,3.899255126953125,-0.008149433881044388,0.013216782361268997,0.01625077985227108
1772457346977323300,3.9093232421875,-0.008555508218705654,0.012098941020667553,0.017053501680493355
1772457346987392300,3.919392333984375,-0.006499813869595528,0.014736002311110497,0.020376328378915787
1772457346997461000,3.9294609375,-0.00005151331424713135,0.008617503568530083,0.016180040314793587
1772457347007529200,3.939529296875,-0.0009993324056267738,0.006918939761817455,0.01704663410782814
1772457347017598200,3.94959814453125,-0.0035438844934105873,0.014853144064545631,0.021714363247156143
1772457347027666200,3.959666259765625,-0.00519850617274642,0.007250617723912001,0.01922404207289219
1772457347037735200,3.969735107421875,-0.010780509561300278,-0.0009837998077273369,0.01144699938595295
1772457347047802000,3.979802001953125,-0.014147276990115643,-0.012854307889938354,0.002603174652904272
1772457347057870000,3.9898701171875,-0.014765901491045952,-0.0010601566173136234,0.006416310556232929
1772457347067939300,3.999939208984375,-0.013996247202157974,0.012161373160779476,0.004862888716161251
1772457347078007300,4.01000732421875,-0.007902877405285835,0.015741080045700073,0.008151669055223465
1772457347088076000,4.020075927734375,-0.0077529409900307655,0.01463586650788784,0.01112695224583149
1772457347098145300,4.030145263671875,-0.007317386567592621,0.0018797826487571,0.005213698372244835
1772457347108213200,4.040213134765625,-0.004724799655377865,-0.02062685787677765,-0.004778215661644936
1772457347118282000,4.050281982421875,-0.004266852047294378,-0.017799951136112213,-0.014660759828984737
1772457347128350200,4.06035009765625,-0.009482918307185173,-0.0010444056242704391,-0.012515317648649216
1772457347138419200,4.070419189453125,-0.01015588827431202,0.007559619843959808,-0.008767509832978249
1772457347148487200,4.080487060546875,-0.009508473798632622,0.02303285151720047,0.0036611969117075205
1772457347158556200,4.09055615234375,-0.011704696342349052,0.02125036157667637,0.016218600794672966
1772457347168625200,4.100625244140625,-0.014112459495663643,0.00870953593403101,0.0170162171125412
1772457347178693400,4.110693359375,-0.011749615892767906,-0.0020379554480314255,0.007981507107615471
1772457347188762000,4.12076220703125,-0.00739801162853837,-0.013232553377747536,-0.010481389239430428
1772457347198830000,4.130830078125,-0.0028268920723348856,-0.016012324020266533,-0.03127216920256615
1772457347208899300,4.1408994140625,0.002146561164408922,-0.009104082360863686,-0.0359332337975502
1772457347218967300,4.15096728515625,0.002213516505435109,0.0011283154599368572,-0.03539719060063362
1772457347229036000,4.1610361328125,0.0019147098064422607,0.00922405906021595,-0.01649380661547184
1772457347239105300,4.171105224609375,0.004823946859687567,0.009354820474982262,0.0004934330936521292
1772457347249173200,4.18117333984375,0.009839744307100773,-0.0043165176175534725,0.015907278284430504
1772457347259242200,4.1912421875,0.016654212027788162,-0.014829687774181366,0.02286103554069996
1772457347269310200,4.201310302734375,0.02025746926665306,-0.01863907463848591,0.014491518959403038
1772457347279379200,4.211379150390625,0.02054009959101677,-0.002482969779521227,0.004707049578428268
1772457347289447400,4.221447509765625,0.01546544674783945,0.016137853264808655,-0.0030294330790638924
1772457347299516200,4.23151611328125,0.015579991042613983,0.025597477331757545,-0.013540109619498253
1772457347309585200,4.241585205078125,0.011398295871913433,0.02406402863562107,-0.014028532430529594
1772457347319653400,4.2516533203125,0.009719815105199814,0.021735094487667084,-0.015513562597334385
1772457347329722000,4.26172216796875,0.009211151860654354,0.00807973463088274,-0.020047327503561974
1772457347339790000,4.2717900390625,0.008722862228751183,-0.007092331536114216,-0.027699755504727364
1772457347349859300,4.281859375,0.008352149277925491,-0.00879702065140009,-0.035704419016838074
1772457347359927300,4.29192724609375,0.006804719567298889,-0.0027297697961330414,-0.03406833857297897
1772457347369996300,4.301996337890625,0.003731431672349572,-0.00572742335498333,-0.02929861657321453
1772457347380065300,4.312065185546875,0.0025004083290696144,-0.004160684067755938,-0.021147428080439568
1772457347390133200,4.32213330078125,-0.0005007078871130943,-0.00017979135736823082,-0.015471167862415314
1772457347400203300,4.332203369140625,-0.0018091883976012468,0.011082146316766739,-0.007749050855636597
1772457347410272000,4.34227197265625,0.00016341498121619225,0.021693777292966843,-0.0022110070567578077
1772457347420341200,4.35234130859375,-0.00032398407347500324,0.016887342557311058,-0.002714308677241206
1772457347430409200,4.3624091796875,0.0037831428926438093,0.0008196928538382053,0.0072001079097390175
1772457347440478200,4.372478271484375,0.007149963639676571,-0.017408199608325958,0.005821027792990208
1772457347450546200,4.382546142578125,0.0095814298838377,-0.025576381012797356,0.004949375055730343
1772457347460615200,4.392615234375,0.012576930224895477,-0.016337115317583084,0.007498136721551418
1772457347470683100,4.40268310546875,0.015741830691695213,-0.0027853529900312424,0.0048288507387042046
1772457347480752000,4.412752197265625,0.011122282594442368,-0.0061809588223695755,-0.004032839555293322
1772457347490821000,4.422821044921875,0.009896695613861084,-0.009949332103133202,-0.008020657114684582
1772457347500889300,4.432889404296875,0.007205808535218239,-0.01344241015613079,-0.012445786967873573
1772457347510958000,4.4429580078125,0.005534674972295761,-0.008713701739907265,-0.014555010013282299
1772457347521026000,4.453026123046875,0.006962395738810301,-0.00035457126796245575,-0.00758072454482317
1772457347531095300,4.46309521484375,0.004927207715809345,0.005148584488779306,-0.009606856852769852
1772457347541163300,4.473163330078125,0.005110445432364941,0.010077981278300285,-0.012022403068840504
1772457347551232000,4.48323193359375,0.0007702917791903019,0.0030821238178759813,-0.013073286041617393
1772457347561301200,4.49330126953125,-0.0011218085419386625,-0.012715672142803669,-0.022772129625082016
1772457347571369200,4.503369140625,-0.002129016211256385,-0.020183708518743515,-0.020076744258403778
1772457347581438200,4.513438232421875,0.0036482305731624365,-0.012237252667546272,-0.026135262101888657
1772457347591506200,4.523506103515625,0.006811266764998436,-0.005209703464061022,-0.026000507175922394
1772457347601575200,4.5335751953125,0.006578790955245495,0.004044171888381243,-0.02234230935573578
1772457347611643400,4.543643310546875,0.007860836572945118,0.01545022428035736,-0.01735261082649231
1772457347621712100,4.553712158203125,0.005111973732709885,0.009876875206828117,-0.011190949007868767
1772457347631781000,4.563781005859375,0.002584101166576147,-0.011684343218803406,-0.01298671867698431
1772457347641849300,4.573849365234375,0.003045487916097045,-0.026857778429985046,-0.016721505671739578
1772457347651918000,4.58391796875,0.010205396451056004,-0.016205932945013046,-0.01637263223528862
1772457347661986000,4.593986083984375,0.014816167764365673,0.004326200112700462,-0.01562618464231491
1772457347672055300,4.60405517578125,0.018346719443798065,0.020964298397302628,-0.013368090614676476
1772457347682123300,4.614123291015625,0.009353028610348701,0.025612350553274155,-0.005213240161538124
1772457347692192000,4.62419189453125,0.013823411427438259,0.004793889354914427,-0.0037463707849383354
1772457347702261200,4.63426123046875,0.00954288337379694,-0.00962001457810402,0.0003119977191090584
1772457347712329200,4.6443291015625,0.003949180245399475,-0.015732502564787865,0.0008339772466570139
1772457347722398200,4.654398193359375,0.003300196724012494,-0.0020086229778826237,0.0005828640423715115
1772457347732466200,4.664466064453125,0.007109049707651138,0.007452523335814476,0.0024566641077399254
1772457347742535000,4.674534912109375,0.015987344086170197,0.0068642692640423775,0.005326573736965656
1772457347752603000,4.684602783203125,0.017786843702197075,0.00539154140278697,0.013662533834576607
1772457347762671600,4.694671630859375,0.012693403288722038,-0.007462321314960718,0.01786222867667675
1772457347772739800,4.70473974609375,0.00894713494926691,-0.02027186006307602,0.018598061054944992
1772457347782808800,4.714808837890625,0.008081653155386448,-0.02653934247791767,0.012017492204904556
1772457347792877800,4.7248779296875,0.005283202975988388,-0.02170383930206299,0.0007200969848781824
1772457347802945800,4.73494580078125,0.004723209887742996,-0.012277809903025627,-0.007409483194351196
1772457347813014800,4.745014892578125,0.003815071890130639,-0.005717911757528782,-0.01911487616598606
1772457347823083000,4.7550830078125,0.0016509470297023654,0.0015056843403726816,-0.020559336990118027
1772457347833151700,4.76515185546875,0.0008746355306357145,0.014422282576560974,-0.017066068947315216
1772457347843220700,4.775220703125,-0.0048802876845002174,0.01404985785484314,-0.008869399316608906
1772457347853289000,4.7852890625,-0.01437552273273468,-0.005018907133489847,-0.004547621123492718
1772457347863357700,4.795357666015625,-0.020483216270804405,-0.01584652252495289,-0.0070131756365299225
1772457347873425700,4.80542578125,-0.028356852009892464,-0.004151516128331423,-0.00293667521327734
1772457347883495000,4.815494873046875,-0.02737327665090561,0.01150098443031311,-0.0018099060980603099
1772457347893563000,4.82556298828125,-0.023843787610530853,0.022232992574572563,-0.010274496860802174
1772457347903632000,4.8356318359375,-0.02168429084122181,0.019394975155591965,-0.017204085364937782
1772457347913699800,4.845699951171875,-0.015268734656274319,0.011445972137153149,-0.03067382238805294
1772457347923768800,4.855768798828125,-0.01142953336238861,0.002305051777511835,-0.038205716758966446
1772457347933837800,4.865837890625,-0.005709064193069935,-0.008961716666817665,-0.044700898230075836
1772457347943905800,4.87590576171875,-0.0034520518966019154,-0.019184185191988945,-0.046220310032367706
1772457347953974800,4.885974853515625,0.001723535475321114,-0.02029525674879551,-0.031188100576400757
1772457347964043000,4.89604296875,0.007147751748561859,-0.008347250521183014,-0.009498466737568378
1772457347974111700,4.90611181640625,0.0045801978558301926,0.001271288376301527,0.00797240249812603
1772457347984179700,4.9161796875,0.00469370698556304,-0.004191501997411251,0.028327519074082375
1772457347994249000,4.9262490234375,0.0008728699758648872,-0.010469106025993824,0.03709171712398529
1772457348004317700,4.936317626953125,0.003412905614823103,-0.005470046773552895,0.04451813921332359
1772457348014386000,4.946385986328125,0.005069658160209656,0.009178404696285725,0.046158116310834885
1772457348024455000,4.956454833984375,0.004011485725641251,0.017580563202500343,0.04058224707841873
1772457348034523000,4.96652294921875,0.0021129183005541563,0.019568080082535744,0.03415044769644737
1772457348044591900,4.976591796875,0.005864259321242571,0.00945034995675087,0.025111619383096695
1772457348054659800,4.986659912109375,0.005079958587884903,-0.006099581252783537,0.017665421590209007
1772457348064728800,4.996728759765625,0.009247596375644207,-0.006465347018092871,0.013093085959553719
1772457348074797800,5.0067978515625,0.008852649480104446,0.001484188949689269,0.006488712504506111
1772457348084865800,5.01686572265625,0.011314463801681995,0.006397569552063942,0.00293185212649405
1772457348094935000,5.02693505859375,0.01245429739356041,0.00885806418955326,-0.0013004434294998646
1772457348105003000,5.0370029296875,0.01591065712273121,0.002447302918881178,-0.00493384525179863
1772457348115071700,5.04707177734375,0.018732011318206787,0.0015681935474276543,-0.001489046262577176
1772457348125139700,5.0571396484375,0.015484130010008812,0.011486869305372238,0.0015037625562399626
1772457348135209000,5.067208984375,0.013189815916121006,0.026093509048223495,0.006831415928900242
1772457348145277700,5.077277587890625,0.005393597297370434,0.022540397942066193,0.010571899823844433
1772457348155346000,5.087345947265625,0.0024878219701349735,0.011757257394492626,0.011719988659024239
1772457348165415000,5.097414794921875,0.005610685329884291,0.0026052657049149275,0.002461206167936325
1772457348175482600,5.107482666015625,0.003403990063816309,-0.01061067171394825,-0.006549333222210407
1772457348185552000,5.1175517578125,0.002860722364857793,-0.0075366604141891,-0.011653999797999859
1772457348195619800,5.127619873046875,0.000020993873476982117,0.002059774473309517,-0.01532649900764227
1772457348205688800,5.137688720703125,0.002155725844204426,0.01639275625348091,-0.01986270397901535
1772457348215757800,5.1477578125,0.0029128624591976404,0.01590193435549736,-0.013030897825956345
1772457348225825800,5.15782568359375,-0.0013575856573879719,0.014024633914232254,-0.007453158497810364
1772457348235895000,5.16789501953125,0.0024693766608834267,0.017097922042012215,-0.002507402328774333
1772457348245962800,5.177962646484375,0.003392329905182123,0.0179995559155941,0.009535138495266438
1772457348256031700,5.18803173828125,0.0011470187455415726,0.008770636282861233,0.008903436362743378
1772457348266100000,5.198099853515625,-0.0028894939459860325,0.006020884029567242,0.014091238379478455
1772457348276168700,5.208168701171875,-0.004199502989649773,0.005713022314012051,0.011909309774637222
1772457348286237700,5.21823779296875,-0.007001246325671673,0.002454530680552125,0.0070655457675457
1772457348296306000,5.228305908203125,-0.0030536428093910217,0.004101163242012262,-0.0008054270874708891
1772457348306375000,5.238375,-0.001265370985493064,0.011135941371321678,-0.00737407710403204
1772457348316442600,5.248442626953125,0.0026068652514368296,0.01783032901585102,-0.00917890202254057
1772457348326511900,5.258511962890625,0.0033588032238185406,0.01222536526620388,-0.010465445928275585
1772457348336579800,5.268579833984375,0.0010794035624712706,-0.002185265999287367,-0.0015803416026756167
1772457348346648800,5.27864892578125,0.0013557123020291328,-0.014168880879878998,-0.007154100574553013
1772457348356717800,5.2887177734375,-0.0021743078250437975,-0.018301840871572495,-0.002259210217744112
1772457348366785800,5.298785888671875,-0.00451784860342741,-0.018580978736281395,-0.007650283630937338
1772457348376854800,5.308854736328125,-0.007128546014428139,-0.0013260925188660622,-0.013635206036269665
1772457348386922800,5.3189228515625,-0.00625139893963933,0.01624106802046299,-0.019627058878540993
1772457348396991700,5.32899169921875,-0.006208788137882948,0.02371230162680149,-0.010388553142547607
1772457348407060000,5.33906005859375,-0.00947630126029253,0.011696195229887962,-0.002669308101758361
1772457348417128700,5.349128662109375,-0.009849410504102707,-0.007902273908257484,-0.005595056805759668
1772457348427198000,5.359197998046875,-0.001076343934983015,-0.015436433255672455,-0.005635077133774757
1772457348437266000,5.369265869140625,0.0035269297659397125,-0.006327623035758734,-0.004411354660987854
1772457348447334700,5.379334716796875,-0.00017839600332081318,0.009279527701437473,-0.009364286437630653
1772457348457402600,5.389402587890625,0.0027281781658530235,0.02506195195019245,-0.004853424616158009
1772457348467472000,5.399471923828125,-0.00024599931202828884,0.018895097076892853,-0.00048188259825110435
1772457348477539800,5.409539794921875,0.0021777437068521976,0.003577128518372774,0.0066434042528271675
1772457348487608800,5.41960888671875,0.006347668822854757,-0.018606582656502724,0.003538520308211446
1772457348497677800,5.429677734375,0.009310968220233917,-0.02844935841858387,-0.0004008274991065264
1772457348507745800,5.439745849609375,0.013311527669429779,-0.011518808081746101,-0.008700267411768436
1772457348517814800,5.449814697265625,0.016276158392429352,0.006466316990554333,-0.0065641459077596664
1772457348527882800,5.4598828125,0.011330622248351574,0.0027157869189977646,-0.0090580303221941
1772457348537951700,5.46995166015625,0.0018849230837076902,-0.00360016617923975,-0.01039147563278675
1772457348548020000,5.48002001953125,-0.00519705330953002,-0.0027123824693262577,-0.012965694069862366
1772457348558088700,5.490088623046875,-0.013832353055477142,0.008928561583161354,-0.009666570462286472
1772457348568156700,5.50015673828125,-0.015214185230433941,0.01665165089070797,-0.006125972606241703
1772457348578226000,5.510225830078125,-0.01939481496810913,0.014537900686264038,0.00021208426915109158
1772457348588294700,5.520294677734375,-0.016327636316418648,0.008897782303392887,0.0022806436754763126
1772457348598363000,5.53036279296875,-0.008599942550063133,0.005228745751082897,0.007481264881789684
1772457348608431900,5.540431884765625,-0.00504132779315114,0.002918301150202751,0.008351859636604786
1772457348618499800,5.550499755859375,-0.009567903354763985,-0.0005344869568943977,0.00675396341830492
1772457348628568800,5.56056884765625,-0.008928598836064339,-0.0008081458508968353,0.004738590680062771
1772457348638636800,5.57063671875,-0.007018846459686756,0.010493511334061623,0.009615637362003326
1772457348648705800,5.580705810546875,-0.007875267416238785,0.01821492798626423,0.018446587026119232
1772457348658774800,5.59077490234375,-0.011230583302676678,0.023051494732499123,0.021756364032626152
1772457348668842800,5.6008427734375,-0.010692641139030457,0.010214334353804588,0.020081419497728348
1772457348678912000,5.610912109375,-0.013762999325990677,-0.0030812304466962814,0.012943614274263382
1772457348688980000,5.62097998046875,-0.015890443697571754,-0.008279986679553986,-0.0033479544799774885
1772457348699048700,5.631048583984375,-0.014623578637838364,-0.007632306311279535,-0.021429752930998802
1772457348709117000,5.641116943359375,-0.01049581728875637,-0.00025143055245280266,-0.03691786900162697
1772457348719186000,5.65118603515625,-0.0016426716465502977,0.01190723106265068,-0.04078531265258789
1772457348729254700,5.661254638671875,0.005549588706344366,0.015366068109869957,-0.03525150194764137
1772457348739323000,5.671322998046875,0.013140929862856865,0.01098756492137909,-0.024372488260269165
1772457348749392400,5.681392333984375,0.01717051863670349,0.014246514067053795,-0.0027262787334620953
1772457348759460600,5.691460693359375,0.017839504405856133,0.00747436098754406,0.017310544848442078
1772457348769529600,5.701529541015625,0.012134086340665817,-0.002590979915112257,0.0259745791554451
1772457348779597600,5.71159765625,0.005657545290887356,-0.002574202138930559,0.023659227415919304
1772457348789666600,5.72166650390625,0.004982937593013048,0.0018809246830642223,0.014905395917594433
1772457348799735600,5.731735595703125,0.00750335305929184,0.01280414592474699,0.0047377124428749084
1772457348809803800,5.7418037109375,0.01248189527541399,0.03246314451098442,0.0020383542869240046
1772457348819872500,5.75187255859375,0.01605292782187462,0.044699572026729584,0.002705742372199893
1772457348829940500,5.7619404296875,0.014012067578732967,0.02746419981122017,0.010446291416883469
1772457348840009700,5.772009765625,0.01535216998308897,-0.000004175584763288498,0.013108385726809502
1772457348850077700,5.78207763671875,0.01869971677660942,-0.022248759865760803,0.013698709197342396
1772457348860146400,5.792146484375,0.016737500205636024,-0.025682106614112854,0.006107901223003864
1772457348870215700,5.802215576171875,0.017349297180771828,-0.004925657995045185,0.008775841444730759
1772457348880283600,5.81228369140625,0.014423015527427197,0.004006317351013422,0.00780511973425746
1772457348890352600,5.8223525390625,0.015257331542670727,0.017224537208676338,0.012423934414982796
1772457348900420600,5.832420654296875,0.019552212208509445,0.026822302490472794,0.010442275553941727
1772457348910489600,5.842489501953125,0.0156787671148777,0.014734632335603237,0.013421179726719856
1772457348920557600,5.8525576171875,0.016471588984131813,0.011496761813759804,0.0134400874376297
1772457348930626600,5.86262646484375,0.01499607041478157,0.011583922430872917,0.011879179626703262
1772457348940695600,5.872695556640625,0.01522989571094513,0.011939987540245056,0.013257365673780441
1772457348950763800,5.882763671875,0.014824030920863152,0.009462714195251465,0.01487683318555355
1772457348960832500,5.89283251953125,0.010464968159794807,0.0037363856099545956,0.019481172785162926
1772457348970900500,5.902900390625,0.007901160046458244,0.007019189186394215,0.021606987342238426
1772457348980969700,5.9129697265625,0.005042523145675659,0.017218828201293945,0.030513662844896317
1772457348991037700,5.92303759765625,0.006723892875015736,0.0286017507314682,0.03128952905535698
1772457349001106400,5.9331064453125,0.0003554760478436947,0.02888644114136696,0.038772743195295334
1772457349011175700,5.94317578125,-0.0023888603318482637,0.02184728905558586,0.039093028753995895
1772457349021243600,5.95324365234375,-0.0038245704490691423,0.007491253782063723,0.0440736748278141
1772457349031312600,5.963312744140625,-0.007620152551680803,0.00024212803691625595,0.04077284783124924
1772457349041380600,5.973380615234375,-0.013832241296768188,0.012888681143522263,0.03651019185781479
1772457349051449600,5.98344970703125,-0.017749160528182983,0.029519475996494293,0.03410647064447403
1772457349061517800,5.993517822265625,-0.01664102077484131,0.02149856835603714,0.02447567880153656
1772457349071586600,6.003586669921875,-0.015610418282449245,0.015908630564808846,0.019950740039348602
1772457349081655600,6.013655517578125,-0.014158195815980434,0.016886543482542038,0.02498145028948784
1772457349091723800,6.023723876953125,-0.011233865283429623,0.01939927414059639,0.02097066305577755
1772457349101792500,6.03379248046875,-0.009357668459415436,0.013660160824656487,0.012587033212184906
1772457349111860500,6.043860595703125,-0.009814638644456863,0.02567455545067787,0.006442875601351261
1772457349121929700,6.0539296875,-0.004935993812978268,0.024839920923113823,-0.0004208891186863184
1772457349131997700,6.063997802734375,-0.0037787347100675106,0.013163596391677856,-0.005425945855677128
1772457349142066700,6.074066650390625,-0.0030658068135380745,0.002799905138090253,-0.007752483710646629
1772457349152134700,6.084134765625,-0.0021704519167542458,0.0016326417680829763,-0.009137594141066074
1772457349162203600,6.09420361328125,-0.0028452971018850803,0.007897461764514446,-0.007112526334822178
1772457349172272600,6.104272705078125,-0.003541545709595084,0.006683744490146637,-0.009421493858098984
1772457349182340600,6.114340576171875,-0.005862757563591003,-0.003119883593171835,-0.009056374430656433
1772457349192409600,6.12440966796875,-0.00565161369740963,-0.003853851929306984,-0.013434181921184063
1772457349202477600,6.1344775390625,-0.001159393461421132,-0.0012263772077858448,-0.01404937170445919
1772457349212546600,6.144546630859375,0.0013059290358796716,-0.0022758138366043568,-0.014720061793923378
1772457349222614500,6.154614501953125,0.00244336505420506,-0.0009255912154912949,-0.019341178238391876
1772457349232683800,6.164683837890625,0.004683638922870159,0.0032393643632531166,-0.019157802686095238
1772457349242752500,6.17475244140625,0.0008510840125381947,0.0037562837824225426,-0.014864787459373474
1772457349252820700,6.18482080078125,0.0010697580873966217,0.0008969246409833431,-0.010255632922053337
1772457349262889700,6.1948896484375,-0.0014357438776642084,0.0021278378553688526,-0.004794021602720022
1772457349272957400,6.20495751953125,-0.000317117664963007,0.004753296263515949,0.0077590616419911385
1772457349283026700,6.215026611328125,-0.0065843346528708935,-0.0022849058732390404,0.01153009757399559
1772457349293094700,6.2250947265625,-0.005602664779871702,-0.013046931475400925,0.015889180824160576
1772457349303163600,6.23516357421875,-0.003505691420286894,-0.015939923003315926,0.013808987103402615
1772457349313232600,6.245232666015625,-0.002474532462656498,-0.005519963800907135,0.01444992795586586
1772457349323300600,6.255300537109375,-0.0001610445324331522,0.004418154712766409,0.0045432355254888535
1772457349333369900,6.265369873046875,-0.0006838229019194841,-0.0005680816248059273,-0.0020411633886396885
1772457349343437600,6.2754375,-0.006404293235391378,-0.009106975048780441,-0.007231398019939661
1772457349353506600,6.285506591796875,-0.012185650877654552,-0.011832339689135551,-0.015003293752670288
1772457349363574500,6.295574462890625,-0.01265090610831976,-0.010593170300126076,-0.017511192709207535
1772457349373643500,6.3056435546875,-0.015014681965112686,0.0011697462759912014,-0.01867808774113655
1772457349383712500,6.31571240234375,-0.012392799369990826,0.006427092477679253,-0.019003259018063545
1772457349393780700,6.32578076171875,-0.009159864857792854,0.0026210537180304527,-0.019648918882012367
1772457349403849700,6.335849609375,-0.010926606133580208,0.0038405151572078466,-0.018367139622569084
1772457349413917400,6.34591748046875,-0.010584263131022453,-0.006814867258071899,-0.013864770531654358
1772457349423986700,6.355986572265625,-0.011574160307645798,-0.007500631734728813,-0.012963290326297283
1772457349434054700,6.3660546875,-0.008244834840297699,0.0036099222488701344,-0.013385405763983727
1772457349444123400,6.376123291015625,-0.009898657910525799,0.022235004231333733,-0.015402751043438911
1772457349454192600,6.386192626953125,-0.012713567353785038,0.028431959450244904,-0.017034992575645447
1772457349464260600,6.396260498046875,-0.01788169890642166,0.044079896062612534,-0.011600280180573463
1772457349474329600,6.40632958984375,-0.02299022115767002,0.0323726050555706,-0.005076621659100056
1772457349484397600,6.4163974609375,-0.02712637558579445,-0.004859718028455973,-0.00949347484856844
1772457349494466600,6.426466552734375,-0.017102083191275597,-0.019776476547122,-0.014176623895764351
1772457349504534800,6.43653466796875,-0.003546062158420682,-0.002887241542339325,-0.01712820492684841
1772457349514603500,6.446603515625,0.005191395524889231,0.009802610613405704,-0.015572115778923035
1772457349524672500,6.456672607421875,0.007613806985318661,0.026218336075544357,-0.0036717813927680254
1772457349534740700,6.46674072265625,0.007785262074321508,0.0374099537730217,0.015150905586779118
1772457349544809500,6.4768095703125,0.0061309062875807285,0.0262284055352211,0.021241819486021996
1772457349554877400,6.48687744140625,0.0032593796495348215,-0.0008531189523637295,0.02536226436495781
1772457349564946700,6.49694677734375,0.0038982720579952,-0.024250853806734085,0.017673451453447342
1772457349575014700,6.5070146484375,0.011804559268057346,-0.03140420466661453,0.006827992387115955
1772457349585083600,6.517083740234375,0.017711183056235313,-0.014945871196687222,-0.0027143803890794516
1772457349595151600,6.527151611328125,0.019111955538392067,-0.0005997363477945328,-0.013210169970989227
1772457349605220600,6.537220703125,0.017101269215345383,0.01031176745891571,-0.020945588126778603
1772457349615289600,6.54728955078125,0.013951919972896576,0.006313133519142866,-0.021550389006733894
1772457349625357600,6.557357666015625,0.012120729312300682,-0.007374715059995651,-0.02368997223675251
1772457349635426600,6.567426513671875,0.008909966796636581,-0.013559436425566673,-0.0328214094042778
1772457349645494800,6.577494873046875,0.005110435653477907,-0.008620072156190872,-0.028826136142015457
1772457349655563500,6.5875634765625,0.006528944708406925,-0.0018762974068522453,-0.030530570074915886
1772457349665631500,6.597631591796875,0.01218656450510025,0.0040226043201982975,-0.02815103530883789
1772457349675700700,6.60770068359375,0.012089517898857594,0.0057463571429252625,-0.024394109845161438
1772457349685769500,6.61776953125,0.008106493391096592,0.004379356279969215,-0.018293073400855064
1772457349695837400,6.62783740234375,0.000972469337284565,0.015355090610682964,-0.0020890659652650356
1772457349705906700,6.63790673828125,-0.007598381955176592,0.0168621726334095,0.01282037515193224
1772457349715974700,6.647974609375,-0.01103002019226551,0.012896579690277576,0.017619645223021507
1772457349726043600,6.658043701171875,-0.009473670274019241,0.004363012500107288,0.026748161762952805
1772457349736111600,6.668111572265625,-0.004289936739951372,-0.00810549408197403,0.022469274699687958
1772457349746180600,6.6781806640625,-0.0007489980198442936,-0.00425616092979908,0.021666064858436584
1772457349756249600,6.68824951171875,0.0009530293755233288,0.0060161869041621685,0.023120680823922157
1772457349766317600,6.698317626953125,-0.0005103775765746832,0.0042020417749881744,0.030583657324314117
1772457349776386600,6.708386474609375,0.0004161370452493429,0.0024776491336524487,0.03828870877623558
1772457349786454800,6.718454833984375,-0.00024379417300224304,0.0012483340688049793,0.039708707481622696
1772457349796523500,6.7285234375,-0.003003045218065381,0.00398876192048192,0.0378708690404892
1772457349806591500,6.738591552734375,-0.0031111694406718016,0.0058383275754749775,0.031352780759334564
1772457349816660700,6.74866064453125,-0.0020592710934579372,0.009090811014175415,0.025307931005954742
1772457349826729500,6.7587294921875,0.0012390539050102234,0.014423790387809277,0.019242048263549805
1772457349836797400,6.76879736328125,0.0005452444311231375,0.022097622975707054,0.021199215203523636
1772457349846866700,6.77886669921875,0.0019250282784923911,0.014294294640421867,0.02566666714847088
1772457349856934700,6.7889345703125,0.005303679965436459,-0.0005073710344731808,0.021736886352300644
1772457349867003600,6.799003662109375,0.004638422280550003,-0.004718893673270941,0.022289492189884186
1772457349877071600,6.809071533203125,0.010420192964375019,-0.0008098725229501724,0.00712387403473258
1772457349887140600,6.819140625,0.013097468763589859,0.012898748740553856,-0.0006930367089807987
1772457349897209600,6.829209716796875,0.014002038165926933,0.030553007498383522,-0.0030358212534338236
1772457349907277600,6.839277587890625,0.01425663661211729,0.040862902998924255,-0.00010208296589553356
1772457349917346600,6.8493466796875,0.01060821209102869,0.033401891589164734,0.010134844109416008
1772457349927414500,6.85941455078125,0.009182089939713478,0.01283696386963129,0.02230895310640335
1772457349937483500,6.8694833984375,0.007508239708840847,-0.002798240166157484,0.03383724391460419
1772457349947551500,6.879551513671875,0.006159082055091858,0.00046945828944444656,0.03487854078412056
1772457349957620700,6.889620849609375,0.012712748721241951,0.012338262051343918,0.033460408449172974
1772457349967688400,6.8996884765625,0.017233198508620262,0.019376996904611588,0.02608717978000641
1772457349977757400,6.90975732421875,0.015739059075713158,0.012794619426131248,0.018790384754538536
1772457349987826700,6.91982666015625,0.01377098262310028,0.007279212586581707,0.012220898643136024
1772457349997894400,6.929894287109375,0.008112829178571701,0.0015606009401381016,0.004838351160287857
1772457350007963600,6.939963623046875,0.0077333287335932255,-0.0013651479966938496,0.006855429150164127
1772457350018031600,6.950031494140625,0.006705404259264469,0.0008330913260579109,-0.0036443560384213924
1772457350028100600,6.9601005859375,0.00839864183217287,0.004801733884960413,-0.008752299472689629
1772457350038168600,6.97016845703125,0.009909132495522499,0.010835329070687294,-0.017260292544960976
1772457350048237600,6.980237548828125,0.011336851865053177,0.017206940799951553,-0.027378441765904427
1772457350058306600,6.990306640625,0.00753732118755579,0.01870097778737545,-0.03580388426780701
1772457350068374500,7.00037451171875,0.007958101108670235,0.01984187588095665,-0.03409120813012123
1772457350078443500,7.010443603515625,0.006397599820047617,0.012947876006364822,-0.02173362299799919
1772457350088511500,7.020511474609375,0.0026947406586259604,-0.003541085869073868,-0.021577028557658195
1772457350098580500,7.03058056640625,0.0012312759645283222,-0.009248042479157448,-0.008978664875030518
1772457350108648400,7.0406484375,0.001343128620646894,-0.0031888186931610107,-0.002933821640908718
1772457350118717700,7.0507177734375,0.0013811582466587424,0.008648077957332134,-0.000875196885317564
1772457350128786700,7.06078662109375,-0.0011565678287297487,0.01213948242366314,0.0026982328854501247
1772457350138854400,7.0708544921875,-0.005053783766925335,0.004206247162073851,0.008761982433497906
1772457350148923600,7.080923583984375,-0.0012739596422761679,-0.010441937483847141,0.01327044889330864
1772457350158991600,7.09099169921875,0.0011873329058289528,-0.018692146986722946,0.017165057361125946
1772457350169060400,7.101060302734375,0.007551222573965788,-0.008137241005897522,0.019496655091643333
1772457350179128600,7.111128662109375,0.008638434112071991,-0.0026472830213606358,0.01637994684278965
1772457350189197600,7.121197509765625,0.006998193450272083,-0.004945856984704733,0.013293876312673092
1772457350199265500,7.131265625,0.0041309804655611515,-0.005969631485641003,0.008397123776376247
1772457350209334500,7.14133447265625,0.0029085895512253046,-0.00003770645707845688,0.006242359988391399
1772457350219403500,7.151403564453125,0.0028101583011448383,0.005347574595361948,0.008127881214022636
1772457350229471700,7.1614716796875,0.005600085482001305,0.0025443313643336296,0.01663029007613659
1772457350239540500,7.17154052734375,0.0036597056314349174,-0.003555376548320055,0.008254650980234146
1772457350249608400,7.1816083984375,0.0015254482859745622,-0.010202361270785332,0.000822301022708416
1772457350259677700,7.191677734375,-0.0034415596164762974,-0.00906327087432146,-0.022876905277371407
1772457350269745700,7.20174560546875,-0.005088991019874811,-0.008059525862336159,-0.04121170565485954
1772457350279814400,7.211814453125,0.0010378770530223846,-0.01260314416140318,-0.05233679339289665
1772457350289883600,7.221883544921875,0.004481344483792782,-0.015796273946762085,-0.05935129150748253
1772457350299951600,7.23195166015625,0.0048792739398777485,-0.020070064812898636,-0.05099402368068695
1772457350310020600,7.2420205078125,0.0024134530685842037,-0.009723416529595852,-0.026459122076630592
1772457350320088600,7.252088623046875,-0.0022238544188439846,-0.001593791414052248,0.00006569107063114643
1772457350330157600,7.262157470703125,-0.006542969029396772,0.0003977203741669655,0.01487659476697445
1772457350340225500,7.2722255859375,-0.006659667938947678,-0.007444275077432394,0.022026116028428078
1772457350350294500,7.28229443359375,-0.0038641479332000017,-0.024176649749279022,0.012305578216910362
1772457350360363500,7.292363525390625,-0.002926609944552183,-0.033201731741428375,-0.001201172824949026
1772457350370431700,7.302431640625,-0.0012743850238621235,-0.013070367276668549,-0.014532158151268959
1772457350380500500,7.31250048828125,-0.0012975530698895454,0.018852416425943375,-0.01587972231209278
1772457350390568400,7.322568359375,-0.0012144623324275017,0.036965906620025635,-0.01665709912776947
1772457350400637700,7.3326376953125,-0.00786096602678299,0.028765983879566193,-0.009001578204333782
1772457350410705700,7.34270556640625,-0.011904976330697536,-0.005799717269837856,-0.0022813573013991117
1772457350420774400,7.3527744140625,-0.00916852056980133,-0.03374047204852104,-0.0016765696927905083
1772457350430843600,7.36284375,-0.0074382652528584,-0.04489964619278908,-0.004868368152529001
1772457350440911600,7.37291162109375,-0.0017393198795616627,-0.02114022523164749,-0.008884390816092491
1772457350450980600,7.382980712890625,0.001321184914559126,0.014290469698607922,-0.005684869363903999
1772457350461048600,7.393048583984375,-0.0011437309440225363,0.019173745065927505,0.000506183598190546
1772457350471117600,7.40311767578125,-0.004227671772241592,0.008491539396345615,0.008012303151190281
1772457350481185800,7.413185791015625,-0.009412739425897598,-0.012754786759614944,0.007816826924681664
1772457350491254500,7.423254638671875,-0.006260355934500694,-0.025269778445363045,0.0005964641459286213
1772457350501322500,7.433322509765625,-0.0018057404085993767,-0.01635490357875824,-0.002681086538359523
1772457350511391700,7.443391845703125,0.0012933803955093026,-0.0031735859811306,-0.010469500906765461
1772457350521460500,7.45346044921875,0.002766268327832222,0.0037654382176697254,-0.011585099622607231
1772457350531528400,7.463528564453125,0.0013987350976094604,0.009329580701887608,-0.0034893557894974947
1772457350541597700,7.47359765625,-0.005151843186467886,-0.009250498376786709,-0.004270192701369524
1772457350551665700,7.483665771484375,-0.005724688526242971,-0.01909966766834259,0.00008593988604843616
1772457350561734700,7.493734619140625,-0.0013716397807002068,-0.02394089847803116,-0.00486462889239192
1772457350571802600,7.503802734375,0.003015917958691716,-0.01314897183328867,-0.005518168676644564
1772457350581871600,7.51387158203125,0.006584282033145428,-0.0041118222288787365,-0.010292931459844112
1772457350591940600,7.523940673828125,0.009862367063760757,0.0009377975948154926,-0.012894307263195515
1772457350602008600,7.534008544921875,0.015288718044757843,-0.0006008143536746502,-0.018596403300762177
1772457350612077600,7.54407763671875,0.015832003206014633,-0.009019332937896252,-0.02006193995475769
1772457350622145500,7.5541455078125,0.016302213072776794,-0.014463994652032852,-0.023402884602546692
1772457350632214500,7.564214599609375,0.014090457931160927,-0.017656592652201653,-0.027074318379163742
1772457350642282500,7.574282470703125,0.018933789804577827,-0.013211669400334358,-0.030469585210084915
1772457350652351700,7.584351806640625,0.018839780241250992,0.004152940586209297,-0.025729691609740257
1772457350662419500,7.59441943359375,0.01869165152311325,0.015317114070057869,-0.020115206018090248
1772457350672488700,7.60448876953125,0.017813874408602715,0.0005482877604663372,-0.019371651113033295
1772457350682557700,7.6145576171875,0.017339618876576424,-0.015188808552920818,-0.019556475803256035
1772457350692625400,7.62462548828125,0.01912393793463707,-0.01757846400141716,-0.025563769042491913
1772457350702694700,7.634694580078125,0.016293689608573914,0.0010904595255851746,-0.02242097444832325
1772457350712762600,7.6447626953125,0.003061507595703006,0.0285567045211792,-0.0185154490172863
1772457350722831400,7.654831298828125,-0.0036772482562810183,0.0386858806014061,-0.004759156610816717
1772457350732899600,7.664899658203125,-0.010711455717682838,0.012132566422224045,0.009072503075003624
1772457350742968600,7.674968505859375,-0.005880696699023247,-0.01817922666668892,0.014039305970072746
1772457350753037600,7.68503759765625,-0.001190870301797986,-0.035963550209999084,0.008417107164859772
1772457350763105500,7.69510546875,0.0030212393030524254,-0.027823541313409805,-0.0069416118785738945
1772457350773174800,7.7051748046875,0.008024785667657852,-0.0001170765608549118,-0.017247246578335762
1772457350783242800,7.71524267578125,0.007990965619683266,0.01784355565905571,-0.02254880778491497
1772457350793311500,7.7253115234375,0.004817010834813118,0.019381530582904816,-0.022713124752044678
1772457350803379700,7.735379638671875,0.0035596785601228476,0.004261111840605736,-0.019545292481780052
1772457350813448700,7.74544873046875,0.00178814388345927,-0.0103026507422328,-0.009164556860923767
1772457350823517700,7.755517578125,0.004274896811693907,-0.018867483362555504,-0.01357528381049633
1772457350833585700,7.765585693359375,0.0051548052579164505,-0.02191627025604248,-0.020229989662766457
1772457350843654700,7.775654541015625,0.01447650883346796,-0.002995469607412815,-0.028829604387283325
1772457350853723000,7.785722900390625,0.02107102796435356,0.016037344932556152,-0.0318610817193985
1772457350863791600,7.79579150390625,0.012202806770801544,0.01752668246626854,-0.027024243026971817
1772457350873859600,7.805859619140625,0.009606757201254368,-0.0018648579716682434,-0.019847022369503975
1772457350883928800,7.8159287109375,0.0027925267349928617,-0.020830025896430016,-0.01106471661478281
1772457350893996800,7.825996826171875,0.0013408376835286617,-0.02381383255124092,-0.007813263684511185
1772457350904065500,7.8360654296875,0.0036778145004063845,-0.013122519478201866,-0.009264686144888401
1772457350914134800,7.846134765625,0.0017941606929525733,0.0014415087644010782,-0.014357182197272778
1772457350924202800,7.85620263671875,0.0009218703489750624,0.008707044646143913,-0.009582937695086002
1772457350934271700,7.866271728515625,0.0018268125131726265,0.0023034741170704365,-0.007083294913172722
1772457350944339700,7.876339599609375,0.0032055824995040894,-0.0004105083644390106,-0.002625690773129463
1772457350954408700,7.88640869140625,0.0016910427948459983,0.0005642087198793888,0.0071129570715129375
1772457350964476700,7.8964765625,-0.0010751828085631132,-0.011691395193338394,0.006369136273860931
1772457350974545700,7.906545654296875,0.001233511371538043,-0.017609737813472748,-0.002397191245108843
1772457350984614700,7.91661474609375,0.003116526873782277,-0.00630471995100379,-0.006320028565824032
1772457350994683000,7.926682861328125,0.0009681547526270151,0.006726127117872238,-0.01777774654328823
1772457351004751600,7.936751708984375,0.0009722555987536907,0.01620069146156311,-0.014438940212130547
1772457351014819600,7.946819580078125,0.0001900852657854557,0.014796407893300056,-0.00775200966745615
1772457351024888800,7.956888916015625,-0.00024150568060576916,0.010689657181501389,-0.0017851990414783359
1772457351034956800,7.966956787109375,-0.005319887772202492,0.007698394358158112,-0.006626293063163757
1772457351045023700,7.977023681640625,-0.016051361337304115,-0.003605925478041172,-0.023593291640281677
1772457351055092700,7.9870927734375,-0.02297765575349331,-0.0073332213796675205,-0.03783774748444557
1772457351065160700,7.99716064453125,-0.02311294712126255,-0.004480993375182152,-0.048611823469400406
1772457351075229700,8.007229736328124,-0.020132603123784065,-0.004481792449951172,-0.05098683014512062
1772457351085297700,8.017297607421876,-0.014442812651395798,-0.004357472062110901,-0.04393637925386429
1772457351095366700,8.02736669921875,-0.012702703475952148,-0.0029068486765027046,-0.025735802948474884
1772457351105435600,8.037435546875,-0.012751065194606781,-0.008740920573472977,-0.0028645810671150684
1772457351115503900,8.04750390625,-0.011512428522109985,-0.0036955629475414753,0.018238039687275887
1772457351125572600,8.057572509765626,-0.00889028050005436,-0.0035810498520731926,0.02940228208899498
1772457351135640600,8.067640625,-0.009671386331319809,-0.005407179705798626,0.033829521387815475
1772457351145709800,8.077709716796875,-0.007653402164578438,-0.008791418746113777,0.0263215359300375
1772457351155777800,8.08777783203125,-0.000024245120584964752,-0.013994168490171432,0.008543603122234344
1772457351165846500,8.097846435546876,0.004304883070290089,-0.010878910310566425,-0.008892110548913479
1772457351175915800,8.107915771484375,0.010030413046479225,-0.0013831430114805698,-0.019304804503917694
1772457351185983700,8.117983642578125,0.009054950438439846,0.008358755148947239,-0.02734328992664814
1772457351196052700,8.128052734375,0.006288725417107344,0.011867735534906387,-0.021408703178167343
1772457351206120700,8.13812060546875,0.007487413473427296,0.004923273343592882,-0.01969122886657715
1772457351216189700,8.148189697265625,0.001011404674500227,-0.016214502975344658,-0.01644803024828434
1772457351226258000,8.1582578125,0.002647224348038435,-0.02997814677655697,-0.01939934305846691
1772457351236326700,8.16832666015625,0.003464015666395426,-0.028681186959147453,-0.025201838463544846
1772457351246394600,8.17839453125,0.005736811086535454,-0.016230853274464607,-0.030808594077825546
1772457351256464000,8.1884638671875,0.008570946753025055,0.0013707764446735382,-0.025975223630666733
1772457351266532600,8.19853271484375,0.004005116876214743,0.0204937644302845,-0.012855159118771553
1772457351276600600,8.2086005859375,-0.00454203225672245,0.024375319480895996,-0.0040494175627827644
1772457351286669800,8.218669921875,-0.009551117196679115,0.015152319334447384,0.0012782325502485037
1772457351296737800,8.22873779296875,-0.014386884868144989,0.004613658878952265,0.003838062984868884
1772457351306806800,8.238806884765625,-0.014997333288192749,0.0031219753436744213,0.006187499035149813
1772457351316874800,8.248874755859376,-0.013584259897470474,-0.0009060557931661606,0.008636275306344032
1772457351326943700,8.25894384765625,-0.01353019941598177,0.0006148712709546089,0.01483425498008728
1772457351337012700,8.2690126953125,-0.0062959883362054825,-0.0007894136942923069,0.018412211909890175
1772457351347080700,8.279080810546875,-0.003256310010328889,-0.0018512718379497528,0.016236411407589912
1772457351357149700,8.289149658203126,-0.0025950472336262465,-0.0021364963613450527,0.017855878919363022
1772457351367217700,8.2992177734375,-0.00659857876598835,0.0016310680657625198,0.015835609287023544
1772457351377286700,8.30928662109375,-0.009435111656785011,0.002080609556287527,0.015589267015457153
1772457351387354600,8.319354736328124,-0.008737735450267792,-0.007497556507587433,0.014550367370247841
1772457351397423900,8.329423828125,-0.00489133270457387,-0.009758846834301949,0.007823755964636803
1772457351407491600,8.33949169921875,0.0025196056813001633,0.004673787392675877,0.004439941607415676
1772457351417560600,8.349560546875,0.0040740929543972015,0.0078858258202672,-0.0036595305427908897
1772457351427629800,8.3596298828125,0.008841950446367264,0.013632131740450859,-0.011317186057567596
1772457351437697500,8.369697509765626,0.004384618252515793,0.014204977080225945,-0.012151021510362625
1772457351447766800,8.379766845703125,0.0026206462644040585,0.002223254181444645,-0.01939561776816845
1772457351457834800,8.389834716796875,-0.0022002081386744976,-0.014856662601232529,-0.017912236973643303
1772457351467903500,8.399903564453124,-0.0045441086404025555,-0.016689497977495193,-0.0184954721480608
1772457351477971700,8.4099716796875,-0.002500664908438921,-0.015188275836408138,-0.019626783207058907
1772457351488040700,8.420040771484375,-0.00243307463824749,-0.0010983478277921677,-0.019653944298624992
1772457351498109700,8.430109619140625,-0.001645045354962349,0.016048148274421692,-0.016231248155236244
1772457351508177700,8.440177734375,0.00018193712458014488,0.007262172177433968,-0.017016086727380753
1772457351518246700,8.45024658203125,-0.002560586202889681,0.005098087713122368,-0.004523996263742447
1772457351528314600,8.460314697265625,-0.00491881649941206,0.009092818945646286,0.006977402605116367
1772457351538383600,8.470383544921875,-0.009952723979949951,-0.0026234914548695087,0.012515446171164513
1772457351548451600,8.48045166015625,-0.014243926852941513,-0.02036045864224434,0.01694507896900177
1772457351558520800,8.490520751953126,-0.010097119957208633,-0.024624712765216827,0.013984178192913532
1772457351568588800,8.5005888671875,-0.004893729463219643,-0.009947923943400383,0.0026050228625535965
1772457351578657500,8.510657470703125,-0.0014425385743379593,0.009591953828930855,-0.0037189193535596132
1772457351588726800,8.520726806640624,0.0024058388080447912,0.014875518158078194,-0.006893684156239033
1772457351598794800,8.530794677734375,0.004771791398525238,0.020310496911406517,-0.0002879793755710125
1772457351608863500,8.540863525390625,0.0016314431559294462,0.009097039699554443,0.006193894427269697
1772457351618931700,8.550931640625,0.0015611356357112527,-0.006169531494379044,0.012696001678705215
1772457351629000700,8.561000732421874,0.004808166995644569,-0.014045197516679764,0.013476844877004623
1772457351639068700,8.571068603515625,0.005066493526101112,-0.021761173382401466,0.006901766639202833
1772457351649137700,8.5811376953125,0.00402082921937108,-0.014372610487043858,-0.0028981317300349474
1772457351659206700,8.59120654296875,0.0019685975275933743,0.006670888978987932,-0.008593035861849785
1772457351669275000,8.60127490234375,0.005766903981566429,0.010019652545452118,-0.016229650005698204
1772457351679343600,8.611343505859375,0.0018200994236394763,0.0030448329634964466,-0.01867789402604103
1772457351689411600,8.62141162109375,0.004537961911410093,-0.0036545051261782646,-0.014865312725305557
1772457351699480800,8.631480712890625,0.0027302082162350416,-0.009341418743133545,-0.015448544174432755
1772457351709548800,8.641548828125,-0.0018378039821982384,-0.012599683366715908,-0.01663259044289589
1772457351719617500,8.651617431640625,-0.00831727497279644,-0.017543043941259384,-0.012515077367424965
1772457351729685800,8.661685791015625,-0.010508738458156586,-0.01656029373407364,-0.017065083608031273
1772457351739754800,8.671754638671874,-0.012057099491357803,0.004596657119691372,-0.010932089760899544
1772457351749823700,8.68182373046875,-0.011064806021749973,0.014727061614394188,-0.0034645874984562397
1772457351759891000,8.691890869140625,-0.010993433184921741,0.011170143261551857,0.004272161982953548
1772457351769960200,8.701960205078125,-0.02148282527923584,-0.004331850912421942,0.004931293893605471
1772457351780028200,8.712028076171874,-0.02197391167283058,-0.009981481358408928,0.008618706837296486
1772457351790097000,8.722096923828126,-0.025111382827162743,-0.0055742147378623486,0.016601266339421272
1772457351800165000,8.7321650390625,-0.024887410923838615,-0.005067416001111269,0.019387997686862946
1772457351810234000,8.742234130859375,-0.021782804280519485,-0.0008112560026347637,0.019387196749448776
1772457351820302800,8.752302734375,-0.016161669045686722,0.0015522995963692665,0.00797981210052967
1772457351830371000,8.76237109375,-0.011346195824444294,0.005409294739365578,-0.002129010856151581
1772457351840440000,8.772440185546875,-0.016139619052410126,0.007148072589188814,-0.014363306574523449
1772457351850508000,8.782508056640625,-0.01574413850903511,-0.007757097482681274,-0.022034280002117157
1772457351860577000,8.792576904296874,-0.014262090437114239,-0.021592486649751663,-0.021894995123147964
1772457351870645000,8.80264501953125,-0.007623469457030296,-0.02605605497956276,-0.021490193903446198
1772457351880714200,8.81271435546875,-0.00619841180741787,-0.03261728212237358,-0.018950069323182106
1772457351890782200,8.8227822265625,-0.009441875852644444,-0.01799226924777031,-0.011545151472091675
1772457351900851000,8.832850830078126,-0.012318355962634087,0.003966825548559427,-0.00015853927470743656
1772457351910920200,8.842920166015626,-0.013267824426293373,0.012400208972394466,0.012681889347732067
1772457351920988200,8.85298828125,-0.016705699265003204,0.009516005404293537,0.023536931723356247
1772457351931057000,8.863056884765625,-0.013172963634133339,-0.001038053072988987,0.026919949799776077
1772457351941125000,8.873125,-0.011077056638896465,-0.014481956139206886,0.024907665327191353
1772457351951194000,8.883194091796875,-0.001668746117502451,-0.012822108343243599,0.01626969873905182
1772457351961262000,8.893261962890625,0.004832296632230282,0.0033443449065089226,0.011240318417549133
1772457351971331000,8.9033310546875,0.006269549950957298,0.017487268894910812,0.011194515973329544
1772457351981400000,8.913400146484374,0.006499114446341991,0.01861990988254547,0.01207682117819786
1772457351991468000,8.923468017578125,0.0071732657961547375,-0.0001446213573217392,0.00828741118311882
1772457352001537000,8.933537109375,0.005616381764411926,-0.019478371366858482,0.01430535688996315
1772457352011605000,8.94360498046875,0.007829416543245316,-0.026761628687381744,0.008153717964887619
1772457352021674200,8.95367431640625,0.006126591935753822,-0.012041006237268448,0.011373745277523994
1772457352031742200,8.9637421875,0.007216783240437508,0.01222747378051281,0.015253172256052494
1772457352041811000,8.97381103515625,0.0053741419687867165,0.023155223578214645,0.017701417207717896
1772457352051879200,8.983879150390624,0.003100014990195632,0.01967148296535015,0.021332107484340668
1772457352061948200,8.9939482421875,0.003680051304399967,0.009354131296277046,0.01761300303041935
1772457352072017000,9.004016845703125,0.006019319407641888,-0.00732423085719347,0.017266789451241493
1772457352082085000,9.014085205078125,0.004424352198839188,-0.0120848985388875,0.013721588999032974
1772457352092154000,9.024154052734374,0.00480379955843091,-0.01825336180627346,0.01759595423936844
1772457352102222000,9.03422216796875,0.0015792441554367542,-0.007146915886551142,0.018427392467856407
1772457352112291000,9.044291015625,-0.00042446330189704895,0.0019505023956298828,0.022022657096385956
1772457352122359000,9.054359130859375,-0.0038881704676896334,0.004906344693154097,0.01819223165512085
1772457352132428300,9.06442822265625,-0.007629539351910353,0.002839568303897977,0.02253984473645687
1772457352142497000,9.0744970703125,-0.004798333626240492,-0.004973879549652338,0.013196943327784538
1772457352152565000,9.08456494140625,0.002400029916316271,-0.009484109468758106,0.016211379319429398
1772457352162634200,9.09463427734375,0.005749487318098545,-0.014846118167042732,0.009264524094760418
1772457352172702000,9.104701904296874,0.007019497454166412,-0.005717911757528782,0.011056824587285519
1772457352182771000,9.11477099609375,0.007132948376238346,0.005493463948369026,0.010760148987174034
1772457352192839200,9.124839111328125,0.004474632441997528,0.006596056744456291,0.0099351080134511
1772457352202908200,9.134908203125,0.002906296867877245,0.008197948336601257,0.004895607940852642
1772457352212975900,9.144975830078126,0.001234044786542654,0.00727324653416872,0.0020316441077739
1772457352223045000,9.155045166015626,0.006012288387864828,0.0034287073649466038,-0.006886749528348446
1772457352233114000,9.165114013671875,0.011931110173463821,-0.004108089953660965,-0.017184395343065262
1772457352243182000,9.17518212890625,0.01427282765507698,-0.009193128906190395,-0.028931066393852234
1772457352253251000,9.1852509765625,0.016109982505440712,-0.00016891071572899818,-0.03553809970617294
1772457352263319000,9.195319091796875,0.01068219356238842,0.023399265483021736,-0.03925773501396179
1772457352273388000,9.205387939453125,0.003565588966012001,0.03147679939866066,-0.03534448891878128
1772457352283456000,9.2154560546875,-0.00211999355815351,0.03238626942038536,-0.028021061792969704
1772457352293525000,9.22552490234375,-0.003824949963018298,0.030544156208634377,-0.012066862545907497
1772457352303593200,9.23559326171875,-0.008316637016832829,0.015437642112374306,0.005588830448687077
1772457352313662000,9.245661865234375,-0.01397649385035038,-0.007252865936607122,0.019281739369034767
1772457352323731200,9.255731201171875,-0.012080589309334755,-0.02397432178258896,0.024277562275528908
1772457352333799200,9.265799072265626,-0.011930333450436592,-0.030073165893554688,0.020341942086815834
1772457352343868000,9.275867919921875,-0.0024217828176915646,-0.008339641615748405,0.016622837632894516
1772457352353936000,9.285935791015625,-0.00040182890370488167,0.010933066718280315,0.010107148438692093
1772457352364005000,9.296005126953125,0.0006405324675142765,0.017985649406909943,0.009329771623015404
1772457352374073000,9.306072998046876,0.00014640926383435726,0.014659521169960499,0.008538546040654182
1772457352384142000,9.31614208984375,0.0010870378464460373,0.01049007661640644,0.008250126615166664
1772457352394211000,9.326211181640625,-0.0025822650641202927,-0.008617036044597626,0.01140756905078888
1772457352404279000,9.336279052734374,-0.004057389684021473,-0.027948657050728798,0.00599469430744648
1772457352414348000,9.34634814453125,0.0016324528260156512,-0.019782880321145058,-0.000989444088190794
1772457352424416000,9.356416015625,0.007477026432752609,-0.012305255979299545,-0.014967843890190125
1772457352434485000,9.366485107421875,0.014469582587480545,-0.00040422379970550537,-0.03387761861085892
1772457352444553200,9.37655322265625,0.015120725147426128,0.011021269485354424,-0.03728726506233215
1772457352454622000,9.3866220703125,0.011674861423671246,0.012554720975458622,-0.037960246205329895
1772457352464690000,9.39668994140625,0.005154644139111042,0.0032387173268944025,-0.032487183809280396
1772457352474759200,9.40675927734375,-0.0024679615162312984,-0.0045945425517857075,-0.025189591571688652
1772457352484828000,9.416827880859374,-0.008070454001426697,-0.007854251191020012,-0.019546620547771454
1772457352494896000,9.426896240234376,-0.008282708935439587,-0.004717589356005192,-0.015571316704154015
1772457352504965000,9.436965087890625,-0.00902173575013876,0.007391537539660931,-0.006817239336669445
1772457352515033000,9.447033203125,-0.0009633826557546854,0.021279819309711456,-0.00009728595614433289
1772457352525102000,9.45710205078125,0.006796802394092083,0.01684858649969101,0.003957643173635006
1772457352535170000,9.467170166015626,0.008020631968975067,0.00590683426707983,0.004549128469079733
1772457352545239000,9.477239013671875,0.010657960548996925,-0.00485047185793519,-0.00019902107305824757
1772457352555308000,9.48730810546875,0.013125112280249596,-0.0118830855935812,-0.0015769386664032936
1772457352565376000,9.4973759765625,0.008654996752738953,-0.007723227143287659,-0.0012682783417403698
1772457352575445200,9.5074453125,0.00392186688259244,0.012989083305001259,-0.0017266084905713797
1772457352585513200,9.51751318359375,0.0029506119899451733,0.02299537882208824,-0.00009009614586830139
1772457352595582000,9.52758203125,0.0017421221127733588,0.016210224479436874,-0.008177582174539566
1772457352605650200,9.537650146484374,0.0020494507625699043,0.0031902967020869255,-0.015176902525126934
1772457352615719200,9.54771923828125,0.0018242549849674106,-0.004946345929056406,-0.022744810208678246
1772457352625787100,9.557787109375,0.0065423110499978065,-0.00650829030200839,-0.029653582721948624
1772457352635856100,9.567856201171875,0.010859828442335129,-0.000018965452909469604,-0.03145201504230499
1772457352645925000,9.577925048828124,0.0076131680980324745,0.001595709240064025,-0.02884265035390854
1772457352655993000,9.5879931640625,0.003867165884003043,0.003930236212909222,-0.02667536959052086
1772457352666062000,9.59806201171875,0.004134014714509249,0.007367844693362713,-0.012757157906889915
1772457352676130000,9.608130126953125,0.003427852177992463,0.0016725196037441492,-0.003021442797034979
1772457352686199300,9.61819921875,0.0011830737348645926,-0.009378267452120781,0.0036764072719961405
1772457352696267000,9.62826708984375,-0.002179593313485384,-0.011176859959959984,0.002222054172307253
1772457352706336000,9.6383359375,-0.004326900001615286,0.008038114756345749,-0.0014821363147348166
1772457352716405200,9.6484052734375,-0.008753713220357895,0.02167098969221115,-0.006158110685646534
1772457352726473200,9.65847314453125,-0.012033130042254925,0.014216003939509392,-0.016683191061019897
1772457352736542000,9.6685419921875,-0.013126730918884277,-0.001254142727702856,-0.021284330636262894
1772457352746610200,9.678610107421875,-0.011235354468226433,0.0019760052673518658,-0.02114504761993885
1772457352756679200,9.68867919921875,-0.007347884122282267,0.010621750727295876,-0.016723405569791794
1772457352766747000,9.698746826171876,-0.0034279776737093925,0.0005760402418673038,-0.017516760155558586
1772457352776816000,9.708816162109375,-0.0012605381198227406,-0.012124951928853989,-0.01663551665842533
1772457352786884000,9.718884033203125,0.000710467342287302,-0.02067503146827221,-0.017994528636336327
1772457352796953000,9.728953125,0.0031042760238051414,-0.018946483731269836,-0.020012136548757553
1772457352807022000,9.73902197265625,0.005964244715869427,-0.004194701090455055,-0.014089266769587994
1772457352817090000,9.749090087890625,0.00416922103613615,0.014218342490494251,-0.010784551501274109
1772457352827159000,9.759158935546875,0.0010517244227230549,0.015443396754562855,0.0022737267427146435
1772457352837227000,9.76922705078125,-0.0033019031397998333,0.007048428058624268,0.011603839695453644
1772457352847296000,9.7792958984375,-0.002285907045006752,-0.007208005990833044,0.020336877554655075
1772457352857364200,9.7893642578125,-0.005277596414089203,-0.013847162947058678,0.023814968764781952
1772457352867433000,9.799432861328125,-0.005447239615023136,-0.01319841668009758,0.014380186796188354
1772457352877501000,9.8095009765625,-0.008180016651749611,-0.008744926191866398,0.011715431697666645
1772457352887570200,9.819570068359376,-0.0037122981157153845,-0.0008052438497543335,0.0016931579448282719
1772457352897639000,9.829638916015625,-0.008251441642642021,0.004427023231983185,0.005183759145438671
1772457352907707100,9.83970703125,-0.00908634252846241,0.00546645512804389,0.0014944826252758503
1772457352917776100,9.849776123046874,-0.009591329842805862,-0.0000758967362344265,0.002848163014277816
1772457352927844000,9.859843994140626,-0.013355975039303303,0.0027776802890002728,0.011430465616285801
1772457352937913000,9.8699130859375,-0.011099746450781822,0.006699972320348024,0.014018001034855843
1772457352947981000,9.87998095703125,-0.013241726905107498,0.0007962770760059357,0.014456890523433685
1772457352958050000,9.890050048828124,-0.01223159022629261,-0.008455009199678898,0.006779793184250593
1772457352968119000,9.900119140625,-0.010082152672111988,-0.01339996699243784,-0.002273622900247574
1772457352978187000,9.91018701171875,-0.0075088986195623875,0.0024129298981279135,-0.006910988129675388
1772457352988256300,9.92025634765625,-0.006506484467536211,0.020707514137029648,-0.005407367367297411
1772457352998324200,9.93032421875,-0.0068880110047757626,0.02428024634718895,-0.0031591225415468216
1772457353008393000,9.94039306640625,-0.0060022431425750256,0.013232653960585594,0.00026783300563693047
1772457353018461200,9.950461181640625,-0.008324411697685719,-0.002328617498278618,-0.002079479629173875
1772457353028530200,9.9605302734375,-0.006225308403372765,-0.018305718898773193,-0.00616396963596344
1772457353038598100,9.97059814453125,-0.001622781390324235,-0.025376364588737488,-0.006879557855427265
1772457353048667100,9.980667236328125,0.0007192024495452642,-0.018329374492168427,-0.015583035536110401
1772457353058736000,9.990736083984375,0.0038253541570156813,-0.0009089936502277851,-0.014787018299102783
1772457353068804000,10.00080419921875,0.00551220029592514,0.009623009711503983,-0.01615108922123909
1772457353078873000,10.010873046875,0.0030885636806488037,0.013576842844486237,-0.00722497096285224
1772457353088941000,10.020941162109375,-0.0013780901208519936,0.011221276596188545,-0.0005665356293320656
1772457353099010300,10.03101025390625,-0.005531661212444305,-0.0008693085983395576,0.014931458979845047
1772457353109078300,10.041078369140624,-0.0034085894003510475,-0.015934277325868607,0.019359497353434563
1772457353119147000,10.05114697265625,-0.003451733384281397,-0.015312699601054192,0.016658522188663483
1772457353129216300,10.06121630859375,0.0013747133780270815,-0.004192404914647341,0.009037885814905167
1772457353139284200,10.0712841796875,0.0024638387840241194,0.007926728576421738,0.0036729518324136734
1772457353149353000,10.08135302734375,0.001635862048715353,0.01978471875190735,0.0015759789384901524
1772457353159421200,10.091421142578126,0.0004886260721832514,0.013560703955590725,0.005107061937451363
1772457353169490200,10.101490234375,-0.0002554610837250948,0.0007860525511205196,0.005542488768696785
1772457353179558100,10.11155810546875,-0.003263927297666669,-0.009874474257230759,0.00333126587793231
1772457353189627100,10.121627197265624,-0.003490295959636569,-0.008387630805373192,-0.002687211614102125
1772457353199695000,10.131695068359376,-0.00583393219858408,-0.0000341515988111496,-0.005967957433313131
1772457353209764000,10.14176416015625,-0.010625225491821766,0.0055054896511137486,-0.00612268690019846
1772457353219833000,10.1518330078125,-0.011870944872498512,-0.002330484800040722,-0.01856098137795925
1772457353229901000,10.161901123046874,-0.011715149506926537,-0.011046478524804115,-0.013474877923727036
1772457353239970300,10.17197021484375,-0.010631188750267029,-0.008718283846974373,-0.015930315479636192
1772457353250038300,10.182038330078125,-0.008621567860245705,-0.007038096431642771,-0.01873888447880745
1772457353260107000,10.19210693359375,-0.003777490695938468,0.0017053796909749508,-0.01735856756567955
1772457353270175200,10.20217529296875,-0.0064659519121050835,0.013000378385186195,-0.019537299871444702
1772457353280244200,10.212244140625,-0.010813510045409203,0.013740785419940948,-0.009818090125918388
1772457353290312000,10.22231201171875,-0.012167727574706078,-0.0021724007092416286,-0.003473109332844615
1772457353300381200,10.232381103515625,-0.01289647538214922,-0.022490564733743668,-0.004091227892786264
1772457353310450200,10.2424501953125,-0.009671653620898724,-0.02606186456978321,-0.0027577830478549004
1772457353320518100,10.25251806640625,-0.007684935349971056,-0.009478362277150154,-0.003282159334048629
1772457353330587100,10.262587158203125,-0.0060340422205626965,0.01328607089817524,0.003929414786398411
1772457353340655000,10.272655029296875,-0.006444114726036787,0.02066601812839508,0.010495702736079693
1772457353350724000,10.28272412109375,-0.007024683523923159,0.012788387015461922,0.013623319566249847
1772457353360792000,10.2927919921875,-0.011666147969663143,0.0018314998596906662,0.012986559420824051
1772457353370861000,10.302861083984375,-0.012556176632642746,-0.0037981560453772545,0.003041782882064581
1772457353380930300,10.312930419921875,-0.015276649966835976,-0.005408089607954025,-0.008971737697720528
1772457353390998000,10.322998046875,-0.010386819019913673,-0.008597491309046745,-0.026446601375937462
1772457353401067000,10.33306689453125,-0.004689358174800873,-0.002447563223540783,-0.04082021117210388
1772457353411135200,10.34313525390625,0.0066479844972491264,0.0035874261520802975,-0.0418977290391922
1772457353421204000,10.353203857421875,0.012322542257606983,-0.00969039648771286,-0.04231052100658417
1772457353431272000,10.36327197265625,0.012863962911069393,-0.009456837549805641,-0.02588946931064129
1772457353441341200,10.373341064453125,0.014760402031242847,-0.005320941098034382,-0.0065717026591300964
1772457353451409200,10.3834091796875,0.0182304996997118,-0.01379831600934267,0.005756336264312267
1772457353461478000,10.393477783203124,0.01691308431327343,-0.017304591834545135,0.00984988734126091
1772457353471547100,10.403547119140624,0.01595914177596569,-0.024820830672979355,0.01352718099951744
1772457353481615000,10.413614990234375,0.01868472807109356,-0.022731734439730644,0.004211439751088619
1772457353491684000,10.42368408203125,0.020049331709742546,-0.005098678637295961,-0.000045623164623975754
1772457353501752000,10.433751953125,0.02169356681406498,0.01378206443041563,-0.004348756745457649
1772457353511821000,10.443821044921876,0.01959393173456192,0.018849793821573257,-0.004096821881830692
1772457353521889300,10.45388916015625,0.018138619139790535,0.015782205387949944,-0.0025300842244178057
1772457353531958000,10.4639580078125,0.013786748051643372,-0.0024457997642457485,0.002833256032317877
1772457353542026000,10.47402587890625,0.009328455664217472,-0.025636771693825722,0.0029123532585799694
1772457353552095200,10.48409521484375,0.0068029798567295074,-0.03409896790981293,-0.0021276790648698807
1772457353562164000,10.4941640625,0.0050581833347678185,-0.02680605836212635,-0.004489370156079531
1772457353572232000,10.50423193359375,0.00761108985170722,-0.007930371910333633,-0.008693436160683632
1772457353582301200,10.51430126953125,0.009097719565033913,0.010224452242255211,-0.0011076885275542736
1772457353592369200,10.524369140625,0.006863860413432121,0.013401603326201439,0.0034801391884684563
1772457353602438100,10.534438232421875,0.002331906696781516,0.009690172970294952,0.014081116765737534
1772457353612506000,10.544506103515625,-0.003716930979862809,-0.0040306998416781425,0.0177895687520504
1772457353622575000,10.5545751953125,-0.007289401255548,-0.013413120061159134,0.011127134785056114
1772457353632644000,10.56464404296875,-0.0058824531733989716,-0.014915674924850464,0.0010113846510648727
1772457353642712000,10.574712158203125,-0.004528024699538946,-0.0017192433588206768,-0.009337388910353184
1772457353652781000,10.584781005859375,-0.0026243971660733223,0.012123601511120796,-0.014475425705313683
1772457353662849300,10.594849365234374,-0.005864663515239954,0.00889106560498476,-0.009943527169525623
1772457353672918000,10.60491796875,-0.006487844046205282,-0.0012220218777656555,-0.004577257204800844
1772457353682986000,10.614986083984375,-0.006235004402697086,-0.010442320257425308,0.003914234694093466
1772457353693055200,10.62505517578125,-0.004235769622027874,-0.01635587029159069,0.009026171639561653
1772457353703123200,10.635123291015624,-0.00042462581768631935,-0.007923873141407967,0.009323114529252052
1772457353713192200,10.645192138671876,0.001783933723345399,0.0024123874027282,0.008033611811697483
1772457353723261200,10.65526123046875,0.007365014404058456,0.0079628461971879,0.006917478982359171
1772457353733329200,10.6653291015625,0.012571228668093681,0.010416150093078613,0.007958775386214256
1772457353743398100,10.675398193359374,0.009861141443252563,-0.00007303105667233467,0.01030049379914999
1772457353753466600,10.685466552734376,0.011659840121865273,-0.007256908342242241,0.014857961796224117
1772457353763535600,10.69553564453125,0.011146756820380688,-0.00036880047991871834,0.0134560726583004
1772457353773603600,10.705603515625,0.010808268561959267,0.0031801278237253428,0.011992665007710457
1772457353783672600,10.715672607421874,0.012084029614925385,0.00803251750767231,0.009508999064564705
1772457353793740500,10.725740478515625,0.013680594973266125,0.002866784343495965,0.005782970692962408
1772457353803809500,10.7358095703125,0.01556137204170227,-0.011271890252828598,0.004515841603279114
1772457353813878500,10.74587841796875,0.017693765461444855,-0.01489805057644844,0.004664179868996143
1772457353823946500,10.755946533203126,0.01946317031979561,-0.014850109815597534,0.0041168974712491035
1772457353834015500,10.766015380859375,0.015569894574582577,-0.0033375308848917484,0.005540091078728437
1772457353844083500,10.77608349609375,0.015410477295517921,0.007901379838585854,0.004938218276947737
1772457353854152700,10.786152587890625,0.013037600554525852,0.00784758385270834,0.005603475961834192
1772457353864220700,10.796220703125,0.007188395131379366,-0.007748786360025406,0.009326569736003876
1772457353874289400,10.806289306640625,0.004775304812937975,-0.019782545045018196,0.009933505207300186
1772457353884358700,10.816358642578125,-0.0003412140067666769,-0.015898380428552628,0.00990075059235096
1772457353894426600,10.826426513671874,-0.002966558327898383,0.002429493237286806,0.01266697607934475
1772457353904495400,10.836495361328126,-0.00499679334461689,0.017223775386810303,0.012033678591251373
1772457353914563600,10.8465634765625,-0.007813085801899433,0.012360576540231705,0.005642624106258154
1772457353924632600,10.856632568359375,-0.01208058837801218,0.004763324744999409,0.0035070348531007767
1772457353934700500,10.866700439453124,-0.011985513381659985,-0.006613167002797127,0.0013781036250293255
1772457353944769500,10.87676953125,-0.00661476980894804,-0.015755584463477135,-0.0019242169801145792
1772457353954837500,10.88683740234375,-0.003627768252044916,-0.008834561333060265,-0.012753695249557495
1772457353964906500,10.896906494140625,-0.002549082040786743,0.0034951798152178526,-0.016894908621907234
1772457353974975500,10.9069755859375,-0.0004555711057037115,0.012154980562627316,-0.018241403624415398
1772457353985043500,10.91704345703125,-0.003045922378078103,0.0055219437927007675,-0.02169019542634487
1772457353995112700,10.92711279296875,-0.0072891367599368095,-0.0030246726237237453,-0.01783819869160652
1772457354005180700,10.9371806640625,-0.005143427290022373,-0.013152136467397213,-0.023166118189692497
1772457354015249400,10.94724951171875,-0.00044108391739428043,-0.023374944925308228,-0.024645239114761353
1772457354025317600,10.957317626953126,0.00231262412853539,-0.015027273446321487,-0.02077167108654976
1772457354035386600,10.96738671875,0.00004440988413989544,-0.004747204948216677,-0.024257482960820198
1772457354045454600,10.97745458984375,0.006016070488840342,-0.0022355145774781704,-0.02867327257990837
1772457354055523600,10.987523681640624,0.01559173222631216,-0.00553916534408927,-0.024806896224617958
1772457354065592600,10.997592529296876,0.02005247212946415,0.016767410561442375,-0.00844043679535389
1772457354075660500,11.00766064453125,0.00926134455949068,0.013082394376397133,0.004946742206811905
1772457354085729500,11.0177294921875,-0.003647157456725836,-0.015943026170134544,0.015704048797488213
1772457354095797500,11.027797607421874,-0.005047181621193886,-0.01796729490160942,0.025841370224952698
1772457354105866800,11.03786669921875,-0.005948927253484726,-0.0075303674675524235,0.030720015987753868
1772457354115934700,11.047934814453125,-0.012792719528079033,-0.0006394386291503906,0.035339802503585815
1772457354126003500,11.05800341796875,-0.01502242311835289,0.008786987513303757,0.03657470643520355
1772457354136071700,11.06807177734375,-0.007313636597245932,-0.0020880308002233505,0.030168738216161728
1772457354146140700,11.078140625,-0.00023618084378540516,-0.008251016959547997,0.016195934265851974
1772457354156209400,11.08820947265625,0.002281571738421917,0.005430174060165882,0.0028242028784006834
1772457354166277600,11.098277587890625,-0.0037396750412881374,0.007085490971803665,-0.009350971318781376
1772457354176346600,11.1083466796875,-0.008402337320148945,0.004271861165761948,-0.023270515725016594
1772457354186414600,11.11841455078125,-0.0034961013589054346,-0.01236021239310503,-0.03607526421546936
1772457354196483600,11.128483642578125,0.004385523963719606,-0.026607856154441833,-0.04585758596658707
1772457354206551600,11.138551513671874,0.014838803559541702,-0.03317190706729889,-0.059465810656547546
1772457354216620800,11.148620849609374,0.020458074286580086,-0.024053247645497322,-0.06387893110513687
1772457354226688500,11.1586884765625,0.022290166467428207,-0.0018162839114665985,-0.053480084985494614
1772457354236757500,11.168757568359375,0.012452717870473862,0.011538669466972351,-0.037109632045030594
1772457354246826800,11.17882666015625,0.0003055064007639885,0.00847602915018797,-0.020736783742904663
1772457354256894500,11.18889453125,-0.017690539360046387,-0.004412072245031595,-0.005525606218725443
1772457354266963500,11.19896337890625,-0.027450542896986008,-0.006125064566731453,0.013799621723592281
1772457354277031700,11.20903173828125,-0.027926983311772346,-0.0030906591564416885,0.022693512961268425
1772457354287100700,11.2191005859375,-0.026610687375068665,0.009630363434553146,0.01680872216820717
