time,seconds_elapsed,z,y,x
1772563494556609000,0.054609130859375,-1.0009765625,-0.0142822265625,0.030487060546875
1772563494566677000,0.064677001953125,-0.983245849609375,-0.0109405517578125,0.0334014892578125
1772563494576745000,0.074744873046875,-0.980133056640625,-0.0133056640625,0.035858154296875
1772563494586813000,0.08481298828125,-0.981353759765625,-0.0125885009765625,0.0338287353515625
1772563494596881000,0.094880859375,-0.9978790283203125,-0.0128936767578125,0.031219482421875
1772563494606949000,0.10494921875,-1.005859375,-0.013671875,0.0288238525390625
1772563494617017000,0.11501708984375,-0.994964599609375,-0.0118865966796875,0.0306243896484375
1772563494627085000,0.1250849609375,-0.9882965087890625,-0.01373291015625,0.0321807861328125
1772563494637153000,0.135153076171875,-0.98504638671875,-0.0109100341796875,0.03460693359375
1772563494647222000,0.145221923828125,-0.98681640625,-0.0124664306640625,0.0325164794921875
1772563494657290000,0.1552900390625,-0.993255615234375,-0.0112152099609375,0.030426025390625
1772563494667358000,0.16535791015625,-0.9961700439453125,-0.0124053955078125,0.030670166015625
1772563494677426200,0.17542626953125,-0.9971923828125,-0.013641357421875,0.0309295654296875
1772563494687494100,0.185494140625,-0.9911956787109375,-0.0133209228515625,0.034027099609375
1772563494697561900,0.195561767578125,-0.985687255859375,-0.0121612548828125,0.0347442626953125
1772563494707629800,0.2056298828125,-0.9875640869140625,-0.0128326416015625,0.03265380859375
1772563494717698000,0.215697998046875,-0.996551513671875,-0.011444091796875,0.031402587890625
1772563494727767000,0.22576708984375,-0.9991607666015625,-0.012939453125,0.033721923828125
1772563494737835000,0.2358349609375,-0.9945068359375,-0.01226806640625,0.03265380859375
1772563494747903200,0.2459033203125,-0.9911346435546875,-0.013702392578125,0.032196044921875
1772563494757971000,0.255970947265625,-0.988128662109375,-0.0130767822265625,0.033660888671875
1772563494768039000,0.266038818359375,-0.9904937744140625,-0.0120086669921875,0.032318115234375
1772563494778107000,0.27610693359375,-0.993896484375,-0.013214111328125,0.0321044921875
1772563494788175000,0.286175048828125,-0.9925079345703125,-0.012359619140625,0.03106689453125
1772563494798243000,0.2962431640625,-0.9943084716796875,-0.0137481689453125,0.031158447265625
1772563494808311000,0.30631103515625,-0.99102783203125,-0.0126800537109375,0.031280517578125
1772563494818380000,0.316380126953125,-0.9888153076171875,-0.01202392578125,0.0347747802734375
1772563494828448000,0.326447998046875,-0.9894256591796875,-0.0128021240234375,0.0331268310546875
1772563494838516000,0.336515869140625,-0.990966796875,-0.0120849609375,0.0335693359375
1772563494848584000,0.346583984375,-0.9943084716796875,-0.0138092041015625,0.030059814453125
1772563494858652200,0.356652099609375,-0.9947357177734375,-0.0124969482421875,0.0292816162109375
1772563494868720000,0.36672021484375,-0.9928436279296875,-0.01263427734375,0.0330047607421875
1772563494878788000,0.3767880859375,-0.9901275634765625,-0.0128936767578125,0.032318115234375
1772563494888855800,0.386855712890625,-0.9884033203125,-0.0121002197265625,0.031494140625
1772563494898924000,0.396924072265625,-0.9909515380859375,-0.0123443603515625,0.03253173828125
1772563494908993000,0.406992919921875,-0.992401123046875,-0.0117034912109375,0.0325164794921875
1772563494919061000,0.41706103515625,-0.9931793212890625,-0.0115509033203125,0.0316619873046875
1772563494929129200,0.427129150390625,-0.993560791015625,-0.0114898681640625,0.0297088623046875
1772563494939197200,0.437197265625,-0.991607666015625,-0.01220703125,0.0319061279296875
1772563494949265000,0.447264892578125,-0.9915313720703125,-0.0140380859375,0.03192138671875
1772563494959332900,0.457332763671875,-0.99127197265625,-0.0113525390625,0.03131103515625
1772563494969401000,0.467401123046875,-0.9913787841796875,-0.013336181640625,0.0316925048828125
1772563494979469000,0.477468994140625,-0.9943084716796875,-0.0124664306640625,0.0312957763671875
1772563494989538000,0.4875380859375,-0.9937744140625,-0.0130462646484375,0.0321807861328125
1772563494999606000,0.49760595703125,-0.9925079345703125,-0.013580322265625,0.0320587158203125
1772563495009674000,0.507674072265625,-0.9899749755859375,-0.01239013671875,0.0315399169921875
1772563495019742000,0.517741943359375,-0.992034912109375,-0.012420654296875,0.031524658203125
1772563495029810000,0.527809814453125,-0.99188232421875,-0.013092041015625,0.033599853515625
1772563495039878100,0.537878173828125,-0.990875244140625,-0.0120086669921875,0.031982421875
1772563495049946000,0.547946044921875,-0.99127197265625,-0.0127410888671875,0.0311431884765625
1772563495060014000,0.55801416015625,-0.99267578125,-0.01055908203125,0.03204345703125
1772563495070082000,0.56808203125,-0.992828369140625,-0.0119171142578125,0.0307464599609375
1772563495080151000,0.578151123046875,-0.991607666015625,-0.0132598876953125,0.0302276611328125
1772563495090219000,0.588218994140625,-0.991424560546875,-0.012451171875,0.0314483642578125
1772563495100287000,0.598286865234375,-0.9912872314453125,-0.01220703125,0.0302734375
1772563495110355000,0.60835498046875,-0.99249267578125,-0.012908935546875,0.03076171875
1772563495120423200,0.618423095703125,-0.993133544921875,-0.013214111328125,0.0321807861328125
1772563495130491100,0.6284912109375,-0.99267578125,-0.0116729736328125,0.0330657958984375
1772563495140558800,0.638558837890625,-0.9896240234375,-0.01153564453125,0.031890869140625
1772563495150626800,0.648626708984375,-0.991119384765625,-0.01177978515625,0.031219482421875
1772563495160695000,0.658695068359375,-0.992584228515625,-0.0136260986328125,0.03021240234375
1772563495170764000,0.668763916015625,-0.9901885986328125,-0.01300048828125,0.0317230224609375
1772563495180832000,0.67883203125,-0.9915618896484375,-0.011962890625,0.032440185546875
1772563495190900000,0.68889990234375,-0.9915618896484375,-0.0106964111328125,0.0324859619140625
1772563495200968000,0.698968017578125,-0.9918365478515625,-0.0106201171875,0.0322418212890625
1772563495211036000,0.709035888671875,-0.993194580078125,-0.011627197265625,0.0302886962890625
1772563495221103900,0.719103759765625,-0.992279052734375,-0.01220703125,0.03125
1772563495231172000,0.729172119140625,-0.99261474609375,-0.0139007568359375,0.0313720703125
1772563495241240000,0.739239990234375,-0.9897918701171875,-0.011749267578125,0.030975341796875
1772563495251308800,0.749308837890625,-0.9673004150390625,-0.0118560791015625,0.0323486328125
1772563495261377000,0.759376953125,-0.9841766357421875,-0.01580810546875,0.035430908203125
1772563495271445000,0.769445068359375,-1.0266571044921875,-0.011199951171875,0.034454345703125
1772563495281513000,0.779512939453125,-1.01055908203125,-0.0099945068359375,0.027923583984375
1772563495291581000,0.789580810546875,-0.9876556396484375,-0.0154266357421875,0.0259552001953125
1772563495301649200,0.799649169921875,-1.0013427734375,-0.008148193359375,0.02960205078125
1772563495311717000,0.809717041015625,-0.99249267578125,-0.0117034912109375,0.032867431640625
1772563495321785000,0.81978515625,-0.9617462158203125,-0.0166473388671875,0.036346435546875
1772563495331852800,0.829852783203125,-0.9797515869140625,-0.0108489990234375,0.036285400390625
1772563495341922000,0.839922119140625,-1.0016937255859375,-0.0129547119140625,0.03076171875
1772563495351990000,0.849989990234375,-1.0007171630859375,-0.0128936767578125,0.02850341796875
1772563495362058000,0.86005810546875,-0.995941162109375,-0.00811767578125,0.02783203125
1772563495372126200,0.870126220703125,-0.986358642578125,-0.0117034912109375,0.0306396484375
1772563495382194000,0.88019384765625,-0.986724853515625,-0.01129150390625,0.0343170166015625
1772563495392262000,0.890261962890625,-0.9921417236328125,-0.0133056640625,0.0337982177734375
1772563495402329900,0.900329833984375,-0.988525390625,-0.0155181884765625,0.03173828125
1772563495412398000,0.910398193359375,-0.9914398193359375,-0.012603759765625,0.0311126708984375
1772563495422466000,0.920466064453125,-0.999420166015625,-0.0131683349609375,0.03070068359375
1772563495432535000,0.93053515625,-0.9931640625,-0.0108489990234375,0.03094482421875
1772563495442603000,0.94060302734375,-0.9873809814453125,-0.01123046875,0.0308380126953125
1772563495452671000,0.9506708984375,-0.9878997802734375,-0.01141357421875,0.03326416015625
1772563495462739000,0.960739013671875,-0.990936279296875,-0.013397216796875,0.0322265625
1772563495472807000,0.970806884765625,-0.9957427978515625,-0.0150604248046875,0.03021240234375
1772563495482875100,0.980875244140625,-0.9929656982421875,-0.0117645263671875,0.0305938720703125
1772563495492943000,0.990943115234375,-0.9889984130859375,-0.0129852294921875,0.0324859619140625
1772563495503011000,1.001010986328125,-0.989654541015625,-0.011688232421875,0.0308074951171875
1772563495513080000,1.011080078125,-0.991973876953125,-0.0126953125,0.0311431884765625
1772563495523148300,1.021148193359375,-0.9938812255859375,-0.01220703125,0.0302581787109375
1772563495533216300,1.03121630859375,-0.9937286376953125,-0.0119171142578125,0.030364990234375
1772563495543284200,1.0412841796875,-0.9938507080078125,-0.0145721435546875,0.031585693359375
1772563495553352200,1.051352294921875,-0.991668701171875,-0.0130462646484375,0.03179931640625
1772563495563420400,1.06142041015625,-0.9904022216796875,-0.0118255615234375,0.0325775146484375
1772563495573488000,1.071488037109375,-0.9895172119140625,-0.0133514404296875,0.03131103515625
1772563495583556000,1.08155615234375,-0.9906463623046875,-0.0106964111328125,0.0300750732421875
1772563495593624000,1.0916240234375,-0.99365234375,-0.0124664306640625,0.0311279296875
1772563495603693300,1.101693359375,-0.99407958984375,-0.0133209228515625,0.030242919921875
1772563495613761300,1.11176123046875,-0.9920501708984375,-0.012939453125,0.03289794921875
1772563495623829200,1.121829345703125,-0.989166259765625,-0.013519287109375,0.032958984375
1772563495633897200,1.131897216796875,-0.988677978515625,-0.012451171875,0.0311279296875
1772563495643965200,1.141965087890625,-0.9931488037109375,-0.0136871337890625,0.03302001953125
1772563495654033200,1.152033203125,-0.99383544921875,-0.0129241943359375,0.0311431884765625
1772563495664101000,1.16210107421875,-0.9937896728515625,-0.013153076171875,0.032867431640625
1772563495674169300,1.17216943359375,-0.9919586181640625,-0.0117950439453125,0.0328826904296875
1772563495684237300,1.1822373046875,-0.9925384521484375,-0.01214599609375,0.031951904296875
1772563495694306000,1.19230615234375,-0.9886322021484375,-0.0126953125,0.0330657958984375
1772563495704374300,1.202374267578125,-0.9907684326171875,-0.01153564453125,0.0318450927734375
1772563495714442200,1.212442138671875,-0.9921875,-0.013275146484375,0.0305633544921875
1772563495724510200,1.22251025390625,-0.994384765625,-0.011688232421875,0.0310211181640625
1772563495734578200,1.232578125,-0.992095947265625,-0.0113983154296875,0.032928466796875
1772563495744646400,1.242646484375,-0.9918060302734375,-0.0124359130859375,0.0321502685546875
1772563495754714400,1.25271435546875,-0.991363525390625,-0.01080322265625,0.0304412841796875
1772563495764782000,1.262781982421875,-0.99066162109375,-0.0128326416015625,0.033905029296875
1772563495774851300,1.272851318359375,-0.9912261962890625,-0.0128936767578125,0.0327301025390625
1772563495784919300,1.282919189453125,-0.99176025390625,-0.0118255615234375,0.0313873291015625
1772563495794987300,1.2929873046875,-0.992584228515625,-0.013946533203125,0.0298004150390625
1772563495805055200,1.30305517578125,-0.991912841796875,-0.0140838623046875,0.0322723388671875
1772563495815123200,1.313123291015625,-0.992279052734375,-0.0122528076171875,0.0311279296875
1772563495825191200,1.323191162109375,-0.9898834228515625,-0.013946533203125,0.0318603515625
1772563495835259100,1.333259033203125,-0.9918975830078125,-0.012847900390625,0.0323486328125
1772563495845327000,1.3433271484375,-0.9929046630859375,-0.0139923095703125,0.0326995849609375
1772563495855395300,1.353395263671875,-0.9923553466796875,-0.0124969482421875,0.031829833984375
1772563495865464300,1.36346435546875,-0.9923248291015625,-0.01239013671875,0.031219482421875
1772563495875532000,1.373531982421875,-0.9925994873046875,-0.0125579833984375,0.031524658203125
1772563495885600300,1.383600341796875,-0.9907989501953125,-0.0129241943359375,0.031890869140625
1772563495895668200,1.393668212890625,-0.9914093017578125,-0.01361083984375,0.0322418212890625
1772563495905736200,1.403736083984375,-0.9903717041015625,-0.0129852294921875,0.0315704345703125
1772563495915804200,1.41380419921875,-0.99127197265625,-0.0120697021484375,0.0304718017578125
1772563495925872400,1.423872314453125,-0.991729736328125,-0.0122833251953125,0.03155517578125
1772563495935940400,1.4339404296875,-0.99176025390625,-0.012908935546875,0.0314483642578125
1772563495946008300,1.44400830078125,-0.9903717041015625,-0.01092529296875,0.030914306640625
1772563495956077300,1.454077392578125,-0.9906005859375,-0.013458251953125,0.033538818359375
1772563495966145300,1.464145263671875,-0.99169921875,-0.0128936767578125,0.0325775146484375
1772563495976213200,1.474213134765625,-0.992401123046875,-0.0127410888671875,0.03253173828125
1772563495986281200,1.48428125,-0.9914398193359375,-0.013336181640625,0.0308685302734375
1772563495996349400,1.494349365234375,-0.99127197265625,-0.013092041015625,0.031646728515625
1772563496006417200,1.504417236328125,-0.9910125732421875,-0.0124969482421875,0.03143310546875
1772563496016485000,1.514485107421875,-0.9935150146484375,-0.012359619140625,0.031341552734375
1772563496026553000,1.524552978515625,-0.9931640625,-0.01226806640625,0.032623291015625
1772563496036622300,1.534622314453125,-0.992645263671875,-0.01275634765625,0.0335693359375
1772563496046690300,1.544690185546875,-0.988616943359375,-0.01275634765625,0.0322723388671875
1772563496056758300,1.55475830078125,-0.9904937744140625,-0.0128326416015625,0.03363037109375
1772563496066826200,1.564826171875,-0.9916534423828125,-0.011260986328125,0.0317535400390625
1772563496076894200,1.574894287109375,-0.9905853271484375,-0.0124053955078125,0.0315093994140625
1772563496086962200,1.584962158203125,-0.9921112060546875,-0.01214599609375,0.03204345703125
1772563496097030100,1.595030029296875,-0.9910736083984375,-0.013031005859375,0.03228759765625
1772563496107098400,1.605098388671875,-0.9902191162109375,-0.01214599609375,0.0320892333984375
1772563496117166300,1.615166259765625,-0.99176025390625,-0.0119781494140625,0.0320587158203125
1772563496127235000,1.625235107421875,-0.9906768798828125,-0.0133056640625,0.0332489013671875
1772563496137303000,1.635302978515625,-0.9915618896484375,-0.0137176513671875,0.0306549072265625
1772563496147371300,1.645371337890625,-0.991912841796875,-0.0120391845703125,0.0304107666015625
1772563496157439200,1.655439208984375,-0.9927978515625,-0.0119171142578125,0.032501220703125
1772563496167507200,1.665507080078125,-0.9925689697265625,-0.0136871337890625,0.0311737060546875
1772563496177575200,1.6755751953125,-0.9917449951171875,-0.011444091796875,0.0311279296875
1772563496187643400,1.685643310546875,-0.99151611328125,-0.013336181640625,0.0325775146484375
1772563496197711000,1.695711181640625,-0.990478515625,-0.0132293701171875,0.03302001953125
1772563496207779000,1.705779052734375,-0.9908599853515625,-0.0134429931640625,0.031768798828125
1772563496217848300,1.715848388671875,-0.9922027587890625,-0.013427734375,0.031280517578125
1772563496227916300,1.725916259765625,-0.990814208984375,-0.011383056640625,0.0320281982421875
1772563496237984300,1.735984375,-0.9929656982421875,-0.0125732421875,0.031494140625
1772563496248052200,1.74605224609375,-0.9927825927734375,-0.0122528076171875,0.034088134765625
1772563496258120200,1.7561201171875,-0.992279052734375,-0.0131988525390625,0.0319366455078125
1772563496268188200,1.766188232421875,-0.9916839599609375,-0.0124969482421875,0.0326995849609375
1772563496278256000,1.776256103515625,-0.9913330078125,-0.01361083984375,0.0319671630859375
1772563496288324000,1.786323974609375,-0.9918060302734375,-0.0137176513671875,0.0322723388671875
1772563496298393300,1.796393310546875,-0.9917755126953125,-0.0134429931640625,0.031707763671875
1772563496308461300,1.80646142578125,-0.992645263671875,-0.0110015869140625,0.032073974609375
1772563496318529000,1.816529052734375,-0.9921875,-0.0133056640625,0.03363037109375
1772563496328597200,1.82659716796875,-0.9912109375,-0.0129241943359375,0.0330047607421875
1772563496338665200,1.836665283203125,-0.9929962158203125,-0.0149993896484375,0.0325164794921875
1772563496348733200,1.846733154296875,-0.991607666015625,-0.0128021240234375,0.032623291015625
1772563496358801200,1.85680126953125,-0.993682861328125,-0.010986328125,0.032257080078125
1772563496368869400,1.866869384765625,-0.9944000244140625,-0.0110321044921875,0.03094482421875
1772563496378937300,1.876937255859375,-0.991546630859375,-0.013092041015625,0.032379150390625
1772563496389006000,1.887006103515625,-0.993408203125,-0.013641357421875,0.0321197509765625
1772563496399074300,1.89707421875,-0.9921875,-0.012664794921875,0.032196044921875
1772563496409142300,1.907142333984375,-0.991973876953125,-0.0133056640625,0.0315399169921875
1772563496419210200,1.917210205078125,-0.992919921875,-0.0134735107421875,0.0308837890625
1772563496429278200,1.9272783203125,-0.9921722412109375,-0.0117340087890625,0.0326080322265625
1772563496439346400,1.937346435546875,-0.991455078125,-0.0134124755859375,0.0329437255859375
1772563496449414100,1.9474140625,-0.9928436279296875,-0.0125274658203125,0.0322723388671875
1772563496459482000,1.957482177734375,-0.990692138671875,-0.012908935546875,0.031524658203125
1772563496469551400,1.96755126953125,-0.9909515380859375,-0.0139617919921875,0.032867431640625
1772563496479619300,1.977619384765625,-0.991729736328125,-0.01251220703125,0.0314788818359375
1772563496489687300,1.987687255859375,-0.992523193359375,-0.01287841796875,0.03253173828125
1772563496499755300,1.99775537109375,-0.9930419921875,-0.0131988525390625,0.0334014892578125
1772563496509823200,2.0078232421875,-0.991363525390625,-0.0137176513671875,0.0316619873046875
1772563496519891200,2.01789111328125,-0.9907379150390625,-0.0128021240234375,0.031158447265625
1772563496529959400,2.02795947265625,-0.9940643310546875,-0.013031005859375,0.0317535400390625
1772563496540027400,2.03802734375,-0.9925994873046875,-0.0133209228515625,0.0301513671875
1772563496550095600,2.048095703125,-0.9907379150390625,-0.01214599609375,0.030914306640625
1772563496560164400,2.058164306640625,-0.9897003173828125,-0.0131072998046875,0.0323028564453125
1772563496570232300,2.068232421875,-0.9899139404296875,-0.012481689453125,0.0317840576171875
1772563496580300500,2.078300537109375,-0.9922332763671875,-0.01202392578125,0.0319976806640625
1772563496590368500,2.088368408203125,-0.9910430908203125,-0.0121307373046875,0.03118896484375
1772563496600436500,2.0984365234375,-0.992401123046875,-0.0136260986328125,0.032073974609375
1772563496610504400,2.10850439453125,-0.99163818359375,-0.01300048828125,0.0313568115234375
1772563496620572700,2.11857275390625,-0.990814208984375,-0.013397216796875,0.0322265625
1772563496630640400,2.128640380859375,-0.99029541015625,-0.01153564453125,0.0323333740234375
1772563496640709400,2.13870947265625,-0.99237060546875,-0.0115966796875,0.0322113037109375
1772563496650777600,2.148777587890625,-0.9908905029296875,-0.012481689453125,0.03143310546875
1772563496660845600,2.158845458984375,-0.9922332763671875,-0.0133514404296875,0.031219482421875
1772563496670913500,2.16891357421875,-0.9927520751953125,-0.01141357421875,0.0321197509765625
1772563496680981500,2.1789814453125,-0.991363525390625,-0.0116424560546875,0.03265380859375
1772563496691049500,2.189049560546875,-0.9918060302734375,-0.0127716064453125,0.0294342041015625
1772563496701117400,2.199117431640625,-0.9915618896484375,-0.011871337890625,0.0330047607421875
1772563496711185400,2.209185302734375,-0.9910888671875,-0.0130615234375,0.0325469970703125
1772563496721253400,2.21925341796875,-0.992645263671875,-0.011871337890625,0.0317230224609375
1772563496731322600,2.229322509765625,-0.99090576171875,-0.0123748779296875,0.0324859619140625
1772563496741390600,2.239390625,-0.9915924072265625,-0.0136566162109375,0.0308837890625
1772563496751458300,2.249458251953125,-0.9902801513671875,-0.0127716064453125,0.0323944091796875
1772563496761526500,2.259526611328125,-0.9912109375,-0.012908935546875,0.0318603515625
1772563496771594500,2.269594482421875,-0.991424560546875,-0.01251220703125,0.0323944091796875
1772563496781662500,2.279662353515625,-0.992401123046875,-0.0131072998046875,0.031646728515625
1772563496791730400,2.28973046875,-0.992095947265625,-0.0117645263671875,0.03277587890625
1772563496801798700,2.299798583984375,-0.9933624267578125,-0.0115814208984375,0.0332794189453125
1772563496811867400,2.309867431640625,-0.9907684326171875,-0.01373291015625,0.0300750732421875
1772563496821935400,2.319935302734375,-0.9896392822265625,-0.013519287109375,0.0321502685546875
1772563496832003600,2.330003662109375,-0.9911346435546875,-0.0121002197265625,0.03228759765625
1772563496842071600,2.340071533203125,-0.991943359375,-0.014556884765625,0.0305633544921875
1772563496852139500,2.350139404296875,-0.992584228515625,-0.0112457275390625,0.03363037109375
1772563496862207500,2.36020751953125,-0.9910125732421875,-0.0124053955078125,0.033203125
1772563496872275700,2.370275634765625,-0.9918212890625,-0.0115814208984375,0.031646728515625
1772563496882343400,2.380343505859375,-0.9911651611328125,-0.0122222900390625,0.032684326171875
1772563496892411400,2.390411376953125,-0.991119384765625,-0.012481689453125,0.02960205078125
1772563496902480400,2.40048046875,-0.99249267578125,-0.0139007568359375,0.031768798828125
1772563496912548600,2.410548583984375,-0.991058349609375,-0.0129852294921875,0.03094482421875
1772563496922616600,2.420616455078125,-0.9920654296875,-0.0129241943359375,0.0315093994140625
1772563496932684500,2.4306845703125,-0.9920806884765625,-0.0137939453125,0.03192138671875
1772563496942752300,2.440752197265625,-0.9929962158203125,-0.0123291015625,0.0301361083984375
1772563496952820500,2.450820556640625,-0.99090576171875,-0.0130157470703125,0.0320281982421875
1772563496962888400,2.460888427734375,-0.990936279296875,-0.010955810546875,0.0316925048828125
1772563496972956400,2.470956298828125,-0.9900054931640625,-0.0120849609375,0.0318756103515625
1772563496983024400,2.4810244140625,-0.9918365478515625,-0.01202392578125,0.03179931640625
1772563496993093400,2.49109326171875,-0.992218017578125,-0.011962890625,0.032562255859375
1772563497003161300,2.501161376953125,-0.9919586181640625,-0.0111846923828125,0.0325927734375
1772563497013229300,2.511229248046875,-0.991455078125,-0.013336181640625,0.0320587158203125
1772563497023297500,2.521297607421875,-0.9913482666015625,-0.012603759765625,0.031890869140625
1772563497033365500,2.531365478515625,-0.991973876953125,-0.0113677978515625,0.032440185546875
1772563497043433500,2.54143359375,-0.9919586181640625,-0.0120086669921875,0.0329132080078125
1772563497053501400,2.55150146484375,-0.9919891357421875,-0.0127105712890625,0.032958984375
1772563497063569700,2.561569580078125,-0.9934234619140625,-0.0128173828125,0.0312957763671875
1772563497073638400,2.571638427734375,-0.9905853271484375,-0.0129547119140625,0.0305328369140625
1772563497083706400,2.581706298828125,-0.9922027587890625,-0.011810302734375,0.0326080322265625
1772563497093774600,2.591774658203125,-0.9918365478515625,-0.012176513671875,0.0325469970703125
1772563497103842600,2.601842529296875,-0.9919891357421875,-0.0123443603515625,0.0309906005859375
1772563497113910500,2.61191064453125,-0.99169921875,-0.0141143798828125,0.0310211181640625
1772563497123978500,2.621978515625,-0.9901123046875,-0.0133819580078125,0.0314483642578125
1772563497134046500,2.63204638671875,-0.9936065673828125,-0.0124053955078125,0.0316162109375
1772563497144114400,2.642114501953125,-0.9913330078125,-0.011688232421875,0.03179931640625
1772563497154183400,2.652183349609375,-0.990509033203125,-0.01171875,0.0306396484375
1772563497164251600,2.662251708984375,-0.9923858642578125,-0.01300048828125,0.028961181640625
1772563497174319600,2.672319580078125,-0.992462158203125,-0.01300048828125,0.0319061279296875
1772563497184387300,2.68238720703125,-0.99053955078125,-0.0135040283203125,0.0330047607421875
1772563497194455300,2.692455322265625,-0.9913482666015625,-0.01226806640625,0.0331878662109375
1772563497204523500,2.7025234375,-0.990997314453125,-0.0124969482421875,0.032073974609375
1772563497214591500,2.712591552734375,-0.993255615234375,-0.0129241943359375,0.0323333740234375
1772563497224659500,2.722659423828125,-0.992401123046875,-0.012603759765625,0.031341552734375
1772563497234727400,2.7327275390625,-0.9929656982421875,-0.0139617919921875,0.032379150390625
1772563497244796400,2.74279638671875,-0.990631103515625,-0.0136260986328125,0.0307769775390625
1772563497254864400,2.752864501953125,-0.9907379150390625,-0.01129150390625,0.0303192138671875
1772563497264932400,2.762932373046875,-0.9937744140625,-0.012786865234375,0.0309906005859375
1772563497275000600,2.77300048828125,-0.991668701171875,-0.012725830078125,0.033294677734375
1772563497285068500,2.783068603515625,-0.9925689697265625,-0.0117950439453125,0.032745361328125
1772563497295136500,2.793136474609375,-0.991912841796875,-0.0126190185546875,0.032379150390625
1772563497305204500,2.80320458984375,-0.991607666015625,-0.01214599609375,0.0331878662109375
1772563497315272400,2.8132724609375,-0.9926910400390625,-0.012969970703125,0.0303955078125
1772563497325340400,2.82334033203125,-0.991119384765625,-0.0120697021484375,0.032012939453125
1772563497335409400,2.833409423828125,-0.990631103515625,-0.0149993896484375,0.032745361328125
1772563497345477600,2.8434775390625,-0.990875244140625,-0.0142669677734375,0.0323638916015625
1772563497355545600,2.853545654296875,-0.99200439453125,-0.013824462890625,0.030853271484375
1772563497365613600,2.863613525390625,-0.992156982421875,-0.0128936767578125,0.031951904296875
1772563497375681300,2.873681396484375,-0.9920196533203125,-0.0120849609375,0.0328521728515625
1772563497385749500,2.88374951171875,-0.9919586181640625,-0.012420654296875,0.03265380859375
1772563497395817500,2.8938173828125,-0.9915924072265625,-0.0123748779296875,0.031707763671875
1772563497405885400,2.903885498046875,-0.991668701171875,-0.0126495361328125,0.033203125
1772563497415954700,2.91395458984375,-0.99188232421875,-0.013427734375,0.0313720703125
1772563497426022700,2.924022705078125,-0.992218017578125,-0.01226806640625,0.032958984375
1772563497436090400,2.93409033203125,-0.9916839599609375,-0.012451171875,0.03179931640625
1772563497446158300,2.944158447265625,-0.9912872314453125,-0.0127410888671875,0.0302886962890625
1772563497456226600,2.9542265625,-0.991424560546875,-0.01251220703125,0.0329742431640625
1772563497466294500,2.96429443359375,-0.9907379150390625,-0.01263427734375,0.0330352783203125
1772563497476362500,2.974362548828125,-0.99267578125,-0.0132904052734375,0.032623291015625
1772563497486430500,2.984430419921875,-0.993255615234375,-0.013275146484375,0.0320892333984375
1772563497496499500,2.99449951171875,-0.9905242919921875,-0.013275146484375,0.0312042236328125
1772563497506567400,3.0045673828125,-0.991058349609375,-0.013031005859375,0.0322265625
1772563497516635400,3.014635498046875,-0.993072509765625,-0.012115478515625,0.0318145751953125
1772563497526703900,3.024703857421875,-0.99017333984375,-0.0114593505859375,0.0327911376953125
1772563497536771800,3.034771728515625,-0.9919891357421875,-0.0118255615234375,0.0322418212890625
1772563497546840000,3.044840087890625,-0.9923553466796875,-0.0114288330078125,0.0308074951171875
1772563497556907800,3.05490771484375,-0.99188232421875,-0.013824462890625,0.0321807861328125
1772563497566975700,3.064975830078125,-0.9905853271484375,-0.01287841796875,0.0321502685546875
1772563497577043700,3.075043701171875,-0.9908905029296875,-0.0135498046875,0.032562255859375
1772563497587113000,3.085113037109375,-0.9925689697265625,-0.0126953125,0.0321502685546875
1772563497597181000,3.095180908203125,-0.991302490234375,-0.0129852294921875,0.0328369140625
1772563497607249000,3.105248779296875,-0.9909820556640625,-0.0135955810546875,0.031585693359375
1772563497617316900,3.11531689453125,-0.993255615234375,-0.013702392578125,0.032867431640625
1772563497627384800,3.125384765625,-0.9917449951171875,-0.0118865966796875,0.0324249267578125
1772563497637452800,3.135452880859375,-0.9911651611328125,-0.0119171142578125,0.031829833984375
1772563497647520800,3.145520751953125,-0.9914703369140625,-0.0137176513671875,0.032562255859375
1772563497657589000,3.155589111328125,-0.9933624267578125,-0.011993408203125,0.0320587158203125
1772563497667657000,3.165656982421875,-0.9915313720703125,-0.0128326416015625,0.0314483642578125
1772563497677725700,3.1757255859375,-0.9910125732421875,-0.012786865234375,0.0323944091796875
1772563497687793700,3.185793701171875,-0.9926910400390625,-0.0122222900390625,0.0315399169921875
1772563497697862000,3.19586181640625,-0.9926300048828125,-0.013916015625,0.0325469970703125
1772563497707929900,3.205929931640625,-0.991851806640625,-0.013641357421875,0.031463623046875
1772563497717997800,3.215997802734375,-0.9927215576171875,-0.0123443603515625,0.0321502685546875
1772563497728066000,3.226066162109375,-0.992584228515625,-0.0124053955078125,0.031585693359375
1772563497738134000,3.236134033203125,-0.9912872314453125,-0.0118560791015625,0.0322418212890625
1772563497748201700,3.24620166015625,-0.992279052734375,-0.0123291015625,0.032073974609375
1772563497758270700,3.256270751953125,-0.9906463623046875,-0.0125579833984375,0.032196044921875
1772563497768339000,3.2663388671875,-0.9915008544921875,-0.012969970703125,0.0313568115234375
1772563497778407000,3.276406982421875,-0.99261474609375,-0.0119781494140625,0.0320281982421875
1772563497788475000,3.286474853515625,-0.9920501708984375,-0.01202392578125,0.0323944091796875
1772563497798542800,3.29654296875,-0.993072509765625,-0.0128021240234375,0.03204345703125
1772563497808610800,3.30661083984375,-0.9925079345703125,-0.010833740234375,0.03125
1772563497818678800,3.3166787109375,-0.9925994873046875,-0.012939453125,0.030914306640625
1772563497828746800,3.326746826171875,-0.99298095703125,-0.0122222900390625,0.0319671630859375
1772563497838814700,3.336814697265625,-0.992034912109375,-0.0132293701171875,0.03240966796875
1772563497848884000,3.346884033203125,-0.9913787841796875,-0.014404296875,0.03399658203125
1772563497858951700,3.35695166015625,-0.9917449951171875,-0.0133819580078125,0.0320281982421875
1772563497869019600,3.36701953125,-0.990997314453125,-0.0119171142578125,0.031524658203125
1772563497879087900,3.377087890625,-0.9906158447265625,-0.0128631591796875,0.031646728515625
1772563497889155800,3.38715576171875,-0.9914093017578125,-0.0132598876953125,0.0338134765625
1772563497899223800,3.397223876953125,-0.991607666015625,-0.0123291015625,0.0326690673828125
1772563497909291800,3.407291748046875,-0.9929046630859375,-0.01324462890625,0.03302001953125
1772563497919360000,3.417360107421875,-0.992034912109375,-0.0138092041015625,0.0328216552734375
1772563497929428000,3.427427978515625,-0.991302490234375,-0.012603759765625,0.0324859619140625
1772563497939496700,3.43749658203125,-0.99139404296875,-0.01263427734375,0.031951904296875
1772563497949565000,3.44756494140625,-0.9918365478515625,-0.0115509033203125,0.03314208984375
1772563497959633000,3.4576328125,-0.992462158203125,-0.01385498046875,0.034271240234375
1772563497969700900,3.467700927734375,-0.9924774169921875,-0.0119476318359375,0.0320892333984375
1772563497979768800,3.477768798828125,-0.993560791015625,-0.01214599609375,0.0305633544921875
1772563497989837000,3.487837158203125,-0.9929046630859375,-0.011932373046875,0.0331268310546875
1772563497999904800,3.49790478515625,-0.9905853271484375,-0.0117645263671875,0.0318450927734375
1772563498009972700,3.50797265625,-0.9917449951171875,-0.01263427734375,0.0309600830078125
1772563498020042000,3.5180419921875,-0.990814208984375,-0.0138397216796875,0.0325164794921875
1772563498030110000,3.52810986328125,-0.9928436279296875,-0.012481689453125,0.0331878662109375
1772563498040178000,3.538177978515625,-0.9919281005859375,-0.0133209228515625,0.0328826904296875
1772563498050246000,3.548245849609375,-0.9912567138671875,-0.0123291015625,0.0316619873046875
1772563498060313900,3.55831396484375,-0.9909210205078125,-0.0128173828125,0.0316162109375
1772563498070381800,3.5683818359375,-0.99298095703125,-0.01116943359375,0.0312957763671875
1772563498080449800,3.57844970703125,-0.992889404296875,-0.0125274658203125,0.0320892333984375
1772563498090517800,3.588517822265625,-0.99212646484375,-0.01397705078125,0.031982421875
1772563498100586000,3.5985859375,-0.9908294677734375,-0.0135650634765625,0.0328521728515625
1772563498110654700,3.60865478515625,-0.9915771484375,-0.011383056640625,0.0326080322265625
1772563498120722700,3.61872265625,-0.9916229248046875,-0.0132293701171875,0.03228759765625
1772563498130791000,3.628791015625,-0.991119384765625,-0.0124359130859375,0.0316162109375
1772563498140859000,3.63885888671875,-0.9931640625,-0.0106201171875,0.03033447265625
1772563498150926800,3.6489267578125,-0.9925994873046875,-0.0125274658203125,0.032958984375
1772563498160994800,3.658994873046875,-0.992156982421875,-0.0107879638671875,0.0312042236328125
1772563498171063000,3.66906298828125,-0.991851806640625,-0.013214111328125,0.0329132080078125
1772563498181131000,3.679131103515625,-0.9925689697265625,-0.01348876953125,0.03173828125
1772563498191199700,3.68919970703125,-0.9908599853515625,-0.0117034912109375,0.030731201171875
1772563498201268000,3.69926806640625,-0.99224853515625,-0.0117340087890625,0.0327301025390625
1772563498211336000,3.7093359375,-0.991485595703125,-0.013580322265625,0.031463623046875
1772563498221404000,3.71940380859375,-0.99273681640625,-0.01324462890625,0.0319976806640625
1772563498231471900,3.729471923828125,-0.99053955078125,-0.0133514404296875,0.0323638916015625
1772563498241539800,3.739539794921875,-0.9918975830078125,-0.01434326171875,0.0316314697265625
1772563498251607800,3.74960791015625,-0.99212646484375,-0.0115966796875,0.0323333740234375
1772563498261675800,3.75967578125,-0.9913787841796875,-0.011474609375,0.03173828125
1772563498271743700,3.76974365234375,-0.99151611328125,-0.0140838623046875,0.032989501953125
1772563498281813000,3.77981298828125,-0.991485595703125,-0.0127105712890625,0.03106689453125
1772563498291881000,3.789880859375,-0.9925994873046875,-0.0113372802734375,0.03179931640625
1772563498301948700,3.79994873046875,-0.9914703369140625,-0.0128936767578125,0.0312652587890625
1772563498312017000,3.810016845703125,-0.9913787841796875,-0.0128326416015625,0.0313720703125
1772563498322084900,3.8200849609375,-0.9911651611328125,-0.0121612548828125,0.032440185546875
1772563498332152800,3.83015283203125,-0.99237060546875,-0.012786865234375,0.0303192138671875
1772563498342220800,3.840220703125,-0.992706298828125,-0.0120391845703125,0.0326995849609375
1772563498352289000,3.8502890625,-0.993011474609375,-0.0126800537109375,0.0318603515625
1772563498362357000,3.86035693359375,-0.99261474609375,-0.011749267578125,0.0335693359375
1772563498372425700,3.87042578125,-0.9931488037109375,-0.0111236572265625,0.032196044921875
1772563498382493700,3.88049365234375,-0.99072265625,-0.0114593505859375,0.03094482421875
1772563498392562000,3.89056201171875,-0.9915771484375,-0.0123291015625,0.0312957763671875
1772563498402630000,3.9006298828125,-0.991729736328125,-0.0131378173828125,0.03094482421875
1772563498412697900,3.91069775390625,-0.9918060302734375,-0.013214111328125,0.031982421875
1772563498422765800,3.920765869140625,-0.9927520751953125,-0.0123443603515625,0.0321502685546875
1772563498432833800,3.930833740234375,-0.9918365478515625,-0.01226806640625,0.031951904296875
1772563498442901800,3.94090185546875,-0.992462158203125,-0.01409912109375,0.0336151123046875
1772563498452970800,3.950970703125,-0.992156982421875,-0.0146331787109375,0.0320587158203125
1772563498463039000,3.9610390625,-0.990997314453125,-0.01275634765625,0.0311431884765625
1772563498473107000,3.97110693359375,-0.991058349609375,-0.011932373046875,0.032318115234375
1772563498483175000,3.9811748046875,-0.991943359375,-0.0119171142578125,0.030059814453125
1772563498493242600,3.99124267578125,-0.9925384521484375,-0.0126953125,0.032135009765625
1772563498503310800,4.001310791015625,-0.9933013916015625,-0.0140380859375,0.0317230224609375
1772563498513378800,4.01137890625,-0.99151611328125,-0.0136260986328125,0.0313568115234375
1772563498523446800,4.02144677734375,-0.992767333984375,-0.013031005859375,0.032257080078125
1772563498533514800,4.0315146484375,-0.9921417236328125,-0.011627197265625,0.033447265625
1772563498543583700,4.041583740234375,-0.991485595703125,-0.01220703125,0.032012939453125
1772563498553651700,4.051651611328125,-0.9921112060546875,-0.0133819580078125,0.0316619873046875
1772563498563719700,4.0617197265625,-0.99139404296875,-0.0124969482421875,0.0315399169921875
1772563498573787600,4.07178759765625,-0.9898529052734375,-0.0131683349609375,0.031585693359375
1772563498583855600,4.081855712890625,-0.9917755126953125,-0.0136260986328125,0.0332794189453125
1772563498593923800,4.091923828125,-0.991455078125,-0.0119781494140625,0.0320587158203125
1772563498603991800,4.10199169921875,-0.99163818359375,-0.0125732421875,0.0313873291015625
1772563498614059800,4.112059814453125,-0.9920501708984375,-0.0124969482421875,0.0318145751953125
1772563498624127700,4.122127685546875,-0.99127197265625,-0.0123748779296875,0.0319976806640625
1772563498634196700,4.13219677734375,-0.991058349609375,-0.011810302734375,0.0322265625
1772563498644264700,4.1422646484375,-0.990997314453125,-0.013885498046875,0.0333251953125
1772563498654332700,4.152332763671875,-0.99188232421875,-0.011810302734375,0.0330810546875
1772563498664401000,4.16240087890625,-0.991790771484375,-0.012176513671875,0.030670166015625
1772563498674468900,4.17246875,-0.9923248291015625,-0.011993408203125,0.03265380859375
1772563498684536600,4.18253662109375,-0.991058349609375,-0.012847900390625,0.0325775146484375
1772563498694604500,4.1926044921875,-0.9913177490234375,-0.0120086669921875,0.03228759765625
1772563498704672800,4.2026728515625,-0.992889404296875,-0.01202392578125,0.0317535400390625
1772563498714741800,4.21274169921875,-0.99237060546875,-0.01202392578125,0.032470703125
1772563498724809700,4.222809814453125,-0.99267578125,-0.0131683349609375,0.0319366455078125
1772563498734878000,4.2328779296875,-0.9924163818359375,-0.0127410888671875,0.03271484375
1772563498744945700,4.242945556640625,-0.9923095703125,-0.01239013671875,0.032379150390625
1772563498755013600,4.253013671875,-0.992828369140625,-0.012359619140625,0.0301055908203125
1772563498765081600,4.26308154296875,-0.991851806640625,-0.0119171142578125,0.032318115234375
1772563498775149800,4.27314990234375,-0.9907684326171875,-0.0120086669921875,0.032806396484375
1772563498785217800,4.2832177734375,-0.9919586181640625,-0.0121307373046875,0.0313873291015625
1772563498795285800,4.29328564453125,-0.9916839599609375,-0.0129852294921875,0.0312042236328125
1772563498805354800,4.303354736328125,-0.99212646484375,-0.01251220703125,0.032745361328125
1772563498815422700,4.313422607421875,-0.9915313720703125,-0.0121917724609375,0.03106689453125
1772563498825490700,4.32349072265625,-0.9917755126953125,-0.01226806640625,0.03131103515625
1772563498835558700,4.33355859375,-0.9920196533203125,-0.0106048583984375,0.0310211181640625
1772563498845627000,4.343626953125,-0.99127197265625,-0.012725830078125,0.0318145751953125
1772563498855694800,4.35369482421875,-0.9908294677734375,-0.014892578125,0.03277587890625
1772563498865762800,4.3637626953125,-0.9934539794921875,-0.01263427734375,0.032928466796875
1772563498875830500,4.37383056640625,-0.992156982421875,-0.0116424560546875,0.030364990234375
1772563498885898800,4.383898681640625,-0.991546630859375,-0.012298583984375,0.03033447265625
1772563498895967700,4.3939677734375,-0.990447998046875,-0.0138702392578125,0.0313568115234375
1772563498906035700,4.40403564453125,-0.9926605224609375,-0.0135498046875,0.031219482421875
1772563498916104000,4.41410400390625,-0.9916839599609375,-0.0121612548828125,0.03021240234375
1772563498926172000,4.424171875,-0.99090576171875,-0.0110321044921875,0.0323486328125
1772563498936239600,4.434239501953125,-0.9911041259765625,-0.0128326416015625,0.0308837890625
1772563498946307600,4.4443076171875,-0.9921417236328125,-0.0140380859375,0.03125
1772563498956375800,4.454375732421875,-0.9918365478515625,-0.012939453125,0.0314178466796875
1772563498966443800,4.46444384765625,-0.9913482666015625,-0.0128021240234375,0.03118896484375
1772563498976511700,4.47451171875,-0.9915313720703125,-0.0132904052734375,0.0317535400390625
1772563498986580700,4.484580810546875,-0.9918365478515625,-0.0111541748046875,0.03338623046875
1772563498996648700,4.494648681640625,-0.9912872314453125,-0.013427734375,0.0322723388671875
1772563499006716700,4.504716552734375,-0.993743896484375,-0.0125885009765625,0.0329132080078125
1772563499016784600,4.51478466796875,-0.9915771484375,-0.01141357421875,0.03216552734375
1772563499026852600,4.5248525390625,-0.9907379150390625,-0.01361083984375,0.0340423583984375
1772563499036920800,4.5349208984375,-0.991607666015625,-0.010772705078125,0.0347900390625
1772563499046988800,4.54498876953125,-0.991302490234375,-0.0104217529296875,0.0318145751953125
1772563499057056800,4.555056884765625,-0.9917144775390625,-0.0115814208984375,0.0328369140625
1772563499067124700,4.565124755859375,-0.9936981201171875,-0.0121917724609375,0.0318603515625
1772563499077193700,4.57519384765625,-0.9917144775390625,-0.012176513671875,0.0334625244140625
1772563499087261700,4.58526171875,-0.992279052734375,-0.0125732421875,0.031951904296875
1772563499097329700,4.59532958984375,-0.9935150146484375,-0.01275634765625,0.0340118408203125
1772563499107398000,4.60539794921875,-0.9920654296875,-0.0110321044921875,0.03436279296875
1772563499117465900,4.6154658203125,-0.9917755126953125,-0.01226806640625,0.0323333740234375
1772563499127533600,4.625533447265625,-0.9918212890625,-0.013214111328125,0.02960205078125
1772563499137601500,4.6356015625,-0.9910888671875,-0.0126800537109375,0.033782958984375
1772563499147669800,4.645669677734375,-0.990753173828125,-0.0130615234375,0.031463623046875
1772563499157737700,4.65573779296875,-0.991912841796875,-0.01214599609375,0.033203125
1772563499167806700,4.665806640625,-0.99322509765625,-0.0133209228515625,0.032257080078125
1772563499177874700,4.675874755859375,-0.9918212890625,-0.0121002197265625,0.0314483642578125
1772563499187942700,4.685942626953125,-0.9912567138671875,-0.012603759765625,0.032501220703125
1772563499198010600,4.6960107421875,-0.9911956787109375,-0.0138397216796875,0.0323486328125
1772563499208078600,4.70607861328125,-0.9928131103515625,-0.01239013671875,0.0320281982421875
1772563499218146800,4.716146728515625,-0.99261474609375,-0.0141754150390625,0.03070068359375
1772563499228214800,4.72621484375,-0.9921112060546875,-0.0129547119140625,0.0308837890625
1772563499238282800,4.73628271484375,-0.9929351806640625,-0.013031005859375,0.0315093994140625
1772563499248351700,4.746351806640625,-0.9937744140625,-0.0133514404296875,0.0324249267578125
1772563499258419700,4.756419677734375,-0.9920196533203125,-0.013031005859375,0.031158447265625
1772563499268487700,4.76648779296875,-0.9917755126953125,-0.014007568359375,0.03057861328125
1772563499278555600,4.7765556640625,-0.9928741455078125,-0.01348876953125,0.03302001953125
1772563499288623900,4.786623779296875,-0.9920196533203125,-0.0125885009765625,0.0325164794921875
1772563499298691800,4.79669189453125,-0.9919586181640625,-0.0130615234375,0.0324554443359375
1772563499308759800,4.806759765625,-0.990692138671875,-0.013336181640625,0.0310211181640625
1772563499318826800,4.81682666015625,-0.9932861328125,-0.0125579833984375,0.030181884765625
1772563499328894700,4.826894775390625,-0.9905548095703125,-0.0120697021484375,0.0325164794921875
1772563499338962700,4.836962646484375,-0.99249267578125,-0.012908935546875,0.03204345703125
1772563499349030700,4.84703076171875,-0.991912841796875,-0.0122528076171875,0.03240966796875
1772563499359098600,4.8570986328125,-0.9912567138671875,-0.0118865966796875,0.0318603515625
1772563499369166600,4.86716650390625,-0.990509033203125,-0.01287841796875,0.0320587158203125
1772563499379234800,4.87723486328125,-0.9918365478515625,-0.0128326416015625,0.0329742431640625
1772563499389303800,4.8873037109375,-0.9936676025390625,-0.0128173828125,0.0326385498046875
1772563499399371500,4.89737158203125,-0.9918060302734375,-0.0113677978515625,0.0319671630859375
1772563499409439700,4.907439697265625,-0.9923248291015625,-0.0123443603515625,0.0306243896484375
1772563499419507700,4.9175078125,-0.993255615234375,-0.013153076171875,0.0344085693359375
1772563499429575700,4.92757568359375,-0.9935150146484375,-0.014129638671875,0.0334014892578125
1772563499439643600,4.9376435546875,-0.992034912109375,-0.01153564453125,0.0301971435546875
1772563499449711900,4.9477119140625,-0.991546630859375,-0.011932373046875,0.031646728515625
1772563499459779800,4.95777978515625,-0.9898681640625,-0.0116729736328125,0.0329742431640625
1772563499469847600,4.96784765625,-0.9916229248046875,-0.012786865234375,0.032501220703125
1772563499479916800,4.977916748046875,-0.9913787841796875,-0.0131683349609375,0.033203125
1772563499489984800,4.98798486328125,-0.9925079345703125,-0.0130615234375,0.0307159423828125
1772563499500052700,4.998052734375,-0.993988037109375,-0.0130462646484375,0.0306396484375
1772563499510120700,5.00812060546875,-0.9928436279296875,-0.0115966796875,0.032318115234375
1772563499520189000,5.01818896484375,-0.992034912109375,-0.012603759765625,0.031982421875
1772563499530256600,5.028256591796875,-0.9925537109375,-0.0118408203125,0.0320587158203125
1772563499540324900,5.038324951171875,-0.9926605224609375,-0.011627197265625,0.0310211181640625
1772563499550392800,5.048392822265625,-0.9913787841796875,-0.0121612548828125,0.032135009765625
1772563499560460800,5.058460693359375,-0.9930267333984375,-0.012237548828125,0.031494140625
1772563499570530000,5.068530029296875,-0.99200439453125,-0.0136871337890625,0.032135009765625
1772563499580597800,5.07859765625,-0.9916534423828125,-0.014801025390625,0.0321044921875
1772563499590665700,5.088665771484375,-0.9911346435546875,-0.011871337890625,0.0311737060546875
1772563499600733700,5.098733642578125,-0.991180419921875,-0.012176513671875,0.0308380126953125
1772563499610802000,5.108802001953125,-0.9925994873046875,-0.013885498046875,0.0339813232421875
1772563499620870000,5.118869873046875,-0.9915008544921875,-0.01275634765625,0.03125
1772563499630937900,5.128937744140625,-0.990814208984375,-0.0113372802734375,0.031951904296875
1772563499641005800,5.139005859375,-0.990447998046875,-0.0121002197265625,0.0312652587890625
1772563499651074000,5.149073974609375,-0.99267578125,-0.0125274658203125,0.03125
1772563499661142800,5.159142822265625,-0.991424560546875,-0.0126190185546875,0.032318115234375
1772563499671210800,5.169210693359375,-0.9907684326171875,-0.011199951171875,0.03204345703125
1772563499681279000,5.179279052734375,-0.9910888671875,-0.0115509033203125,0.030975341796875
1772563499691347000,5.189346923828125,-0.990509033203125,-0.0123291015625,0.0312347412109375
1772563499701415000,5.199414794921875,-0.9905853271484375,-0.0128021240234375,0.030853271484375
1772563499711484000,5.20948388671875,-0.99200439453125,-0.0117340087890625,0.0325927734375
1772563499721552000,5.2195517578125,-0.99114990234375,-0.0125885009765625,0.0321807861328125
1772563499731619800,5.229619873046875,-0.9932098388671875,-0.0128173828125,0.0329742431640625
1772563499741687800,5.239687744140625,-0.9906463623046875,-0.013458251953125,0.03173828125
1772563499751756800,5.2497568359375,-0.99066162109375,-0.013031005859375,0.0338897705078125
1772563499761824800,5.25982470703125,-0.9922332763671875,-0.0128173828125,0.032958984375
1772563499771892700,5.269892822265625,-0.9906158447265625,-0.0130615234375,0.03240966796875
1772563499781961000,5.2799609375,-0.992950439453125,-0.0131378173828125,0.032928466796875
1772563499792029000,5.29002880859375,-0.992340087890625,-0.012908935546875,0.0322265625
1772563499802097000,5.300096923828125,-0.9922943115234375,-0.0131988525390625,0.0310821533203125
1772563499812164900,5.310164794921875,-0.9914093017578125,-0.0114288330078125,0.0312042236328125
1772563499822233000,5.320233154296875,-0.9906768798828125,-0.0120697021484375,0.0308990478515625
1772563499832300800,5.33030078125,-0.992889404296875,-0.0129852294921875,0.0335693359375
1772563499842369800,5.340369873046875,-0.9919586181640625,-0.01275634765625,0.0319366455078125
1772563499852437800,5.350437744140625,-0.9913177490234375,-0.01287841796875,0.0329742431640625
1772563499862506000,5.360506103515625,-0.992950439453125,-0.0124969482421875,0.033203125
1772563499872574000,5.370573974609375,-0.9928741455078125,-0.0137786865234375,0.0314483642578125
1772563499882642000,5.380641845703125,-0.99078369140625,-0.010833740234375,0.031341552734375
1772563499892709600,5.390709716796875,-0.9921875,-0.01123046875,0.03253173828125
1772563499902777900,5.40077783203125,-0.991607666015625,-0.01214599609375,0.0316925048828125
1772563499912845800,5.410845703125,-0.9913330078125,-0.013397216796875,0.0315093994140625
1772563499922913800,5.420913818359375,-0.9916229248046875,-0.0121917724609375,0.0321044921875
1772563499932983000,5.430983154296875,-0.99005126953125,-0.011749267578125,0.03125
1772563499943050800,5.44105078125,-0.9897613525390625,-0.0124969482421875,0.032257080078125
1772563499953118700,5.45111865234375,-0.991943359375,-0.0129547119140625,0.0317840576171875
1772563499963186700,5.461186767578125,-0.9913330078125,-0.0104827880859375,0.0311279296875
1772563499973255000,5.4712548828125,-0.9908905029296875,-0.01263427734375,0.031890869140625
1772563499983323000,5.481322998046875,-0.9907073974609375,-0.012237548828125,0.0318145751953125
1772563499993390800,5.491390869140625,-0.9915313720703125,-0.012847900390625,0.0322723388671875
1772563500003458800,5.501458740234375,-0.992828369140625,-0.0125885009765625,0.0315704345703125
1772563500013527000,5.511527099609375,-0.9909515380859375,-0.0123443603515625,0.0327911376953125
1772563500023595800,5.521595703125,-0.9930877685546875,-0.01177978515625,0.0313873291015625
1772563500033663700,5.531663818359375,-0.9933624267578125,-0.0117034912109375,0.0315704345703125
1772563500043732000,5.54173193359375,-0.9910736083984375,-0.0134735107421875,0.031219482421875
1772563500053800000,5.551800048828125,-0.9919281005859375,-0.013275146484375,0.0330657958984375
1772563500063868000,5.561867919921875,-0.9917755126953125,-0.01385498046875,0.0316314697265625
1772563500073936000,5.571935791015625,-0.9925384521484375,-0.0139007568359375,0.0312957763671875
1772563500084003800,5.58200390625,-0.992156982421875,-0.0118408203125,0.031829833984375
1772563500094071800,5.59207177734375,-0.9930572509765625,-0.01177978515625,0.03143310546875
1772563500104139800,5.602139892578125,-0.99090576171875,-0.013702392578125,0.03045654296875
1772563500114209000,5.612208984375,-0.9908294677734375,-0.0123138427734375,0.030731201171875
1772563500124277000,5.622277099609375,-0.99310302734375,-0.012359619140625,0.0310211181640625
1772563500134344700,5.6323447265625,-0.9928131103515625,-0.0109100341796875,0.0322113037109375
1772563500144412700,5.64241259765625,-0.992462158203125,-0.0113983154296875,0.032379150390625
1772563500154481000,5.65248095703125,-0.9915313720703125,-0.013092041015625,0.03155517578125
1772563500164548900,5.662548828125,-0.989715576171875,-0.011444091796875,0.0313262939453125
1772563500174616800,5.672616943359375,-0.9928436279296875,-0.012542724609375,0.0322113037109375
1772563500184684800,5.682684814453125,-0.992095947265625,-0.0135040283203125,0.0330047607421875
1772563500194753000,5.6927529296875,-0.991180419921875,-0.012451171875,0.032379150390625
1772563500204821800,5.70282177734375,-0.9916839599609375,-0.012420654296875,0.0321197509765625
1772563500214889700,5.7128896484375,-0.9900360107421875,-0.0126953125,0.0325927734375
1772563500224958000,5.7229580078125,-0.99139404296875,-0.0126190185546875,0.0322723388671875
1772563500235026000,5.73302587890625,-0.990020751953125,-0.01263427734375,0.0311126708984375
1772563500245094000,5.743093994140625,-0.992401123046875,-0.0141448974609375,0.0315093994140625
1772563500255161900,5.753161865234375,-0.991851806640625,-0.0135040283203125,0.0324249267578125
1772563500265229800,5.763229736328125,-0.9927520751953125,-0.0126495361328125,0.031768798828125
1772563500275297800,5.7732978515625,-0.99285888671875,-0.0125885009765625,0.0322723388671875
1772563500285365800,5.78336572265625,-0.9907379150390625,-0.01287841796875,0.0314178466796875
1772563500295435000,5.79343505859375,-0.990997314453125,-0.0129241943359375,0.031585693359375
1772563500305503000,5.8035029296875,-0.99127197265625,-0.0130615234375,0.0325927734375
1772563500315571000,5.813571044921875,-0.9907684326171875,-0.012359619140625,0.0308837890625
1772563500325638700,5.823638671875,-0.9927215576171875,-0.0130767822265625,0.0301666259765625
1772563500335707000,5.833706787109375,-0.99139404296875,-0.0128936767578125,0.0337371826171875
1772563500345774800,5.84377490234375,-0.991607666015625,-0.0111083984375,0.0333404541015625
1772563500355842800,5.8538427734375,-0.9931793212890625,-0.0136566162109375,0.0326385498046875
1772563500365910800,5.863910888671875,-0.991851806640625,-0.011627197265625,0.03204345703125
1772563500375979000,5.87397900390625,-0.99102783203125,-0.01116943359375,0.031707763671875
1772563500386047000,5.884046875,-0.9916534423828125,-0.0134735107421875,0.0326995849609375
1772563500396115700,5.89411572265625,-0.99285888671875,-0.012176513671875,0.031951904296875
1772563500406184000,5.904183837890625,-0.9916229248046875,-0.0121917724609375,0.0311126708984375
1772563500416252000,5.914251953125,-0.9927520751953125,-0.012939453125,0.0308990478515625
1772563500426320000,5.92431982421875,-0.993316650390625,-0.0117950439453125,0.0311126708984375
1772563500436387800,5.934387939453125,-0.9919891357421875,-0.013031005859375,0.0307464599609375
1772563500446456000,5.9444560546875,-0.9918975830078125,-0.0117645263671875,0.0315399169921875
1772563500456523800,5.954523681640625,-0.9913330078125,-0.0130767822265625,0.0312957763671875
1772563500466591700,5.964591796875,-0.9912109375,-0.0125274658203125,0.0321197509765625
1772563500476661000,5.974660888671875,-0.99102783203125,-0.0113983154296875,0.0320892333984375
1772563500486729000,5.98472900390625,-0.9913330078125,-0.0114898681640625,0.0306854248046875
1772563500496797000,5.994796875,-0.9894256591796875,-0.013153076171875,0.0318756103515625
1772563500506865000,6.004864990234375,-0.993011474609375,-0.012908935546875,0.031463623046875
1772563500516932900,6.014932861328125,-0.9918365478515625,-0.01336669921875,0.03143310546875
1772563500527000800,6.025000732421875,-0.9905242919921875,-0.0133209228515625,0.0316925048828125
1772563500537067800,6.03506787109375,-0.9903411865234375,-0.0128021240234375,0.0317535400390625
1772563500547135700,6.0451357421875,-0.9925689697265625,-0.0120849609375,0.03118896484375
1772563500557203700,6.05520361328125,-0.9932708740234375,-0.01153564453125,0.0317535400390625
1772563500567271700,6.065271728515625,-0.9906005859375,-0.0118255615234375,0.0318603515625
1772563500577341000,6.0753408203125,-0.9922943115234375,-0.0113983154296875,0.03179931640625
1772563500587409000,6.085408935546875,-0.9913787841796875,-0.0120849609375,0.0326690673828125
1772563500597476600,6.0954765625,-0.990936279296875,-0.0140533447265625,0.031341552734375
1772563500607544600,6.105544677734375,-0.9915313720703125,-0.012237548828125,0.031585693359375
1772563500617612800,6.11561279296875,-0.9933319091796875,-0.012847900390625,0.0309906005859375
1772563500627680800,6.1256806640625,-0.9916534423828125,-0.0135345458984375,0.0323944091796875
1772563500637748700,6.135748779296875,-0.99212646484375,-0.0121917724609375,0.0318603515625
1772563500647816700,6.145816650390625,-0.9927215576171875,-0.0133514404296875,0.03271484375
1772563500657885000,6.155885009765625,-0.992034912109375,-0.012237548828125,0.031005859375
1772563500667953700,6.16595361328125,-0.9923553466796875,-0.012908935546875,0.0324554443359375
1772563500678021600,6.176021728515625,-0.992431640625,-0.0133514404296875,0.03253173828125
1772563500688089900,6.18608984375,-0.9925079345703125,-0.0127105712890625,0.033050537109375
1772563500698157800,6.19615771484375,-0.991302490234375,-0.0128326416015625,0.033477783203125
1772563500708225800,6.206225830078125,-0.9899749755859375,-0.01361083984375,0.0325164794921875
1772563500718293800,6.216293701171875,-0.99151611328125,-0.0117645263671875,0.0329132080078125
1772563500728361700,6.22636181640625,-0.9915618896484375,-0.0112457275390625,0.0310211181640625
1772563500738429700,6.2364296875,-0.991485595703125,-0.0118408203125,0.03253173828125
1772563500748497700,6.24649755859375,-0.9914093017578125,-0.011077880859375,0.032318115234375
1772563500758567000,6.25656689453125,-0.9926910400390625,-0.011627197265625,0.0315093994140625
1772563500768635000,6.266634765625,-0.99200439453125,-0.01177978515625,0.033203125
1772563500778702800,6.276702880859375,-0.991668701171875,-0.012298583984375,0.032867431640625
1772563500788770600,6.2867705078125,-0.992645263671875,-0.0115509033203125,0.033538818359375
1772563500798838800,6.2968388671875,-0.9917144775390625,-0.0125885009765625,0.031951904296875
1772563500808906800,6.30690673828125,-0.99200439453125,-0.0144195556640625,0.030975341796875
1772563500818974700,6.316974609375,-0.9920196533203125,-0.014251708984375,0.03216552734375
1772563500829042700,6.327042724609375,-0.9930877685546875,-0.012298583984375,0.0319671630859375
1772563500839111000,6.33711083984375,-0.9923248291015625,-0.012969970703125,0.031158447265625
1772563500849179600,6.3471796875,-0.990020751953125,-0.01239013671875,0.0324249267578125
1772563500859247600,6.35724755859375,-0.9909820556640625,-0.012725830078125,0.02978515625
1772563500869315800,6.36731591796875,-0.99163818359375,-0.012725830078125,0.031768798828125
1772563500879383800,6.3773837890625,-0.993621826171875,-0.0123443603515625,0.0305023193359375
1772563500889451800,6.38745166015625,-0.9904937744140625,-0.01129150390625,0.0319366455078125
1772563500899519700,6.397519775390625,-0.9919891357421875,-0.012359619140625,0.0313720703125
1772563500909588000,6.407587890625,-0.99212646484375,-0.01214599609375,0.03143310546875
1772563500919655700,6.41765576171875,-0.9929046630859375,-0.0130157470703125,0.031280517578125
1772563500929723600,6.4277236328125,-0.9924774169921875,-0.01226806640625,0.0312347412109375
1772563500939793000,6.43779296875,-0.9916229248046875,-0.0125579833984375,0.032745361328125
1772563500949860900,6.44786083984375,-0.9927825927734375,-0.0127716064453125,0.032501220703125
1772563500959928800,6.4579287109375,-0.991058349609375,-0.0131072998046875,0.0334320068359375
1772563500969996800,6.467996826171875,-0.9920806884765625,-0.0133056640625,0.031341552734375
1772563500980064800,6.478064697265625,-0.9927215576171875,-0.01397705078125,0.0317840576171875
1772563500990132700,6.4881328125,-0.9925079345703125,-0.01275634765625,0.031585693359375
1772563501000200700,6.49820068359375,-0.9920654296875,-0.0122833251953125,0.031890869140625
1772563501010268700,6.5082685546875,-0.9938507080078125,-0.0133056640625,0.0320587158203125
1772563501020337000,6.5183369140625,-0.990234375,-0.012420654296875,0.0328521728515625
1772563501030405600,6.528405517578125,-0.9925384521484375,-0.0130615234375,0.0323944091796875
1772563501040473600,6.5384736328125,-0.991180419921875,-0.013092041015625,0.0299224853515625
1772563501050541800,6.548541748046875,-0.9904022216796875,-0.012542724609375,0.03118896484375
1772563501060609800,6.55860986328125,-0.9907989501953125,-0.0146484375,0.0323944091796875
1772563501070677800,6.568677734375,-0.99176025390625,-0.01422119140625,0.032989501953125
1772563501080745700,6.578745849609375,-0.9921417236328125,-0.012359619140625,0.0321807861328125
1772563501090814000,6.58881396484375,-0.991851806640625,-0.01336669921875,0.031494140625
1772563501100882000,6.5988818359375,-0.9918212890625,-0.0138702392578125,0.029998779296875
1772563501110949600,6.60894970703125,-0.9924163818359375,-0.012725830078125,0.0318450927734375
1772563501121018600,6.6190185546875,-0.9931182861328125,-0.0129547119140625,0.031219482421875
1772563501131086800,6.6290869140625,-0.9913482666015625,-0.012115478515625,0.032745361328125
1772563501141154800,6.63915478515625,-0.9908905029296875,-0.01312255859375,0.032440185546875
1772563501151222800,6.649222900390625,-0.991790771484375,-0.0132293701171875,0.0322265625
1772563501161291000,6.659291015625,-0.9903106689453125,-0.012542724609375,0.031494140625
1772563501171358700,6.669358642578125,-0.9917144775390625,-0.0118255615234375,0.03399658203125
1772563501181426700,6.6794267578125,-0.9910736083984375,-0.0128173828125,0.031829833984375
1772563501191494700,6.68949462890625,-0.9921722412109375,-0.0123138427734375,0.031982421875
1772563501201563000,6.69956298828125,-0.99249267578125,-0.010650634765625,0.033447265625
1772563501211630800,6.709630859375,-0.992401123046875,-0.01123046875,0.0330963134765625
1772563501221699800,6.719699951171875,-0.9913482666015625,-0.01324462890625,0.033599853515625
1772563501231767600,6.729767578125,-0.9910125732421875,-0.012603759765625,0.0320587158203125
1772563501241835800,6.739835693359375,-0.9913177490234375,-0.0119171142578125,0.032135009765625
1772563501251903700,6.74990380859375,-0.9919281005859375,-0.01165771484375,0.0315704345703125
1772563501261971700,6.7599716796875,-0.9917449951171875,-0.0130157470703125,0.029876708984375
1772563501272039700,6.770039794921875,-0.9915771484375,-0.0119171142578125,0.0316925048828125
1772563501282108000,6.78010791015625,-0.9933319091796875,-0.012908935546875,0.0301513671875
1772563501292176000,6.79017578125,-0.9918060302734375,-0.012786865234375,0.032623291015625
1772563501302243600,6.80024365234375,-0.992156982421875,-0.0118255615234375,0.0329742431640625
1772563501312312800,6.810312744140625,-0.990936279296875,-0.0125579833984375,0.0331573486328125
1772563501322380800,6.820380859375,-0.9905242919921875,-0.012725830078125,0.0321502685546875
1772563501332448800,6.83044873046875,-0.9920654296875,-0.0120849609375,0.03094482421875
1772563501342516700,6.840516845703125,-0.992431640625,-0.0126495361328125,0.0308837890625
1772563501352585000,6.8505849609375,-0.99359130859375,-0.0125579833984375,0.03228759765625
1772563501362652700,6.860652587890625,-0.99249267578125,-0.0131683349609375,0.0321807861328125
1772563501372720600,6.870720703125,-0.991058349609375,-0.0129852294921875,0.030517578125
1772563501382788600,6.88078857421875,-0.991546630859375,-0.0127105712890625,0.0304412841796875
1772563501392856800,6.89085693359375,-0.9923095703125,-0.012786865234375,0.030670166015625
1772563501402925800,6.90092578125,-0.992340087890625,-0.0122222900390625,0.032867431640625
1772563501412993800,6.910993896484375,-0.9918975830078125,-0.0120697021484375,0.0319976806640625
1772563501423061800,6.921061767578125,-0.992431640625,-0.01409912109375,0.0320587158203125
1772563501433129700,6.931129638671875,-0.9918670654296875,-0.0124969482421875,0.0318603515625
1772563501443197700,6.94119775390625,-0.991607666015625,-0.0122528076171875,0.0329132080078125
1772563501453265700,6.951265625,-0.99151611328125,-0.013336181640625,0.031707763671875
1772563501463334000,6.961333984375,-0.99102783203125,-0.013153076171875,0.030181884765625
1772563501473401900,6.97140185546875,-0.99017333984375,-0.0136260986328125,0.0315093994140625
1772563501483469800,6.9814697265625,-0.992950439453125,-0.01287841796875,0.0305023193359375
1772563501493538800,6.991538818359375,-0.9932098388671875,-0.0115966796875,0.0325927734375
1772563501503606800,7.001606689453125,-0.99200439453125,-0.0131072998046875,0.031005859375
1772563501513674800,7.0116748046875,-0.99237060546875,-0.01348876953125,0.0311126708984375
1772563501523742700,7.02174267578125,-0.9933929443359375,-0.012664794921875,0.0307769775390625
1772563501533811000,7.03181103515625,-0.991943359375,-0.01336669921875,0.0318603515625
1772563501543879000,7.04187890625,-0.9930877685546875,-0.0132293701171875,0.0313568115234375
1772563501553947000,7.05194677734375,-0.991973876953125,-0.0134735107421875,0.030914306640625
1772563501564014800,7.062014892578125,-0.99090576171875,-0.0128936767578125,0.03033447265625
1772563501574082800,7.072082763671875,-0.99072265625,-0.012115478515625,0.0313873291015625
1772563501584150800,7.08215087890625,-0.9905853271484375,-0.0120086669921875,0.0318603515625
1772563501594220000,7.092219970703125,-0.9912872314453125,-0.0127716064453125,0.031036376953125
1772563501604287700,7.102287841796875,-0.9928741455078125,-0.012847900390625,0.03125
1772563501614355700,7.112355712890625,-0.9913787841796875,-0.013214111328125,0.032958984375
1772563501624424000,7.122423828125,-0.9929046630859375,-0.0130615234375,0.0299224853515625
1772563501634492000,7.132491943359375,-0.992462158203125,-0.01312255859375,0.031463623046875
1772563501644560000,7.142559814453125,-0.990692138671875,-0.012939453125,0.0319671630859375
1772563501654627800,7.1526279296875,-0.9920501708984375,-0.0131072998046875,0.032684326171875
1772563501664696000,7.162696044921875,-0.9910430908203125,-0.0119476318359375,0.032440185546875
1772563501674764000,7.172763916015625,-0.991424560546875,-0.01373291015625,0.032135009765625
1772563501684832800,7.182832763671875,-0.9925689697265625,-0.012542724609375,0.0325775146484375
1772563501694901000,7.19290087890625,-0.9923553466796875,-0.013397216796875,0.03228759765625
1772563501704969000,7.202968994140625,-0.9929962158203125,-0.01165771484375,0.0332489013671875
1772563501715037000,7.213036865234375,-0.9919586181640625,-0.011077880859375,0.0315399169921875
1772563501725105000,7.22310498046875,-0.99114990234375,-0.012054443359375,0.0320892333984375
1772563501735172900,7.2331728515625,-0.9926605224609375,-0.01220703125,0.031494140625
1772563501745240800,7.24324072265625,-0.993011474609375,-0.0130615234375,0.0326385498046875
1772563501755308800,7.253308837890625,-0.99127197265625,-0.0114898681640625,0.0325775146484375
1772563501765376800,7.263376708984375,-0.9930572509765625,-0.0117645263671875,0.0313262939453125
1772563501775446000,7.273446044921875,-0.991546630859375,-0.0123443603515625,0.0319976806640625
1772563501785514000,7.283513916015625,-0.99072265625,-0.0133056640625,0.033294677734375
1772563501795581700,7.293581787109375,-0.990814208984375,-0.013519287109375,0.032501220703125
1772563501805650000,7.30364990234375,-0.9917755126953125,-0.013275146484375,0.0324859619140625
1772563501815718000,7.3137177734375,-0.9904632568359375,-0.01300048828125,0.0315093994140625
1772563501825785900,7.323785888671875,-0.992034912109375,-0.01373291015625,0.031890869140625
1772563501835853800,7.333853759765625,-0.9924774169921875,-0.012359619140625,0.0312652587890625
1772563501845922000,7.343922119140625,-0.991973876953125,-0.0118255615234375,0.0311126708984375
1772563501855990000,7.353989990234375,-0.9900970458984375,-0.0132293701171875,0.033111572265625
1772563501866058000,7.36405810546875,-0.991485595703125,-0.01251220703125,0.03338623046875
1772563501876127000,7.374126953125,-0.99200439453125,-0.01171875,0.030792236328125
1772563501886195000,7.38419482421875,-0.9937591552734375,-0.0120391845703125,0.031280517578125
1772563501896263000,7.394262939453125,-0.9918975830078125,-0.0120086669921875,0.0316009521484375
1772563501906331000,7.404330810546875,-0.9918365478515625,-0.0129852294921875,0.0313262939453125
1772563501916399000,7.414399169921875,-0.991180419921875,-0.0136260986328125,0.0324249267578125
1772563501926466800,7.424466796875,-0.9926605224609375,-0.0123748779296875,0.0317230224609375
1772563501936534800,7.43453466796875,-0.9923095703125,-0.012359619140625,0.0319671630859375
1772563501946602800,7.444602783203125,-0.9904022216796875,-0.013641357421875,0.0325164794921875
1772563501956671000,7.4546708984375,-0.992706298828125,-0.01141357421875,0.0313873291015625
1772563501966740000,7.464739990234375,-0.9920654296875,-0.012359619140625,0.0328521728515625
1772563501976808000,7.474807861328125,-0.9914703369140625,-0.0110015869140625,0.0326995849609375
1772563501986876000,7.4848759765625,-0.9918365478515625,-0.0129547119140625,0.031951904296875
1772563501996944000,7.49494384765625,-0.99334716796875,-0.011962890625,0.031524658203125
1772563502007011800,7.50501171875,-0.992919921875,-0.0120086669921875,0.032623291015625
1772563502017079800,7.515079833984375,-0.9930267333984375,-0.0122222900390625,0.032318115234375
1772563502027148000,7.52514794921875,-0.991363525390625,-0.01171875,0.03204345703125
1772563502037216000,7.535216064453125,-0.990966796875,-0.012847900390625,0.03271484375
1772563502047284000,7.545283935546875,-0.991546630859375,-0.012176513671875,0.032379150390625
1772563502057352700,7.555352783203125,-0.9915008544921875,-0.011627197265625,0.0313720703125
1772563502067421000,7.5654208984375,-0.9911346435546875,-0.0125732421875,0.0326080322265625
1772563502077489000,7.575489013671875,-0.991790771484375,-0.012908935546875,0.0323944091796875
1772563502087556900,7.585556884765625,-0.9925384521484375,-0.013031005859375,0.0318756103515625
1772563502097624800,7.595624755859375,-0.991485595703125,-0.0141143798828125,0.0320892333984375
1772563502107693000,7.605693115234375,-0.991180419921875,-0.0142974853515625,0.0310516357421875
1772563502117761000,7.615760986328125,-0.9924163818359375,-0.0130615234375,0.03131103515625
1772563502127828700,7.625828857421875,-0.9923858642578125,-0.01287841796875,0.0311737060546875
1772563502137896700,7.635896728515625,-0.9925079345703125,-0.01312255859375,0.0317840576171875
1772563502147965000,7.64596484375,-0.9899139404296875,-0.012969970703125,0.032318115234375
1772563502158034000,7.656033935546875,-0.9913482666015625,-0.013031005859375,0.0319671630859375
1772563502168102000,7.666101806640625,-0.9910736083984375,-0.01251220703125,0.031768798828125
1772563502178169900,7.676169921875,-0.9905242919921875,-0.012847900390625,0.0319976806640625
1772563502188237800,7.68623779296875,-0.992401123046875,-0.01336669921875,0.032501220703125
1772563502198305800,7.696305908203125,-0.992156982421875,-0.0120849609375,0.0320892333984375
1772563502208373800,7.706373779296875,-0.9915313720703125,-0.0129241943359375,0.0315704345703125
1772563502218442000,7.71644189453125,-0.99163818359375,-0.0118408203125,0.0316162109375
1772563502228510000,7.726510009765625,-0.9913330078125,-0.01251220703125,0.0333709716796875
1772563502238578000,7.736577880859375,-0.9899444580078125,-0.01312255859375,0.031036376953125
1772563502248647000,7.74664697265625,-0.990478515625,-0.0131683349609375,0.0310821533203125
1772563502258715000,7.75671484375,-0.9939727783203125,-0.0126190185546875,0.0317840576171875
1772563502268782800,7.766782958984375,-0.9917144775390625,-0.0127716064453125,0.031005859375
1772563502278850800,7.776850830078125,-0.992218017578125,-0.0120697021484375,0.0320587158203125
1772563502288919000,7.7869189453125,-0.992095947265625,-0.01300048828125,0.033355712890625
1772563502298987000,7.796987060546875,-0.9920196533203125,-0.0122222900390625,0.0323944091796875
1772563502309055000,7.807054931640625,-0.991485595703125,-0.0130767822265625,0.0321502685546875
1772563502319122700,7.817122802734375,-0.9926300048828125,-0.014404296875,0.032135009765625
1772563502329191000,7.82719091796875,-0.9918212890625,-0.0131683349609375,0.0328369140625
1772563502339260000,7.837260009765625,-0.99078369140625,-0.0127716064453125,0.03204345703125
1772563502349328000,7.847327880859375,-0.9926605224609375,-0.011962890625,0.0322723388671875
1772563502359396000,7.85739599609375,-0.9914398193359375,-0.0131683349609375,0.030303955078125
1772563502369463800,7.8674638671875,-0.991943359375,-0.0128326416015625,0.0297698974609375
1772563502379531800,7.87753173828125,-0.991943359375,-0.0125885009765625,0.0310516357421875
1772563502389599700,7.887599853515625,-0.9921112060546875,-0.0135955810546875,0.033843994140625
1772563502399668000,7.89766796875,-0.9911041259765625,-0.0125885009765625,0.033050537109375
1772563502409736000,7.90773583984375,-0.990936279296875,-0.01068115234375,0.0322723388671875
1772563502419804000,7.917803955078125,-0.9905853271484375,-0.0123443603515625,0.03082275390625
1772563502429871900,7.927871826171875,-0.9919586181640625,-0.0129852294921875,0.0330810546875
1772563502439940900,7.93794091796875,-0.991241455078125,-0.0122833251953125,0.0322265625
1772563502450008800,7.9480087890625,-0.9912872314453125,-0.0130462646484375,0.031646728515625
1772563502460076800,7.958076904296875,-0.9922027587890625,-0.0132904052734375,0.033660888671875
1772563502470145000,7.96814501953125,-0.9916229248046875,-0.012786865234375,0.0323028564453125
1772563502480213000,7.978212890625,-0.9917755126953125,-0.0152130126953125,0.0304718017578125
1772563502490281000,7.988281005859375,-0.99169921875,-0.01300048828125,0.0306243896484375
1772563502500349000,7.998348876953125,-0.9919586181640625,-0.0125732421875,0.0325775146484375
1772563502510417000,8.0084169921875,-0.9915008544921875,-0.011749267578125,0.0322723388671875
1772563502520484900,8.01848486328125,-0.991973876953125,-0.014129638671875,0.0326080322265625
1772563502530553900,8.028553955078126,-0.992767333984375,-0.0132293701171875,0.03155517578125
1772563502540622800,8.038622802734375,-0.9929656982421875,-0.013580322265625,0.0312347412109375
1772563502550690800,8.04869091796875,-0.9919586181640625,-0.0132598876953125,0.031951904296875
1772563502560758800,8.0587587890625,-0.991668701171875,-0.0128936767578125,0.031158447265625
1772563502570826800,8.06882666015625,-0.9920654296875,-0.0132598876953125,0.032318115234375
1772563502580895000,8.07889501953125,-0.99102783203125,-0.011627197265625,0.0308837890625
1772563502590963000,8.088962890625,-0.9931488037109375,-0.0134735107421875,0.03240966796875
1772563502601031000,8.099031005859375,-0.9920501708984375,-0.0135955810546875,0.0321197509765625
1772563502611099000,8.109098876953125,-0.9906768798828125,-0.0123291015625,0.0330657958984375
1772563502621166800,8.119166748046876,-0.992706298828125,-0.0133056640625,0.0310516357421875
1772563502631235800,8.12923583984375,-0.9928131103515625,-0.0124053955078125,0.0324554443359375
1772563502641303800,8.1393037109375,-0.991729736328125,-0.01312255859375,0.0308990478515625
1772563502651372000,8.1493720703125,-0.990753173828125,-0.0139007568359375,0.0337371826171875
1772563502661440000,8.15943994140625,-0.9901275634765625,-0.0125274658203125,0.0326080322265625
1772563502671507700,8.1695078125,-0.990447998046875,-0.012542724609375,0.032318115234375
1772563502681575700,8.17957568359375,-0.991455078125,-0.01239013671875,0.0331878662109375
1772563502691644000,8.189643798828126,-0.991241455078125,-0.0124359130859375,0.0310516357421875
1772563502701712000,8.1997119140625,-0.99322509765625,-0.011474609375,0.0310211181640625
1772563502711779800,8.20977978515625,-0.9921722412109375,-0.012115478515625,0.0322723388671875
1772563502721847800,8.219847900390626,-0.992095947265625,-0.0132598876953125,0.03289794921875
1772563502731916800,8.229916748046875,-0.99090576171875,-0.013031005859375,0.031524658203125
1772563502741984800,8.23998486328125,-0.990997314453125,-0.0117950439453125,0.0330047607421875
1772563502752052700,8.250052734375,-0.9920654296875,-0.0112457275390625,0.031951904296875
1772563502762121000,8.260120849609375,-0.99127197265625,-0.01287841796875,0.0323486328125
1772563502772189000,8.27018896484375,-0.9909515380859375,-0.0133819580078125,0.0331268310546875
1772563502782257000,8.2802568359375,-0.9922332763671875,-0.010986328125,0.0332794189453125
1772563502792324900,8.290324951171876,-0.9918670654296875,-0.0126800537109375,0.0322113037109375
1772563502802392800,8.300392822265625,-0.9919891357421875,-0.0116729736328125,0.0316619873046875
1772563502812460800,8.310460693359374,-0.99053955078125,-0.0118408203125,0.03240966796875
1772563502822528800,8.32052880859375,-0.99114990234375,-0.0137176513671875,0.031280517578125
1772563502832597800,8.33059765625,-0.991424560546875,-0.0121002197265625,0.0311279296875
1772563502842666000,8.340666015625,-0.9926910400390625,-0.0127410888671875,0.03302001953125
1772563502852734000,8.35073388671875,-0.9927978515625,-0.0128326416015625,0.034271240234375
1772563502862801700,8.3608017578125,-0.9922943115234375,-0.013580322265625,0.0312652587890625
1772563502872870000,8.370869873046875,-0.9915008544921875,-0.01348876953125,0.0316619873046875
1772563502882937900,8.380937744140626,-0.9922943115234375,-0.013519287109375,0.0317230224609375
1772563502893005800,8.391005859375,-0.9911956787109375,-0.0137481689453125,0.0315093994140625
1772563502903073800,8.40107373046875,-0.990814208984375,-0.012420654296875,0.0319671630859375
1772563502913142000,8.41114208984375,-0.9912261962890625,-0.012115478515625,0.0312347412109375
1772563502923210800,8.421210693359376,-0.991180419921875,-0.01263427734375,0.0322265625
1772563502933278700,8.43127880859375,-0.992218017578125,-0.0142974853515625,0.0328521728515625
1772563502943346700,8.4413466796875,-0.9926910400390625,-0.0142364501953125,0.0324249267578125
1772563502953415000,8.451414794921876,-0.9923553466796875,-0.0126953125,0.032318115234375
1772563502963483000,8.46148291015625,-0.9919891357421875,-0.0113525390625,0.0307769775390625
1772563502973550800,8.47155078125,-0.9901123046875,-0.0118408203125,0.0318603515625
1772563502983618800,8.481618896484376,-0.9926300048828125,-0.0124969482421875,0.0322265625
1772563502993687000,8.49168701171875,-0.9936065673828125,-0.0125274658203125,0.031341552734375
1772563503003754800,8.501754638671875,-0.990203857421875,-0.01214599609375,0.0340423583984375
1772563503013822700,8.51182275390625,-0.9923095703125,-0.0130767822265625,0.03192138671875
1772563503023892000,8.52189208984375,-0.9929656982421875,-0.012939453125,0.03131103515625
1772563503033960000,8.5319599609375,-0.99212646484375,-0.014068603515625,0.032440185546875
1772563503044028000,8.54202783203125,-0.9912872314453125,-0.0121002197265625,0.03265380859375
1772563503054096000,8.552095947265625,-0.992156982421875,-0.0128326416015625,0.03033447265625
1772563503064163800,8.562163818359375,-0.991485595703125,-0.014190673828125,0.0326385498046875
1772563503074231800,8.572231689453124,-0.991943359375,-0.01171875,0.0312957763671875
1772563503084299800,8.5822998046875,-0.99237060546875,-0.011505126953125,0.0322113037109375
1772563503094367700,8.59236767578125,-0.9907989501953125,-0.01141357421875,0.03253173828125
1772563503104436000,8.60243603515625,-0.992767333984375,-0.01373291015625,0.031158447265625
1772563503114504000,8.61250390625,-0.9908294677734375,-0.013916015625,0.0331878662109375
1772563503124572700,8.62257275390625,-0.9906005859375,-0.0144500732421875,0.03179931640625
1772563503134641000,8.632640869140625,-0.9931640625,-0.0128631591796875,0.032623291015625
1772563503144708900,8.642708984375,-0.99151611328125,-0.011688232421875,0.031707763671875
1772563503154776800,8.65277685546875,-0.991790771484375,-0.0120697021484375,0.032012939453125
1772563503164844800,8.6628447265625,-0.990814208984375,-0.0118865966796875,0.032196044921875
1772563503174913000,8.6729130859375,-0.991058349609375,-0.0123138427734375,0.0315093994140625
1772563503184981000,8.68298095703125,-0.9927825927734375,-0.0132904052734375,0.03350830078125
1772563503195048700,8.693048583984375,-0.9918670654296875,-0.0118865966796875,0.0319061279296875
1772563503205116700,8.70311669921875,-0.9917144775390625,-0.011932373046875,0.031646728515625
1772563503215185000,8.713184814453125,-0.9928741455078125,-0.0125579833984375,0.0330657958984375
1772563503225254000,8.72325390625,-0.990478515625,-0.011444091796875,0.0299224853515625
1772563503235321900,8.73332177734375,-0.9902801513671875,-0.0139617919921875,0.0320281982421875
1772563503245389800,8.743389892578126,-0.9925537109375,-0.012664794921875,0.0328826904296875
1772563503255457800,8.753457763671875,-0.991302490234375,-0.01324462890625,0.03326416015625
1772563503265525800,8.76352587890625,-0.991668701171875,-0.0136260986328125,0.0320587158203125
1772563503275593700,8.77359375,-0.990875244140625,-0.013641357421875,0.03192138671875
1772563503285662000,8.783661865234375,-0.992767333984375,-0.0134124755859375,0.03289794921875
1772563503295730000,8.79372998046875,-0.9918670654296875,-0.011688232421875,0.03009033203125
1772563503305798000,8.8037978515625,-0.99151611328125,-0.0128326416015625,0.03216552734375
1772563503315867000,8.813866943359375,-0.991302490234375,-0.012847900390625,0.0332183837890625
1772563503325933800,8.823933837890625,-0.9920806884765625,-0.011962890625,0.0314178466796875
1772563503336001800,8.834001708984376,-0.9910430908203125,-0.010894775390625,0.0310821533203125
1772563503346069800,8.84406982421875,-0.9905853271484375,-0.01336669921875,0.0322723388671875
1772563503356137700,8.8541376953125,-0.992095947265625,-0.012603759765625,0.0318603515625
1772563503366206000,8.8642060546875,-0.9910125732421875,-0.011505126953125,0.0311737060546875
1772563503376274000,8.87427392578125,-0.9915924072265625,-0.0131072998046875,0.0312347412109375
1772563503386342000,8.884341796875,-0.9943695068359375,-0.0146331787109375,0.0323944091796875
1772563503396409900,8.894409912109374,-0.9922027587890625,-0.013885498046875,0.031951904296875
1772563503406477800,8.904477783203125,-0.9922637939453125,-0.0114288330078125,0.031829833984375
1772563503416545800,8.9145458984375,-0.9910125732421875,-0.010498046875,0.0306396484375
1772563503426614800,8.92461474609375,-0.992889404296875,-0.01300048828125,0.0310211181640625
1772563503436683000,8.93468310546875,-0.9915008544921875,-0.012603759765625,0.0304718017578125
1772563503446751000,8.9447509765625,-0.99163818359375,-0.0115966796875,0.0313720703125
1772563503456819000,8.95481884765625,-0.9923095703125,-0.0131072998046875,0.0318603515625
1772563503466886700,8.96488671875,-0.9913787841796875,-0.0129241943359375,0.03192138671875
1772563503476955000,8.974954833984375,-0.9935302734375,-0.0123138427734375,0.0328216552734375
1772563503487022800,8.98502294921875,-0.991607666015625,-0.0125732421875,0.032318115234375
1772563503497090800,8.9950908203125,-0.9911041259765625,-0.011260986328125,0.03228759765625
1772563503507158800,9.00515869140625,-0.9915924072265625,-0.0128021240234375,0.032958984375
1772563503517227800,9.015227783203125,-0.991363525390625,-0.0128173828125,0.0334014892578125
1772563503527295700,9.025295654296874,-0.99212646484375,-0.0115966796875,0.0328369140625
1772563503537363500,9.035363525390625,-0.9910888671875,-0.013427734375,0.0316009521484375
1772563503547431400,9.045431396484375,-0.991119384765625,-0.0131988525390625,0.0319061279296875
1772563503557499400,9.05549951171875,-0.991058349609375,-0.01239013671875,0.0317535400390625
1772563503567567600,9.065567626953126,-0.9913787841796875,-0.01251220703125,0.0327606201171875
1772563503577635600,9.075635498046875,-0.991546630859375,-0.0128173828125,0.0334625244140625
1772563503587703600,9.08570361328125,-0.992156982421875,-0.0117340087890625,0.032440185546875
1772563503597771500,9.095771484375,-0.992034912109375,-0.0123138427734375,0.03228759765625
1772563503607839500,9.105839599609375,-0.989776611328125,-0.0128936767578125,0.0326080322265625
1772563503617908500,9.115908447265625,-0.9920501708984375,-0.0120849609375,0.0321197509765625
1772563503627976400,9.1259765625,-0.991180419921875,-0.0129547119140625,0.031341552734375
1772563503638044400,9.13604443359375,-0.9923248291015625,-0.0128021240234375,0.0324554443359375
1772563503648112600,9.146112548828125,-0.9914703369140625,-0.012603759765625,0.0333404541015625
1772563503658180400,9.156180419921874,-0.9910736083984375,-0.0120391845703125,0.0312652587890625
1772563503668248300,9.166248291015625,-0.991943359375,-0.0114898681640625,0.0323333740234375
1772563503678316500,9.176316650390625,-0.9909820556640625,-0.0120391845703125,0.0325164794921875
1772563503688384500,9.186384521484374,-0.991729736328125,-0.012420654296875,0.034759521484375
1772563503698452500,9.196452392578125,-0.9921722412109375,-0.0122528076171875,0.032470703125
1772563503708521500,9.206521484375,-0.992431640625,-0.012939453125,0.03302001953125
1772563503718589400,9.21658935546875,-0.992034912109375,-0.0128326416015625,0.0328216552734375
1772563503728657400,9.226657470703126,-0.9902801513671875,-0.0121307373046875,0.0305938720703125
1772563503738725400,9.236725341796875,-0.9902801513671875,-0.0128936767578125,0.033050537109375
1772563503748793300,9.24679345703125,-0.9913177490234375,-0.01275634765625,0.0313262939453125
1772563503758861600,9.256861572265626,-0.9935302734375,-0.0120391845703125,0.031158447265625
1772563503768930600,9.2669306640625,-0.990997314453125,-0.0122222900390625,0.0312042236328125
1772563503778998300,9.276998291015625,-0.99237060546875,-0.013092041015625,0.03143310546875
1772563503789066500,9.28706640625,-0.9915924072265625,-0.0137786865234375,0.03070068359375
1772563503799134500,9.297134521484375,-0.992401123046875,-0.012115478515625,0.0329742431640625
1772563503809202400,9.307202392578125,-0.99127197265625,-0.011505126953125,0.0308380126953125
1772563503819270400,9.3172705078125,-0.9911956787109375,-0.0122833251953125,0.0318756103515625
1772563503829338600,9.327338623046876,-0.9920501708984375,-0.011688232421875,0.032379150390625
1772563503839406600,9.337406494140625,-0.990966796875,-0.010894775390625,0.0306854248046875
1772563503849474300,9.347474365234374,-0.9926300048828125,-0.0112152099609375,0.032684326171875
1772563503859542300,9.357542236328126,-0.9901123046875,-0.01312255859375,0.0322723388671875
1772563503869611500,9.367611572265625,-0.9919586181640625,-0.01324462890625,0.0319061279296875
1772563503879679500,9.377679443359375,-0.9928131103515625,-0.013214111328125,0.0306243896484375
1772563503889747500,9.38774755859375,-0.9922332763671875,-0.0130462646484375,0.030853271484375
1772563503899815700,9.397815673828125,-0.991851806640625,-0.0123443603515625,0.0326690673828125
1772563503909883400,9.40788330078125,-0.992095947265625,-0.01226806640625,0.03094482421875
1772563503919951400,9.417951416015624,-0.991058349609375,-0.012542724609375,0.032012939453125
1772563503930019300,9.428019287109375,-0.9916534423828125,-0.0135345458984375,0.03094482421875
1772563503940087600,9.438087646484375,-0.9928741455078125,-0.01422119140625,0.0323486328125
1772563503950155500,9.448155517578124,-0.990997314453125,-0.0126495361328125,0.029571533203125
1772563503960223500,9.458223388671875,-0.990478515625,-0.0128173828125,0.0322113037109375
1772563503970292500,9.46829248046875,-0.9925994873046875,-0.0122528076171875,0.0330963134765625
1772563503980360400,9.4783603515625,-0.9912109375,-0.0135955810546875,0.0312042236328125
1772563503990428400,9.488428466796876,-0.9920654296875,-0.0123291015625,0.0313873291015625
1772563504000496400,9.498496337890625,-0.99322509765625,-0.0123443603515625,0.0314178466796875
1772563504010564600,9.508564697265625,-0.992584228515625,-0.013671875,0.0321502685546875
1772563504020632600,9.518632568359376,-0.9912109375,-0.013671875,0.03253173828125
1772563504030700500,9.528700439453125,-0.993011474609375,-0.0134429931640625,0.0307159423828125
1772563504040768500,9.5387685546875,-0.9920196533203125,-0.0129547119140625,0.0308380126953125
1772563504050836500,9.54883642578125,-0.9915008544921875,-0.0133514404296875,0.034515380859375
1772563504060904400,9.558904541015625,-0.989898681640625,-0.012359619140625,0.0318145751953125
1772563504070973400,9.568973388671875,-0.991790771484375,-0.0121307373046875,0.0323638916015625
1772563504081041700,9.579041748046874,-0.99169921875,-0.0137786865234375,0.0316619873046875
1772563504091109600,9.589109619140626,-0.9913177490234375,-0.0130157470703125,0.0321807861328125
1772563504101177300,9.59917724609375,-0.992218017578125,-0.0133819580078125,0.0327911376953125
1772563504111245300,9.609245361328124,-0.991119384765625,-0.011810302734375,0.0321807861328125
1772563504121313500,9.6193134765625,-0.992095947265625,-0.012481689453125,0.0312042236328125
1772563504131381500,9.629381591796875,-0.9921875,-0.012115478515625,0.0321807861328125
1772563504141449500,9.639449462890624,-0.991241455078125,-0.0121917724609375,0.032318115234375
1772563504151517400,9.649517333984376,-0.9929046630859375,-0.0127716064453125,0.033660888671875
1772563504161585700,9.659585693359375,-0.9912567138671875,-0.01373291015625,0.031341552734375
1772563504171654400,9.669654296875,-0.9927520751953125,-0.012908935546875,0.0313720703125
1772563504181722400,9.679722412109374,-0.9905548095703125,-0.012481689453125,0.031341552734375
1772563504191790600,9.68979052734375,-0.991363525390625,-0.012969970703125,0.0323638916015625
1772563504201858600,9.699858642578125,-0.9927520751953125,-0.013031005859375,0.0337677001953125
1772563504211926500,9.709926513671874,-0.991119384765625,-0.012939453125,0.0320892333984375
1772563504221994500,9.719994384765625,-0.99072265625,-0.01251220703125,0.0320892333984375
1772563504232062500,9.7300625,-0.9915008544921875,-0.013641357421875,0.0315093994140625
1772563504242130400,9.74013037109375,-0.9912261962890625,-0.013092041015625,0.031524658203125
1772563504252198400,9.750198486328125,-0.9890594482421875,-0.0130767822265625,0.0315704345703125
1772563504262266400,9.760266357421875,-0.991180419921875,-0.0134124755859375,0.0328826904296875
1772563504272335600,9.770335693359375,-0.9928131103515625,-0.0131683349609375,0.03192138671875
1772563504282403600,9.780403564453126,-0.9907073974609375,-0.0130615234375,0.03228759765625
1772563504292471300,9.79047119140625,-0.991424560546875,-0.0122833251953125,0.0325164794921875
1772563504302539500,9.80053955078125,-0.9904632568359375,-0.0127105712890625,0.0316009521484375
1772563504312607500,9.810607421875,-0.9918975830078125,-0.011322021484375,0.0313720703125
1772563504322675500,9.820675537109375,-0.99169921875,-0.0135650634765625,0.0322113037109375
1772563504332743400,9.830743408203125,-0.9912872314453125,-0.0131072998046875,0.031219482421875
1772563504342811600,9.840811767578124,-0.9895172119140625,-0.012420654296875,0.0312957763671875
1772563504352879600,9.850879638671875,-0.99139404296875,-0.012481689453125,0.0322265625
1772563504362947600,9.860947509765625,-0.99151611328125,-0.0120086669921875,0.0304718017578125
1772563504373016300,9.871016357421874,-0.9911041259765625,-0.0120697021484375,0.031707763671875
1772563504383084500,9.88108447265625,-0.9924468994140625,-0.0130615234375,0.029937744140625
1772563504393152500,9.891152587890625,-0.992919921875,-0.0128326416015625,0.031097412109375
1772563504403220500,9.901220458984374,-0.992095947265625,-0.0134124755859375,0.0318145751953125
1772563504413288700,9.911288818359376,-0.9919281005859375,-0.0126495361328125,0.0307159423828125
1772563504423356400,9.9213564453125,-0.9924468994140625,-0.0111236572265625,0.030670166015625
1772563504433424400,9.93142431640625,-0.990936279296875,-0.01239013671875,0.03216552734375
1772563504443492400,9.941492431640626,-0.992431640625,-0.01263427734375,0.0324859619140625
1772563504453560600,9.951560546875,-0.9932098388671875,-0.0130767822265625,0.0315399169921875
1772563504463628500,9.961628662109375,-0.9912567138671875,-0.0124969482421875,0.0322418212890625
1772563504473697500,9.971697509765624,-0.9918670654296875,-0.012420654296875,0.032745361328125
1772563504483765200,9.98176513671875,-0.991668701171875,-0.0133209228515625,0.031982421875
1772563504493833500,9.99183349609375,-0.9929962158203125,-0.01239013671875,0.0312652587890625
1772563504503901400,10.0019013671875,-0.991119384765625,-0.0142974853515625,0.031951904296875
1772563504513969400,10.011969482421875,-0.9909210205078125,-0.0140380859375,0.0339202880859375
1772563504524037400,10.022037353515625,-0.9919891357421875,-0.01177978515625,0.0319671630859375
1772563504534105300,10.032105224609374,-0.992919921875,-0.0125885009765625,0.0318756103515625
1772563504544173300,10.04217333984375,-0.99169921875,-0.0119171142578125,0.0311431884765625
1772563504554241300,10.0522412109375,-0.9912567138671875,-0.0120391845703125,0.0314483642578125
1772563504564309200,10.062309326171874,-0.9910736083984375,-0.013580322265625,0.0316009521484375
1772563504574377200,10.072377197265626,-0.9915771484375,-0.0126495361328125,0.031494140625
1772563504584446200,10.0824462890625,-0.9907989501953125,-0.0125885009765625,0.0307159423828125
1772563504594514200,10.09251416015625,-0.991607666015625,-0.0112152099609375,0.0317230224609375
1772563504604582400,10.10258251953125,-0.992767333984375,-0.0122528076171875,0.0327301025390625
1772563504614650400,10.112650390625,-0.9916229248046875,-0.0121917724609375,0.0311737060546875
1772563504624718000,10.122718017578125,-0.9925994873046875,-0.0139007568359375,0.0318450927734375
1772563504634786000,10.1327861328125,-0.991973876953125,-0.01226806640625,0.0320281982421875
1772563504644854300,10.142854248046875,-0.9908447265625,-0.013580322265625,0.0310821533203125
1772563504654922200,10.152922119140625,-0.9914703369140625,-0.014434814453125,0.0302581787109375
1772563504664990200,10.162990234375,-0.9917755126953125,-0.01202392578125,0.03204345703125
1772563504675059200,10.17305908203125,-0.99072265625,-0.011810302734375,0.03399658203125
1772563504685127200,10.183127197265625,-0.9909210205078125,-0.01446533203125,0.0305328369140625
1772563504695195100,10.193195068359374,-0.9911651611328125,-0.0126190185546875,0.031097412109375
1772563504705263000,10.20326318359375,-0.9905548095703125,-0.0113525390625,0.0328369140625
1772563504715331300,10.213331298828125,-0.9897613525390625,-0.013031005859375,0.0310516357421875
1772563504725399300,10.2233994140625,-0.9918365478515625,-0.0129547119140625,0.0334014892578125
1772563504735467300,10.23346728515625,-0.99212646484375,-0.0131072998046875,0.03155517578125
1772563504745535200,10.24353515625,-0.99151611328125,-0.0128631591796875,0.03155517578125
1772563504755603200,10.253603271484375,-0.9914703369140625,-0.01318359375,0.0329437255859375
1772563504765671200,10.263671142578126,-0.9923248291015625,-0.011993408203125,0.0317535400390625
1772563504775739100,10.2737392578125,-0.99298095703125,-0.0130462646484375,0.031982421875
1772563504785808400,10.283808349609375,-0.9917449951171875,-0.0128021240234375,0.0339813232421875
1772563504795876400,10.29387646484375,-0.99176025390625,-0.011871337890625,0.031158447265625
1772563504805944300,10.3039443359375,-0.991180419921875,-0.013397216796875,0.032012939453125
1772563504816012000,10.314011962890625,-0.9904022216796875,-0.01220703125,0.0307159423828125
1772563504826080300,10.324080322265624,-0.99224853515625,-0.0132598876953125,0.030853271484375
1772563504836148200,10.334148193359376,-0.992401123046875,-0.0125732421875,0.03240966796875
1772563504846216200,10.34421630859375,-0.9916839599609375,-0.014129638671875,0.0303497314453125
1772563504856284200,10.3542841796875,-0.991424560546875,-0.0128631591796875,0.0308837890625
1772563504866352400,10.364352294921876,-0.991668701171875,-0.0114898681640625,0.0316009521484375
1772563504876420400,10.37442041015625,-0.99407958984375,-0.012603759765625,0.0328369140625
1772563504886489000,10.384489013671875,-0.9920806884765625,-0.012969970703125,0.0325469970703125
1772563504896557300,10.394557373046876,-0.9912567138671875,-0.0125274658203125,0.0314483642578125
1772563504906625300,10.404625244140625,-0.9915924072265625,-0.012786865234375,0.032623291015625
1772563504916693200,10.414693359375,-0.9919891357421875,-0.0136871337890625,0.0330963134765625
1772563504926761200,10.42476123046875,-0.9917755126953125,-0.0107879638671875,0.032623291015625
1772563504936829400,10.434829345703125,-0.9902496337890625,-0.0134735107421875,0.0326080322265625
1772563504946897200,10.444897216796875,-0.9915771484375,-0.0131378173828125,0.03253173828125
1772563504956965000,10.454965087890624,-0.9916229248046875,-0.0133514404296875,0.0323944091796875
1772563504967033000,10.465033203125,-0.9910736083984375,-0.0128326416015625,0.03173828125
1772563504977101300,10.475101318359375,-0.9926910400390625,-0.0119171142578125,0.0315093994140625
1772563504987170300,10.48517041015625,-0.9915313720703125,-0.012481689453125,0.0322265625
1772563504997238300,10.49523828125,-0.9927215576171875,-0.01153564453125,0.032073974609375
1772563505007306200,10.50530615234375,-0.992645263671875,-0.0130615234375,0.0318603515625
1772563505017374200,10.515374267578125,-0.9942779541015625,-0.012908935546875,0.0314178466796875
1772563505027442200,10.525442138671876,-0.9924163818359375,-0.0115814208984375,0.0322418212890625
1772563505037510100,10.53551025390625,-0.9913482666015625,-0.0131988525390625,0.03265380859375
1772563505047578400,10.545578369140625,-0.9911651611328125,-0.013519287109375,0.031951904296875
1772563505057646300,10.555646240234376,-0.99053955078125,-0.012908935546875,0.0305023193359375
1772563505067714300,10.56571435546875,-0.9920806884765625,-0.0124969482421875,0.03076171875
1772563505077782300,10.5757822265625,-0.992919921875,-0.0128631591796875,0.0320892333984375
1772563505087851300,10.585851318359374,-0.9909515380859375,-0.0134124755859375,0.0336761474609375
1772563505097919200,10.595919189453125,-0.9911041259765625,-0.011749267578125,0.03143310546875
1772563505107987200,10.6059873046875,-0.993072509765625,-0.01214599609375,0.0321044921875
1772563505118055400,10.616055419921874,-0.993377685546875,-0.012176513671875,0.0330657958984375
1772563505128123400,10.626123291015626,-0.99212646484375,-0.0123748779296875,0.0317535400390625
1772563505138191000,10.636191162109375,-0.9931182861328125,-0.0137939453125,0.0327911376953125
1772563505148259000,10.646259033203124,-0.9922332763671875,-0.0124359130859375,0.0337677001953125
1772563505158327300,10.656327392578126,-0.9910736083984375,-0.011871337890625,0.0320892333984375
1772563505168395300,10.666395263671875,-0.991424560546875,-0.0137786865234375,0.0327301025390625
1772563505178463200,10.676463134765624,-0.9908447265625,-0.0129852294921875,0.03106689453125
1772563505188532200,10.6865322265625,-0.990447998046875,-0.0117645263671875,0.032012939453125
1772563505198600200,10.69660009765625,-0.991912841796875,-0.01092529296875,0.03192138671875
1772563505208668200,10.706668212890625,-0.9920806884765625,-0.01318359375,0.0298004150390625
1772563505218736000,10.716736083984374,-0.9911346435546875,-0.0131072998046875,0.03302001953125
1772563505228804000,10.72680419921875,-0.9920654296875,-0.01287841796875,0.03253173828125
1772563505238872300,10.736872314453125,-0.992401123046875,-0.0123443603515625,0.0313873291015625
1772563505248940300,10.746940185546874,-0.990386962890625,-0.0124969482421875,0.0301971435546875
1772563505259008300,10.75700830078125,-0.9911956787109375,-0.012969970703125,0.033416748046875
1772563505269076200,10.767076171875,-0.99267578125,-0.0134124755859375,0.0316009521484375
1772563505279144200,10.777144287109374,-0.99163818359375,-0.01287841796875,0.031158447265625
1772563505289212200,10.787212158203126,-0.9922637939453125,-0.0123748779296875,0.031829833984375
1772563505299281200,10.79728125,-0.9924774169921875,-0.013580322265625,0.032562255859375
1772563505309349400,10.807349365234375,-0.9921417236328125,-0.011810302734375,0.0311279296875
1772563505319417300,10.817417236328126,-0.9914703369140625,-0.0120849609375,0.0318145751953125
1772563505329485000,10.827485107421875,-0.99212646484375,-0.012908935546875,0.0320892333984375
1772563505339553000,10.837552978515625,-0.9920196533203125,-0.0133056640625,0.0306243896484375
1772563505349621200,10.847621337890626,-0.991943359375,-0.012664794921875,0.03076171875
1772563505359689200,10.857689208984375,-0.991546630859375,-0.011627197265625,0.0318603515625
1772563505369757200,10.867757080078125,-0.9910125732421875,-0.013031005859375,0.0313720703125
1772563505379825200,10.8778251953125,-0.991424560546875,-0.0133209228515625,0.0304718017578125
1772563505389893400,10.887893310546875,-0.991546630859375,-0.0115814208984375,0.0314483642578125
1772563505399962000,10.897962158203125,-0.9918365478515625,-0.013702392578125,0.0322418212890625
1772563505410030000,10.908030029296874,-0.9911651611328125,-0.012420654296875,0.0309906005859375
1772563505420098300,10.918098388671876,-0.9922332763671875,-0.01190185546875,0.0302581787109375
1772563505430166300,10.928166259765625,-0.9914093017578125,-0.013092041015625,0.0301666259765625
1772563505440234200,10.938234130859374,-0.9927978515625,-0.014373779296875,0.030731201171875
1772563505450302200,10.94830224609375,-0.9911956787109375,-0.012939453125,0.0312957763671875
1772563505460370200,10.9583701171875,-0.98992919921875,-0.0133209228515625,0.0308837890625
1772563505470438100,10.968438232421875,-0.9916534423828125,-0.0136566162109375,0.032562255859375
1772563505480506000,10.978506103515626,-0.9902191162109375,-0.012420654296875,0.03045654296875
1772563505490574000,10.988573974609375,-0.991302490234375,-0.01202392578125,0.03271484375
1772563505500643300,10.998643310546875,-0.99212646484375,-0.0120086669921875,0.03204345703125
1772563505510711300,11.008711181640624,-0.99200439453125,-0.0120697021484375,0.0319976806640625
1772563505520779000,11.018779052734375,-0.9930877685546875,-0.01251220703125,0.0316314697265625
1772563505530847200,11.02884716796875,-0.992431640625,-0.01171875,0.0311279296875
1772563505540915000,11.0389150390625,-0.9900054931640625,-0.014251708984375,0.031097412109375
1772563505550983000,11.04898291015625,-0.9915771484375,-0.0135650634765625,0.03216552734375
1772563505561051000,11.05905078125,-0.9922027587890625,-0.0126190185546875,0.032989501953125
1772563505571119000,11.069119140625,-0.991943359375,-0.0134429931640625,0.0317230224609375
1772563505581187000,11.07918701171875,-0.9915924072265625,-0.0125885009765625,0.032501220703125
1772563505591255000,11.089255126953125,-0.9905242919921875,-0.0131378173828125,0.03240966796875
1772563505601324000,11.099323974609375,-0.9908599853515625,-0.013397216796875,0.03277587890625
1772563505611392000,11.10939208984375,-0.9922943115234375,-0.011962890625,0.0316619873046875
1772563505621460000,11.1194599609375,-0.992034912109375,-0.01300048828125,0.03173828125
1772563505631528000,11.12952783203125,-0.990509033203125,-0.0138702392578125,0.032470703125
1772563505641596200,11.13959619140625,-0.99322509765625,-0.0130767822265625,0.032196044921875
1772563505651664100,11.1496640625,-0.9911956787109375,-0.01373291015625,0.0314788818359375
1772563505661731800,11.15973193359375,-0.991180419921875,-0.01263427734375,0.032196044921875
1772563505671799800,11.1697998046875,-0.993011474609375,-0.0121917724609375,0.03271484375
1772563505681868000,11.179867919921875,-0.9926300048828125,-0.0141448974609375,0.033233642578125
1772563505691936000,11.18993603515625,-0.991607666015625,-0.01373291015625,0.0317535400390625
1772563505702004000,11.20000390625,-0.991943359375,-0.01239013671875,0.031280517578125
1772563505712073000,11.210072998046876,-0.9908294677734375,-0.0119476318359375,0.031982421875
1772563505722141000,11.220140869140625,-0.9916229248046875,-0.012969970703125,0.0340118408203125
1772563505732209000,11.230208984375,-0.9927825927734375,-0.01385498046875,0.0320281982421875
1772563505742276900,11.24027685546875,-0.9911651611328125,-0.0118560791015625,0.0308380126953125
1772563505752345000,11.250344970703125,-0.9902801513671875,-0.0107421875,0.032318115234375
1772563505762413000,11.2604130859375,-0.991180419921875,-0.011871337890625,0.031097412109375
1772563505772481000,11.27048095703125,-0.9918670654296875,-0.01177978515625,0.03155517578125
1772563505782549000,11.280549072265625,-0.990875244140625,-0.013092041015625,0.030975341796875
1772563505792617000,11.290616943359375,-0.9906768798828125,-0.014373779296875,0.0309600830078125
1772563505802685000,11.300684814453126,-0.991455078125,-0.0123138427734375,0.0303955078125
1772563505812754000,11.31075390625,-0.992401123046875,-0.0114898681640625,0.031707763671875
1772563505822822100,11.320822265625,-0.992919921875,-0.0112762451171875,0.0326690673828125
1772563505832890000,11.33089013671875,-0.9914398193359375,-0.0122222900390625,0.0330657958984375
1772563505842958000,11.3409580078125,-0.9922943115234375,-0.01300048828125,0.0317840576171875
1772563505853025800,11.35102587890625,-0.99365234375,-0.013824462890625,0.0320587158203125
1772563505863094000,11.361093994140624,-0.9913177490234375,-0.0124053955078125,0.032379150390625
1772563505873162000,11.371161865234376,-0.9916839599609375,-0.0108642578125,0.0330352783203125
1772563505883230000,11.38122998046875,-0.9905853271484375,-0.011962890625,0.032135009765625
1772563505893298000,11.3912978515625,-0.992156982421875,-0.0132904052734375,0.03192138671875
1772563505903366100,11.4013662109375,-0.9907073974609375,-0.0126800537109375,0.0318145751953125
1772563505913434000,11.41143408203125,-0.9900970458984375,-0.011871337890625,0.0320892333984375
1772563505923502800,11.4215029296875,-0.990325927734375,-0.014190673828125,0.03173828125
1772563505933570800,11.43157080078125,-0.99188232421875,-0.012176513671875,0.0320587158203125
1772563505943639000,11.44163916015625,-0.990386962890625,-0.0147552490234375,0.0326995849609375
1772563505953707000,11.45170703125,-0.992584228515625,-0.0128173828125,0.0330047607421875
1772563505963775000,11.46177490234375,-0.99212646484375,-0.0123291015625,0.0313720703125
1772563505973843000,11.471843017578125,-0.992706298828125,-0.0119781494140625,0.0315399169921875
1772563505983911000,11.481910888671875,-0.99163818359375,-0.011688232421875,0.031829833984375
1772563505993979000,11.491978759765624,-0.99163818359375,-0.011932373046875,0.0321807861328125
1772563506004046800,11.502046875,-0.9916839599609375,-0.0128173828125,0.032196044921875
1772563506014114800,11.51211474609375,-0.99151611328125,-0.012786865234375,0.0315399169921875
1772563506024184000,11.52218408203125,-0.99072265625,-0.01226806640625,0.0326995849609375
1772563506034252000,11.532251953125,-0.9905853271484375,-0.0112457275390625,0.033294677734375
1772563506044319700,11.54231982421875,-0.99139404296875,-0.0115509033203125,0.0323638916015625
1772563506054388000,11.552387939453125,-0.9910125732421875,-0.013397216796875,0.032470703125
1772563506064456000,11.5624560546875,-0.99200439453125,-0.01287841796875,0.0316162109375
1772563506074524000,11.57252392578125,-0.9924468994140625,-0.01300048828125,0.031707763671875
1772563506084591900,11.582591796875,-0.991363525390625,-0.0132598876953125,0.0336761474609375
1772563506094660000,11.59266015625,-0.9918670654296875,-0.013824462890625,0.0309906005859375
1772563506104728000,11.60272802734375,-0.991546630859375,-0.01287841796875,0.032958984375
1772563506114796000,11.612796142578125,-0.9911346435546875,-0.012939453125,0.0315399169921875
1772563506124865000,11.622864990234374,-0.9919281005859375,-0.013153076171875,0.032012939453125
1772563506134933000,11.63293310546875,-0.9911346435546875,-0.011627197265625,0.031524658203125
1772563506145001000,11.6430009765625,-0.9915618896484375,-0.012054443359375,0.033172607421875
1772563506155069000,11.65306884765625,-0.99237060546875,-0.0133514404296875,0.0310211181640625
1772563506165137200,11.66313720703125,-0.990966796875,-0.0113067626953125,0.0311431884765625
1772563506175205000,11.673205078125,-0.9916839599609375,-0.01177978515625,0.0316314697265625
1772563506185272800,11.68327294921875,-0.991241455078125,-0.01336669921875,0.0316314697265625
1772563506195340800,11.6933408203125,-0.991485595703125,-0.0124359130859375,0.032379150390625
1772563506205409000,11.703408935546875,-0.99273681640625,-0.0130767822265625,0.033447265625
1772563506215477000,11.71347705078125,-0.9920654296875,-0.0112457275390625,0.0348052978515625
1772563506225545000,11.723544921875,-0.992218017578125,-0.01275634765625,0.0335235595703125
1772563506235614000,11.733614013671875,-0.9903717041015625,-0.01239013671875,0.0330352783203125
1772563506245682000,11.743681884765625,-0.991241455078125,-0.01409912109375,0.0314788818359375
1772563506255750000,11.75375,-0.992034912109375,-0.0106353759765625,0.0336761474609375
1772563506265817900,11.76381787109375,-0.99078369140625,-0.0126190185546875,0.03131103515625
1772563506275886000,11.773885986328125,-0.9910888671875,-0.01287841796875,0.0322113037109375
1772563506285954000,11.7839541015625,-0.992218017578125,-0.01312255859375,0.0312042236328125
1772563506296022000,11.79402197265625,-0.9914093017578125,-0.01263427734375,0.0326385498046875
1772563506306090000,11.804090087890625,-0.991119384765625,-0.01190185546875,0.0323486328125
1772563506316158000,11.814157958984374,-0.99139404296875,-0.01263427734375,0.031585693359375
1772563506326226000,11.824225830078126,-0.991058349609375,-0.011566162109375,0.0320587158203125
1772563506336294000,11.8342939453125,-0.992340087890625,-0.013427734375,0.03173828125
1772563506346363100,11.844363037109375,-0.99267578125,-0.012725830078125,0.0333404541015625
1772563506356431000,11.85443115234375,-0.9915618896484375,-0.0134429931640625,0.0337371826171875
1772563506366499000,11.8644990234375,-0.99029541015625,-0.012725830078125,0.031646728515625
1772563506376566800,11.87456689453125,-0.9908294677734375,-0.0136871337890625,0.030914306640625
1772563506386635000,11.884635009765624,-0.9919891357421875,-0.0142364501953125,0.034088134765625
1772563506396703000,11.894702880859375,-0.9911041259765625,-0.0143585205078125,0.03094482421875
1772563506406771000,11.90477099609375,-0.9915618896484375,-0.01312255859375,0.031524658203125
1772563506416839000,11.9148388671875,-0.992523193359375,-0.0126495361328125,0.0316925048828125
1772563506426907100,11.9249072265625,-0.991943359375,-0.01171875,0.03253173828125
1772563506436975000,11.93497509765625,-0.992156982421875,-0.0139007568359375,0.0295257568359375
1772563506447043800,11.9450439453125,-0.9900054931640625,-0.0125579833984375,0.0310821533203125
1772563506457112000,11.955112060546876,-0.9922637939453125,-0.012908935546875,0.0306243896484375
1772563506467180000,11.965179931640625,-0.9924774169921875,-0.012054443359375,0.031158447265625
1772563506477248000,11.975248046875,-1.0010223388671875,-0.00848388671875,0.0267181396484375
1772563506487316000,11.98531591796875,-0.97900390625,-0.0150604248046875,0.0306549072265625
1772563506497384200,11.99538427734375,-0.9993896484375,-0.0180816650390625,0.036651611328125
1772563506507452000,12.005451904296875,-1.005523681640625,-0.00921630859375,0.0404815673828125
1772563506517520000,12.015519775390626,-0.96209716796875,-0.017181396484375,0.0374603271484375
1772563506527587800,12.025587890625,-0.96868896484375,-0.009735107421875,0.035888671875
1772563506537656000,12.035656005859375,-1.000762939453125,-0.0088653564453125,0.0248260498046875
