time,seconds_elapsed,z,y,x
1772457943400321500,0.059321533203125,-0.890960693359375,-0.277435302734375,0.1076507568359375
1772457943410389800,0.0693896484375,-0.905975341796875,-0.28125,0.0963134765625
1772457943420458500,0.07945849609375,-0.9198455810546875,-0.277923583984375,0.0912933349609375
1772457943430526500,0.0895263671875,-0.915802001953125,-0.2707672119140625,0.0917205810546875
1772457943440594400,0.099594482421875,-0.90570068359375,-0.26385498046875,0.1048126220703125
1772457943450662700,0.10966259765625,-0.8928680419921875,-0.2566680908203125,0.1172943115234375
1772457943460730600,0.119730712890625,-0.8831787109375,-0.2513885498046875,0.1218109130859375
1772457943470799400,0.12979931640625,-0.90380859375,-0.2496490478515625,0.1086578369140625
1772457943480867600,0.13986767578125,-0.942230224609375,-0.246002197265625,0.0986175537109375
1772457943490935600,0.149935546875,-0.9633941650390625,-0.2334747314453125,0.09356689453125
1772457943501003500,0.16000341796875,-0.968017578125,-0.219024658203125,0.0927581787109375
1772457943511071500,0.170071533203125,-0.953369140625,-0.213165283203125,0.1075592041015625
1772457943521140500,0.180140380859375,-0.9325714111328125,-0.2067718505859375,0.1243438720703125
1772457943531208400,0.19020849609375,-0.93035888671875,-0.208740234375,0.1345062255859375
1772457943541276400,0.2002763671875,-0.95147705078125,-0.2118988037109375,0.1450042724609375
1772457943551344600,0.2103447265625,-0.9680938720703125,-0.2088623046875,0.14996337890625
1772457943561412600,0.22041259765625,-0.9631195068359375,-0.2102508544921875,0.1636505126953125
1772457943571481300,0.2304814453125,-0.9474639892578125,-0.2202911376953125,0.1816253662109375
1772457943581549600,0.240549560546875,-0.929443359375,-0.231536865234375,0.1997833251953125
1772457943591617500,0.250617431640625,-0.915802001953125,-0.2447357177734375,0.2132720947265625
1772457943601685500,0.260685546875,-0.9123687744140625,-0.2617034912109375,0.2229461669921875
1772457943611753500,0.27075341796875,-0.9195709228515625,-0.2750244140625,0.22015380859375
1772457943621822700,0.28082275390625,-0.9281158447265625,-0.2820587158203125,0.2151336669921875
1772457943631890400,0.290890380859375,-0.9347076416015625,-0.2822418212890625,0.2162933349609375
1772457943641958400,0.30095849609375,-0.942413330078125,-0.2860260009765625,0.2234344482421875
1772457943652026600,0.311026611328125,-0.9490966796875,-0.2882537841796875,0.2264862060546875
1772457943662094600,0.321094482421875,-0.9553680419921875,-0.2917633056640625,0.22735595703125
1772457943672163600,0.33116357421875,-0.9615631103515625,-0.296356201171875,0.2246551513671875
1772457943682231600,0.3412314453125,-0.96319580078125,-0.295928955078125,0.213836669921875
1772457943692299500,0.351299560546875,-0.962554931640625,-0.29736328125,0.2105255126953125
1772457943702367500,0.361367431640625,-0.95806884765625,-0.296905517578125,0.206512451171875
1772457943712435500,0.371435546875,-0.9541473388671875,-0.294525146484375,0.1946258544921875
1772457943722504700,0.381504638671875,-0.94903564453125,-0.2933197021484375,0.181396484375
1772457943732572700,0.39157275390625,-0.939849853515625,-0.2867431640625,0.1648712158203125
1772457943742640400,0.401640380859375,-0.940643310546875,-0.2754974365234375,0.1471710205078125
1772457943752708400,0.411708251953125,-0.95672607421875,-0.2603912353515625,0.1346893310546875
1772457943762776600,0.421776611328125,-0.9837799072265625,-0.2411346435546875,0.1259002685546875
1772457943772845600,0.431845458984375,-1.0082550048828125,-0.2292938232421875,0.117919921875
1772457943782913500,0.44191357421875,-1.0304107666015625,-0.2145538330078125,0.1133270263671875
1772457943792981500,0.4519814453125,-1.0542449951171875,-0.1988983154296875,0.1059417724609375
1772457943803049500,0.462049560546875,-1.0596923828125,-0.1855010986328125,0.100982666015625
1772457943813117400,0.472117431640625,-1.0500030517578125,-0.1756439208984375,0.104217529296875
1772457943823186700,0.482186767578125,-1.0284423828125,-0.170196533203125,0.1160736083984375
1772457943833254700,0.492254638671875,-0.995025634765625,-0.1685943603515625,0.127105712890625
1772457943843322600,0.502322509765625,-0.9647979736328125,-0.1761932373046875,0.1344757080078125
1772457943853390300,0.512390380859375,-0.9391326904296875,-0.18670654296875,0.1306304931640625
1772457943863458600,0.52245849609375,-0.919219970703125,-0.1992034912109375,0.1221771240234375
1772457943873527600,0.532527587890625,-0.9028167724609375,-0.2135772705078125,0.1132965087890625
1772457943883595500,0.542595458984375,-0.8890838623046875,-0.228912353515625,0.10699462890625
1772457943893663700,0.552663818359375,-0.878387451171875,-0.2472381591796875,0.1019744873046875
1772457943903731700,0.562731689453125,-0.8702545166015625,-0.2677154541015625,0.094818115234375
1772457943913799400,0.57279931640625,-0.870452880859375,-0.2867889404296875,0.0854034423828125
1772457943923867400,0.582867431640625,-0.87664794921875,-0.30364990234375,0.0706634521484375
1772457943933936600,0.5929365234375,-0.8882598876953125,-0.3198699951171875,0.06121826171875
1772457943944004600,0.603004638671875,-0.8940887451171875,-0.333160400390625,0.0577239990234375
1772457943954072600,0.613072509765625,-0.8956298828125,-0.34100341796875,0.0628814697265625
1772457943964140500,0.623140625,-0.9027099609375,-0.341888427734375,0.0663299560546875
1772457943974208500,0.63320849609375,-0.9209442138671875,-0.341033935546875,0.0651092529296875
1772457943984277500,0.643277587890625,-0.948028564453125,-0.33868408203125,0.06671142578125
1772457943994345700,0.653345703125,-0.9722747802734375,-0.3362579345703125,0.0732574462890625
1772457944004413700,0.66341357421875,-0.9918975830078125,-0.334259033203125,0.0845794677734375
1772457944014481700,0.673481689453125,-1.0023345947265625,-0.3330078125,0.101409912109375
1772457944024549400,0.68354931640625,-0.997039794921875,-0.3301239013671875,0.1150665283203125
1772457944034618600,0.69361865234375,-0.987396240234375,-0.3222808837890625,0.10675048828125
1772457944044686600,0.7036865234375,-0.9941253662109375,-0.3219451904296875,0.092315673828125
1772457944054754600,0.713754638671875,-1.0219573974609375,-0.31640625,0.0754547119140625
1772457944064822500,0.723822509765625,-1.060394287109375,-0.3020477294921875,0.0582275390625
1772457944074890500,0.733890380859375,-1.0826873779296875,-0.28399658203125,0.0398101806640625
1772457944084959500,0.74395947265625,-1.09747314453125,-0.2602386474609375,0.0257415771484375
1772457944095027500,0.75402734375,-1.1150970458984375,-0.2320556640625,0.0163116455078125
1772457944105095700,0.764095703125,-1.1340789794921875,-0.2071380615234375,0.0192718505859375
1772457944115163600,0.77416357421875,-1.13873291015625,-0.18829345703125,0.039276123046875
1772457944125231600,0.784231689453125,-1.1360626220703125,-0.17816162109375,0.0655975341796875
1772457944135300600,0.794300537109375,-1.125335693359375,-0.1734619140625,0.0886993408203125
1772457944145368600,0.80436865234375,-1.096466064453125,-0.1795654296875,0.1066436767578125
1772457944155436500,0.8144365234375,-1.06036376953125,-0.19439697265625,0.116424560546875
1772457944165504500,0.82450439453125,-1.0292816162109375,-0.214385986328125,0.12017822265625
1772457944175573500,0.834573486328125,-0.999664306640625,-0.2232513427734375,0.119293212890625
1772457944185641500,0.844641357421875,-0.9719085693359375,-0.23175048828125,0.1131439208984375
1772457944195709400,0.85470947265625,-0.956085205078125,-0.2361297607421875,0.10546875
1772457944205777700,0.864777587890625,-0.9536895751953125,-0.2305755615234375,0.0934295654296875
1772457944215845600,0.874845703125,-0.963104248046875,-0.2228546142578125,0.07720947265625
1772457944225913600,0.88491357421875,-0.97869873046875,-0.2099151611328125,0.067596435546875
1772457944235982600,0.894982666015625,-0.9898681640625,-0.1983489990234375,0.0661773681640625
1772457944246050600,0.905050537109375,-0.99163818359375,-0.190704345703125,0.069305419921875
1772457944256118500,0.915118408203125,-0.986053466796875,-0.190277099609375,0.0682220458984375
1772457944266186500,0.9251865234375,-0.970947265625,-0.1937713623046875,0.059906005859375
1772457944276254700,0.935254638671875,-0.9593048095703125,-0.198974609375,0.0497283935546875
1772457944286323500,0.945323486328125,-0.94952392578125,-0.2039794921875,0.0352020263671875
1772457944296391200,0.95539111328125,-0.94964599609375,-0.207916259765625,0.022369384765625
1772457944306459100,0.965459228515625,-0.9460296630859375,-0.2043304443359375,0.0098724365234375
1772457944316527000,0.975527099609375,-0.95318603515625,-0.2006988525390625,-0.0068511962890625
1772457944326595000,0.985594970703125,-0.97894287109375,-0.19537353515625,-0.0273284912109375
1772457944336664300,0.995664306640625,-1.0171966552734375,-0.183380126953125,-0.05096435546875
1772457944346732000,1.00573193359375,-1.0472412109375,-0.1688232421875,-0.06768798828125
1772457944356800000,1.015800048828125,-1.0643310546875,-0.1526641845703125,-0.07293701171875
1772457944366868200,1.0258681640625,-1.0591583251953125,-0.1392669677734375,-0.069488525390625
1772457944376936200,1.035936279296875,-1.0399932861328125,-0.1356353759765625,-0.0652618408203125
1772457944387005200,1.046005126953125,-1.0216064453125,-0.135101318359375,-0.06103515625
1772457944397073200,1.0560732421875,-0.99609375,-0.141448974609375,-0.055389404296875
1772457944407141000,1.06614111328125,-0.9619903564453125,-0.1520233154296875,-0.043731689453125
1772457944417209000,1.076208984375,-0.9188079833984375,-0.1693878173828125,-0.0298004150390625
1772457944427277000,1.086277099609375,-0.8740081787109375,-0.1861419677734375,-0.0193939208984375
1772457944437346300,1.09634619140625,-0.8349609375,-0.2020721435546875,-0.0024566650390625
1772457944447414300,1.106414306640625,-0.801666259765625,-0.2188720703125,0.011474609375
1772457944457482000,1.11648193359375,-0.77203369140625,-0.2353668212890625,0.01812744140625
1772457944467550200,1.12655029296875,-0.758148193359375,-0.253631591796875,0.0229644775390625
1772457944477618200,1.1366181640625,-0.7537689208984375,-0.2619171142578125,0.022369384765625
1772457944487687200,1.146687255859375,-0.7546844482421875,-0.2646942138671875,0.01812744140625
1772457944497755400,1.15675537109375,-0.762054443359375,-0.268585205078125,0.01129150390625
1772457944507823000,1.166822998046875,-0.769989013671875,-0.270965576171875,0.0074615478515625
1772457944517891000,1.17689111328125,-0.7773284912109375,-0.2719268798828125,0.009796142578125
1772457944527959000,1.186958984375,-0.798431396484375,-0.2750244140625,0.008087158203125
1772457944538028300,1.1970283203125,-0.8360137939453125,-0.2713623046875,0.0062408447265625
1772457944548096300,1.20709619140625,-0.8765411376953125,-0.2657318115234375,0.0070648193359375
1772457944558164200,1.217164306640625,-0.9077606201171875,-0.253936767578125,0.014007568359375
1772457944568232000,1.22723193359375,-0.928924560546875,-0.24395751953125,0.03033447265625
1772457944578300200,1.237300048828125,-0.94195556640625,-0.2421417236328125,0.0471038818359375
1772457944588368100,1.2473681640625,-0.9524688720703125,-0.244049072265625,0.05859375
1772457944598437000,1.25743701171875,-0.9656829833984375,-0.246673583984375,0.0625762939453125
1772457944608505300,1.26750537109375,-0.97784423828125,-0.2529754638671875,0.059722900390625
1772457944618573300,1.2775732421875,-0.9875030517578125,-0.2638702392578125,0.0551300048828125
1772457944628641000,1.28764111328125,-0.98419189453125,-0.2766265869140625,0.05023193359375
1772457944638710300,1.297710205078125,-0.9725494384765625,-0.2908782958984375,0.0485076904296875
1772457944648778200,1.3077783203125,-0.9636383056640625,-0.30133056640625,0.041046142578125
1772457944658846200,1.31784619140625,-0.960601806640625,-0.309906005859375,0.03167724609375
1772457944668914200,1.3279140625,-0.957550048828125,-0.316436767578125,0.0260467529296875
1772457944678982100,1.337982177734375,-0.949371337890625,-0.3205718994140625,0.021453857421875
1772457944689050000,1.348050048828125,-0.943084716796875,-0.3236541748046875,0.0193939208984375
1772457944699119000,1.358119140625,-0.9438629150390625,-0.3249359130859375,0.01751708984375
1772457944709187300,1.368187255859375,-0.94921875,-0.321502685546875,0.015716552734375
1772457944719255300,1.37825537109375,-0.953094482421875,-0.313018798828125,0.0143585205078125
1772457944729323300,1.3883232421875,-0.95208740234375,-0.3061981201171875,0.01959228515625
1772457944739391000,1.398390869140625,-0.953704833984375,-0.2980194091796875,0.022857666015625
1772457944749460200,1.408460205078125,-0.9561767578125,-0.294525146484375,0.0206146240234375
1772457944759528200,1.418528076171875,-0.9497833251953125,-0.292510986328125,0.01959228515625
1772457944769596200,1.42859619140625,-0.9483642578125,-0.2922210693359375,0.0186004638671875
1772457944779664400,1.438664306640625,-0.96112060546875,-0.2868499755859375,0.0126190185546875
1772457944789732000,1.448732177734375,-0.974578857421875,-0.2779541015625,0.0122833251953125
1772457944799801000,1.458801025390625,-0.9832916259765625,-0.26739501953125,0.0156097412109375
1772457944809869300,1.468869384765625,-0.9942169189453125,-0.2613067626953125,0.014068603515625
1772457944819937300,1.478937255859375,-1.0058746337890625,-0.2611236572265625,0.0109405517578125
1772457944830005200,1.489005126953125,-1.0194549560546875,-0.2555389404296875,0.0105743408203125
1772457944840073200,1.4990732421875,-1.02838134765625,-0.2480010986328125,0.0113677978515625
1772457944850142200,1.50914208984375,-1.03448486328125,-0.2450408935546875,0.0090789794921875
1772457944860210200,1.519210205078125,-1.0376434326171875,-0.2444000244140625,-0.000152587890625
1772457944870278100,1.529278076171875,-1.0449981689453125,-0.24578857421875,-0.013458251953125
1772457944880346000,1.53934619140625,-1.0518951416015625,-0.243560791015625,-0.0264434814453125
1772457944890414300,1.549414306640625,-1.0476531982421875,-0.2393035888671875,-0.0370941162109375
1772457944900483000,1.559483154296875,-1.0424041748046875,-0.2405242919921875,-0.0474395751953125
1772457944910551000,1.569551025390625,-1.04290771484375,-0.24078369140625,-0.0561370849609375
1772457944920619300,1.579619384765625,-1.04827880859375,-0.23858642578125,-0.06170654296875
1772457944930687200,1.589687255859375,-1.051422119140625,-0.237060546875,-0.0684051513671875
1772457944940755200,1.599755126953125,-1.0577545166015625,-0.23651123046875,-0.07379150390625
1772457944950824200,1.60982421875,-1.0582733154296875,-0.235198974609375,-0.0757904052734375
1772457944960892200,1.61989208984375,-1.050811767578125,-0.233856201171875,-0.0728759765625
1772457944970960100,1.629960205078125,-1.0426483154296875,-0.2425537109375,-0.0662078857421875
1772457944981028000,1.640028076171875,-1.0347900390625,-0.26202392578125,-0.05615234375
1772457944991096300,1.650096435546875,-1.0102996826171875,-0.28643798828125,-0.047637939453125
1772457945001165000,1.6601650390625,-0.974151611328125,-0.30078125,-0.0528564453125
1772457945011233000,1.67023291015625,-0.9582061767578125,-0.3134765625,-0.0662384033203125
1772457945021301200,1.68030126953125,-0.9634246826171875,-0.323974609375,-0.0803680419921875
1772457945031369200,1.690369140625,-0.9789886474609375,-0.3235931396484375,-0.0896759033203125
1772457945041437200,1.700437255859375,-0.9988250732421875,-0.31976318359375,-0.0947418212890625
1772457945051506200,1.710506103515625,-1.004425048828125,-0.31329345703125,-0.0951385498046875
1772457945061574100,1.72057421875,-0.9969482421875,-0.3033447265625,-0.0923919677734375
1772457945071642000,1.73064208984375,-0.98638916015625,-0.29815673828125,-0.08251953125
1772457945081710000,1.7407099609375,-0.9837188720703125,-0.294036865234375,-0.07342529296875
1772457945091778300,1.7507783203125,-0.99041748046875,-0.2877044677734375,-0.0653533935546875
1772457945101846300,1.76084619140625,-0.9946136474609375,-0.2776336669921875,-0.0558929443359375
1772457945111915000,1.7709150390625,-0.9874114990234375,-0.2704620361328125,-0.0460052490234375
1772457945121983200,1.780983154296875,-0.9720611572265625,-0.2653656005859375,-0.0332489013671875
1772457945132051200,1.79105126953125,-0.9617156982421875,-0.2653961181640625,-0.0216827392578125
1772457945142119200,1.801119140625,-0.95318603515625,-0.2716522216796875,-0.0174407958984375
1772457945152187100,1.811187255859375,-0.9496307373046875,-0.27392578125,-0.021331787109375
1772457945162256100,1.821256103515625,-0.9500274658203125,-0.2682647705078125,-0.02728271484375
1772457945172324000,1.831323974609375,-0.9543304443359375,-0.2631683349609375,-0.0319671630859375
1772457945182392000,1.84139208984375,-0.9545745849609375,-0.255889892578125,-0.0275421142578125
1772457945192460000,1.8514599609375,-0.9466400146484375,-0.2493743896484375,-0.0189361572265625
1772457945202528300,1.8615283203125,-0.940155029296875,-0.2431488037109375,-0.0128021240234375
1772457945212597200,1.87159716796875,-0.9329071044921875,-0.2361907958984375,-0.00244140625
1772457945222665000,1.8816650390625,-0.92974853515625,-0.2265625,0.0068511962890625
1772457945232733200,1.891733154296875,-0.92926025390625,-0.21820068359375,0.01483154296875
1772457945242801200,1.90180126953125,-0.929290771484375,-0.2053680419921875,0.023834228515625
1772457945252869000,1.911869140625,-0.9251708984375,-0.19232177734375,0.0328826904296875
1772457945262938400,1.9219384765625,-0.915771484375,-0.183502197265625,0.0449371337890625
1772457945273006000,1.932006103515625,-0.9062347412109375,-0.174560546875,0.0538177490234375
1772457945283074000,1.942073974609375,-0.9036712646484375,-0.1756439208984375,0.06182861328125
1772457945293142500,1.952142578125,-0.9120941162109375,-0.181915283203125,0.0697479248046875
1772457945303210500,1.96221044921875,-0.9214630126953125,-0.1890106201171875,0.0774993896484375
1772457945313279700,1.97227978515625,-0.9203338623046875,-0.189849853515625,0.08514404296875
1772457945323347500,1.982347412109375,-0.9141387939453125,-0.187530517578125,0.095703125
1772457945333415400,1.99241552734375,-0.9121551513671875,-0.1882476806640625,0.110198974609375
1772457945343483400,2.0024833984375,-0.9102935791015625,-0.1886138916015625,0.1168365478515625
1772457945353551600,2.012551513671875,-0.91229248046875,-0.190521240234375,0.11602783203125
1772457945363620600,2.02262060546875,-0.9160003662109375,-0.2001953125,0.1206817626953125
1772457945373688600,2.0326884765625,-0.9125213623046875,-0.2080230712890625,0.124725341796875
1772457945383756500,2.042756591796875,-0.902740478515625,-0.216033935546875,0.1282196044921875
1772457945393824500,2.052824462890625,-0.8849334716796875,-0.224334716796875,0.1382598876953125
1772457945403892500,2.062892578125,-0.86566162109375,-0.2397918701171875,0.146514892578125
1772457945413961700,2.072961669921875,-0.8524017333984375,-0.2547607421875,0.15283203125
1772457945424029700,2.08302978515625,-0.8468017578125,-0.2702178955078125,0.1630706787109375
1772457945434097400,2.093097412109375,-0.84368896484375,-0.282958984375,0.164794921875
1772457945444165400,2.103165283203125,-0.8494720458984375,-0.2905120849609375,0.1617431640625
1772457945454233600,2.113233642578125,-0.8547210693359375,-0.3009796142578125,0.1577606201171875
1772457945464302600,2.123302490234375,-0.8511962890625,-0.31024169921875,0.1507720947265625
1772457945474370600,2.13337060546875,-0.85577392578125,-0.3187103271484375,0.1414031982421875
1772457945484438800,2.143438720703125,-0.8648681640625,-0.3228759765625,0.1216278076171875
1772457945494506500,2.153506591796875,-0.86895751953125,-0.3184814453125,0.102447509765625
1772457945504574500,2.163574462890625,-0.87908935546875,-0.31011962890625,0.083221435546875
1772457945514643700,2.173643798828125,-0.8986053466796875,-0.2958526611328125,0.067108154296875
1772457945524711700,2.183711669921875,-0.9310760498046875,-0.2808990478515625,0.049163818359375
1772457945534779600,2.193779541015625,-0.971710205078125,-0.2679595947265625,0.030670166015625
1772457945544847600,2.20384765625,-1.01336669921875,-0.255035400390625,0.02642822265625
1772457945554915600,2.21391552734375,-1.0538330078125,-0.2345428466796875,0.0271759033203125
1772457945564984600,2.223984619140625,-1.08734130859375,-0.2108306884765625,0.0296478271484375
1772457945575052500,2.234052490234375,-1.1047210693359375,-0.1904449462890625,0.04595947265625
1772457945585120500,2.24412060546875,-1.098846435546875,-0.1772308349609375,0.06591796875
1772457945595188700,2.254188720703125,-1.077178955078125,-0.1716461181640625,0.083251953125
1772457945605256400,2.26425634765625,-1.05059814453125,-0.177398681640625,0.098541259765625
1772457945615324400,2.274324462890625,-1.0251312255859375,-0.186370849609375,0.10821533203125
1772457945625393700,2.2843935546875,-0.9993743896484375,-0.1933135986328125,0.1085052490234375
1772457945635461600,2.294461669921875,-0.97259521484375,-0.1990203857421875,0.1053009033203125
1772457945645529600,2.304529541015625,-0.947509765625,-0.2110443115234375,0.099151611328125
1772457945655597600,2.31459765625,-0.9292755126953125,-0.2236785888671875,0.09503173828125
1772457945665666600,2.32466650390625,-0.9133453369140625,-0.2338104248046875,0.09124755859375
1772457945675734500,2.334734619140625,-0.9056854248046875,-0.2443695068359375,0.083251953125
1772457945685802500,2.344802490234375,-0.9011688232421875,-0.2520751953125,0.0732879638671875
1772457945695870700,2.35487060546875,-0.8936309814453125,-0.2639923095703125,0.0629425048828125
1772457945705938700,2.364938720703125,-0.8840179443359375,-0.2830657958984375,0.0472412109375
1772457945716006400,2.37500634765625,-0.8784637451171875,-0.2985992431640625,0.0371551513671875
1772457945726075600,2.38507568359375,-0.879730224609375,-0.3147430419921875,0.029632568359375
1772457945736143600,2.3951435546875,-0.8857879638671875,-0.330596923828125,0.01983642578125
1772457945746211600,2.405211669921875,-0.892822265625,-0.344390869140625,0.01104736328125
1772457945756279600,2.415279541015625,-0.8988800048828125,-0.3544769287109375,0.0057220458984375
1772457945766347500,2.425347412109375,-0.91064453125,-0.359588623046875,0.0048980712890625
1772457945776416500,2.43541650390625,-0.9251861572265625,-0.36083984375,0.007598876953125
1772457945786484500,2.445484375,-0.9317626953125,-0.3623504638671875,0.0115509033203125
1772457945796552700,2.455552734375,-0.927459716796875,-0.366790771484375,0.015716552734375
1772457945806620700,2.46562060546875,-0.920257568359375,-0.370758056640625,0.020843505859375
1772457945816688600,2.475688720703125,-0.9159393310546875,-0.373687744140625,0.027374267578125
1772457945826757600,2.485757568359375,-0.9218902587890625,-0.3780059814453125,0.031219482421875
1772457945836825600,2.49582568359375,-0.932220458984375,-0.378692626953125,0.035858154296875
1772457945846893600,2.5058935546875,-0.9379425048828125,-0.3807525634765625,0.0383453369140625
1772457945856961500,2.51596142578125,-0.937530517578125,-0.3835296630859375,0.0457000732421875
1772457945867029800,2.52602978515625,-0.9337005615234375,-0.3862152099609375,0.0480804443359375
1772457945877098500,2.536098388671875,-0.932830810546875,-0.38580322265625,0.0493927001953125
1772457945887166500,2.54616650390625,-0.9388427734375,-0.3878936767578125,0.0486907958984375
1772457945897234400,2.556234375,-0.9488677978515625,-0.390594482421875,0.045684814453125
1772457945907302700,2.566302734375,-0.961395263671875,-0.3881683349609375,0.0416259765625
1772457945917370600,2.57637060546875,-0.9699859619140625,-0.385772705078125,0.0456695556640625
1772457945927439400,2.586439453125,-0.9748382568359375,-0.3863677978515625,0.054412841796875
1772457945937507600,2.596507568359375,-0.9733734130859375,-0.3916778564453125,0.067840576171875
1772457945947575600,2.606575439453125,-0.967742919921875,-0.395751953125,0.0752716064453125
1772457945957643500,2.6166435546875,-0.96630859375,-0.3916473388671875,0.0697784423828125
1772457945967711500,2.62671142578125,-0.9720611572265625,-0.3853759765625,0.06317138671875
1772457945977780500,2.636780517578125,-0.98968505859375,-0.3800506591796875,0.0574951171875
1772457945987848400,2.646848388671875,-1.0076141357421875,-0.37359619140625,0.052032470703125
1772457945997916400,2.65691650390625,-1.0154571533203125,-0.3658905029296875,0.04754638671875
1772457946007984600,2.666984619140625,-1.0086822509765625,-0.358673095703125,0.041656494140625
1772457946018052600,2.677052490234375,-1.0054931640625,-0.353057861328125,0.0398406982421875
1772457946028121300,2.687121337890625,-1.0125579833984375,-0.3446197509765625,0.041717529296875
1772457946038189600,2.697189453125,-1.010284423828125,-0.3382110595703125,0.044342041015625
1772457946048257500,2.707257568359375,-1.0024871826171875,-0.336456298828125,0.05517578125
1772457946058325500,2.717325439453125,-0.9917755126953125,-0.336944580078125,0.062103271484375
1772457946068393500,2.7273935546875,-0.976226806640625,-0.33551025390625,0.06793212890625
1772457946078462700,2.737462646484375,-0.9545440673828125,-0.3322601318359375,0.0782318115234375
1772457946088530400,2.747530517578125,-0.9354705810546875,-0.3295135498046875,0.085845947265625
1772457946098598400,2.757598388671875,-0.92425537109375,-0.3266143798828125,0.0869293212890625
1772457946108666600,2.76766650390625,-0.9258575439453125,-0.3198699951171875,0.0779266357421875
1772457946118734600,2.777734619140625,-0.9405517578125,-0.306396484375,0.07110595703125
1772457946128802600,2.787802490234375,-0.9586181640625,-0.294464111328125,0.0657501220703125
1772457946138871600,2.79787158203125,-0.97283935546875,-0.2768402099609375,0.0608062744140625
1772457946148939500,2.807939453125,-0.99066162109375,-0.2529296875,0.0545196533203125
1772457946159007500,2.818007568359375,-1.0052947998046875,-0.234527587890625,0.047637939453125
1772457946169075500,2.828075439453125,-1.0137939453125,-0.22381591796875,0.0382232666015625
1772457946179143700,2.838143798828125,-1.012603759765625,-0.2105712890625,0.0309295654296875
1772457946189212700,2.848212646484375,-1.0127410888671875,-0.1974334716796875,0.020660400390625
1772457946199280400,2.8582802734375,-1.0131988525390625,-0.186676025390625,0.0122528076171875
1772457946209348400,2.868348388671875,-1.0048980712890625,-0.17919921875,0.00531005859375
1772457946219416600,2.87841650390625,-0.9908294677734375,-0.1760406494140625,-0.005584716796875
1772457946229484500,2.888484619140625,-0.972015380859375,-0.1717071533203125,-0.016357421875
1772457946239553500,2.898553466796875,-0.9486541748046875,-0.16766357421875,-0.02593994140625
1772457946249621500,2.90862158203125,-0.9121856689453125,-0.1668853759765625,-0.0248260498046875
1772457946259689500,2.918689453125,-0.884429931640625,-0.1654815673828125,-0.0206146240234375
1772457946269757400,2.92875732421875,-0.883758544921875,-0.1615142822265625,-0.0154266357421875
1772457946279825400,2.938825439453125,-0.8870697021484375,-0.1614837646484375,-0.0118560791015625
1772457946289894700,2.948894775390625,-0.88751220703125,-0.1675567626953125,-0.0055999755859375
1772457946299962400,2.95896240234375,-0.89471435546875,-0.172821044921875,-0.000335693359375
1772457946310030300,2.9690302734375,-0.90545654296875,-0.178619384765625,-0.002532958984375
1772457946320098000,2.97909814453125,-0.913055419921875,-0.1900177001953125,-0.01129150390625
1772457946330166000,2.989166015625,-0.914794921875,-0.2062530517578125,-0.0234832763671875
1772457946340235300,2.9992353515625,-0.90875244140625,-0.220794677734375,-0.0368499755859375
1772457946350303200,3.00930322265625,-0.9030914306640625,-0.2359771728515625,-0.05194091796875
1772457946360371200,3.01937109375,-0.8986663818359375,-0.2465667724609375,-0.06683349609375
1772457946370439200,3.029439208984375,-0.9019622802734375,-0.2494964599609375,-0.0836029052734375
1772457946380507100,3.039507080078125,-0.91436767578125,-0.2476806640625,-0.105560302734375
1772457946390576000,3.049576171875,-0.9353790283203125,-0.24420166015625,-0.1161041259765625
1772457946400644000,3.05964404296875,-0.962646484375,-0.2360382080078125,-0.1201019287109375
1772457946410712300,3.06971240234375,-0.9856109619140625,-0.227294921875,-0.11700439453125
1772457946420780300,3.0797802734375,-0.9971923828125,-0.2228851318359375,-0.1075592041015625
1772457946430848000,3.089847900390625,-1.0022735595703125,-0.2213134765625,-0.0971221923828125
1772457946440917200,3.099917236328125,-1.0016937255859375,-0.2218017578125,-0.0776214599609375
1772457946450985200,3.109985107421875,-0.9859771728515625,-0.224884033203125,-0.0510101318359375
1772457946461053200,3.12005322265625,-0.96429443359375,-0.2279815673828125,-0.018585205078125
1772457946471121200,3.13012109375,-0.944793701171875,-0.22991943359375,0.005462646484375
1772457946481189400,3.140189453125,-0.92132568359375,-0.2348175048828125,0.024749755859375
1772457946491258000,3.150258056640625,-0.89569091796875,-0.240203857421875,0.0394744873046875
1772457946501326000,3.160326171875,-0.8760833740234375,-0.249908447265625,0.048065185546875
1772457946511394300,3.170394287109375,-0.8657073974609375,-0.261383056640625,0.0476226806640625
1772457946521462300,3.180462158203125,-0.8655242919921875,-0.267791748046875,0.0460205078125
1772457946531530200,3.1905302734375,-0.8639373779296875,-0.2744293212890625,0.0441741943359375
1772457946541599200,3.20059912109375,-0.85888671875,-0.2853240966796875,0.04071044921875
1772457946551667200,3.210667236328125,-0.8615875244140625,-0.2915802001953125,0.03546142578125
1772457946561735200,3.220735107421875,-0.875,-0.2978363037109375,0.031158447265625
1772457946571803100,3.23080322265625,-0.8920745849609375,-0.295928955078125,0.02447509765625
1772457946581871400,3.240871337890625,-0.9086456298828125,-0.2925567626953125,0.0250091552734375
1772457946591940000,3.250940185546875,-0.9198150634765625,-0.28765869140625,0.025848388671875
1772457946602008000,3.261008056640625,-0.933807373046875,-0.2819976806640625,0.0264739990234375
1772457946612076300,3.271076171875,-0.9571990966796875,-0.2768402099609375,0.0263214111328125
1772457946622144300,3.281144287109375,-0.977630615234375,-0.27191162109375,0.0235595703125
1772457946632212200,3.291212158203125,-0.9939727783203125,-0.2714080810546875,0.0146942138671875
1772457946642280200,3.3012802734375,-1.0035247802734375,-0.275482177734375,0.004547119140625
1772457946652349200,3.31134912109375,-1.0028228759765625,-0.2736663818359375,0.000335693359375
1772457946662417200,3.321417236328125,-1.000030517578125,-0.27264404296875,0.0000152587890625
1772457946672485000,3.331485107421875,-1.002105712890625,-0.270904541015625,0.0020904541015625
1772457946682553300,3.34155322265625,-1.00665283203125,-0.2659912109375,0.00177001953125
1772457946692621300,3.351621337890625,-1.0134124755859375,-0.258544921875,0.0015411376953125
1772457946702690000,3.36168994140625,-1.0291290283203125,-0.25048828125,0.0022125244140625
1772457946712758000,3.371758056640625,-1.044677734375,-0.2396240234375,0.0030364990234375
1772457946722826200,3.381826171875,-1.054412841796875,-0.2267303466796875,0.00531005859375
1772457946732894200,3.391894287109375,-1.0555267333984375,-0.217132568359375,0.0055084228515625
1772457946742962200,3.401962158203125,-1.0521240234375,-0.207672119140625,0.0102691650390625
1772457946753031200,3.41203125,-1.0476226806640625,-0.20526123046875,0.015167236328125
1772457946763099100,3.42209912109375,-1.05413818359375,-0.2059783935546875,0.013458251953125
1772457946773167000,3.4321669921875,-1.072357177734375,-0.2102203369140625,0.00738525390625
1772457946783235000,3.442235107421875,-1.0839385986328125,-0.2198028564453125,0.0027923583984375
1772457946793303300,3.45230322265625,-1.0719146728515625,-0.22686767578125,-0.003631591796875
1772457946803372000,3.4623720703125,-1.0560455322265625,-0.2285919189453125,-0.01531982421875
1772457946813440000,3.47243994140625,-1.060272216796875,-0.2307891845703125,-0.0269012451171875
1772457946823508200,3.48250830078125,-1.0732879638671875,-0.231292724609375,-0.0355987548828125
1772457946833576200,3.492576171875,-1.08575439453125,-0.230743408203125,-0.04437255859375
1772457946843644200,3.50264404296875,-1.091461181640625,-0.2257080078125,-0.049957275390625
1772457946853713200,3.512713134765625,-1.0788421630859375,-0.223419189453125,-0.0516357421875
1772457946863781000,3.522781005859375,-1.0546112060546875,-0.2249908447265625,-0.044952392578125
1772457946873849000,3.53284912109375,-1.029388427734375,-0.2317352294921875,-0.03179931640625
1772457946883917000,3.5429169921875,-1.011016845703125,-0.237335205078125,-0.01898193359375
1772457946893985300,3.5529853515625,-0.991424560546875,-0.243316650390625,-0.015167236328125
1772457946904054300,3.56305419921875,-0.9777069091796875,-0.2501373291015625,-0.014190673828125
1772457946914122000,3.5731220703125,-0.971099853515625,-0.2552490234375,-0.0112152099609375
1772457946924190200,3.583190185546875,-0.9575042724609375,-0.2573394775390625,-0.0112762451171875
1772457946934258200,3.593258056640625,-0.941192626953125,-0.2625579833984375,-0.010040283203125
1772457946944326100,3.603326171875,-0.928009033203125,-0.26837158203125,-0.0035400390625
1772457946954395400,3.6133955078125,-0.917755126953125,-0.26666259765625,-0.0021820068359375
1772457946964463400,3.62346337890625,-0.9216766357421875,-0.2562713623046875,-0.0063018798828125
1772457946974531000,3.633531005859375,-0.93414306640625,-0.242279052734375,-0.006988525390625
1772457946984599000,3.64359912109375,-0.9496002197265625,-0.224884033203125,-0.0079498291015625
1772457946994667300,3.653667236328125,-0.9725189208984375,-0.2057037353515625,-0.004302978515625
1772457947004736300,3.663736328125,-0.99371337890625,-0.18902587890625,0.0004119873046875
1772457947014804200,3.67380419921875,-1.0090179443359375,-0.175140380859375,0.0086517333984375
1772457947024872200,3.6838720703125,-1.023406982421875,-0.167877197265625,0.0162353515625
1772457947034940200,3.693940185546875,-1.0281219482421875,-0.1666717529296875,0.0220947265625
1772457947045008100,3.704008056640625,-1.0164031982421875,-0.174224853515625,0.026214599609375
1772457947055077000,3.7140771484375,-0.9952392578125,-0.1854095458984375,0.0330657958984375
1772457947065145300,3.724145263671875,-0.9686737060546875,-0.1944732666015625,0.0370330810546875
1772457947075213300,3.73421337890625,-0.9345550537109375,-0.2002105712890625,0.0428924560546875
1772457947085281000,3.744281005859375,-0.896392822265625,-0.20684814453125,0.048095703125
1772457947095349000,3.754348876953125,-0.875,-0.2126007080078125,0.0520477294921875
1772457947105417200,3.764417236328125,-0.8679351806640625,-0.214324951171875,0.058319091796875
1772457947115486200,3.774486328125,-0.8629608154296875,-0.2137451171875,0.0655059814453125
1772457947125554200,3.78455419921875,-0.8539581298828125,-0.21612548828125,0.0700836181640625
1772457947135622100,3.7946220703125,-0.8443603515625,-0.2240753173828125,0.0733489990234375
1772457947145690000,3.804690185546875,-0.83563232421875,-0.234893798828125,0.0823211669921875
1772457947155758000,3.814758056640625,-0.835174560546875,-0.24615478515625,0.0944366455078125
1772457947165827300,3.824827392578125,-0.8370361328125,-0.2521209716796875,0.1063079833984375
1772457947175895300,3.834895263671875,-0.8339385986328125,-0.258544921875,0.1251983642578125
1772457947185963300,3.84496337890625,-0.824432373046875,-0.2657928466796875,0.1446685791015625
1772457947196031000,3.855031005859375,-0.8200531005859375,-0.275177001953125,0.162689208984375
1772457947206099200,3.86509912109375,-0.810455322265625,-0.2843780517578125,0.1658477783203125
1772457947216168200,3.875168212890625,-0.8090362548828125,-0.289825439453125,0.158935546875
1772457947226236200,3.885236083984375,-0.82012939453125,-0.2910003662109375,0.1401214599609375
1772457947236304400,3.895304443359375,-0.8132476806640625,-0.28546142578125,0.1024322509765625
1772457947246372000,3.9053720703125,-0.8221435546875,-0.280792236328125,0.0730133056640625
1772457947256440000,3.915440185546875,-0.8503570556640625,-0.2739715576171875,0.045196533203125
1772457947266509300,3.92550927734375,-0.895599365234375,-0.2627716064453125,0.0209808349609375
1772457947276577300,3.935577392578125,-0.967041015625,-0.2472686767578125,0.002349853515625
1772457947286645200,3.945645263671875,-1.02886962890625,-0.2273101806640625,-0.0096893310546875
1772457947296713500,3.95571337890625,-1.072113037109375,-0.2079315185546875,-0.012298583984375
1772457947306781400,3.965781494140625,-1.0898895263671875,-0.1898345947265625,0.00311279296875
1772457947316850400,3.975850341796875,-1.0885772705078125,-0.1766357421875,0.0345916748046875
1772457947326916400,3.985916259765625,-1.06884765625,-0.1639556884765625,0.0697021484375
1772457947336984300,3.995984375,-1.0371856689453125,-0.1631622314453125,0.09710693359375
1772457947347053600,4.006053466796875,-1.0055084228515625,-0.1700897216796875,0.115936279296875
1772457947357121500,4.01612158203125,-0.981048583984375,-0.1811065673828125,0.1262664794921875
1772457947367189500,4.026189453125,-0.96270751953125,-0.1924285888671875,0.12939453125
1772457947377257500,4.036257568359375,-0.944488525390625,-0.2009735107421875,0.124847412109375
1772457947387325400,4.046325439453125,-0.928924560546875,-0.2064361572265625,0.1198577880859375
1772457947397394400,4.05639453125,-0.918914794921875,-0.212127685546875,0.1125030517578125
1772457947407462400,4.06646240234375,-0.9179229736328125,-0.2156524658203125,0.10504150390625
1772457947417530600,4.076530517578125,-0.9237213134765625,-0.2145538330078125,0.09857177734375
1772457947427598600,4.0865986328125,-0.9311065673828125,-0.2154693603515625,0.0967254638671875
1772457947437666300,4.096666259765625,-0.9359588623046875,-0.21875,0.095306396484375
1772457947447735300,4.1067353515625,-0.9383087158203125,-0.22308349609375,0.092376708984375
1772457947457803500,4.116803466796875,-0.93597412109375,-0.2293548583984375,0.0863800048828125
1772457947467871500,4.12687158203125,-0.9326171875,-0.2376861572265625,0.08197021484375
1772457947477939500,4.136939453125,-0.9449462890625,-0.2444305419921875,0.071685791015625
1772457947488007400,4.14700732421875,-0.962677001953125,-0.2467803955078125,0.06146240234375
1772457947498075400,4.157075439453125,-0.98095703125,-0.2463836669921875,0.053009033203125
1772457947508144400,4.167144287109375,-0.9993133544921875,-0.247314453125,0.0471954345703125
1772457947518212400,4.17721240234375,-1.0158538818359375,-0.2481231689453125,0.04248046875
1772457947528280600,4.187280517578125,-1.032562255859375,-0.2457122802734375,0.033660888671875
1772457947538348500,4.1973486328125,-1.042205810546875,-0.2442626953125,0.0292205810546875
1772457947548416300,4.207416259765625,-1.0438385009765625,-0.2440338134765625,0.0244140625
1772457947558485500,4.217485595703125,-1.0501556396484375,-0.2474517822265625,0.0257415771484375
1772457947568553500,4.227553466796875,-1.055389404296875,-0.2484130859375,0.023529052734375
1772457947578621400,4.237621337890625,-1.0552215576171875,-0.2490692138671875,0.02325439453125
1772457947588689400,4.247689453125,-1.0550994873046875,-0.2521514892578125,0.0272369384765625
1772457947598757600,4.257757568359375,-1.055694580078125,-0.2541351318359375,0.034027099609375
1772457947608826400,4.267826416015625,-1.0500030517578125,-0.2613525390625,0.045745849609375
1772457947618894300,4.277894287109375,-1.0394744873046875,-0.276153564453125,0.0702362060546875
1772457947628962600,4.287962646484375,-1.0142974853515625,-0.29425048828125,0.096435546875
1772457947639030500,4.298030517578125,-0.967193603515625,-0.301239013671875,0.1079864501953125
1772457947649098500,4.308098388671875,-0.9416046142578125,-0.30169677734375,0.10675048828125
1772457947659167500,4.31816748046875,-0.965545654296875,-0.305267333984375,0.102264404296875
1772457947669235500,4.3282353515625,-1.0011749267578125,-0.302581787109375,0.0868072509765625
1772457947679303400,4.338303466796875,-1.0252532958984375,-0.298797607421875,0.0709381103515625
1772457947689373400,4.34837353515625,-1.0315704345703125,-0.292724609375,0.0601654052734375
1772457947699441400,4.35844140625,-1.02825927734375,-0.2838592529296875,0.0565032958984375
1772457947709509400,4.36850927734375,-1.0233001708984375,-0.277374267578125,0.0610504150390625
1772457947719577300,4.378577392578125,-1.026123046875,-0.27593994140625,0.066802978515625
1772457947729646300,4.388646240234375,-1.0242462158203125,-0.271240234375,0.0689239501953125
1772457947739714300,4.39871435546875,-1.0251617431640625,-0.2684173583984375,0.0680999755859375
1772457947749782300,4.4087822265625,-1.035675048828125,-0.263641357421875,0.0604248046875
1772457947759850500,4.4188505859375,-1.0518341064453125,-0.247894287109375,0.051422119140625
1772457947769918500,4.42891845703125,-1.078582763671875,-0.23297119140625,0.045745849609375
1772457947779986400,4.438986328125,-1.1101837158203125,-0.212432861328125,0.0406036376953125
1772457947790055400,4.449055419921875,-1.1324920654296875,-0.1907958984375,0.03619384765625
1772457947800123400,4.459123291015625,-1.14495849609375,-0.1707305908203125,0.03082275390625
1772457947810191400,4.46919140625,-1.150054931640625,-0.1462249755859375,0.0346221923828125
1772457947820259300,4.47925927734375,-1.1463775634765625,-0.126708984375,0.0387725830078125
1772457947830327600,4.48932763671875,-1.1373443603515625,-0.1149139404296875,0.0444183349609375
1772457947840396300,4.499396240234375,-1.1211395263671875,-0.1077423095703125,0.0415191650390625
1772457947850464300,4.50946435546875,-1.08587646484375,-0.1077728271484375,0.040374755859375
1772457947860532500,4.519532470703125,-1.0469818115234375,-0.10931396484375,0.03997802734375
1772457947870600400,4.529600341796875,-1.00921630859375,-0.1144561767578125,0.0328216552734375
1772457947880668400,4.53966845703125,-0.96868896484375,-0.126708984375,0.019134521484375
1772457947890737400,4.5497373046875,-0.9311676025390625,-0.146209716796875,0.0070343017578125
1772457947900805400,4.559805419921875,-0.901763916015625,-0.1661834716796875,-0.00274658203125
1772457947910873300,4.569873291015625,-0.873504638671875,-0.17889404296875,-0.007354736328125
1772457947920941300,4.57994140625,-0.8427276611328125,-0.18585205078125,-0.004486083984375
1772457947931009500,4.590009521484375,-0.8145294189453125,-0.1943817138671875,-0.003021240234375
1772457947941078500,4.60007861328125,-0.7985687255859375,-0.1990509033203125,-0.002044677734375
1772457947951146200,4.610146240234375,-0.78662109375,-0.20220947265625,-0.0086822509765625
1772457947961214500,4.62021435546875,-0.782379150390625,-0.2014312744140625,-0.0211334228515625
1772457947971282400,4.630282470703125,-0.780059814453125,-0.2025299072265625,-0.0380096435546875
1772457947981350400,4.640350341796875,-0.781768798828125,-0.203826904296875,-0.0550994873046875
1772457947991419400,4.65041943359375,-0.7978668212890625,-0.2010650634765625,-0.0703887939453125
1772457948001487600,4.660487548828125,-0.8209381103515625,-0.1958465576171875,-0.0850372314453125
1772457948011555300,4.670555419921875,-0.8408660888671875,-0.1868133544921875,-0.0905609130859375
1772457948021623300,4.680623291015625,-0.8575592041015625,-0.179107666015625,-0.0926666259765625
1772457948031691300,4.690691162109375,-0.8655548095703125,-0.177642822265625,-0.08746337890625
1772457948041760500,4.700760498046875,-0.8644256591796875,-0.18060302734375,-0.077972412109375
1772457948051828500,4.710828369140625,-0.867828369140625,-0.180328369140625,-0.0648956298828125
1772457948061896400,4.720896484375,-0.874481201171875,-0.1787109375,-0.0472869873046875
1772457948071964400,4.73096435546875,-0.876678466796875,-0.17730712890625,-0.0280914306640625
1772457948082032400,4.741032470703125,-0.877166748046875,-0.181427001953125,-0.01849365234375
1772457948092101400,4.751101318359375,-0.8800811767578125,-0.1879119873046875,-0.0122222900390625
1772457948102169600,4.761169677734375,-0.87841796875,-0.1944732666015625,-0.003936767578125
1772457948112237600,4.771237548828125,-0.8722381591796875,-0.2005462646484375,0.007110595703125
1772457948122305300,4.78130517578125,-0.8720703125,-0.20648193359375,0.013214111328125
1772457948132373200,4.791373291015625,-0.875946044921875,-0.214019775390625,0.0114593505859375
1772457948142442500,4.8014423828125,-0.8914031982421875,-0.2271270751953125,0.00146484375
1772457948152510500,4.811510498046875,-0.9107666015625,-0.243621826171875,-0.0238189697265625
1772457948162578400,4.821578369140625,-0.9294891357421875,-0.25738525390625,-0.04632568359375
1772457948172646400,4.831646484375,-0.9387969970703125,-0.27191162109375,-0.0570068359375
1772457948182714400,4.84171435546875,-0.938720703125,-0.281158447265625,-0.062286376953125
1772457948192782300,4.8517822265625,-0.9432220458984375,-0.2898712158203125,-0.0658111572265625
1772457948202851600,4.8618515625,-0.951812744140625,-0.2955169677734375,-0.07269287109375
1772457948212919600,4.87191943359375,-0.963165283203125,-0.3012847900390625,-0.0753173828125
1772457948222987500,4.881987548828125,-0.9790802001953125,-0.3023681640625,-0.0780792236328125
1772457948233055200,4.89205517578125,-0.9946746826171875,-0.3000030517578125,-0.0779876708984375
1772457948243123500,4.90212353515625,-1.007537841796875,-0.302215576171875,-0.0780487060546875
1772457948253192400,4.9121923828125,-1.0216064453125,-0.3021087646484375,-0.0759124755859375
1772457948263260400,4.922260498046875,-1.029022216796875,-0.2992095947265625,-0.0710296630859375
1772457948273328600,4.93232861328125,-1.0266571044921875,-0.2965545654296875,-0.0633087158203125
1772457948283396600,4.942396728515625,-1.021148681640625,-0.291900634765625,-0.05316162109375
1772457948293464300,4.95246435546875,-1.012664794921875,-0.2884368896484375,-0.0431365966796875
1772457948303533300,4.962533203125,-1.0078277587890625,-0.2886810302734375,-0.0360107421875
1772457948313601300,4.972601318359375,-1.0022430419921875,-0.2896881103515625,-0.026611328125
1772457948323669200,4.982669189453125,-0.991546630859375,-0.2900543212890625,-0.0228271484375
1772457948333737500,4.992737548828125,-0.981842041015625,-0.2924346923828125,-0.018218994140625
1772457948343805400,5.002805419921875,-0.9715576171875,-0.29754638671875,-0.0158843994140625
1772457948353874200,5.012874267578125,-0.9627227783203125,-0.298797607421875,-0.0148162841796875
1772457948363942400,5.0229423828125,-0.9535064697265625,-0.2984771728515625,-0.011871337890625
1772457948374010400,5.03301025390625,-0.953460693359375,-0.2986602783203125,-0.0082855224609375
1772457948384078300,5.043078369140625,-0.95697021484375,-0.2994384765625,-0.0099334716796875
1772457948394146300,5.053146240234375,-0.9631805419921875,-0.2985076904296875,-0.01080322265625
1772457948404215300,5.06321533203125,-0.9603271484375,-0.293914794921875,-0.0108184814453125
1772457948414283300,5.073283203125,-0.951263427734375,-0.2910614013671875,-0.010009765625
1772457948424351200,5.083351318359375,-0.946044921875,-0.2879180908203125,-0.0122528076171875
1772457948434419500,5.09341943359375,-0.9454803466796875,-0.2808990478515625,-0.01788330078125
1772457948444487400,5.1034873046875,-0.9440765380859375,-0.271636962890625,-0.0239410400390625
1772457948454555400,5.113555419921875,-0.9463958740234375,-0.26263427734375,-0.0291290283203125
1772457948464624400,5.123624267578125,-0.95074462890625,-0.2529449462890625,-0.033447265625
1772457948474692400,5.1336923828125,-0.950958251953125,-0.24212646484375,-0.040374755859375
1772457948484760300,5.14376025390625,-0.954437255859375,-0.2368011474609375,-0.0447998046875
1772457948494828300,5.153828369140625,-0.9561767578125,-0.229888916015625,-0.0560455322265625
1772457948504896500,5.163896484375,-0.957427978515625,-0.227813720703125,-0.0702056884765625
1772457948514965200,5.17396533203125,-0.9542388916015625,-0.228515625,-0.0831298828125
1772457948525033200,5.184033203125,-0.953643798828125,-0.2274627685546875,-0.0994720458984375
1772457948535101400,5.194101318359375,-0.960296630859375,-0.226959228515625,-0.1134490966796875
1772457948545169400,5.20416943359375,-0.9716339111328125,-0.2286834716796875,-0.1285400390625
1772457948555237400,5.2142373046875,-0.9777069091796875,-0.23089599609375,-0.1353302001953125
1772457948565306000,5.22430615234375,-0.978424072265625,-0.230987548828125,-0.1424407958984375
1772457948575374300,5.234374267578125,-0.9769439697265625,-0.2351226806640625,-0.1498260498046875
1772457948585442300,5.2444423828125,-0.985321044921875,-0.2483673095703125,-0.1508026123046875
1772457948595510300,5.25451025390625,-0.9942626953125,-0.281524658203125,-0.1361083984375
1772457948605578200,5.264578125,-0.966705322265625,-0.31134033203125,-0.12017822265625
1772457948615647200,5.274647216796875,-0.9186859130859375,-0.32366943359375,-0.1290435791015625
1772457948625715200,5.284715087890625,-0.912994384765625,-0.3352508544921875,-0.148895263671875
1772457948635783200,5.294783203125,-0.96136474609375,-0.3360595703125,-0.1732635498046875
1772457948645851400,5.304851318359375,-1.004608154296875,-0.319488525390625,-0.1810455322265625
1772457948655919400,5.31491943359375,-1.0223541259765625,-0.2847900390625,-0.1547393798828125
1772457948665988000,5.324988037109375,-1.0279693603515625,-0.237518310546875,-0.115142822265625
1772457948676056300,5.335056396484375,-1.0351409912109375,-0.1986541748046875,-0.0716705322265625
1772457948686124300,5.345124267578125,-1.038848876953125,-0.1727142333984375,-0.027191162109375
1772457948696192300,5.355192138671875,-1.0384368896484375,-0.15850830078125,0.0166473388671875
1772457948706260200,5.36526025390625,-1.0254669189453125,-0.1507415771484375,0.0595245361328125
1772457948716329200,5.3753291015625,-0.9939422607421875,-0.1467132568359375,0.0889129638671875
1772457948726397200,5.385397216796875,-0.96392822265625,-0.1497039794921875,0.1102142333984375
1772457948736465200,5.395465087890625,-0.941070556640625,-0.1611480712890625,0.1298980712890625
1772457948746533400,5.405533447265625,-0.9157257080078125,-0.17584228515625,0.1483917236328125
1772457948756601300,5.415601318359375,-0.9023284912109375,-0.1854248046875,0.150848388671875
1772457948766670300,5.42567041015625,-0.90386962890625,-0.1911163330078125,0.1472625732421875
1772457948776738300,5.43573828125,-0.9099884033203125,-0.1937408447265625,0.1423492431640625
1772457948786806300,5.44580615234375,-0.9270172119140625,-0.1954193115234375,0.1328582763671875
1772457948796874200,5.455874267578125,-0.932037353515625,-0.1914215087890625,0.129913330078125
1772457948806942200,5.465942138671875,-0.95330810546875,-0.191497802734375,0.1242523193359375
1772457948817011500,5.476011474609375,-0.9818115234375,-0.1829376220703125,0.1098785400390625
1772457948827079400,5.486079345703125,-1.0099639892578125,-0.1705780029296875,0.1015777587890625
1772457948837147100,5.496147216796875,-1.0284271240234375,-0.159027099609375,0.10406494140625
1772457948847215400,5.50621533203125,-1.0410308837890625,-0.149688720703125,0.111572265625
1772457948857283300,5.516283447265625,-1.0506591796875,-0.1374969482421875,0.1199493408203125
1772457948867351300,5.526351318359375,-1.0531768798828125,-0.119110107421875,0.129852294921875
1772457948877420300,5.536420166015625,-1.04638671875,-0.1037750244140625,0.1470184326171875
1772457948887488300,5.54648828125,-1.0311279296875,-0.0922393798828125,0.1655731201171875
1772457948897556200,5.55655615234375,-1.008148193359375,-0.079010009765625,0.1854705810546875
1772457948907624200,5.566624267578125,-0.9764251708984375,-0.07696533203125,0.211578369140625
1772457948917692200,5.576692138671875,-0.94287109375,-0.0811309814453125,0.236968994140625
1772457948927761400,5.586761474609375,-0.9043426513671875,-0.0858306884765625,0.256195068359375
1772457948937829400,5.596829345703125,-0.873870849609375,-0.0941619873046875,0.265899658203125
1772457948947897000,5.60689697265625,-0.86004638671875,-0.1044464111328125,0.279052734375
1772457948957965300,5.61696533203125,-0.8548583984375,-0.1126556396484375,0.2976226806640625
1772457948968033300,5.627033203125,-0.853546142578125,-0.110565185546875,0.316070556640625
1772457948978102300,5.637102294921875,-0.85028076171875,-0.10748291015625,0.335540771484375
1772457948988170500,5.64717041015625,-0.858306884765625,-0.097686767578125,0.346282958984375
1772457948998238200,5.65723828125,-0.8733062744140625,-0.0772705078125,0.343475341796875
1772457949008306200,5.66730615234375,-0.88751220703125,-0.057373046875,0.333160400390625
1772457949018374100,5.6773740234375,-0.912750244140625,-0.0475921630859375,0.31195068359375
1772457949028443400,5.687443359375,-0.9589691162109375,-0.0414276123046875,0.27642822265625
1772457949038511400,5.697511474609375,-1.0168609619140625,-0.041839599609375,0.23663330078125
1772457949048579300,5.707579345703125,-1.08123779296875,-0.0521087646484375,0.197357177734375
1772457949058647300,5.717647216796875,-1.1459197998046875,-0.060760498046875,0.148590087890625
1772457949068715300,5.72771533203125,-1.196807861328125,-0.060577392578125,0.1002655029296875
1772457949078784300,5.7377841796875,-1.2231292724609375,-0.062164306640625,0.0669403076171875
1772457949088852500,5.7478525390625,-1.2183837890625,-0.0654449462890625,0.0535430908203125
1772457949098920400,5.75792041015625,-1.1862030029296875,-0.07366943359375,0.0619659423828125
1772457949108988200,5.76798828125,-1.1299591064453125,-0.08856201171875,0.0806121826171875
1772457949119056100,5.77805615234375,-1.066802978515625,-0.101654052734375,0.10858154296875
1772457949129125400,5.78812548828125,-1.0188446044921875,-0.1056365966796875,0.133758544921875
1772457949139193300,5.798193359375,-0.979278564453125,-0.108367919921875,0.149200439453125
1772457949149261300,5.80826123046875,-0.9479217529296875,-0.1104888916015625,0.15313720703125
1772457949159329500,5.81832958984375,-0.926300048828125,-0.116973876953125,0.15728759765625
1772457949169397200,5.828397216796875,-0.914581298828125,-0.1236724853515625,0.156280517578125
1772457949179466200,5.83846630859375,-0.918365478515625,-0.125518798828125,0.150970458984375
1772457949189534200,5.8485341796875,-0.918853759765625,-0.12652587890625,0.1497039794921875
1772457949199602400,5.8586025390625,-0.9104156494140625,-0.1266632080078125,0.1505279541015625
1772457949209670400,5.86867041015625,-0.8957061767578125,-0.125732421875,0.159820556640625
1772457949219738400,5.87873828125,-0.891387939453125,-0.1266326904296875,0.170684814453125
1772457949229806000,5.88880615234375,-0.8901519775390625,-0.1300048828125,0.177093505859375
1772457949239875300,5.898875244140625,-0.89776611328125,-0.13568115234375,0.178863525390625
1772457949249943300,5.908943359375,-0.9066619873046875,-0.13751220703125,0.1787567138671875
1772457949260011300,5.91901123046875,-0.9186553955078125,-0.1436004638671875,0.175811767578125
1772457949270079500,5.92907958984375,-0.9359130859375,-0.1487884521484375,0.16583251953125
1772457949280147200,5.939147216796875,-0.959197998046875,-0.14971923828125,0.154937744140625
1772457949290216200,5.94921630859375,-0.9725341796875,-0.1519775390625,0.1465911865234375
1772457949300284400,5.959284423828125,-0.9768218994140625,-0.16046142578125,0.143463134765625
1772457949310352400,5.969352294921875,-0.9783172607421875,-0.168548583984375,0.1433563232421875
1772457949320420400,5.97942041015625,-0.9766845703125,-0.17584228515625,0.14190673828125
1772457949330488300,5.98948828125,-0.9813079833984375,-0.18487548828125,0.13970947265625
1772457949340557300,5.999557373046875,-0.989898681640625,-0.1858978271484375,0.1312408447265625
1772457949350625300,6.009625244140625,-0.999664306640625,-0.18829345703125,0.126220703125
1772457949360693200,6.019693359375,-1.0037841796875,-0.1910552978515625,0.122711181640625
1772457949370761500,6.029761474609375,-1.01007080078125,-0.1959228515625,0.1178741455078125
1772457949380829400,6.039829345703125,-1.0185699462890625,-0.2043914794921875,0.11248779296875
1772457949390898200,6.049898193359375,-1.029083251953125,-0.208343505859375,0.104461669921875
1772457949400966400,6.05996630859375,-1.034942626953125,-0.2135162353515625,0.0980224609375
1772457949411034400,6.070034423828125,-1.0409698486328125,-0.2136383056640625,0.0900115966796875
1772457949421102300,6.080102294921875,-1.0540618896484375,-0.216339111328125,0.0806427001953125
1772457949431170300,6.09017041015625,-1.06549072265625,-0.2133331298828125,0.0742645263671875
1772457949441239300,6.1002392578125,-1.0774993896484375,-0.209686279296875,0.0734405517578125
1772457949451307300,6.110307373046875,-1.084930419921875,-0.210357666015625,0.0771636962890625
1772457949461375200,6.120375244140625,-1.0956878662109375,-0.22271728515625,0.101806640625
1772457949471443500,6.130443359375,-1.08258056640625,-0.2485504150390625,0.138214111328125
1772457949481511400,6.140511474609375,-1.023590087890625,-0.261444091796875,0.1502685546875
1772457949491580200,6.150580078125,-0.9686737060546875,-0.2505340576171875,0.1360626220703125
1772457949501648100,6.160648193359375,-0.979766845703125,-0.2385406494140625,0.12060546875
1772457949511716400,6.17071630859375,-1.04937744140625,-0.233062744140625,0.10528564453125
1772457949521784300,6.180784423828125,-1.1175537109375,-0.2269744873046875,0.0852203369140625
1772457949531852300,6.190852294921875,-1.14971923828125,-0.2122344970703125,0.0748748779296875
1772457949541921300,6.20092138671875,-1.1463165283203125,-0.194854736328125,0.081634521484375
1772457949551989200,6.2109892578125,-1.1307525634765625,-0.179351806640625,0.092010498046875
1772457949562057200,6.22105712890625,-1.100311279296875,-0.163818359375,0.095733642578125
1772457949572125200,6.231125244140625,-1.0811309814453125,-0.158660888671875,0.097869873046875
1772457949582193400,6.241193359375,-1.07781982421875,-0.1612548828125,0.1015167236328125
1772457949592262100,6.25126220703125,-1.069488525390625,-0.161224365234375,0.1038665771484375
1772457949602330000,6.261330078125,-1.049774169921875,-0.16448974609375,0.111480712890625
1772457949612398300,6.2713984375,-1.01837158203125,-0.1704864501953125,0.1211090087890625
1772457949622466300,6.28146630859375,-0.9787445068359375,-0.1733551025390625,0.1293792724609375
1772457949632534300,6.2915341796875,-0.9364776611328125,-0.176239013671875,0.135009765625
1772457949642603500,6.301603515625,-0.9012908935546875,-0.184814453125,0.134307861328125
1772457949652671200,6.311671142578125,-0.8768768310546875,-0.1956939697265625,0.132293701171875
1772457949662739200,6.3217392578125,-0.860748291015625,-0.203369140625,0.129486083984375
1772457949672807200,6.33180712890625,-0.853363037109375,-0.213897705078125,0.1260528564453125
1772457949682875400,6.34187548828125,-0.8434295654296875,-0.2198028564453125,0.12255859375
1772457949692944400,6.3519443359375,-0.822509765625,-0.22198486328125,0.1195831298828125
1772457949703012400,6.362012451171875,-0.7985382080078125,-0.2288970947265625,0.1199188232421875
1772457949713080300,6.372080322265625,-0.781036376953125,-0.24053955078125,0.1185760498046875
1772457949723148300,6.382148193359375,-0.769012451171875,-0.2486572265625,0.1151123046875
1772457949733216300,6.39221630859375,-0.7687225341796875,-0.2575836181640625,0.111236572265625
1772457949743284200,6.4022841796875,-0.766571044921875,-0.262725830078125,0.1129150390625
1772457949753353500,6.412353515625,-0.757904052734375,-0.263397216796875,0.1176300048828125
1772457949763421200,6.422421142578125,-0.7591552734375,-0.2646484375,0.1206512451171875
1772457949773489200,6.4324892578125,-0.7748260498046875,-0.2652740478515625,0.123291015625
1772457949783557400,6.442557373046875,-0.794403076171875,-0.2606964111328125,0.1189727783203125
1772457949793625300,6.452625244140625,-0.8065948486328125,-0.248291015625,0.1115264892578125
1772457949803694300,6.4626943359375,-0.8113861083984375,-0.2407684326171875,0.107147216796875
1772457949813762300,6.47276220703125,-0.823577880859375,-0.2337188720703125,0.10772705078125
1772457949823830300,6.482830322265625,-0.85791015625,-0.2236785888671875,0.10382080078125
1772457949833898200,6.492898193359375,-0.915283203125,-0.2080535888671875,0.0973052978515625
1772457949843966200,6.50296630859375,-0.9733123779296875,-0.194122314453125,0.099365234375
1772457949854035500,6.513035400390625,-1.015228271484375,-0.1734619140625,0.115936279296875
1772457949864103400,6.523103515625,-1.0443572998046875,-0.1513671875,0.141357421875
1772457949874171100,6.533171142578125,-1.0743255615234375,-0.132904052734375,0.1727752685546875
1772457949884239000,6.543239013671875,-1.0938720703125,-0.122894287109375,0.1972198486328125
1772457949894307300,6.553307373046875,-1.0945281982421875,-0.1183929443359375,0.21600341796875
1772457949904376300,6.563376220703125,-1.08453369140625,-0.117706298828125,0.2281036376953125
1772457949914444300,6.5734443359375,-1.0611572265625,-0.123870849609375,0.2328643798828125
1772457949924512500,6.583512451171875,-1.0319976806640625,-0.1392974853515625,0.2325897216796875
1772457949934580200,6.593580322265625,-1.0018768310546875,-0.159820556640625,0.2262115478515625
1772457949944648200,6.603648193359375,-0.97686767578125,-0.1810455322265625,0.2132720947265625
1772457949954717400,6.613717529296875,-0.961090087890625,-0.201385498046875,0.1971588134765625
1772457949964785400,6.623785400390625,-0.946624755859375,-0.217437744140625,0.178802490234375
1772457949974853400,6.633853271484375,-0.9372406005859375,-0.2266693115234375,0.1670684814453125
1772457949984921300,6.64392138671875,-0.93017578125,-0.2357330322265625,0.159637451171875
1772457949994989300,6.6539892578125,-0.9244384765625,-0.2398529052734375,0.1551666259765625
1772457950005058300,6.664058349609375,-0.9214630126953125,-0.24053955078125,0.1536102294921875
1772457950015126300,6.674126220703125,-0.9229278564453125,-0.236053466796875,0.1546783447265625
1772457950025194500,6.684194580078125,-0.9346923828125,-0.2278900146484375,0.1576690673828125
1772457950035262500,6.694262451171875,-0.9387664794921875,-0.2213592529296875,0.162261962890625
1772457950045330200,6.704330078125,-0.9415283203125,-0.219635009765625,0.1635284423828125
1772457950055398100,6.714398193359375,-0.9543609619140625,-0.2155914306640625,0.1617279052734375
1772457950065467400,6.72446728515625,-0.9627227783203125,-0.2115936279296875,0.1576080322265625
1772457950075535400,6.734535400390625,-0.967315673828125,-0.2078094482421875,0.150665283203125
1772457950085603300,6.744603271484375,-0.9723052978515625,-0.2021942138671875,0.1456756591796875
1772457950095671300,6.75467138671875,-0.9750213623046875,-0.191070556640625,0.1397247314453125
1772457950105739300,6.7647392578125,-0.97760009765625,-0.1754913330078125,0.13916015625
1772457950115808300,6.774808349609375,-0.97705078125,-0.1582794189453125,0.135528564453125
1772457950125876200,6.784876220703125,-0.9795074462890625,-0.14215087890625,0.1374969482421875
1772457950135944400,6.7949443359375,-0.984893798828125,-0.1354522705078125,0.141082763671875
1772457950146012400,6.805012451171875,-0.9911346435546875,-0.128265380859375,0.14288330078125
1772457950156080000,6.815080078125,-0.9927978515625,-0.12677001953125,0.1464385986328125
1772457950166149400,6.8251494140625,-0.995849609375,-0.125396728515625,0.1402740478515625
1772457950176217300,6.83521728515625,-0.9916229248046875,-0.1193084716796875,0.116485595703125
1772457950186285300,6.845285400390625,-1.0200042724609375,-0.113067626953125,0.08306884765625
1772457950196353300,6.855353271484375,-1.062713623046875,-0.1074981689453125,0.0561370849609375
1772457950206421200,6.865421142578125,-1.1014556884765625,-0.1082611083984375,0.0443267822265625
1772457950216490200,6.875490234375,-1.1262054443359375,-0.1127777099609375,0.0391998291015625
1772457950226558200,6.88555810546875,-1.126922607421875,-0.1178131103515625,0.0381927490234375
1772457950236626400,6.89562646484375,-1.0954742431640625,-0.12384033203125,0.0453033447265625
1772457950246694400,6.9056943359375,-1.0338287353515625,-0.1406402587890625,0.058990478515625
1772457950256762400,6.915762451171875,-0.970306396484375,-0.16253662109375,0.0765228271484375
1772457950266831400,6.925831298828125,-0.917755126953125,-0.1846923828125,0.0897369384765625
1772457950276899300,6.9358994140625,-0.8792724609375,-0.20526123046875,0.0954437255859375
1772457950286967300,6.94596728515625,-0.869232177734375,-0.224090576171875,0.090728759765625
1772457950297035300,6.95603515625,-0.8809051513671875,-0.2357177734375,0.0815582275390625
1772457950307104000,6.96610400390625,-0.901031494140625,-0.235137939453125,0.07073974609375
1772457950317172700,6.9761728515625,-0.917205810546875,-0.234771728515625,0.05908203125
1772457950327240700,6.98624072265625,-0.935150146484375,-0.23504638671875,0.0501556396484375
1772457950337309000,6.996308837890625,-0.9543304443359375,-0.231536865234375,0.045684814453125
1772457950347377000,7.006376953125,-0.9681396484375,-0.2264556884765625,0.0483856201171875
1772457950357444900,7.01644482421875,-0.9690093994140625,-0.22003173828125,0.0660400390625
1772457950367513900,7.026513916015625,-0.94921875,-0.21429443359375,0.0881805419921875
1772457950377581800,7.036581787109375,-0.9123687744140625,-0.21295166015625,0.10882568359375
1772457950387649800,7.04664990234375,-0.87841796875,-0.21380615234375,0.128143310546875
1772457950397717800,7.0567177734375,-0.8550567626953125,-0.2186126708984375,0.144317626953125
1772457950407786000,7.066785888671875,-0.8492584228515625,-0.222442626953125,0.1588592529296875
1772457950417854700,7.076854736328125,-0.8432464599609375,-0.2208404541015625,0.173858642578125
1772457950427922700,7.086922607421875,-0.831451416015625,-0.2219696044921875,0.1883544921875
1772457950437991000,7.096990966796875,-0.8190155029296875,-0.226531982421875,0.198394775390625
1772457950448059000,7.107058837890625,-0.8145294189453125,-0.230499267578125,0.2080078125
1772457950458126800,7.117126953125,-0.8171539306640625,-0.2342987060546875,0.2211151123046875
1772457950468195800,7.12719580078125,-0.826751708984375,-0.238494873046875,0.234130859375
1772457950478263800,7.137263916015625,-0.8423614501953125,-0.2381744384765625,0.2420806884765625
1772457950488331800,7.147331787109375,-0.859375,-0.2340850830078125,0.254241943359375
1772457950498399700,7.157399658203125,-0.8805694580078125,-0.227630615234375,0.264862060546875
1772457950508468000,7.167468017578125,-0.9094390869140625,-0.2140655517578125,0.278350830078125
1772457950518536700,7.17753662109375,-0.93756103515625,-0.194976806640625,0.283660888671875
1772457950528604700,7.187604736328125,-0.9654083251953125,-0.187042236328125,0.278533935546875
1772457950538672600,7.197672607421875,-0.98480224609375,-0.18560791015625,0.2638092041015625
1772457950548740900,7.207740966796875,-1.0037078857421875,-0.181365966796875,0.2425994873046875
1772457950558808800,7.217808837890625,-1.015838623046875,-0.1869354248046875,0.21563720703125
1772457950568876800,7.227876708984375,-1.0222320556640625,-0.196380615234375,0.1883392333984375
1772457950578945800,7.23794580078125,-1.031005859375,-0.20416259765625,0.161895751953125
1772457950589013800,7.248013671875,-1.0520172119140625,-0.212921142578125,0.13275146484375
1772457950599081700,7.258081787109375,-1.080169677734375,-0.215606689453125,0.098876953125
1772457950609149700,7.268149658203125,-1.1007537841796875,-0.2067718505859375,0.0823516845703125
1772457950619218000,7.278218017578125,-1.1094970703125,-0.190704345703125,0.0908050537109375
1772457950629286700,7.28828662109375,-1.104217529296875,-0.174468994140625,0.1094207763671875
1772457950639354600,7.298354736328125,-1.0983428955078125,-0.159820556640625,0.126983642578125
1772457950649422800,7.3084228515625,-1.0774688720703125,-0.1556854248046875,0.1383514404296875
1772457950659490800,7.31849072265625,-1.0549468994140625,-0.159027099609375,0.1462249755859375
1772457950669558800,7.328558837890625,-1.0359344482421875,-0.161651611328125,0.153656005859375
1772457950679627800,7.338627685546875,-1.0143890380859375,-0.156829833984375,0.157684326171875
1772457950689695700,7.34869580078125,-0.9909820556640625,-0.1599273681640625,0.157867431640625
1772457950699763700,7.358763671875,-0.9737396240234375,-0.1689910888671875,0.148651123046875
1772457950709831700,7.368831787109375,-0.9620513916015625,-0.182037353515625,0.1340484619140625
1772457950719900000,7.37889990234375,-0.9636688232421875,-0.1929473876953125,0.118194580078125
1772457950729969000,7.388968994140625,-0.969085693359375,-0.2045135498046875,0.1054534912109375
1772457950740036600,7.39903662109375,-0.9776458740234375,-0.210296630859375,0.0973052978515625
1772457950750104800,7.409104736328125,-0.982391357421875,-0.2108154296875,0.0884857177734375
1772457950760172800,7.4191728515625,-0.9814910888671875,-0.2146453857421875,0.0782623291015625
1772457950770240800,7.42924072265625,-0.97064208984375,-0.2206268310546875,0.0760650634765625
1772457950780310000,7.43931005859375,-0.9564056396484375,-0.2286529541015625,0.071746826171875
1772457950790377700,7.449377685546875,-0.940887451171875,-0.24151611328125,0.06524658203125
1772457950800445700,7.45944580078125,-0.9295654296875,-0.251190185546875,0.058746337890625
1772457950810513700,7.469513671875,-0.923828125,-0.2624053955078125,0.0555267333984375
1772457950820582000,7.479581787109375,-0.918609619140625,-0.2748870849609375,0.053558349609375
1772457950830651000,7.48965087890625,-0.92022705078125,-0.28564453125,0.0496063232421875
1772457950840718800,7.49971875,-0.91778564453125,-0.2931365966796875,0.052154541015625
1772457950850786600,7.50978662109375,-0.90899658203125,-0.2980194091796875,0.0615234375
1772457950860854800,7.519854736328125,-0.901763916015625,-0.2993621826171875,0.072479248046875
1772457950870922800,7.5299228515625,-0.9097137451171875,-0.30126953125,0.0862274169921875
1772457950880990700,7.53999072265625,-0.925628662109375,-0.304718017578125,0.1065521240234375
1772457950891060000,7.55006005859375,-0.9327239990234375,-0.309814453125,0.130462646484375
1772457950901128000,7.5601279296875,-0.9185638427734375,-0.3087158203125,0.1416473388671875
1772457950911195600,7.570195556640625,-0.8919677734375,-0.300750732421875,0.1334381103515625
1772457950921263600,7.580263671875,-0.881439208984375,-0.298492431640625,0.120635986328125
1772457950931331800,7.590331787109375,-0.8890380859375,-0.2913360595703125,0.098419189453125
1772457950941400800,7.60040087890625,-0.9096527099609375,-0.28289794921875,0.0701751708984375
1772457950951468800,7.61046875,-0.9269561767578125,-0.2728424072265625,0.04742431640625
1772457950961536800,7.620536865234375,-0.940032958984375,-0.2590179443359375,0.03790283203125
1772457950971604700,7.630604736328125,-0.95318603515625,-0.2427215576171875,0.0340576171875
1772457950981672700,7.640672607421875,-0.973724365234375,-0.2238311767578125,0.0363922119140625
1772457950991742000,7.650741943359375,-0.997772216796875,-0.2066497802734375,0.0453948974609375
1772457951001810000,7.660809814453125,-1.017578125,-0.18988037109375,0.0592193603515625
1772457951011878000,7.6708779296875,-1.03070068359375,-0.17449951171875,0.073272705078125
1772457951021945600,7.680945556640625,-1.0388641357421875,-0.1673126220703125,0.09161376953125
1772457951032013800,7.691013916015625,-1.0540618896484375,-0.159912109375,0.094940185546875
1772457951042082800,7.701082763671875,-1.074127197265625,-0.1504669189453125,0.0911407470703125
1772457951052150800,7.71115087890625,-1.07916259765625,-0.1396331787109375,0.0839996337890625
1772457951062219000,7.721218994140625,-1.0795135498046875,-0.1369476318359375,0.074188232421875
1772457951072286700,7.73128662109375,-1.0821075439453125,-0.1385498046875,0.0601654052734375
1772457951082354700,7.741354736328125,-1.0811614990234375,-0.1395416259765625,0.0443115234375
1772457951092424000,7.751423828125,-1.075103759765625,-0.1421966552734375,0.0274658203125
1772457951102492000,7.761491943359375,-1.0563201904296875,-0.145721435546875,0.0076751708984375
1772457951112559900,7.771559814453125,-1.0438690185546875,-0.154510498046875,-0.017608642578125
1772457951122627800,7.7816279296875,-1.0497589111328125,-0.1609344482421875,-0.0446929931640625
1772457951132695800,7.79169580078125,-1.061431884765625,-0.1612548828125,-0.073333740234375
1772457951142764800,7.801764892578125,-1.070404052734375,-0.1629180908203125,-0.096832275390625
1772457951152832800,7.811832763671875,-1.0713348388671875,-0.1664886474609375,-0.1091766357421875
1772457951162900700,7.821900634765625,-1.0611114501953125,-0.1716461181640625,-0.1125640869140625
1772457951172969000,7.831968994140625,-1.0443267822265625,-0.179718017578125,-0.108306884765625
1772457951183037000,7.842036865234375,-1.0129852294921875,-0.1941680908203125,-0.100006103515625
1772457951193104600,7.852104736328125,-0.9637603759765625,-0.2105560302734375,-0.0916595458984375
1772457951203174000,7.862173828125,-0.914520263671875,-0.2275543212890625,-0.080902099609375
1772457951213241900,7.872241943359375,-0.8787994384765625,-0.243865966796875,-0.0775146484375
1772457951223309800,7.882309814453125,-0.859832763671875,-0.2545623779296875,-0.08392333984375
1772457951233377800,7.892377685546875,-0.862518310546875,-0.2579345703125,-0.0963287353515625
1772457951243445800,7.90244580078125,-0.8824920654296875,-0.2550506591796875,-0.09912109375
1772457951253514800,7.9125146484375,-0.906585693359375,-0.2459564208984375,-0.096771240234375
1772457951263582700,7.922582763671875,-0.9223175048828125,-0.237060546875,-0.0919189453125
1772457951273651000,7.93265087890625,-0.920196533203125,-0.230621337890625,-0.080841064453125
1772457951283719000,7.942718994140625,-0.908172607421875,-0.229583740234375,-0.068328857421875
1772457951293787000,7.952786865234375,-0.8914031982421875,-0.232574462890625,-0.0516357421875
1772457951303855000,7.962855224609375,-0.8766937255859375,-0.2357177734375,-0.034515380859375
1772457951313923000,7.972923095703125,-0.8691253662109375,-0.242584228515625,-0.021026611328125
1772457951323991000,7.982990966796875,-0.8735504150390625,-0.2500762939453125,-0.010223388671875
1772457951334058200,7.993058349609375,-0.884521484375,-0.2542572021484375,-0.0004730224609375
1772457951344126200,8.003126220703125,-0.890899658203125,-0.2556304931640625,0.0113677978515625
1772457951354194200,8.013194091796874,-0.8913421630859375,-0.2559051513671875,0.024749755859375
1772457951364262100,8.02326220703125,-0.8912200927734375,-0.2569427490234375,0.031280517578125
1772457951374330400,8.033330322265625,-0.8899993896484375,-0.25970458984375,0.036285400390625
1772457951384399000,8.043399169921875,-0.889190673828125,-0.2631988525390625,0.036163330078125
1772457951394467000,8.053467041015624,-0.8947296142578125,-0.2685546875,0.0320892333984375
1772457951404535300,8.063535400390625,-0.8980865478515625,-0.2693634033203125,0.0343780517578125
1772457951414603300,8.073603271484375,-0.8998870849609375,-0.27301025390625,0.028778076171875
1772457951424671200,8.083671142578124,-0.9078521728515625,-0.2801666259765625,0.0270843505859375
1772457951434740000,8.093739990234376,-0.91455078125,-0.2853851318359375,0.0232391357421875
1772457951444808200,8.10380810546875,-0.916748046875,-0.2877655029296875,0.02294921875
1772457951454876200,8.113876220703125,-0.9239501953125,-0.294708251953125,0.0262451171875
1772457951464944000,8.123944091796876,-0.940826416015625,-0.2972564697265625,0.030242919921875
1772457951475012000,8.13401220703125,-0.953948974609375,-0.2950592041015625,0.0360260009765625
1772457951485081000,8.1440810546875,-0.95941162109375,-0.2934112548828125,0.0404815673828125
1772457951495149000,8.154149169921874,-0.959686279296875,-0.292724609375,0.0467376708984375
1772457951505217000,8.164217041015625,-0.960418701171875,-0.2918243408203125,0.0501861572265625
1772457951515285200,8.17428515625,-0.9714813232421875,-0.293670654296875,0.0538787841796875
1772457951525353200,8.184353271484374,-0.9828643798828125,-0.2898712158203125,0.057159423828125
1772457951535422200,8.194422119140626,-0.989837646484375,-0.284698486328125,0.0600433349609375
1772457951545490200,8.204490234375,-0.998565673828125,-0.2835693359375,0.064178466796875
1772457951555558100,8.21455810546875,-1.0080413818359375,-0.28363037109375,0.0615386962890625
1772457951565626000,8.224626220703126,-1.0169677734375,-0.2792510986328125,0.0604248046875
1772457951575694000,8.234694091796875,-1.017425537109375,-0.275848388671875,0.06378173828125
1772457951585762300,8.24476220703125,-1.0106964111328125,-0.2750396728515625,0.0712127685546875
1772457951595831000,8.2548310546875,-0.9983062744140625,-0.2775726318359375,0.0794830322265625
1772457951605899000,8.26489892578125,-0.9899139404296875,-0.2785797119140625,0.0859222412109375
1772457951615967200,8.27496728515625,-0.9826507568359375,-0.2837982177734375,0.0853424072265625
1772457951626035200,8.28503515625,-0.98065185546875,-0.2908172607421875,0.080078125
1772457951636103200,8.295103271484376,-0.9787445068359375,-0.2985076904296875,0.0730743408203125
1772457951646172200,8.305172119140625,-0.972686767578125,-0.3031005859375,0.06842041015625
1772457951656240000,8.315240234375,-0.9601898193359375,-0.3121185302734375,0.0601959228515625
1772457951666308000,8.32530810546875,-0.954315185546875,-0.3240203857421875,0.0482177734375
1772457951676376000,8.3353759765625,-0.952484130859375,-0.32879638671875,0.0381317138671875
1772457951686446000,8.345446044921875,-0.948211669921875,-0.336334228515625,0.031463623046875
1772457951696514000,8.35551416015625,-0.9463653564453125,-0.3429718017578125,0.0298309326171875
1772457951706582000,8.36558203125,-0.94622802734375,-0.3408203125,0.0283203125
1772457951716651300,8.3756513671875,-0.9538421630859375,-0.333984375,0.0274505615234375
1772457951726719200,8.38571923828125,-0.9712677001953125,-0.32366943359375,0.0279998779296875
1772457951736787200,8.395787109375,-0.9989013671875,-0.309112548828125,0.0336761474609375
1772457951746855200,8.405855224609375,-1.021331787109375,-0.2981414794921875,0.037811279296875
1772457951756923100,8.415923095703125,-1.041046142578125,-0.2929840087890625,0.03460693359375
1772457951766992100,8.4259921875,-1.054901123046875,-0.292388916015625,0.0208282470703125
1772457951777060400,8.436060302734376,-1.06671142578125,-0.299102783203125,0.00732421875
1772457951787128300,8.44612841796875,-1.0930023193359375,-0.323974609375,0.0154876708984375
1772457951797196000,8.456196044921874,-1.0950927734375,-0.35540771484375,0.027008056640625
1772457951807264000,8.466263916015626,-1.0564727783203125,-0.3577728271484375,0.0154571533203125
1772457951817332200,8.476332275390625,-1.0316162109375,-0.3513641357421875,-0.0069122314453125
1772457951827401200,8.486401123046875,-1.01214599609375,-0.3540496826171875,-0.01116943359375
1772457951837469200,8.49646923828125,-1.0142364501953125,-0.3433685302734375,-0.0301513671875
1772457951847537200,8.506537109375,-1.047454833984375,-0.3236083984375,-0.0557861328125
1772457951857605000,8.516605224609375,-1.1013641357421875,-0.2928314208984375,-0.0680389404296875
1772457951867673000,8.526673095703124,-1.15081787109375,-0.2609405517578125,-0.0680694580078125
1772457951877742300,8.536742431640626,-1.17218017578125,-0.226959228515625,-0.055938720703125
1772457951887810300,8.546810302734375,-1.161895751953125,-0.197418212890625,-0.0387115478515625
1772457951897878300,8.556878173828125,-1.131072998046875,-0.175048828125,-0.0204925537109375
1772457951907946000,8.566946044921876,-1.0831451416015625,-0.15704345703125,-0.007171630859375
1772457951918014200,8.57701416015625,-1.03515625,-0.1486053466796875,0.0096435546875
1772457951928083200,8.587083251953125,-1.0009765625,-0.14727783203125,0.02703857421875
1772457951938151200,8.597151123046874,-0.9709930419921875,-0.1461944580078125,0.0372161865234375
1772457951948219100,8.60721923828125,-0.9437713623046875,-0.145721435546875,0.04461669921875
1772457951958287400,8.617287353515625,-0.917999267578125,-0.1444549560546875,0.0462799072265625
1772457951968355000,8.62735498046875,-0.894622802734375,-0.146331787109375,0.050750732421875
1772457951978424000,8.637424072265626,-0.8705291748046875,-0.153839111328125,0.0523223876953125
1772457951988492300,8.6474921875,-0.8556671142578125,-0.164947509765625,0.0529937744140625
1772457951998560300,8.657560302734375,-0.843536376953125,-0.1784515380859375,0.0486907958984375
1772457952008628200,8.667628173828126,-0.8264312744140625,-0.18695068359375,0.042572021484375
1772457952018696200,8.6776962890625,-0.800994873046875,-0.1965484619140625,0.0344390869140625
1772457952028765200,8.68776513671875,-0.7791748046875,-0.20733642578125,0.035186767578125
1772457952038833200,8.697833251953124,-0.763916015625,-0.2253265380859375,0.0460205078125
1772457952048901000,8.707901123046875,-0.7587738037109375,-0.242279052734375,0.0576019287109375
1772457952058969300,8.71796923828125,-0.7506103515625,-0.24896240234375,0.07073974609375
1772457952069037300,8.728037353515624,-0.7373046875,-0.2552947998046875,0.0885467529296875
1772457952079106000,8.73810595703125,-0.728546142578125,-0.2695465087890625,0.118621826171875
1772457952089174300,8.74817431640625,-0.732086181640625,-0.28411865234375,0.1459503173828125
1772457952099242200,8.7582421875,-0.751007080078125,-0.2953948974609375,0.168975830078125
1772457952109310200,8.768310302734376,-0.7861175537109375,-0.2962493896484375,0.1815338134765625
1772457952119378200,8.778378173828125,-0.8220977783203125,-0.288177490234375,0.1928863525390625
1772457952129447200,8.788447265625,-0.8476409912109375,-0.281768798828125,0.19549560546875
1772457952139515100,8.79851513671875,-0.8648681640625,-0.279083251953125,0.1816864013671875
1772457952149583000,8.8085830078125,-0.8761749267578125,-0.2769317626953125,0.151275634765625
1772457952159651300,8.8186513671875,-0.89031982421875,-0.273895263671875,0.1228179931640625
1772457952169719300,8.82871923828125,-0.913238525390625,-0.2692413330078125,0.098663330078125
1772457952179788000,8.8387880859375,-0.9389190673828125,-0.2635498046875,0.0844879150390625
1772457952189856300,8.848856201171875,-0.974945068359375,-0.259185791015625,0.074615478515625
1772457952199924200,8.85892431640625,-1.032684326171875,-0.2462158203125,0.061920166015625
1772457952209992200,8.8689921875,-1.0951385498046875,-0.231781005859375,0.056549072265625
1772457952220060200,8.87906005859375,-1.1366729736328125,-0.214630126953125,0.060211181640625
1772457952230128400,8.88912841796875,-1.1467742919921875,-0.197845458984375,0.074371337890625
1772457952240197000,8.899197021484374,-1.1265869140625,-0.1851806640625,0.092803955078125
1772457952250265000,8.90926513671875,-1.0834197998046875,-0.180023193359375,0.1153564453125
1772457952260333000,8.9193330078125,-1.029052734375,-0.1864013671875,0.132904052734375
1772457952270401300,8.9294013671875,-0.978424072265625,-0.1992645263671875,0.144683837890625
1772457952280469200,8.93946923828125,-0.932037353515625,-0.20947265625,0.1512603759765625
1772457952290538000,8.9495380859375,-0.898773193359375,-0.2200164794921875,0.155609130859375
1772457952300606500,8.9596064453125,-0.8876953125,-0.22833251953125,0.1522979736328125
1772457952310674400,8.96967431640625,-0.8896942138671875,-0.2332763671875,0.141815185546875
1772457952320742400,8.979742431640625,-0.8883514404296875,-0.23992919921875,0.13665771484375
1772457952330810400,8.989810302734375,-0.877166748046875,-0.2500762939453125,0.1362457275390625
1772457952340879400,8.99987939453125,-0.85693359375,-0.259490966796875,0.138702392578125
1772457952350947300,9.009947265625,-0.8360595703125,-0.27197265625,0.143768310546875
1772457952361015300,9.020015380859375,-0.8157806396484375,-0.2875823974609375,0.1493072509765625
1772457952371083500,9.03008349609375,-0.809326171875,-0.302703857421875,0.147369384765625
1772457952381151500,9.0401513671875,-0.8216094970703125,-0.3171234130859375,0.1407318115234375
1772457952391220200,9.05022021484375,-0.8480682373046875,-0.325439453125,0.127410888671875
1772457952401288400,9.060288330078125,-0.8742218017578125,-0.326385498046875,0.1089324951171875
1772457952411356400,9.0703564453125,-0.8981170654296875,-0.327850341796875,0.1002960205078125
1772457952421424400,9.08042431640625,-0.9189910888671875,-0.3282318115234375,0.0889739990234375
1772457952431492400,9.090492431640625,-0.940460205078125,-0.3310394287109375,0.0738372802734375
1772457952441561300,9.100561279296874,-0.9634246826171875,-0.333587646484375,0.05859375
1772457952451629300,9.11062939453125,-0.9912261962890625,-0.3348236083984375,0.0424346923828125
1772457952461697300,9.120697265625,-1.00848388671875,-0.338836669921875,0.027679443359375
1772457952471765500,9.130765625,-1.01171875,-0.342071533203125,0.02203369140625
1772457952481833500,9.14083349609375,-0.999908447265625,-0.3462677001953125,0.0290069580078125
1772457952491902500,9.15090234375,-0.978973388671875,-0.3499755859375,0.0404205322265625
1772457952501970400,9.160970458984375,-0.952911376953125,-0.3525390625,0.0546875
1772457952512038400,9.171038330078124,-0.9305267333984375,-0.353485107421875,0.0680694580078125
1772457952522106400,9.1811064453125,-0.916717529296875,-0.3548583984375,0.0786895751953125
1772457952532174300,9.19117431640625,-0.90960693359375,-0.3529205322265625,0.0810699462890625
1772457952542243600,9.20124365234375,-0.91119384765625,-0.355712890625,0.07373046875
1772457952552311300,9.211311279296876,-0.9216461181640625,-0.353515625,0.0604248046875
1772457952562379300,9.221379150390625,-0.9270172119140625,-0.3476715087890625,0.0512542724609375
1772457952572447500,9.231447509765625,-0.9373016357421875,-0.3415985107421875,0.046966552734375
1772457952582515500,9.241515380859376,-0.9564208984375,-0.341827392578125,0.05474853515625
1772457952592584400,9.25158447265625,-0.98095703125,-0.3538055419921875,0.0785064697265625
1772457952602652400,9.26165234375,-0.971221923828125,-0.3599853515625,0.0914764404296875
1772457952612720400,9.271720458984374,-0.936981201171875,-0.348846435546875,0.080596923828125
1772457952622788400,9.281788330078125,-0.942047119140625,-0.34295654296875,0.08123779296875
1772457952632856300,9.291856201171875,-0.97637939453125,-0.3384857177734375,0.07891845703125
1772457952642924300,9.30192431640625,-1.00946044921875,-0.328887939453125,0.0676422119140625
1772457952652993500,9.31199365234375,-1.0370025634765625,-0.3228912353515625,0.0689697265625
1772457952663061500,9.3220615234375,-1.046600341796875,-0.3170166015625,0.0772247314453125
1772457952673129200,9.332129150390625,-1.04931640625,-0.3125762939453125,0.087432861328125
1772457952683197400,9.342197509765626,-1.036651611328125,-0.3126983642578125,0.09625244140625
1772457952693265400,9.352265380859375,-1.018951416015625,-0.3102874755859375,0.0934600830078125
1772457952703334400,9.36233447265625,-1.019287109375,-0.306884765625,0.085113525390625
1772457952713402600,9.372402587890624,-1.0357208251953125,-0.3033294677734375,0.0795745849609375
1772457952723470300,9.38247021484375,-1.051025390625,-0.29547119140625,0.072967529296875
1772457952733538300,9.392538330078125,-1.06109619140625,-0.2827911376953125,0.0660858154296875
1772457952743606300,9.402606201171874,-1.0707855224609375,-0.2716064453125,0.06390380859375
1772457952753675500,9.412675537109376,-1.080810546875,-0.2567291259765625,0.060760498046875
1772457952763743500,9.422743408203125,-1.0929107666015625,-0.2421875,0.0604400634765625
1772457952773811500,9.4328115234375,-1.095458984375,-0.22637939453125,0.0606842041015625
1772457952783879400,9.44287939453125,-1.09765625,-0.2176971435546875,0.06134033203125
1772457952793947400,9.452947509765625,-1.0997467041015625,-0.208953857421875,0.0553436279296875
1772457952804016400,9.463016357421875,-1.0904998779296875,-0.1961517333984375,0.041595458984375
1772457952814084600,9.473084716796874,-1.0926666259765625,-0.179229736328125,0.0280303955078125
1772457952824152600,9.483152587890626,-1.1010894775390625,-0.162841796875,0.0185546875
1772457952834220300,9.49322021484375,-1.097381591796875,-0.148834228515625,0.0141754150390625
1772457952844288300,9.503288330078124,-1.0816497802734375,-0.1458282470703125,0.009429931640625
1772457952854357500,9.513357421875,-1.0530853271484375,-0.1481475830078125,0.0088653564453125
1772457952864425500,9.523425537109375,-1.012847900390625,-0.1532745361328125,0.003936767578125
1772457952874493400,9.533493408203125,-0.9700469970703125,-0.16265869140625,0.00262451171875
1772457952884561700,9.543561767578124,-0.9355621337890625,-0.1782989501953125,0.0012969970703125
1772457952894629400,9.55362939453125,-0.91314697265625,-0.1895294189453125,-0.0001678466796875
1772457952904698400,9.563698486328125,-0.89154052734375,-0.20135498046875,-0.0013580322265625
1772457952914766300,9.573766357421874,-0.8725738525390625,-0.2144775390625,0.0010223388671875
1772457952924834600,9.58383447265625,-0.8553314208984375,-0.224578857421875,0.0020294189453125
1772457952934902500,9.593902587890625,-0.841064453125,-0.2288818359375,-0.00177001953125
1772457952944970500,9.603970458984374,-0.8276519775390625,-0.2300567626953125,-0.00897216796875
1772457952955039500,9.61403955078125,-0.8123016357421875,-0.2247161865234375,-0.0260009765625
1772457952965107500,9.624107421875,-0.810302734375,-0.2174530029296875,-0.0537872314453125
1772457952975175400,9.634175537109375,-0.830078125,-0.2139892578125,-0.0789642333984375
1772457952985243400,9.644243408203126,-0.8582916259765625,-0.2121734619140625,-0.099700927734375
1772457952995311600,9.6543115234375,-0.900970458984375,-0.2091522216796875,-0.109954833984375
1772457953005380400,9.66438037109375,-0.9321746826171875,-0.1961212158203125,-0.1009521484375
1772457953015448300,9.6744482421875,-0.951385498046875,-0.1802978515625,-0.0863189697265625
1772457953025516500,9.6845166015625,-0.9475555419921875,-0.1685028076171875,-0.0628509521484375
1772457953035584500,9.69458447265625,-0.9284820556640625,-0.1613311767578125,-0.031463623046875
1772457953045652500,9.704652587890624,-0.9064788818359375,-0.1605987548828125,0.0032501220703125
1772457953055721500,9.714721435546876,-0.89862060546875,-0.170196533203125,0.03570556640625
1772457953065789400,9.72478955078125,-0.8934783935546875,-0.1867828369140625,0.0604400634765625
1772457953075857400,9.734857421875,-0.8803253173828125,-0.1980438232421875,0.0829620361328125
1772457953085925400,9.74492529296875,-0.8597412109375,-0.207794189453125,0.097625732421875
1772457953095993600,9.75499365234375,-0.841217041015625,-0.2218780517578125,0.1050567626953125
1772457953106062300,9.765062255859375,-0.83221435546875,-0.2336273193359375,0.100433349609375
1772457953116130300,9.77513037109375,-0.8372955322265625,-0.243743896484375,0.0938262939453125
1772457953126198500,9.785198486328126,-0.8522186279296875,-0.2565765380859375,0.07879638671875
1772457953136266500,9.7952666015625,-0.864837646484375,-0.2664947509765625,0.0636749267578125
1772457953146334500,9.80533447265625,-0.8712005615234375,-0.277557373046875,0.0543365478515625
1772457953156403500,9.815403564453124,-0.87005615234375,-0.28619384765625,0.050537109375
1772457953166471400,9.825471435546875,-0.8623046875,-0.2937469482421875,0.0442962646484375
1772457953176539400,9.835539306640625,-0.85986328125,-0.30609130859375,0.0390777587890625
1772457953186607400,9.845607421875,-0.862548828125,-0.3145751953125,0.032440185546875
1772457953196675600,9.855675537109375,-0.87188720703125,-0.32244873046875,0.02764892578125
1772457953206744300,9.865744384765625,-0.879669189453125,-0.331024169921875,0.0231170654296875
1772457953216812300,9.875812255859374,-0.9008331298828125,-0.337921142578125,0.01519775390625
1772457953226880300,9.88588037109375,-0.9283905029296875,-0.3399200439453125,0.0052032470703125
1772457953236948500,9.895948486328125,-0.952423095703125,-0.3363494873046875,0.0015411376953125
1772457953247016400,9.906016357421874,-0.9657135009765625,-0.3318939208984375,0.0033416748046875
1772457953257084400,9.91608447265625,-0.9777374267578125,-0.3328094482421875,0.0036468505859375
1772457953267153400,9.9261533203125,-0.9889678955078125,-0.333465576171875,0.0054779052734375
1772457953277221400,9.936221435546875,-0.9998931884765625,-0.330108642578125,0.0045318603515625
1772457953287289300,9.946289306640624,-1.0095367431640625,-0.33087158203125,0.0038909912109375
1772457953297357300,9.956357421875,-1.01544189453125,-0.328857421875,0.00555419921875
1772457953307425300,9.96642529296875,-1.0117645263671875,-0.3223876953125,0.0110015869140625
1772457953317494300,9.976494384765624,-1.013153076171875,-0.3155059814453125,0.0173492431640625
1772457953327562200,9.986562255859376,-1.0207366943359375,-0.3036651611328125,0.0176544189453125
1772457953337630200,9.996630126953125,-1.03680419921875,-0.2887115478515625,0.0171966552734375
1772457953347698200,10.0066982421875,-1.052642822265625,-0.277252197265625,0.0172119140625
1772457953357766100,10.01676611328125,-1.07470703125,-0.2616729736328125,0.0093231201171875
1772457953367835400,10.02683544921875,-1.0975189208984375,-0.2531890869140625,0.000518798828125
1772457953377903000,10.036903076171875,-1.115234375,-0.2463836669921875,-0.004364013671875
1772457953387971000,10.04697119140625,-1.1220703125,-0.2384033203125,-0.006866455078125
1772457953398039000,10.0570390625,-1.1147003173828125,-0.2355804443359375,-0.00262451171875
1772457953408107300,10.067107177734375,-1.0926055908203125,-0.23876953125,-0.0013580322265625
1772457953418176300,10.07717626953125,-1.061309814453125,-0.246490478515625,-0.00323486328125
1772457953428244200,10.087244140625,-1.034698486328125,-0.2577056884765625,-0.005767822265625
1772457953438312200,10.097312255859375,-1.01702880859375,-0.278106689453125,0.005767822265625
1772457953448380200,10.107380126953124,-0.9969482421875,-0.3065032958984375,0.027496337890625
1772457953458448100,10.1174482421875,-0.9509124755859375,-0.31927490234375,0.033782958984375
1772457953468517400,10.127517333984375,-0.924407958984375,-0.3282928466796875,0.018402099609375
1772457953478585300,10.13758544921875,-0.9351348876953125,-0.3442230224609375,0.007293701171875
1772457953488653000,10.147653076171874,-0.9532623291015625,-0.3653717041015625,-0.0064849853515625
1772457953498721000,10.157720947265625,-0.949462890625,-0.36083984375,-0.026458740234375
1772457953508789200,10.167789306640625,-0.9453125,-0.3421478271484375,-0.0535430908203125
1772457953518858200,10.177858154296874,-0.959625244140625,-0.3182373046875,-0.0746002197265625
1772457953528926200,10.18792626953125,-0.9890289306640625,-0.283721923828125,-0.0783233642578125
1772457953538994400,10.197994384765625,-1.020843505859375,-0.2515411376953125,-0.0673675537109375
1772457953549062100,10.208062255859375,-1.0483245849609375,-0.2230377197265625,-0.051361083984375
1772457953559130000,10.218130126953126,-1.062164306640625,-0.19049072265625,-0.03656005859375
1772457953569199400,10.228199462890625,-1.065887451171875,-0.16229248046875,-0.0211334228515625
1772457953579267300,10.238267333984375,-1.064483642578125,-0.1429901123046875,0.001953125
1772457953589335300,10.248335205078124,-1.05987548828125,-0.1302490234375,0.019378662109375
1772457953599403300,10.2584033203125,-1.051666259765625,-0.115386962890625,0.031646728515625
1772457953609471200,10.26847119140625,-1.0416717529296875,-0.1158599853515625,0.0426025390625
1772457953619540200,10.278540283203125,-1.0291748046875,-0.1301422119140625,0.0530548095703125
1772457953629608200,10.288608154296876,-1.0212554931640625,-0.153106689453125,0.0546722412109375
1772457953639676400,10.298676513671875,-1.0069122314453125,-0.1773681640625,0.0366058349609375
1772457953649744400,10.308744384765625,-0.990081787109375,-0.2018280029296875,0.017578125
1772457953659812000,10.31881201171875,-0.9713134765625,-0.2213897705078125,0.010894775390625
1772457953669881000,10.328881103515625,-0.946441650390625,-0.2296142578125,0.0167388916015625
1772457953679949300,10.33894921875,-0.913848876953125,-0.2325439453125,0.02557373046875
1772457953690017300,10.349017333984374,-0.879180908203125,-0.2365570068359375,0.0370635986328125
1772457953700085200,10.359085205078125,-0.8355560302734375,-0.2418670654296875,0.0502166748046875
1772457953710153200,10.3691533203125,-0.797607421875,-0.247467041015625,0.0636749267578125
1772457953720222200,10.37922216796875,-0.7644500732421875,-0.258209228515625,0.081024169921875
1772457953730290200,10.389290283203126,-0.74041748046875,-0.2742462158203125,0.1039581298828125
1772457953740358100,10.399358154296875,-0.743743896484375,-0.2925262451171875,0.118682861328125
1772457953750426400,10.40942626953125,-0.755523681640625,-0.3045501708984375,0.132080078125
1772457953760494300,10.419494384765626,-0.781494140625,-0.305389404296875,0.1387786865234375
1772457953770563000,10.42956298828125,-0.8080291748046875,-0.300933837890625,0.141265869140625
1772457953780631300,10.43963134765625,-0.8263397216796875,-0.292999267578125,0.137420654296875
1772457953790699300,10.44969921875,-0.8424530029296875,-0.28106689453125,0.123992919921875
1772457953800767200,10.459767333984376,-0.8550567626953125,-0.2637939453125,0.095794677734375
1772457953810835200,10.469835205078125,-0.8735504150390625,-0.2440032958984375,0.0596466064453125
1772457953820904200,10.479904296875,-0.895965576171875,-0.214141845703125,0.0230865478515625
1772457953830972200,10.48997216796875,-0.947418212890625,-0.1971435546875,0.0027008056640625
1772457953841040100,10.5000400390625,-1.01513671875,-0.1831512451171875,-0.0013275146484375
1772457953851108400,10.5101083984375,-1.08746337890625,-0.1542510986328125,-0.00262451171875
1772457953861176300,10.52017626953125,-1.147979736328125,-0.1244354248046875,0.0050506591796875
1772457953871245000,10.5302451171875,-1.180877685546875,-0.1016082763671875,0.0230255126953125
1772457953881313300,10.540313232421875,-1.1780548095703125,-0.0872344970703125,0.043365478515625
1772457953891381200,10.55038134765625,-1.140350341796875,-0.0891265869140625,0.0621795654296875
1772457953901449200,10.56044921875,-1.0856170654296875,-0.11248779296875,0.075531005859375
1772457953911517200,10.57051708984375,-1.024200439453125,-0.1417694091796875,0.080352783203125
1772457953921586200,10.580586181640625,-0.9678955078125,-0.168304443359375,0.0853271484375
1772457953931654100,10.590654052734376,-0.93194580078125,-0.195068359375,0.0868682861328125
1772457953941722000,10.60072216796875,-0.9053497314453125,-0.216461181640625,0.0786285400390625
1772457953951790300,10.610790283203125,-0.88275146484375,-0.2326812744140625,0.070220947265625
1772457953961858300,10.6208583984375,-0.8682708740234375,-0.2449188232421875,0.064788818359375
1772457953971927000,10.630927001953125,-0.86669921875,-0.248626708984375,0.0590972900390625
1772457953981995000,10.6409951171875,-0.8714752197265625,-0.254364013671875,0.0562286376953125
1772457953992063200,10.651063232421874,-0.879058837890625,-0.261932373046875,0.053466796875
1772457954002131200,10.661131103515626,-0.882293701171875,-0.26947021484375,0.05255126953125
1772457954012199200,10.67119921875,-0.88262939453125,-0.273223876953125,0.053619384765625
1772457954022268400,10.681268310546875,-0.8927764892578125,-0.2780609130859375,0.0543212890625
1772457954032336100,10.691336181640626,-0.9092559814453125,-0.2807769775390625,0.0518341064453125
1772457954042404000,10.701404052734375,-0.92236328125,-0.2861785888671875,0.048980712890625
1772457954052472000,10.71147216796875,-0.9315643310546875,-0.2884979248046875,0.049774169921875
1772457954062540300,10.721540283203124,-0.939208984375,-0.288299560546875,0.0445556640625
1772457954072609300,10.731609375,-0.9534149169921875,-0.2885589599609375,0.040130615234375
1772457954082677200,10.74167724609375,-0.976959228515625,-0.287811279296875,0.0367279052734375
1772457954092745200,10.7517451171875,-0.9964447021484375,-0.2836151123046875,0.028717041015625
1772457954102813200,10.761813232421876,-1.0066680908203125,-0.28179931640625,0.0201568603515625
1772457954112881200,10.771881103515625,-1.0106048583984375,-0.2764739990234375,0.014251708984375
1772457954122950400,10.781950439453125,-1.0156707763671875,-0.2700958251953125,0.0109100341796875
1772457954133018400,10.792018310546876,-1.024322509765625,-0.266998291015625,0.0110015869140625
1772457954143086000,10.802086181640625,-1.0343017578125,-0.2629241943359375,0.01690673828125
1772457954153154000,10.812154052734375,-1.0470733642578125,-0.2596588134765625,0.021697998046875
1772457954163222300,10.82222216796875,-1.05029296875,-0.255035400390625,0.02606201171875
1772457954173291300,10.832291259765626,-1.0458984375,-0.2549285888671875,0.0401763916015625
1772457954183359200,10.842359130859375,-1.042572021484375,-0.264251708984375,0.0543670654296875
1772457954193427200,10.85242724609375,-1.0275115966796875,-0.2825775146484375,0.07525634765625
1772457954203495200,10.8624951171875,-0.98858642578125,-0.3041534423828125,0.0988616943359375
1772457954213563100,10.872563232421875,-0.9484405517578125,-0.318511962890625,0.100555419921875
1772457954223632400,10.88263232421875,-0.9350738525390625,-0.325286865234375,0.0950164794921875
1772457954233700400,10.892700439453124,-0.9307861328125,-0.33294677734375,0.092681884765625
1772457954243768300,10.902768310546875,-0.941619873046875,-0.3283538818359375,0.0843505859375
1772457954253836000,10.9128359375,-0.9577178955078125,-0.3178253173828125,0.074249267578125
1772457954263904300,10.922904296875,-0.96588134765625,-0.3031768798828125,0.065460205078125
1772457954273973200,10.93297314453125,-0.97479248046875,-0.2834320068359375,0.0539093017578125
1772457954284041200,10.943041259765625,-0.997100830078125,-0.2709503173828125,0.04937744140625
1772457954294109200,10.953109130859374,-1.01202392578125,-0.259613037109375,0.04913330078125
1772457954304177400,10.963177490234376,-1.0144195556640625,-0.2534027099609375,0.057464599609375
1772457954314245000,10.9732451171875,-1.0121612548828125,-0.24774169921875,0.06768798828125
1772457954324314000,10.983314208984375,-1.005950927734375,-0.244171142578125,0.073822021484375
1772457954334382300,10.99338232421875,-0.9953460693359375,-0.240142822265625,0.0773773193359375
1772457954344450300,11.0034501953125,-0.9842071533203125,-0.23175048828125,0.0846710205078125
1772457954354518300,11.013518310546875,-0.9760589599609375,-0.221099853515625,0.094512939453125
1772457954364586200,11.023586181640624,-0.972259521484375,-0.214874267578125,0.0943450927734375
1772457954374655200,11.0336552734375,-0.9801025390625,-0.207000732421875,0.0831756591796875
1772457954384723200,11.04372314453125,-0.9824371337890625,-0.2042694091796875,0.074310302734375
1772457954394791200,11.053791259765624,-1.0240325927734375,-0.1856536865234375,0.0631866455078125
1772457954404859400,11.063859375,-1.05841064453125,-0.1764984130859375,0.0437774658203125
1772457954414927400,11.07392724609375,-1.076416015625,-0.1779937744140625,0.0198516845703125
1772457954424996000,11.08399609375,-1.0693206787109375,-0.17938232421875,0.0121917724609375
1772457954435064300,11.094064208984374,-1.0371551513671875,-0.1967926025390625,0.0131683349609375
1772457954445132300,11.10413232421875,-0.9921722412109375,-0.2069549560546875,0.012420654296875
1772457954455200300,11.1142001953125,-0.95758056640625,-0.2179718017578125,0.027374267578125
