time,seconds_elapsed,z,y,x
1772457943400321500,0.059321533203125,0.15239566564559937,0.05184854939579964,-0.23791296780109406
1772457943410389800,0.0693896484375,0.13012337684631348,0.048839446157217026,-0.23711401224136353
1772457943420458500,0.07945849609375,0.11053583025932312,0.03845977410674095,-0.22649945318698883
1772457943430526500,0.0895263671875,0.09432170540094376,0.016166718676686287,-0.22482885420322418
1772457943440594400,0.099594482421875,0.09484048932790756,-0.015849269926548004,-0.23145879805088043
1772457943450662700,0.10966259765625,0.10593628883361816,-0.06048304960131645,-0.26059430837631226
1772457943460730600,0.119730712890625,0.115972138941288,-0.11426478624343872,-0.2942012548446655
1772457943470799400,0.12979931640625,0.11955729126930237,-0.10144086927175522,-0.3118622899055481
1772457943480867600,0.13986767578125,0.1137784942984581,-0.030720362439751625,-0.30746620893478394
1772457943490935600,0.149935546875,0.10774403810501099,0.05474740266799927,-0.27593785524368286
1772457943501003500,0.16000341796875,0.10817760229110718,0.10369443893432617,-0.24044722318649292
1772457943511071500,0.170071533203125,0.1151910349726677,0.10501376539468765,-0.19900177419185638
1772457943521140500,0.180140380859375,0.12941551208496094,0.04663567990064621,-0.16256973147392273
1772457943531208400,0.19020849609375,0.14325302839279175,0.0002657834847923368,-0.11042051762342453
1772457943541276400,0.2002763671875,0.14852076768875122,0.004508465528488159,-0.03789598122239113
1772457943551344600,0.2103447265625,0.16063974797725677,0.042211901396512985,0.03773539513349533
1772457943561412600,0.22041259765625,0.18238845467567444,0.08562968671321869,0.09470626711845398
1772457943571481300,0.2304814453125,0.21301187574863434,0.11804301291704178,0.12580692768096924
1772457943581549600,0.240549560546875,0.2463618367910385,0.14501871168613434,0.12471742928028107
1772457943591617500,0.250617431640625,0.27862897515296936,0.17002366483211517,0.10190239548683167
1772457943601685500,0.260685546875,0.29932066798210144,0.19129060208797455,0.056651029735803604
1772457943611753500,0.27075341796875,0.30715274810791016,0.2372325211763382,0.009221727959811687
1772457943621822700,0.28082275390625,0.30959832668304443,0.2833542227745056,-0.03615214675664902
1772457943631890400,0.290890380859375,0.31182101368904114,0.31553664803504944,-0.07746443152427673
1772457943641958400,0.30095849609375,0.31608420610427856,0.3266633450984955,-0.09783734381198883
1772457943652026600,0.311026611328125,0.31142285466194153,0.31066572666168213,-0.10334236919879913
1772457943662094600,0.321094482421875,0.3008604943752289,0.28764644265174866,-0.09490440785884857
1772457943672163600,0.33116357421875,0.28314435482025146,0.24812591075897217,-0.08120404183864594
1772457943682231600,0.3412314453125,0.2585607171058655,0.20174537599086761,-0.06532201170921326
1772457943692299500,0.351299560546875,0.228260338306427,0.14621473848819733,-0.05199848487973213
1772457943702367500,0.361367431640625,0.20038290321826935,0.08615992218255997,-0.05140966176986694
1772457943712435500,0.371435546875,0.16134467720985413,0.02267894707620144,-0.0711282417178154
1772457943722504700,0.381504638671875,0.11861959099769592,-0.03923821449279785,-0.11539450287818909
1772457943732572700,0.39157275390625,0.07143557071685791,-0.10862421244382858,-0.1820334494113922
1772457943742640400,0.401640380859375,0.028130704537034035,-0.15832972526550293,-0.2621338665485382
1772457943752708400,0.411708251953125,-0.001773132593370974,-0.18983252346515656,-0.32011330127716064
1772457943762776600,0.421776611328125,-0.02557193860411644,-0.20685890316963196,-0.3415464162826538
1772457943772845600,0.431845458984375,-0.046464703977108,-0.21526330709457397,-0.3310399651527405
1772457943782913500,0.44191357421875,-0.05841270834207535,-0.1941487044095993,-0.29038628935813904
1772457943792981500,0.4519814453125,-0.06399869173765182,-0.140244722366333,-0.22800040245056152
1772457943803049500,0.462049560546875,-0.04977288097143173,-0.07068109512329102,-0.15283775329589844
1772457943813117400,0.472117431640625,-0.014724351465702057,-0.0028762139845639467,-0.08013211935758591
1772457943823186700,0.482186767578125,0.045095574110746384,0.044440168887376785,-0.028613002970814705
1772457943833254700,0.492254638671875,0.1187191903591156,0.06753350049257278,0.01540452241897583
1772457943843322600,0.502322509765625,0.1875440627336502,0.07470672577619553,0.03820517659187317
1772457943853390300,0.512390380859375,0.25213423371315,0.08028445392847061,0.04741492122411728
1772457943863458600,0.52245849609375,0.30570825934410095,0.0765184760093689,0.046303849667310715
1772457943873527600,0.532527587890625,0.3512831926345825,0.052804093807935715,0.04573579505085945
1772457943883595500,0.542595458984375,0.38265469670295715,0.01624954305589199,0.04294214025139809
1772457943893663700,0.552663818359375,0.39991411566734314,-0.0440090037882328,0.048720669001340866
1772457943903731700,0.562731689453125,0.4011021554470062,-0.12922057509422302,0.05901804566383362
1772457943913799400,0.57279931640625,0.38365471363067627,-0.2200077325105667,0.07254956662654877
1772457943923867400,0.582867431640625,0.3407493233680725,-0.29262787103652954,0.0832754522562027
1772457943933936600,0.5929365234375,0.2830095887184143,-0.3534155786037445,0.08613621443510056
1772457943944004600,0.603004638671875,0.21925751864910126,-0.4002206325531006,0.08126263320446014
1772457943954072600,0.613072509765625,0.15591742098331451,-0.4543866813182831,0.06321518868207932
1772457943964140500,0.623140625,0.09933670610189438,-0.49710750579833984,0.04328249394893646
1772457943974208500,0.63320849609375,0.0405689962208271,-0.5090629458427429,0.024635838344693184
1772457943984277500,0.643277587890625,-0.008054464124143124,-0.48334190249443054,0.007099454756826162
1772457943994345700,0.653345703125,-0.04619945213198662,-0.4425276219844818,-0.0037713022902607918
1772457944004413700,0.66341357421875,-0.07797069847583771,-0.3986397981643677,-0.006572947837412357
1772457944014481700,0.673481689453125,-0.09018608182668686,-0.37074318528175354,-0.011671037413179874
1772457944024549400,0.68354931640625,-0.1101326271891594,-0.39832526445388794,-0.03074166737496853
1772457944034618600,0.69361865234375,-0.14405490458011627,-0.46991848945617676,-0.06840462237596512
1772457944044686600,0.7036865234375,-0.19194947183132172,-0.5340876579284668,-0.11501234024763107
1772457944054754600,0.713754638671875,-0.242084801197052,-0.5527771711349487,-0.16144880652427673
1772457944064822500,0.723822509765625,-0.2921072244644165,-0.5202794075012207,-0.20566608011722565
1772457944074890500,0.733890380859375,-0.34011921286582947,-0.4545627236366272,-0.2581543028354645
1772457944084959500,0.74395947265625,-0.37962669134140015,-0.35539671778678894,-0.30779510736465454
1772457944095027500,0.75402734375,-0.40652140974998474,-0.19892321527004242,-0.33758655190467834
1772457944105095700,0.764095703125,-0.4065914452075958,-0.030913973227143288,-0.33407729864120483
1772457944115163600,0.77416357421875,-0.3663492202758789,0.13159744441509247,-0.2998327910900116
1772457944125231600,0.784231689453125,-0.3011308014392853,0.2684650123119354,-0.23090964555740356
1772457944135300600,0.794300537109375,-0.22261843085289001,0.3576960861682892,-0.1319178193807602
1772457944145368600,0.80436865234375,-0.15068085491657257,0.3633686304092407,-0.029030585661530495
1772457944155436500,0.8144365234375,-0.09698620438575745,0.3153693974018097,0.0693574994802475
1772457944165504500,0.82450439453125,-0.060152553021907806,0.26074424386024475,0.14727947115898132
1772457944175573500,0.834573486328125,-0.027536818757653236,0.18022410571575165,0.20153550803661346
1772457944185641500,0.844641357421875,-0.0018687400734052062,0.0731932520866394,0.2392306923866272
1772457944195709400,0.85470947265625,0.013953366316854954,-0.04515016824007034,0.2713335156440735
1772457944205777700,0.864777587890625,0.021041635423898697,-0.16283844411373138,0.3050520420074463
1772457944215845600,0.874845703125,0.017401892691850662,-0.2613879144191742,0.3579927682876587
1772457944225913600,0.88491357421875,0.01107635349035263,-0.32764124870300293,0.4229608476161957
1772457944235982600,0.894982666015625,0.0167347714304924,-0.3578247129917145,0.48287850618362427
1772457944246050600,0.905050537109375,0.03804592043161392,-0.36730796098709106,0.5221167206764221
1772457944256118500,0.915118408203125,0.05560547113418579,-0.3572135269641876,0.5366812944412231
1772457944266186500,0.9251865234375,0.07300843298435211,-0.35625240206718445,0.5182293057441711
1772457944276254700,0.935254638671875,0.08055955916643143,-0.36371561884880066,0.4742027223110199
1772457944286323500,0.945323486328125,0.07851478457450867,-0.37695419788360596,0.42108651995658875
1772457944296391200,0.95539111328125,0.06622961908578873,-0.39719077944755554,0.36553776264190674
1772457944306459100,0.965459228515625,0.046172287315130234,-0.44158753752708435,0.3025457561016083
1772457944316527000,0.975527099609375,0.012910205870866776,-0.4779561758041382,0.2373528927564621
1772457944326595000,0.985594970703125,-0.028593294322490692,-0.45593076944351196,0.19020962715148926
1772457944336664300,0.995664306640625,-0.06695985794067383,-0.3717682361602783,0.15847378969192505
1772457944346732000,1.00573193359375,-0.09805812686681747,-0.24465368688106537,0.1614791750907898
1772457944356800000,1.015800048828125,-0.11588239669799805,-0.10104432702064514,0.1836116462945938
1772457944366868200,1.0258681640625,-0.12340103089809418,0.015166169963777065,0.22045966982841492
1772457944376936200,1.035936279296875,-0.12636326253414154,0.11204184591770172,0.2652423083782196
1772457944387005200,1.046005126953125,-0.12872788310050964,0.21657198667526245,0.31754520535469055
1772457944397073200,1.0560732421875,-0.13647209107875824,0.3163369297981262,0.3673572242259979
1772457944407141000,1.06614111328125,-0.1461164653301239,0.3999788165092468,0.40835925936698914
1772457944417209000,1.076208984375,-0.1504502296447754,0.45016610622406006,0.43140360713005066
1772457944427277000,1.086277099609375,-0.15917980670928955,0.4636787176132202,0.4283667802810669
1772457944437346300,1.09634619140625,-0.1601763516664505,0.45036423206329346,0.4136115610599518
1772457944447414300,1.106414306640625,-0.1697264462709427,0.397121787071228,0.3619488775730133
1772457944457482000,1.11648193359375,-0.18190935254096985,0.3165223002433777,0.29188111424446106
1772457944467550200,1.12655029296875,-0.19872215390205383,0.23388679325580597,0.19887341558933258
1772457944477618200,1.1366181640625,-0.2172260582447052,0.16519881784915924,0.09951327741146088
1772457944487687200,1.146687255859375,-0.23609694838523865,0.10919573158025742,-0.007735684048384428
1772457944497755400,1.15675537109375,-0.25316861271858215,0.06375527381896973,-0.1323854774236679
1772457944507823000,1.166822998046875,-0.2620939314365387,0.023974841460585594,-0.2626015245914459
1772457944517891000,1.17689111328125,-0.2661605775356293,-0.015990683808922768,-0.39780330657958984
1772457944527959000,1.186958984375,-0.26646363735198975,-0.040590569376945496,-0.5183355808258057
1772457944538028300,1.1970283203125,-0.26352405548095703,-0.020432837307453156,-0.6086736917495728
1772457944548096300,1.20709619140625,-0.2524524927139282,0.014965101145207882,-0.6610596776008606
1772457944558164200,1.217164306640625,-0.22340698540210724,0.0498913936316967,-0.6750226616859436
1772457944568232000,1.22723193359375,-0.17371107637882233,0.05407814681529999,-0.6622599959373474
1772457944578300200,1.237300048828125,-0.11222720891237259,0.024623055011034012,-0.6219725012779236
1772457944588368100,1.2473681640625,-0.049302034080028534,-0.022219285368919373,-0.5576664805412292
1772457944598437000,1.25743701171875,0.017664214596152306,-0.07032449543476105,-0.47521844506263733
1772457944608505300,1.26750537109375,0.07911718636751175,-0.11350791901350021,-0.3830443322658539
1772457944618573300,1.2775732421875,0.13720925152301788,-0.1470901072025299,-0.288970023393631
1772457944628641000,1.28764111328125,0.19008098542690277,-0.1935337781906128,-0.20565995573997498
1772457944638710300,1.297710205078125,0.23589694499969482,-0.24764308333396912,-0.14177817106246948
1772457944648778200,1.3077783203125,0.2698090970516205,-0.2845017611980438,-0.09592226892709732
1772457944658846200,1.31784619140625,0.2952108681201935,-0.2942896783351898,-0.058571700006723404
1772457944668914200,1.3279140625,0.31198903918266296,-0.2863220274448395,-0.0439128614962101
1772457944678982100,1.337982177734375,0.31546127796173096,-0.2806535065174103,-0.054671235382556915
1772457944689050000,1.348050048828125,0.31227773427963257,-0.27054548263549805,-0.06946749240159988
1772457944699119000,1.358119140625,0.3078864514827728,-0.24312210083007812,-0.08977968990802765
1772457944709187300,1.368187255859375,0.29584604501724243,-0.20563171803951263,-0.11670584231615067
1772457944719255300,1.37825537109375,0.2898366153240204,-0.16258038580417633,-0.13660657405853271
1772457944729323300,1.3883232421875,0.2968444526195526,-0.13250824809074402,-0.15590091049671173
1772457944739391000,1.398390869140625,0.29432642459869385,-0.1079443097114563,-0.16146452724933624
1772457944749460200,1.408460205078125,0.28504905104637146,-0.09527058899402618,-0.16712960600852966
1772457944759528200,1.418528076171875,0.2722853124141693,-0.10492242127656937,-0.17886614799499512
1772457944769596200,1.42859619140625,0.2558743953704834,-0.10716906189918518,-0.19280780851840973
1772457944779664400,1.438664306640625,0.23423220217227936,-0.08594074100255966,-0.2044420838356018
1772457944789732000,1.448732177734375,0.22748295962810516,-0.054186806082725525,-0.2086418867111206
1772457944799801000,1.458801025390625,0.23138156533241272,-0.02076599933207035,-0.21159613132476807
1772457944809869300,1.468869384765625,0.23342740535736084,0.016054334118962288,-0.21116763353347778
1772457944819937300,1.478937255859375,0.23495259881019592,0.048340633511543274,-0.19525524973869324
1772457944830005200,1.489005126953125,0.23921124637126923,0.0711711123585701,-0.16747555136680603
1772457944840073200,1.4990732421875,0.2507787048816681,0.07946979254484177,-0.1328432708978653
1772457944850142200,1.50914208984375,0.2643970251083374,0.07447849214076996,-0.08971843123435974
1772457944860210200,1.519210205078125,0.2660881280899048,0.06554066389799118,-0.05317666754126549
1772457944870278100,1.529278076171875,0.2633538842201233,0.07200255244970322,-0.012338691391050816
1772457944880346000,1.53934619140625,0.2554759681224823,0.07958803325891495,0.029144303873181343
1772457944890414300,1.549414306640625,0.25140586495399475,0.08145464211702347,0.05795810744166374
1772457944900483000,1.559483154296875,0.23971351981163025,0.07474055141210556,0.08403071761131287
1772457944910551000,1.569551025390625,0.23306973278522491,0.08319688588380814,0.10787054151296616
1772457944920619300,1.579619384765625,0.22280804812908173,0.09663332998752594,0.1336512714624405
1772457944930687200,1.589687255859375,0.21719969809055328,0.11582380533218384,0.16073375940322876
1772457944940755200,1.599755126953125,0.21610407531261444,0.16435325145721436,0.19422434270381927
1772457944950824200,1.60982421875,0.22830267250537872,0.2036026567220688,0.23437336087226868
1772457944960892200,1.61989208984375,0.24276018142700195,0.2184460461139679,0.2919655442237854
1772457944970960100,1.629960205078125,0.26189953088760376,0.23573049902915955,0.3561554551124573
1772457944981028000,1.640028076171875,0.272790789604187,0.2480952888727188,0.41875436902046204
1772457944991096300,1.650096435546875,0.2747806906700134,0.19757485389709473,0.4501783549785614
1772457945001165000,1.6601650390625,0.26189231872558594,0.10493680089712143,0.4539799988269806
1772457945011233000,1.67023291015625,0.22754821181297302,0.026585271582007408,0.4514409601688385
1772457945021301200,1.68030126953125,0.1767558604478836,-0.03686480596661568,0.45719337463378906
1772457945031369200,1.690369140625,0.12298770993947983,-0.05528296157717705,0.4628717601299286
1772457945041437200,1.700437255859375,0.07117750495672226,-0.0405610091984272,0.48655205965042114
1772457945051506200,1.710506103515625,0.018185129389166832,-0.02226109616458416,0.5028625726699829
1772457945061574100,1.72057421875,-0.029151493683457375,-0.01672678254544735,0.5000960826873779
1772457945071642000,1.73064208984375,-0.0684584230184555,-0.003971838392317295,0.4855826795101166
1772457945081710000,1.7407099609375,-0.10189361125230789,0.02767051011323929,0.47409141063690186
1772457945091778300,1.7507783203125,-0.1361040472984314,0.08369995653629303,0.4697680175304413
1772457945101846300,1.76084619140625,-0.16031697392463684,0.13819701969623566,0.4730554223060608
1772457945111915000,1.7709150390625,-0.17951196432113647,0.170244961977005,0.4678122103214264
1772457945121983200,1.780983154296875,-0.1884916126728058,0.18983891606330872,0.4573787450790405
1772457945132051200,1.79105126953125,-0.20105187594890594,0.19755062460899353,0.4392586052417755
1772457945142119200,1.801119140625,-0.22364987432956696,0.2059880495071411,0.405683308839798
1772457945152187100,1.811187255859375,-0.25038641691207886,0.21952703595161438,0.37116768956184387
1772457945162256100,1.821256103515625,-0.2817414104938507,0.23811084032058716,0.33551302552223206
1772457945172324000,1.831323974609375,-0.30703529715538025,0.26517733931541443,0.2987896203994751
1772457945182392000,1.84139208984375,-0.3316013813018799,0.2734624445438385,0.2757229208946228
1772457945192460000,1.8514599609375,-0.3593674898147583,0.2574293911457062,0.2500535249710083
1772457945202528300,1.8615283203125,-0.37698668241500854,0.23560373485088348,0.2174481600522995
1772457945212597200,1.87159716796875,-0.39046868681907654,0.22151029109954834,0.1830398589372635
1772457945222665000,1.8816650390625,-0.3918306231498718,0.21688596904277802,0.14245940744876862
1772457945232733200,1.891733154296875,-0.3877192437648773,0.22871680557727814,0.1038542240858078
1772457945242801200,1.90180126953125,-0.3707716763019562,0.2349422127008438,0.0734742134809494
1772457945252869000,1.911869140625,-0.34241434931755066,0.22334200143814087,0.05427069589495659
1772457945262938400,1.9219384765625,-0.30731040239334106,0.1828473061323166,0.04121987521648407
1772457945273006000,1.932006103515625,-0.2754185199737549,0.12440477311611176,0.025710422545671463
1772457945283074000,1.942073974609375,-0.24009542167186737,0.07991959899663925,0.02574877254664898
1772457945293142500,1.952142578125,-0.21304117143154144,0.06355953216552734,0.0287669338285923
1772457945303210500,1.96221044921875,-0.18630409240722656,0.06518619507551193,0.04253068193793297
1772457945313279700,1.97227978515625,-0.16245947778224945,0.06004229933023453,0.054907724261283875
1772457945323347500,1.982347412109375,-0.12956278026103973,0.05133748799562454,0.06408737599849701
1772457945333415400,1.99241552734375,-0.09175548702478409,0.04429502785205841,0.07598903775215149
1772457945343483400,2.0024833984375,-0.05386030301451683,0.04254106804728508,0.08674927800893784
1772457945353551600,2.012551513671875,-0.025595640763640404,0.05856610834598541,0.10458073765039444
1772457945363620600,2.02262060546875,-0.001321194227784872,0.08611757308244705,0.13011112809181213
1772457945373688600,2.0326884765625,0.014969628304243088,0.11230230331420898,0.16007116436958313
1772457945383756500,2.042756591796875,0.027577299624681473,0.12016342580318451,0.18761996924877167
1772457945393824500,2.052824462890625,0.039313316345214844,0.10587742924690247,0.20762376487255096
1772457945403892500,2.062892578125,0.04289526864886284,0.06256218254566193,0.21377353370189667
1772457945413961700,2.072961669921875,0.04531874507665634,0.005666407756507397,0.2046269029378891
1772457945424029700,2.08302978515625,0.04459729418158531,-0.047025300562381744,0.19262750446796417
1772457945434097400,2.093097412109375,0.044990379363298416,-0.09488710016012192,0.16699378192424774
1772457945444165400,2.103165283203125,0.0365404337644577,-0.1297244429588318,0.13697676360607147
1772457945454233600,2.113233642578125,0.02636236511170864,-0.16719618439674377,0.09490706771612167
1772457945464302600,2.123302490234375,0.0013174657942727208,-0.21697039902210236,0.050205379724502563
1772457945474370600,2.13337060546875,-0.03671354055404663,-0.2575572431087494,-0.004227501805871725
1772457945484438800,2.143438720703125,-0.08163760602474213,-0.29146113991737366,-0.07407422363758087
1772457945494506500,2.153506591796875,-0.13613973557949066,-0.32424917817115784,-0.16028368473052979
1772457945504574500,2.163574462890625,-0.19022320210933685,-0.3576108515262604,-0.26766687631607056
1772457945514643700,2.173643798828125,-0.2383025884628296,-0.37425747513771057,-0.37578508257865906
1772457945524711700,2.183711669921875,-0.2902717590332031,-0.34523943066596985,-0.4836830496788025
1772457945534779600,2.193779541015625,-0.3424460291862488,-0.2600763142108917,-0.5723511576652527
1772457945544847600,2.20384765625,-0.38010233640670776,-0.14465199410915375,-0.6323894262313843
1772457945554915600,2.21391552734375,-0.40453043580055237,-0.006387059111148119,-0.6494640111923218
1772457945564984600,2.223984619140625,-0.4086759090423584,0.1376366913318634,-0.6144381165504456
1772457945575052500,2.234052490234375,-0.3877714276313782,0.25709837675094604,-0.5434800386428833
1772457945585120500,2.24412060546875,-0.35152262449264526,0.3109283149242401,-0.4410746097564697
1772457945595188700,2.254188720703125,-0.3095807433128357,0.3089458644390106,-0.32528382539749146
1772457945605256400,2.26425634765625,-0.26883384585380554,0.25982892513275146,-0.21590140461921692
1772457945615324400,2.274324462890625,-0.22508184611797333,0.19403977692127228,-0.10721193999052048
1772457945625393700,2.2843935546875,-0.18516799807548523,0.12506523728370667,-0.020050406455993652
1772457945635461600,2.294461669921875,-0.14634336531162262,0.054560448974370956,0.04952627420425415
1772457945645529600,2.304529541015625,-0.11535695195198059,-0.012954946607351303,0.09393847733736038
1772457945655597600,2.31459765625,-0.08740201592445374,-0.07100067287683487,0.1286194920539856
1772457945665666600,2.32466650390625,-0.056117862462997437,-0.11939483880996704,0.15023264288902283
1772457945675734500,2.334734619140625,-0.025664083659648895,-0.14932237565517426,0.16688565909862518
1772457945685802500,2.344802490234375,-0.0032802154310047626,-0.1662992238998413,0.17145590484142303
1772457945695870700,2.35487060546875,0.010183128528296947,-0.1860300600528717,0.16775117814540863
1772457945705938700,2.364938720703125,0.012977850623428822,-0.20826399326324463,0.14751115441322327
1772457945716006400,2.37500634765625,-0.00018988338706549257,-0.2298704832792282,0.12406415492296219
1772457945726075600,2.38507568359375,-0.01726660504937172,-0.25396835803985596,0.09023881703615189
1772457945736143600,2.3951435546875,-0.05301368236541748,-0.2688562273979187,0.05801829695701599
1772457945746211600,2.405211669921875,-0.09098077565431595,-0.2773783504962921,0.023482423275709152
1772457945756279600,2.415279541015625,-0.13303714990615845,-0.27650749683380127,-0.006179066374897957
1772457945766347500,2.425347412109375,-0.1659700572490692,-0.25897642970085144,-0.03177950158715248
1772457945776416500,2.43541650390625,-0.19386614859104156,-0.22542700171470642,-0.03870558366179466
1772457945786484500,2.445484375,-0.22250044345855713,-0.20843443274497986,-0.0388195663690567
1772457945796552700,2.455552734375,-0.24762071669101715,-0.21054790914058685,-0.03750583156943321
1772457945806620700,2.46562060546875,-0.26950204372406006,-0.23860591650009155,-0.04226117208600044
1772457945816688600,2.475688720703125,-0.29313600063323975,-0.27957144379615784,-0.03416276350617409
1772457945826757600,2.485757568359375,-0.3107357621192932,-0.3077879250049591,-0.029577067121863365
1772457945836825600,2.49582568359375,-0.3262510895729065,-0.31233951449394226,-0.01661546155810356
1772457945846893600,2.5058935546875,-0.3445400595664978,-0.3259251117706299,-0.0023843280505388975
1772457945856961500,2.51596142578125,-0.35496553778648376,-0.35441774129867554,0.003769704606384039
1772457945867029800,2.52602978515625,-0.36880412697792053,-0.3915347456932068,0.01137089915573597
1772457945877098500,2.536098388671875,-0.37921735644340515,-0.4162105321884155,0.005380916874855757
1772457945887166500,2.54616650390625,-0.39353370666503906,-0.4178933799266815,0.00452923821285367
1772457945897234400,2.556234375,-0.4080490171909332,-0.4048859775066376,-0.006404369603842497
1772457945907302700,2.566302734375,-0.41745635867118835,-0.3685370087623596,-0.008254733867943287
1772457945917370600,2.57637060546875,-0.42180344462394714,-0.33662623167037964,-0.009298959746956825
1772457945927439400,2.586439453125,-0.4166390299797058,-0.311722993850708,-0.008007326163351536
1772457945937507600,2.596507568359375,-0.40588119626045227,-0.30951765179634094,0.0012058793799951673
1772457945947575600,2.606575439453125,-0.39571166038513184,-0.33204105496406555,-0.005829659756273031
1772457945957643500,2.6166435546875,-0.3949507772922516,-0.3639758229255676,-0.019895145669579506
1772457945967711500,2.62671142578125,-0.3900955617427826,-0.3900899887084961,-0.024829981848597527
1772457945977780500,2.636780517578125,-0.3823487162590027,-0.3799944818019867,-0.02821512706577778
1772457945987848400,2.646848388671875,-0.3720257580280304,-0.34017062187194824,-0.022937539964914322
1772457945997916400,2.65691650390625,-0.3635702133178711,-0.29877951741218567,-0.02015000954270363
1772457946007984600,2.666984619140625,-0.3596585690975189,-0.27473968267440796,-0.02255670726299286
1772457946018052600,2.677052490234375,-0.3559272289276123,-0.23227958381175995,-0.01624714583158493
1772457946028121300,2.687121337890625,-0.3482399880886078,-0.16604596376419067,-0.0005629922379739583
1772457946038189600,2.697189453125,-0.33687734603881836,-0.11294066905975342,0.024346884340047836
1772457946048257500,2.707257568359375,-0.3229823112487793,-0.0804133489727974,0.04926315322518349
1772457946058325500,2.717325439453125,-0.3111131489276886,-0.05368293449282646,0.06686051934957504
1772457946068393500,2.7273935546875,-0.3021811544895172,-0.043053992092609406,0.07790731638669968
1772457946078462700,2.737462646484375,-0.28709542751312256,-0.06389562785625458,0.08078672736883163
1772457946088530400,2.747530517578125,-0.2724706828594208,-0.11993546038866043,0.06144791468977928
1772457946098598400,2.757598388671875,-0.26528653502464294,-0.1862308531999588,0.038299184292554855
1772457946108666600,2.76766650390625,-0.2682833969593048,-0.24814030528068542,0.015626629814505577
1772457946118734600,2.777734619140625,-0.27327147126197815,-0.2959107458591461,0.001344630029052496
1772457946128802600,2.787802490234375,-0.2854922115802765,-0.33533725142478943,-0.005255482159554958
1772457946138871600,2.79787158203125,-0.28826749324798584,-0.3623789846897125,-0.00683074165135622
1772457946148939500,2.807939453125,-0.28374651074409485,-0.36322879791259766,0.0030751521699130535
1772457946159007500,2.818007568359375,-0.2803536355495453,-0.3537263870239258,0.018098043277859688
1772457946169075500,2.828075439453125,-0.28140825033187866,-0.3418255150318146,0.02418603003025055
1772457946179143700,2.838143798828125,-0.2816822826862335,-0.32100918889045715,0.02034095861017704
1772457946189212700,2.848212646484375,-0.27680522203445435,-0.27155640721321106,0.011117366142570972
1772457946199280400,2.8582802734375,-0.26242175698280334,-0.1894247829914093,0.005798766855150461
1772457946209348400,2.868348388671875,-0.2589990794658661,-0.09316696226596832,-0.0001608549355296418
1772457946219416600,2.87841650390625,-0.25692179799079895,0.012766661122441292,0.0057401773519814014
1772457946229484500,2.888484619140625,-0.2614230811595917,0.1142410859465599,0.017482055351138115
1772457946239553500,2.898553466796875,-0.2681318521499634,0.16830112040042877,0.02586968056857586
1772457946249621500,2.90862158203125,-0.2825062572956085,0.13008423149585724,0.029921147972345352
1772457946259689500,2.918689453125,-0.29153624176979065,0.060264673084020615,0.03888135403394699
1772457946269757400,2.92875732421875,-0.29220202565193176,0.009957559406757355,0.05694158002734184
1772457946279825400,2.938825439453125,-0.2853630483150482,-0.04297889396548271,0.07776829600334167
1772457946289894700,2.948894775390625,-0.2685939073562622,-0.10684815049171448,0.09386657178401947
1772457946299962400,2.95896240234375,-0.2479938268661499,-0.16098728775978088,0.11671409755945206
1772457946310030300,2.9690302734375,-0.22797563672065735,-0.19951124489307404,0.14629009366035461
1772457946320098000,2.97909814453125,-0.21610060334205627,-0.2216048240661621,0.15309634804725647
1772457946330166000,2.989166015625,-0.2123279720544815,-0.23535312712192535,0.13461214303970337
1772457946340235300,2.9992353515625,-0.2224610298871994,-0.2342364639043808,0.09068995714187622
1772457946350303200,3.00930322265625,-0.242194265127182,-0.2359725832939148,0.01823919080197811
1772457946360371200,3.01937109375,-0.2700676918029785,-0.23608310520648956,-0.08170817792415619
1772457946370439200,3.029439208984375,-0.3036501705646515,-0.22065754234790802,-0.18644364178180695
1772457946380507100,3.039507080078125,-0.3403077721595764,-0.18167871236801147,-0.29519009590148926
1772457946390576000,3.049576171875,-0.36677321791648865,-0.10754856467247009,-0.387599378824234
1772457946400644000,3.05964404296875,-0.3925131857395172,-0.003948935307562351,-0.457229882478714
1772457946410712300,3.06971240234375,-0.40643832087516785,0.0967574343085289,-0.4942416846752167
1772457946420780300,3.0797802734375,-0.41611918807029724,0.18415439128875732,-0.5147389769554138
1772457946430848000,3.089847900390625,-0.418080598115921,0.2607383728027344,-0.5056021809577942
1772457946440917200,3.099917236328125,-0.4113244414329529,0.3087698221206665,-0.4726799428462982
1772457946450985200,3.109985107421875,-0.39253687858581543,0.31396058201789856,-0.4289122223854065
1772457946461053200,3.12005322265625,-0.35831233859062195,0.28946882486343384,-0.370525062084198
1772457946471121200,3.13012109375,-0.31539976596832275,0.24112127721309662,-0.30331912636756897
1772457946481189400,3.140189453125,-0.26962295174598694,0.17573188245296478,-0.24070635437965393
1772457946491258000,3.150258056640625,-0.22078724205493927,0.0870230495929718,-0.18983225524425507
1772457946501326000,3.160326171875,-0.17566530406475067,-0.002528138691559434,-0.16117317974567413
1772457946511394300,3.170394287109375,-0.13904604315757751,-0.06707171350717545,-0.14301840960979462
1772457946521462300,3.180462158203125,-0.10797227174043655,-0.10358977317810059,-0.1352664828300476
1772457946531530200,3.1905302734375,-0.07902291417121887,-0.12686847150325775,-0.14563097059726715
1772457946541599200,3.20059912109375,-0.05619456246495247,-0.1419033408164978,-0.17003591358661652
1772457946551667200,3.210667236328125,-0.041488587856292725,-0.1438189595937729,-0.20758327841758728
1772457946561735200,3.220735107421875,-0.03290921449661255,-0.12748073041439056,-0.2423793524503708
1772457946571803100,3.23080322265625,-0.023090938106179237,-0.09297521412372589,-0.2783716917037964
1772457946581871400,3.240871337890625,-0.007868842221796513,-0.06238001957535744,-0.3105379045009613
1772457946591940000,3.250940185546875,0.009095227345824242,-0.047801077365875244,-0.33602434396743774
1772457946602008000,3.261008056640625,0.03206605836749077,-0.040665403008461,-0.3411834239959717
1772457946612076300,3.271076171875,0.057802047580480576,-0.031975243240594864,-0.325579971075058
1772457946622144300,3.281144287109375,0.0793619304895401,-0.016998158767819405,-0.2924582362174988
1772457946632212200,3.291212158203125,0.0923917144536972,0.0047055394388735294,-0.2558581531047821
1772457946642280200,3.3012802734375,0.09841658174991608,0.020241089165210724,-0.22945556044578552
1772457946652349200,3.31134912109375,0.10565665364265442,0.02538711577653885,-0.20621468126773834
1772457946662417200,3.321417236328125,0.10613761842250824,0.023806529119610786,-0.18635469675064087
1772457946672485000,3.331485107421875,0.10772167146205902,0.018876219168305397,-0.16695410013198853
1772457946682553300,3.34155322265625,0.11273613572120667,0.01842135190963745,-0.16048021614551544
1772457946692621300,3.351621337890625,0.11787417531013489,0.024218520149588585,-0.1508299857378006
1772457946702690000,3.36168994140625,0.13032551109790802,0.05232978239655495,-0.129392609000206
1772457946712758000,3.371758056640625,0.14875991642475128,0.08755674958229065,-0.10588888078927994
1772457946722826200,3.381826171875,0.16975148022174835,0.11739853024482727,-0.07317381352186203
1772457946732894200,3.391894287109375,0.19540518522262573,0.1254519373178482,-0.032654616981744766
1772457946742962200,3.401962158203125,0.23018047213554382,0.11431192606687546,0.007873902097344398
1772457946753031200,3.41203125,0.2669171690940857,0.0959683433175087,0.04164145141839981
1772457946763099100,3.42209912109375,0.3030962347984314,0.091864675283432,0.07763274013996124
1772457946773167000,3.4321669921875,0.333575576543808,0.12974362075328827,0.1248745545744896
1772457946783235000,3.442235107421875,0.3572324216365814,0.14890585839748383,0.1629662811756134
1772457946793303300,3.45230322265625,0.37079882621765137,0.11858976632356644,0.1890021413564682
1772457946803372000,3.4623720703125,0.3711932599544525,0.06273341923952103,0.20901180803775787
1772457946813440000,3.47243994140625,0.36152198910713196,0.03453933447599411,0.24035827815532684
1772457946823508200,3.48250830078125,0.35212448239326477,0.0474972128868103,0.2667163908481598
1772457946833576200,3.492576171875,0.3389687240123749,0.10278523713350296,0.31101539731025696
1772457946843644200,3.50264404296875,0.3246406614780426,0.173401340842247,0.3550843298435211
1772457946853713200,3.512713134765625,0.3093583881855011,0.21501989662647247,0.3866425156593323
1772457946863781000,3.522781005859375,0.297258585691452,0.21507954597473145,0.4209722578525543
1772457946873849000,3.53284912109375,0.2945999503135681,0.19323045015335083,0.45531851053237915
1772457946883917000,3.5429169921875,0.288222998380661,0.15001319348812103,0.4746754467487335
1772457946893985300,3.5529853515625,0.271261602640152,0.09580934792757034,0.48026034235954285
1772457946904054300,3.56305419921875,0.2517043948173523,0.06643708050251007,0.47666028141975403
1772457946914122000,3.5731220703125,0.22798815369606018,0.05350184068083763,0.4553832411766052
1772457946924190200,3.583190185546875,0.2006273716688156,0.04152560606598854,0.3991686999797821
1772457946934258200,3.593258056640625,0.1710905283689499,0.028184499591588974,0.3310823142528534
1772457946944326100,3.603326171875,0.1402319371700287,0.002813629573211074,0.24646437168121338
1772457946954395400,3.6133955078125,0.10647904127836227,-0.026089657098054886,0.1534862220287323
1772457946964463400,3.62346337890625,0.07459753751754761,-0.042155444622039795,0.07165021449327469
1772457946974531000,3.633531005859375,0.047936100512742996,-0.05480039864778519,-0.0014889733865857124
1772457946984599000,3.64359912109375,0.038847532123327255,-0.05263205245137215,-0.06750021129846573
1772457946994667300,3.653667236328125,0.04406066983938217,-0.029894249513745308,-0.10951770842075348
1772457947004736300,3.663736328125,0.07135327905416489,0.012824718840420246,-0.13102325797080994
1772457947014804200,3.67380419921875,0.11489009857177734,0.06902088224887848,-0.12351740896701813
1772457947024872200,3.6838720703125,0.1642477959394455,0.14163942635059357,-0.08270606398582458
1772457947034940200,3.693940185546875,0.2124486118555069,0.20529483258724213,-0.020770791918039322
1772457947045008100,3.704008056640625,0.24407897889614105,0.2320641279220581,0.04753316566348076
1772457947055077000,3.7140771484375,0.26334935426712036,0.24528858065605164,0.11909789592027664
1772457947065145300,3.724145263671875,0.27475059032440186,0.23474007844924927,0.18880586326122284
1772457947075213300,3.73421337890625,0.2743180990219116,0.19006820023059845,0.23561199009418488
1772457947085281000,3.744281005859375,0.27130821347236633,0.12512941658496857,0.2657821476459503
1772457947095349000,3.754348876953125,0.2677488923072815,0.07998164743185043,0.286240816116333
1772457947105417200,3.764417236328125,0.26352110505104065,0.06698355823755264,0.2951323091983795
1772457947115486200,3.774486328125,0.2667166590690613,0.06807039678096771,0.3102870285511017
1772457947125554200,3.78455419921875,0.25593429803848267,0.08607017248868942,0.3128790855407715
1772457947135622100,3.7946220703125,0.23715315759181976,0.11147379875183105,0.296703040599823
1772457947145690000,3.804690185546875,0.22027085721492767,0.1327039897441864,0.2584350109100342
1772457947155758000,3.814758056640625,0.2087516188621521,0.17462188005447388,0.2142007052898407
1772457947165827300,3.824827392578125,0.20632681250572205,0.2264065146446228,0.17362211644649506
1772457947175895300,3.834895263671875,0.2165386974811554,0.2482372373342514,0.13198412954807281
1772457947185963300,3.84496337890625,0.23355230689048767,0.23785996437072754,0.09862617403268814
1772457947196031000,3.855031005859375,0.24860155582427979,0.181768998503685,0.061287857592105865
1772457947206099200,3.86509912109375,0.2530202865600586,0.07337408512830734,0.01601438596844673
1772457947216168200,3.875168212890625,0.24773655831813812,-0.04640957713127136,-0.02538791485130787
1772457947226236200,3.885236083984375,0.20775479078292847,-0.18005898594856262,-0.0742739662528038
1772457947236304400,3.895304443359375,0.15505030751228333,-0.3452508747577667,-0.15765327215194702
1772457947246372000,3.9053720703125,0.0937294214963913,-0.4632057249546051,-0.2664937376976013
1772457947256440000,3.915440185546875,0.023506125435233116,-0.523396372795105,-0.3942415714263916
1772457947266509300,3.92550927734375,-0.046786680817604065,-0.4957852363586426,-0.5030743479728699
1772457947276577300,3.935577392578125,-0.1058739647269249,-0.3691636621952057,-0.5754361152648926
1772457947286645200,3.945645263671875,-0.16502410173416138,-0.1755017787218094,-0.6017143726348877
1772457947296713500,3.95571337890625,-0.2105652242898941,0.048580318689346313,-0.5918681025505066
1772457947306781400,3.965781494140625,-0.22419396042823792,0.261851042509079,-0.5666399598121643
1772457947316850400,3.975850341796875,-0.1992659717798233,0.43068453669548035,-0.5199712514877319
1772457947326916400,3.985916259765625,-0.14951013028621674,0.5247183442115784,-0.46950092911720276
1772457947336984300,3.995984375,-0.09463515877723694,0.5477240681648254,-0.410238653421402
1772457947347053600,4.006053466796875,-0.04375680163502693,0.5122238993644714,-0.35249626636505127
1772457947357121500,4.01612158203125,-0.0013483584625646472,0.44020161032676697,-0.28741180896759033
1772457947367189500,4.026189453125,0.029978405684232712,0.35731232166290283,-0.2294451743364334
1772457947377257500,4.036257568359375,0.04830734431743622,0.260766863822937,-0.17276830971240997
1772457947387325400,4.046325439453125,0.06016959622502327,0.16366882622241974,-0.1350659430027008
1772457947397394400,4.05639453125,0.06738623231649399,0.07721515744924545,-0.109862320125103
1772457947407462400,4.06646240234375,0.07890067249536514,0.026853984221816063,-0.10024883598089218
1772457947417530600,4.076530517578125,0.09430918842554092,0.01065131276845932,-0.0922044962644577
1772457947427598600,4.0865986328125,0.11396891623735428,0.019508453086018562,-0.10067121684551239
1772457947437666300,4.096666259765625,0.13341984152793884,0.03856123983860016,-0.10951637476682663
1772457947447735300,4.1067353515625,0.14988403022289276,0.03574148565530777,-0.11596068739891052
1772457947457803500,4.116803466796875,0.1569448709487915,-0.0005403553950600326,-0.12808287143707275
1772457947467871500,4.12687158203125,0.15447212755680084,-0.07143210619688034,-0.13432984054088593
1772457947477939500,4.136939453125,0.1447736918926239,-0.14073234796524048,-0.12837794423103333
1772457947488007400,4.14700732421875,0.1294485330581665,-0.20370572805404663,-0.11119576543569565
1772457947498075400,4.157075439453125,0.11185090243816376,-0.2552267014980316,-0.07975368201732635
1772457947508144400,4.167144287109375,0.09215842187404633,-0.2920800745487213,-0.05170553922653198
1772457947518212400,4.17721240234375,0.07243425399065018,-0.30557963252067566,-0.0262979157269001
1772457947528280600,4.187280517578125,0.05615248531103134,-0.2905263602733612,0.0015659386990591884
1772457947538348500,4.1973486328125,0.040157005190849304,-0.26941362023353577,0.016385897994041443
1772457947548416300,4.207416259765625,0.02269226312637329,-0.24606755375862122,0.0331459678709507
1772457947558485500,4.217485595703125,0.00689119566231966,-0.21494905650615692,0.048464469611644745
1772457947568553500,4.227553466796875,-0.00945102609694004,-0.1766405552625656,0.06929198652505875
1772457947578621400,4.237621337890625,-0.028479045256972313,-0.1407158374786377,0.0880502313375473
1772457947588689400,4.247689453125,-0.04866740480065346,-0.09644477814435959,0.10844524949789047
1772457947598757600,4.257757568359375,-0.0606689378619194,-0.05151725187897682,0.14079120755195618
1772457947608826400,4.267826416015625,-0.07124382257461548,-0.007155647501349449,0.17992235720157623
1772457947618894300,4.277894287109375,-0.07117324322462082,0.02165895700454712,0.22436705231666565
1772457947628962600,4.287962646484375,-0.0633733794093132,-0.03242132440209389,0.23854732513427734
1772457947639030500,4.298030517578125,-0.0662117749452591,-0.1860063523054123,0.22178645431995392
1772457947649098500,4.308098388671875,-0.06865815818309784,-0.3232235908508301,0.18834887444972992
1772457947659167500,4.31816748046875,-0.06948985904455185,-0.37221163511276245,0.15911056101322174
1772457947669235500,4.3282353515625,-0.07446198165416718,-0.34773027896881104,0.12393872439861298
1772457947679303400,4.338303466796875,-0.08032200485467911,-0.2860964834690094,0.08969153463840485
1772457947689373400,4.34837353515625,-0.08102001994848251,-0.2304965853691101,0.0454481765627861
1772457947699441400,4.35844140625,-0.07689904421567917,-0.21049465239048004,-0.002092445734888315
1772457947709509400,4.36850927734375,-0.0690602958202362,-0.21479113399982452,-0.037276532500982285
1772457947719577300,4.378577392578125,-0.058333612978458405,-0.23522156476974487,-0.06313289701938629
1772457947729646300,4.388646240234375,-0.04074689745903015,-0.28859850764274597,-0.0858754962682724
1772457947739714300,4.39871435546875,-0.03122210130095482,-0.32726842164993286,-0.1179274320602417
1772457947749782300,4.4087822265625,-0.01920165680348873,-0.3566012680530548,-0.15691131353378296
1772457947759850500,4.4188505859375,-0.006912766955792904,-0.37556296586990356,-0.18111012876033783
1772457947769918500,4.42891845703125,0.0006857639527879655,-0.3754495084285736,-0.18262013792991638
1772457947779986400,4.438986328125,0.0033563817851245403,-0.35957175493240356,-0.14476677775382996
1772457947790055400,4.449055419921875,0.00714552728459239,-0.34482476115226746,-0.08213428407907486
1772457947800123400,4.459123291015625,0.016581106930971146,-0.3274409770965576,-0.0017891116440296173
1772457947810191400,4.46919140625,0.04276557266712189,-0.30457428097724915,0.0970330759882927
1772457947820259300,4.47925927734375,0.08137448132038116,-0.29007577896118164,0.21416687965393066
1772457947830327600,4.48932763671875,0.1278490424156189,-0.2577495276927948,0.34572651982307434
1772457947840396300,4.499396240234375,0.16392821073532104,-0.2200399488210678,0.4727502465248108
1772457947850464300,4.50946435546875,0.20080633461475372,-0.20579737424850464,0.5807451605796814
1772457947860532500,4.519532470703125,0.23533928394317627,-0.18238206207752228,0.6680169105529785
1772457947870600400,4.529600341796875,0.2651863992214203,-0.15120922029018402,0.7354247570037842
1772457947880668400,4.53966845703125,0.28294995427131653,-0.12601758539676666,0.7761460542678833
1772457947890737400,4.5497373046875,0.28324609994888306,-0.08895038068294525,0.7826907634735107
1772457947900805400,4.559805419921875,0.2698722183704376,-0.052316468209028244,0.7832947969436646
1772457947910873300,4.569873291015625,0.251494824886322,-0.029294772073626518,0.7615522146224976
1772457947920941300,4.57994140625,0.23765037953853607,-0.02816878817975521,0.7185479998588562
1772457947931009500,4.590009521484375,0.23111550509929657,-0.045879874378442764,0.6557445526123047
1772457947941078500,4.60007861328125,0.23107050359249115,-0.06251157820224762,0.5726182460784912
1772457947951146200,4.610146240234375,0.23413313925266266,-0.0747876912355423,0.4715113341808319
1772457947961214500,4.62021435546875,0.23533102869987488,-0.0899093821644783,0.36710691452026367
1772457947971282400,4.630282470703125,0.22852905094623566,-0.1034957692027092,0.24998906254768372
1772457947981350400,4.640350341796875,0.21239162981510162,-0.11068975925445557,0.13102060556411743
1772457947991419400,4.65041943359375,0.19581423699855804,-0.0701010599732399,0.022347116842865944
1772457948001487600,4.660487548828125,0.18209417164325714,0.0015302523970603943,-0.06484131515026093
1772457948011555300,4.670555419921875,0.17828558385372162,0.09538936614990234,-0.14658118784427643
1772457948021623300,4.680623291015625,0.17640885710716248,0.20813269913196564,-0.2145005762577057
1772457948031691300,4.690691162109375,0.18380258977413177,0.2987954914569855,-0.28338804841041565
1772457948041760500,4.700760498046875,0.19300220906734467,0.34800857305526733,-0.3331870138645172
1772457948051828500,4.710828369140625,0.2071657031774521,0.37162867188453674,-0.357448935508728
1772457948061896400,4.720896484375,0.23187877237796783,0.3651755750179291,-0.36245274543762207
1772457948071964400,4.73096435546875,0.2728951871395111,0.3376518189907074,-0.3529825508594513
1772457948082032400,4.741032470703125,0.3106534779071808,0.29915979504585266,-0.3403104245662689
1772457948092101400,4.751101318359375,0.3492740988731384,0.25538355112075806,-0.3284932076931
1772457948102169600,4.761169677734375,0.3965201675891876,0.19817087054252625,-0.3195265829563141
1772457948112237600,4.771237548828125,0.4542734920978546,0.11294439435005188,-0.31276482343673706
1772457948122305300,4.78130517578125,0.5183225274085999,0.023031815886497498,-0.3051644265651703
1772457948132373200,4.791373291015625,0.5760361552238464,-0.07215302437543869,-0.2975887954235077
1772457948142442500,4.8014423828125,0.6214798092842102,-0.1405126452445984,-0.2844080328941345
1772457948152510500,4.811510498046875,0.6421693563461304,-0.1603878140449524,-0.2770718038082123
1772457948162578400,4.821578369140625,0.6553168296813965,-0.14924834668636322,-0.27825531363487244
1772457948172646400,4.831646484375,0.6577043533325195,-0.12914812564849854,-0.28455954790115356
1772457948182714400,4.84171435546875,0.6670134663581848,-0.11734819412231445,-0.3043990433216095
1772457948192782300,4.8517822265625,0.6727323532104492,-0.10179693251848221,-0.32298603653907776
1772457948202851600,4.8618515625,0.6777305603027344,-0.0853966549038887,-0.341717392206192
1772457948212919600,4.87191943359375,0.680157482624054,-0.07082810252904892,-0.3483494520187378
1772457948222987500,4.881987548828125,0.6857469081878662,-0.053045373409986496,-0.33830589056015015
1772457948233055200,4.89205517578125,0.6907952427864075,-0.038847532123327255,-0.31262636184692383
1772457948243123500,4.90212353515625,0.6925625205039978,-0.026921097189188004,-0.2743745744228363
1772457948253192400,4.9121923828125,0.6944778561592102,-0.005093561951071024,-0.224226176738739
1772457948263260400,4.922260498046875,0.7004936337471008,0.017614146694540977,-0.16876132786273956
1772457948273328600,4.93232861328125,0.7151857614517212,0.0457318015396595,-0.11657801270484924
1772457948283396600,4.942396728515625,0.732006311416626,0.07489128410816193,-0.07248245924711227
1772457948293464300,4.95246435546875,0.7519373893737793,0.09812203794717789,-0.036185700446367264
1772457948303533300,4.962533203125,0.7744187712669373,0.13480494916439056,-0.005126318894326687
1772457948313601300,4.972601318359375,0.7955589294433594,0.1754210889339447,0.02454236149787903
1772457948323669200,4.982669189453125,0.8128524422645569,0.2157064527273178,0.047504134476184845
1772457948333737500,4.992737548828125,0.826225996017456,0.25532445311546326,0.05714557692408562
1772457948343805400,5.002805419921875,0.840419590473175,0.2929932475090027,0.06107533723115921
1772457948353874200,5.012874267578125,0.8505207300186157,0.32418152689933777,0.053460028022527695
1772457948363942400,5.0229423828125,0.8589999675750732,0.3514688313007355,0.046115029603242874
1772457948374010400,5.03301025390625,0.8746686577796936,0.3800826072692871,0.04725859314203262
1772457948384078300,5.043078369140625,0.8827210068702698,0.4220857322216034,0.0491451770067215
1772457948394146300,5.053146240234375,0.8862581849098206,0.462012380361557,0.059599678963422775
1772457948404215300,5.06321533203125,0.8889461159706116,0.4875944256782532,0.0671292394399643
1772457948414283300,5.073283203125,0.8981188535690308,0.4938352704048157,0.06687197089195251
1772457948424351200,5.083351318359375,0.8996299505233765,0.48907116055488586,0.06579285860061646
1772457948434419500,5.09341943359375,0.8982136845588684,0.4892394542694092,0.06190837547183037
1772457948444487400,5.1034873046875,0.9008371233940125,0.482789009809494,0.058636147528886795
1772457948454555400,5.113555419921875,0.9073927998542786,0.4864221215248108,0.060621004551649094
1772457948464624400,5.123624267578125,0.917608916759491,0.4857826828956604,0.05554182082414627
1772457948474692400,5.1336923828125,0.9339492917060852,0.47601553797721863,0.0592540018260479
1772457948484760300,5.14376025390625,0.9540308713912964,0.4657951295375824,0.06632602959871292
1772457948494828300,5.153828369140625,0.9696649312973022,0.45673131942749023,0.07017482817173004
1772457948504896500,5.163896484375,0.9845895767211914,0.4474496841430664,0.07390671223402023
1772457948514965200,5.17396533203125,0.9947556257247925,0.43641114234924316,0.06510816514492035
1772457948525033200,5.184033203125,1.0021344423294067,0.42781898379325867,0.05035558342933655
1772457948535101400,5.194101318359375,0.997548520565033,0.43250933289527893,0.04632888361811638
1772457948545169400,5.20416943359375,0.9919217824935913,0.45751509070396423,0.051466118544340134
1772457948555237400,5.2142373046875,0.9827157258987427,0.47912317514419556,0.06235764920711517
1772457948565306000,5.22430615234375,0.9720860123634338,0.4840281903743744,0.08056248724460602
1772457948575374300,5.234374267578125,0.9611985087394714,0.48013490438461304,0.10879039764404297
1772457948585442300,5.2444423828125,0.9477620124816895,0.521453320980072,0.14065511524677277
1772457948595510300,5.25451025390625,0.9497942924499512,0.5571237206459045,0.1699477583169937
1772457948605578200,5.264578125,0.9217895269393921,0.47658732533454895,0.15295812487602234
1772457948615647200,5.274647216796875,0.8604921102523804,0.30597856640815735,0.08197662234306335
1772457948625715200,5.284715087890625,0.7435356378555298,0.19980232417583466,0.004069576505571604
1772457948635783200,5.294783203125,0.5857201814651489,0.23114027082920074,-0.05329784378409386
1772457948645851400,5.304851318359375,0.4382612407207489,0.3126005232334137,-0.08749070018529892
1772457948655919400,5.31491943359375,0.33729255199432373,0.3755680322647095,-0.10810436308383942
1772457948665988000,5.324988037109375,0.28986936807632446,0.4437769055366516,-0.11891093850135803
1772457948676056300,5.335056396484375,0.277161568403244,0.5234208703041077,-0.12015463411808014
1772457948686124300,5.345124267578125,0.2886304557323456,0.6016530990600586,-0.0956205353140831
1772457948696192300,5.355192138671875,0.3297747075557709,0.6682987213134766,-0.057441987097263336
1772457948706260200,5.36526025390625,0.3800432085990906,0.6861535906791687,-0.014365090988576412
1772457948716329200,5.3753291015625,0.4329034984111786,0.6556242108345032,0.010469418950378895
1772457948726397200,5.385397216796875,0.4788014590740204,0.6026517748832703,0.024564731866121292
1772457948736465200,5.395465087890625,0.529220700263977,0.4988398849964142,0.004596349783241749
1772457948746533400,5.405533447265625,0.5648865699768066,0.3835548460483551,-0.03573349490761757
1772457948756601300,5.415601318359375,0.5896899104118347,0.28451108932495117,-0.09619417786598206
1772457948766670300,5.42567041015625,0.6128324866294861,0.21400922536849976,-0.15622901916503906
1772457948776738300,5.43573828125,0.6255557537078857,0.17929545044898987,-0.21990066766738892
1772457948786806300,5.44580615234375,0.6260455250740051,0.15945570170879364,-0.29530781507492065
1772457948796874200,5.455874267578125,0.6293134689331055,0.1505037546157837,-0.38161206245422363
1772457948806942200,5.465942138671875,0.6265872120857239,0.1750682145357132,-0.45680829882621765
1772457948817011500,5.476011474609375,0.6155750155448914,0.241507425904274,-0.5187802910804749
1772457948827079400,5.486079345703125,0.6074579954147339,0.33026421070098877,-0.5516620874404907
1772457948837147100,5.496147216796875,0.600651204586029,0.4029772877693176,-0.5658285021781921
1772457948847215400,5.50621533203125,0.601689338684082,0.4625820219516754,-0.5506436824798584
1772457948857283300,5.516283447265625,0.605287492275238,0.5175025463104248,-0.5040522217750549
1772457948867351300,5.526351318359375,0.6215540766716003,0.560009777545929,-0.4264085590839386
1772457948877420300,5.536420166015625,0.6438292860984802,0.5908574461936951,-0.3259695768356323
1772457948887488300,5.54648828125,0.6696025729179382,0.5933166146278381,-0.20959369838237762
1772457948897556200,5.55655615234375,0.7028627991676331,0.5815704464912415,-0.08241098374128342
1772457948907624200,5.566624267578125,0.7508503198623657,0.5454058051109314,0.029271868988871574
1772457948917692200,5.576692138671875,0.7947799563407898,0.5036413073539734,0.12760403752326965
1772457948927761400,5.586761474609375,0.8341896533966064,0.42680618166923523,0.17848478257656097
1772457948937829400,5.596829345703125,0.8594985008239746,0.34147530794143677,0.2012747824192047
1772457948947897000,5.60689697265625,0.878972053527832,0.25719958543777466,0.19534419476985931
1772457948957965300,5.61696533203125,0.8999569416046143,0.176913782954216,0.17345353960990906
1772457948968033300,5.627033203125,0.9234878420829773,0.08910004794597626,0.13379162549972534
1772457948978102300,5.637102294921875,0.9614275097846985,-0.02268480509519577,0.07957951724529266
1772457948988170500,5.64717041015625,1.0166993141174316,-0.12059645354747772,0.023636886849999428
1772457948998238200,5.65723828125,1.0767314434051514,-0.20840993523597717,-0.0511915497481823
1772457949008306200,5.66730615234375,1.1498112678527832,-0.3057423532009125,-0.14699797332286835
1772457949018374100,5.6773740234375,1.216030240058899,-0.3927970826625824,-0.24444197118282318
1772457949028443400,5.687443359375,1.262811303138733,-0.43529367446899414,-0.326959490776062
1772457949038511400,5.697511474609375,1.2849000692367554,-0.4337194859981537,-0.3778141438961029
1772457949048579300,5.707579345703125,1.2822295427322388,-0.38236895203590393,-0.3951649069786072
1772457949058647300,5.717647216796875,1.2463237047195435,-0.24710512161254883,-0.3681998550891876
1772457949068715300,5.72771533203125,1.1943086385726929,-0.038553252816200256,-0.31650257110595703
1772457949078784300,5.7377841796875,1.1390187740325928,0.1836385428905487,-0.2473330944776535
1772457949088852500,5.7478525390625,1.0896352529525757,0.38589176535606384,-0.17899905145168304
1772457949098920400,5.75792041015625,1.0487027168273926,0.5308191180229187,-0.13077984750270844
1772457949108988200,5.76798828125,1.0173873901367188,0.6117550134658813,-0.11617294698953629
1772457949119056100,5.77805615234375,0.9995509386062622,0.6431195735931396,-0.11920548975467682
1772457949129125400,5.78812548828125,0.9947636127471924,0.6573786735534668,-0.13264645636081696
1772457949139193300,5.798193359375,1.0013844966888428,0.6554034352302551,-0.15926103293895721
1772457949149261300,5.80826123046875,1.0083811283111572,0.6425427198410034,-0.19098860025405884
1772457949159329500,5.81832958984375,1.0158641338348389,0.62553870677948,-0.2251657396554947
1772457949169397200,5.828397216796875,1.0177714824676514,0.6241768002510071,-0.24838264286518097
1772457949179466200,5.83846630859375,1.0152997970581055,0.6426010727882385,-0.2654742896556854
1772457949189534200,5.8485341796875,1.0115721225738525,0.6642586588859558,-0.2669622004032135
1772457949199602400,5.8586025390625,1.009482979774475,0.6556034088134766,-0.26760828495025635
1772457949209670400,5.86867041015625,1.0132992267608643,0.6193175911903381,-0.272900253534317
1772457949219738400,5.87873828125,1.0254086256027222,0.5677758455276489,-0.26570969820022583
1772457949229806000,5.88880615234375,1.0363304615020752,0.4993469715118408,-0.25721314549446106
1772457949239875300,5.898875244140625,1.0479238033294678,0.4398122727870941,-0.25102928280830383
1772457949249943300,5.908943359375,1.0602082014083862,0.37854811549186707,-0.23034292459487915
1772457949260011300,5.91901123046875,1.071981430053711,0.33119842410087585,-0.21032553911209106
1772457949270079500,5.92907958984375,1.077406883239746,0.3181505501270294,-0.18420685827732086
1772457949280147200,5.939147216796875,1.0801796913146973,0.322557270526886,-0.14604482054710388
1772457949290216200,5.94921630859375,1.0833470821380615,0.31861793994903564,-0.10525798052549362
1772457949300284400,5.959284423828125,1.080285668373108,0.30561691522598267,-0.06713110208511353
1772457949310352400,5.969352294921875,1.0727084875106812,0.26524844765663147,-0.02359400875866413
1772457949320420400,5.97942041015625,1.0582879781723022,0.20220182836055756,0.02118304930627346
1772457949330488300,5.98948828125,1.043567419052124,0.14895007014274597,0.065005362033844
1772457949340557300,5.999557373046875,1.0211715698242188,0.1077863872051239,0.10039584338665009
1772457949350625300,6.009625244140625,1.0008894205093384,0.05672905966639519,0.13531388342380524
1772457949360693200,6.019693359375,0.9761918187141418,-0.009444634430110455,0.17342185974121094
1772457949370761500,6.029761474609375,0.9484768509864807,-0.08658655732870102,0.2076016664505005
1772457949380829400,6.039829345703125,0.9078633785247803,-0.14861184358596802,0.24007198214530945
1772457949390898200,6.049898193359375,0.8646154999732971,-0.19240060448646545,0.265098512172699
1772457949400966400,6.05996630859375,0.8200573325157166,-0.21182197332382202,0.2666146457195282
1772457949411034400,6.070034423828125,0.7759159803390503,-0.19872693717479706,0.25777533650398254
1772457949421102300,6.080102294921875,0.7264477610588074,-0.15809403359889984,0.24800021946430206
1772457949431170300,6.09017041015625,0.6784371137619019,-0.09852710366249084,0.23005983233451843
1772457949441239300,6.1002392578125,0.6300445199012756,-0.03615454211831093,0.2228706330060959
1772457949451307300,6.110307373046875,0.5948742628097534,0.04884397238492966,0.22486667335033417
1772457949461375200,6.120375244140625,0.5774856805801392,0.1385810524225235,0.24266724288463593
1772457949471443500,6.130443359375,0.5582454204559326,0.14251427352428436,0.2424648404121399
1772457949481511400,6.140511474609375,0.5255234241485596,0.031790152192115784,0.17239201068878174
1772457949491580200,6.150580078125,0.4998984932899475,-0.1540747880935669,0.06320666521787643
1772457949501648100,6.160648193359375,0.4817146956920624,-0.261404424905777,-0.02593705803155899
1772457949511716400,6.17071630859375,0.44935277104377747,-0.2175392508506775,-0.08158780634403229
1772457949521784300,6.180784423828125,0.41523340344429016,-0.07984369993209839,-0.10181637853384018
1772457949531852300,6.190852294921875,0.39936551451683044,0.07026936858892441,-0.12076716125011444
1772457949541921300,6.20092138671875,0.41085225343704224,0.18712781369686127,-0.11738042533397675
1772457949551989200,6.2109892578125,0.43385636806488037,0.23496271669864655,-0.10171091556549072
1772457949562057200,6.22105712890625,0.46355727314949036,0.2162470817565918,-0.07136339694261551
1772457949572125200,6.231125244140625,0.4955945611000061,0.19003358483314514,-0.018803248181939125
1772457949582193400,6.241193359375,0.5297431945800781,0.19843506813049316,0.06102846562862396
1772457949592262100,6.25126220703125,0.5634226202964783,0.21988123655319214,0.15108326077461243
1772457949602330000,6.261330078125,0.6024240851402283,0.24206429719924927,0.24998639523983002
1772457949612398300,6.2713984375,0.6506403684616089,0.24670912325382233,0.3430098295211792
1772457949622466300,6.28146630859375,0.6972075700759888,0.2227417379617691,0.4299132823944092
1772457949632534300,6.2915341796875,0.7463878989219666,0.1797173023223877,0.5013531446456909
1772457949642603500,6.301603515625,0.7855139970779419,0.13393037021160126,0.5581269264221191
1772457949652671200,6.311671142578125,0.812924861907959,0.10173248499631882,0.6053218841552734
1772457949662739200,6.3217392578125,0.8376278281211853,0.10149653255939484,0.6366922855377197
1772457949672807200,6.33180712890625,0.8532121181488037,0.14203783869743347,0.659984290599823
1772457949682875400,6.34187548828125,0.8647627830505371,0.19676420092582703,0.6775084137916565
1772457949692944400,6.3519443359375,0.8711807131767273,0.23357386887073517,0.6800932884216309
1772457949703012400,6.362012451171875,0.8736571669578552,0.25192996859550476,0.6721123456954956
1772457949713080300,6.372080322265625,0.8738052248954773,0.2496660202741623,0.6421080827713013
1772457949723148300,6.382148193359375,0.8625627160072327,0.243483766913414,0.5936611890792847
1772457949733216300,6.39221630859375,0.8456844091415405,0.25189563632011414,0.538029670715332
1772457949743284200,6.4022841796875,0.8305025100708008,0.24020221829414368,0.4746221601963043
1772457949753353500,6.412353515625,0.8187659382820129,0.19741719961166382,0.39986804127693176
1772457949763421200,6.422421142578125,0.8079828023910522,0.1592136174440384,0.31369346380233765
1772457949773489200,6.4324892578125,0.796417236328125,0.14276807010173798,0.22224904596805573
1772457949783557400,6.442557373046875,0.784083366394043,0.14537717401981354,0.11772503703832626
1772457949793625300,6.452625244140625,0.771687924861908,0.14666800200939178,-0.007712248247116804
1772457949803694300,6.4626943359375,0.7631192207336426,0.12727832794189453,-0.16592106223106384
1772457949813762300,6.47276220703125,0.7530961632728577,0.10759276896715164,-0.32916030287742615
1772457949823830300,6.482830322265625,0.7401702404022217,0.12183962017297745,-0.4744754433631897
1772457949833898200,6.492898193359375,0.719292402267456,0.19531303644180298,-0.5841105580329895
1772457949843966200,6.50296630859375,0.7039358019828796,0.29860720038414,-0.6553757190704346
1772457949854035500,6.513035400390625,0.7149945497512817,0.37666499614715576,-0.6804988980293274
1772457949864103400,6.523103515625,0.7512990236282349,0.42394062876701355,-0.6525343656539917
1772457949874171100,6.533171142578125,0.8079559206962585,0.4659661054611206,-0.5791770815849304
1772457949884239000,6.543239013671875,0.8799169659614563,0.4899041950702667,-0.4823852777481079
1772457949894307300,6.553307373046875,0.9620621204376221,0.5134438872337341,-0.37551289796829224
1772457949904376300,6.563376220703125,1.0542879104614258,0.5247995853424072,-0.26978275179862976
1772457949914444300,6.5734443359375,1.136580467224121,0.5205079317092896,-0.18521912395954132
1772457949924512500,6.583512451171875,1.206153154373169,0.4962584972381592,-0.12884026765823364
1772457949934580200,6.593580322265625,1.260401725769043,0.4648435711860657,-0.09035918861627579
1772457949944648200,6.603648193359375,1.2900551557540894,0.44986143708229065,-0.07365504652261734
1772457949954717400,6.613717529296875,1.3010516166687012,0.45229822397232056,-0.07719199359416962
1772457949964785400,6.623785400390625,1.3089101314544678,0.4835589528083801,-0.10591311752796173
1772457949974853400,6.633853271484375,1.311223030090332,0.5323352813720703,-0.14904913306236267
1772457949984921300,6.64392138671875,1.3125211000442505,0.5927996635437012,-0.20820006728172302
1772457949994989300,6.6539892578125,1.3205512762069702,0.6463339924812317,-0.271747350692749
1772457950005058300,6.664058349609375,1.331152319908142,0.6808421611785889,-0.3288649618625641
1772457950015126300,6.674126220703125,1.3531603813171387,0.7123985290527344,-0.3662853240966797
1772457950025194500,6.684194580078125,1.3945693969726562,0.7344588041305542,-0.38065946102142334
1772457950035262500,6.694262451171875,1.438613772392273,0.7129729390144348,-0.3754676282405853
1772457950045330200,6.704330078125,1.4852793216705322,0.674476146697998,-0.3513292670249939
1772457950055398100,6.714398193359375,1.5345048904418945,0.6301206946372986,-0.3139800429344177
1772457950065467400,6.72446728515625,1.576178789138794,0.5746284127235413,-0.2614941895008087
1772457950075535400,6.734535400390625,1.6165257692337036,0.5178799033164978,-0.21395862102508545
1772457950085603300,6.744603271484375,1.6493912935256958,0.4656481146812439,-0.16743826866149902
1772457950095671300,6.75467138671875,1.6795446872711182,0.4254381060600281,-0.13692829012870789
1772457950105739300,6.7647392578125,1.7111833095550537,0.39862167835235596,-0.11996528506278992
1772457950115808300,6.774808349609375,1.7560490369796753,0.3914950489997864,-0.12307186424732208
1772457950125876200,6.784876220703125,1.8038921356201172,0.3923664391040802,-0.1371847540140152
1772457950135944400,6.7949443359375,1.855669379234314,0.3874792754650116,-0.14616119861602783
1772457950146012400,6.805012451171875,1.9083492755889893,0.36780864000320435,-0.1508856564760208
1772457950156080000,6.815080078125,1.9608876705169678,0.32820984721183777,-0.1526971310377121
1772457950166149400,6.8251494140625,2.0026299953460693,0.2399446815252304,-0.1625649482011795
1772457950176217300,6.83521728515625,2.025568962097168,0.12690255045890808,-0.18048961460590363
1772457950186285300,6.845285400390625,2.0297701358795166,0.07601753622293472,-0.17065510153770447
1772457950196353300,6.855353271484375,2.0211663246154785,0.08776367455720901,-0.13249652087688446
1772457950206421200,6.865421142578125,2.008312225341797,0.15237435698509216,-0.06585757434368134
1772457950216490200,6.875490234375,1.9945076704025269,0.25795379281044006,0.03348072990775108
1772457950226558200,6.88555810546875,1.9790668487548828,0.3727528154850006,0.13689979910850525
1772457950236626400,6.89562646484375,1.9639084339141846,0.42941048741340637,0.2287125438451767
1772457950246694400,6.9056943359375,1.9506467580795288,0.41441023349761963,0.2873833179473877
1772457950256762400,6.915762451171875,1.9313321113586426,0.33553192019462585,0.3040696084499359
1772457950266831400,6.925831298828125,1.8995925188064575,0.21661698818206787,0.29005205631256104
1772457950276899300,6.9358994140625,1.8607336282730103,0.097142793238163,0.2385726273059845
1772457950286967300,6.94596728515625,1.8097481727600098,0.022825421765446663,0.1658659279346466
1772457950297035300,6.95603515625,1.7562471628189087,0.02014734596014023,0.09274990856647491
1772457950307104000,6.96610400390625,1.6985952854156494,0.060798902064561844,0.014942464418709278
1772457950317172700,6.9761728515625,1.6333667039871216,0.11582913249731064,-0.04946981370449066
1772457950327240700,6.98624072265625,1.5634630918502808,0.1794230192899704,-0.08967289328575134
1772457950337309000,6.996308837890625,1.484550952911377,0.2638564109802246,-0.10517648607492447
1772457950347377000,7.006376953125,1.4141228199005127,0.3604535162448883,-0.0927877277135849
1772457950357444900,7.01644482421875,1.3644007444381714,0.45319226384162903,-0.07258179038763046
1772457950367513900,7.026513916015625,1.3264944553375244,0.5188863277435303,-0.06275898963212967
1772457950377581800,7.036581787109375,1.3018028736114502,0.5551063418388367,-0.07258738577365875
1772457950387649800,7.04664990234375,1.2838923931121826,0.5706394910812378,-0.10229174792766571
1772457950397717800,7.0567177734375,1.2654696702957153,0.5821438431739807,-0.12800617516040802
1772457950407786000,7.066785888671875,1.2541991472244263,0.5982761979103088,-0.14511245489120483
1772457950417854700,7.076854736328125,1.249415397644043,0.5993449091911316,-0.15859577059745789
1772457950427922700,7.086922607421875,1.2375479936599731,0.5678490400314331,-0.17598114907741547
1772457950437991000,7.096990966796875,1.2328907251358032,0.5224243402481079,-0.19847021996974945
1772457950448059000,7.107058837890625,1.2240763902664185,0.4606504440307617,-0.21910332143306732
1772457950458126800,7.117126953125,1.2186683416366577,0.4064047634601593,-0.24892885982990265
1772457950468195800,7.12719580078125,1.2175754308700562,0.36759665608406067,-0.2731069028377533
1772457950478263800,7.137263916015625,1.2167599201202393,0.33409008383750916,-0.29782235622406006
1772457950488331800,7.147331787109375,1.217736840248108,0.2883926331996918,-0.3206477761268616
1772457950498399700,7.157399658203125,1.223515272140503,0.23629216849803925,-0.33179470896720886
1772457950508468000,7.167468017578125,1.2481637001037598,0.17883525788784027,-0.3246755599975586
1772457950518536700,7.17753662109375,1.2861381769180298,0.13811446726322174,-0.29936540126800537
1772457950528604700,7.187604736328125,1.320320963859558,0.09979423880577087,-0.2658489942550659
1772457950538672600,7.197672607421875,1.3516626358032227,0.0632316991686821,-0.23519280552864075
1772457950548740900,7.207740966796875,1.3688839673995972,0.03893301635980606,-0.21374796330928802
1772457950558808800,7.217808837890625,1.3694636821746826,0.028024177998304367,-0.21178974211215973
1772457950568876800,7.227876708984375,1.3520863056182861,0.029681995511054993,-0.23368225991725922
1772457950578945800,7.23794580078125,1.3188921213150024,0.05554741621017456,-0.27972590923309326
1772457950589013800,7.248013671875,1.2628997564315796,0.12886476516723633,-0.32712724804878235
1772457950599081700,7.258081787109375,1.199516773223877,0.25767946243286133,-0.38550427556037903
1772457950609149700,7.268149658203125,1.1484618186950684,0.40341857075691223,-0.426567018032074
1772457950619218000,7.278218017578125,1.1315699815750122,0.5260153412818909,-0.452077180147171
1772457950629286700,7.28828662109375,1.1469616889953613,0.6239330768585205,-0.461156964302063
1772457950639354600,7.298354736328125,1.1742297410964966,0.6990329027175903,-0.4504625201225281
1772457950649422800,7.3084228515625,1.2026478052139282,0.7281780242919922,-0.4336422383785248
1772457950659490800,7.31849072265625,1.2267606258392334,0.7360239624977112,-0.4077526032924652
1772457950669558800,7.328558837890625,1.2607353925704956,0.7327938079833984,-0.390509694814682
1772457950679627800,7.338627685546875,1.3093585968017578,0.7110013961791992,-0.375196248292923
1772457950689695700,7.34869580078125,1.35305655002594,0.6600010991096497,-0.3666174113750458
1772457950699763700,7.358763671875,1.3774771690368652,0.5684083104133606,-0.34443220496177673
1772457950709831700,7.368831787109375,1.3799307346343994,0.4553837776184082,-0.30841562151908875
1772457950719900000,7.37889990234375,1.3602029085159302,0.3401256203651428,-0.25205034017562866
1772457950729969000,7.388968994140625,1.3339017629623413,0.23173682391643524,-0.1873890608549118
1772457950740036600,7.39903662109375,1.3040738105773926,0.1539914309978485,-0.11548452079296112
1772457950750104800,7.409104736328125,1.2769784927368164,0.12050271034240723,-0.05103601887822151
1772457950760172800,7.4191728515625,1.2563555240631104,0.11741664260625839,-0.002234658459201455
1772457950770240800,7.42924072265625,1.2377687692642212,0.1281699538230896,0.029098762199282646
1772457950780310000,7.43931005859375,1.2191394567489624,0.14680835604667664,0.033295903354883194
1772457950790377700,7.449377685546875,1.1936184167861938,0.17458991706371307,0.028357073664665222
1772457950800445700,7.45944580078125,1.1583911180496216,0.20242474973201752,0.013667608611285686
1772457950810513700,7.469513671875,1.1150258779525757,0.22627921402454376,-0.0015390408225357533
1772457950820582000,7.479581787109375,1.0658034086227417,0.25448688864707947,-0.005358280148357153
1772457950830651000,7.48965087890625,1.0033276081085205,0.28509005904197693,-0.007523430045694113
1772457950840718800,7.49971875,0.9366702437400818,0.2964143455028534,-0.004637096077203751
1772457950850786600,7.50978662109375,0.8745376467704773,0.2819659113883972,-0.0011574097443372011
1772457950860854800,7.519854736328125,0.8167936205863953,0.25336968898773193,0.0005363606614992023
1772457950870922800,7.5299228515625,0.7706780433654785,0.2367883026599884,0.023624103516340256
1772457950880990700,7.53999072265625,0.7393646240234375,0.24056866765022278,0.05405311658978462
1772457950891060000,7.55006005859375,0.7186260223388672,0.23967331647872925,0.07998671382665634
1772457950901128000,7.5601279296875,0.7024796009063721,0.19124957919120789,0.07726283371448517
1772457950911195600,7.570195556640625,0.6768394708633423,0.12043240666389465,0.04026752710342407
1772457950921263600,7.580263671875,0.649214506149292,0.048163533210754395,-0.013426059857010841
1772457950931331800,7.590331787109375,0.6065136194229126,0.022731943055987358,-0.07603351771831512
1772457950941400800,7.60040087890625,0.5460577607154846,0.03575879707932472,-0.14525173604488373
1772457950951468800,7.61046875,0.4861701726913452,0.07600182294845581,-0.21839012205600739
1772457950961536800,7.620536865234375,0.4289971590042114,0.1217661127448082,-0.2928403913974762
1772457950971604700,7.630604736328125,0.3918503224849701,0.16980208456516266,-0.36686429381370544
1772457950981672700,7.640672607421875,0.36678650975227356,0.22438544034957886,-0.42630285024642944
1772457950991742000,7.650741943359375,0.35978320240974426,0.2690548896789551,-0.45061030983924866
1772457951001810000,7.660809814453125,0.37279701232910156,0.2933967411518097,-0.45137330889701843
1772457951011878000,7.6708779296875,0.4045647978782654,0.2736837565898895,-0.4263763427734375
1772457951021945600,7.680945556640625,0.4444560110569,0.2177586853504181,-0.38677912950515747
1772457951032013800,7.691013916015625,0.4918096959590912,0.18517784774303436,-0.3275408446788788
1772457951042082800,7.701082763671875,0.5394022464752197,0.16676901280879974,-0.25924062728881836
1772457951052150800,7.71115087890625,0.5945749282836914,0.1569288969039917,-0.19885636866092682
1772457951062219000,7.721218994140625,0.643550455570221,0.13898158073425293,-0.13623586297035217
1772457951072286700,7.73128662109375,0.6767606139183044,0.10591018944978714,-0.0663372129201889
1772457951082354700,7.741354736328125,0.7022801041603088,0.06582348793745041,0.003971572034060955
1772457951092424000,7.751423828125,0.7186992764472961,-0.0024868599139153957,0.06094963848590851
1772457951102492000,7.761491943359375,0.724150538444519,-0.11041492223739624,0.10723084956407547
1772457951112559900,7.771559814453125,0.7135111689567566,-0.21095937490463257,0.14764165878295898
1772457951122627800,7.7816279296875,0.6874239444732666,-0.2702416181564331,0.1804691106081009
1772457951132695800,7.79169580078125,0.6508477926254272,-0.2659264802932739,0.20851245522499084
1772457951142764800,7.801764892578125,0.6105632185935974,-0.19520491361618042,0.22983452677726746
1772457951152832800,7.811832763671875,0.5710424780845642,-0.10678637027740479,0.24662336707115173
1772457951162900700,7.821900634765625,0.5387406945228577,-0.009792177006602287,0.27291250228881836
1772457951172969000,7.831968994140625,0.501869261264801,0.06937534362077713,0.3112766444683075
1772457951183037000,7.842036865234375,0.4652973711490631,0.11418969184160233,0.33080267906188965
1772457951193104600,7.852104736328125,0.42796677350997925,0.09920434653759003,0.32107362151145935
1772457951203174000,7.862173828125,0.3907054364681244,0.036247752606868744,0.2837209403514862
1772457951213241900,7.872241943359375,0.34962165355682373,-0.04983093962073326,0.2200751155614853
1772457951223309800,7.882309814453125,0.2944343090057373,-0.13801166415214539,0.1480342000722885
1772457951233377800,7.892377685546875,0.23840458691120148,-0.19038724899291992,0.08881935477256775
1772457951243445800,7.90244580078125,0.19138354063034058,-0.20175708830356598,0.048223454505205154
1772457951253514800,7.9125146484375,0.15581835806369781,-0.16096624732017517,0.02406352385878563
1772457951263582700,7.922582763671875,0.13057798147201538,-0.09302528202533722,-0.000013848437447450124
1772457951273651000,7.93265087890625,0.12205453962087631,-0.01798379421234131,-0.02839941717684269
1772457951283719000,7.942718994140625,0.12400130927562714,0.05522463843226433,-0.07644843310117722
1772457951293787000,7.952786865234375,0.13810408115386963,0.10905511677265167,-0.13590776920318604
1772457951303855000,7.962855224609375,0.15891002118587494,0.13475728034973145,-0.18987245857715607
1772457951313923000,7.972923095703125,0.17012938857078552,0.127522811293602,-0.2355174422264099
1772457951323991000,7.982990966796875,0.18050293624401093,0.11242721229791641,-0.25181785225868225
1772457951334058200,7.993058349609375,0.18938058614730835,0.08677803725004196,-0.24053750932216644
1772457951344126200,8.003126220703125,0.20266468822956085,0.03937004134058952,-0.20712628960609436
1772457951354194200,8.013194091796874,0.21801061928272247,-0.022840067744255066,-0.16938289999961853
1772457951364262100,8.02326220703125,0.23762108385562897,-0.08268982172012329,-0.1311609447002411
1772457951374330400,8.033330322265625,0.25261467695236206,-0.1357136219739914,-0.10611364990472794
1772457951384399000,8.043399169921875,0.2695779502391815,-0.17317071557044983,-0.09937398880720139
1772457951394467000,8.053467041015624,0.28740087151527405,-0.17476888000965118,-0.09956414252519608
1772457951404535300,8.063535400390625,0.30337080359458923,-0.16365310549736023,-0.1121358573436737
1772457951414603300,8.073603271484375,0.3136676549911499,-0.14726828038692474,-0.14409485459327698
1772457951424671200,8.083671142578124,0.3169420063495636,-0.11446505784988403,-0.17411640286445618
1772457951434740000,8.093739990234376,0.31365644931793213,-0.07706841826438904,-0.20585621893405914
1772457951444808200,8.10380810546875,0.30743664503097534,-0.05540706589818001,-0.2349081188440323
1772457951454876200,8.113876220703125,0.30212098360061646,-0.03832874819636345,-0.2592001259326935
1772457951464944000,8.123944091796876,0.2888432443141937,-0.019363312050700188,-0.2604486346244812
1772457951475012000,8.13401220703125,0.29065126180648804,-0.0022503710351884365,-0.25910452008247375
1772457951485081000,8.1440810546875,0.28905922174453735,0.01242391299456358,-0.25359365344047546
1772457951495149000,8.154149169921874,0.2953741252422333,0.012918728403747082,-0.25367674231529236
1772457951505217000,8.164217041015625,0.30201923847198486,0.009958358481526375,-0.25259390473365784
1772457951515285200,8.17428515625,0.30564194917678833,0.019111376255750656,-0.2411617487668991
1772457951525353200,8.184353271484374,0.30870696902275085,0.026865169405937195,-0.22235850989818573
1772457951535422200,8.194422119140626,0.3228805959224701,0.03952663764357567,-0.20217999815940857
1772457951545490200,8.204490234375,0.3349764049053192,0.06143512949347496,-0.17315952479839325
1772457951555558100,8.21455810546875,0.3425605297088623,0.09033548831939697,-0.14233370125293732
1772457951565626000,8.224626220703126,0.3581104874610901,0.13839755952358246,-0.1091826781630516
1772457951575694000,8.234694091796875,0.3760463297367096,0.18121212720870972,-0.07342308759689331
1772457951585762300,8.24476220703125,0.4011596739292145,0.20259332656860352,-0.04237781837582588
1772457951595831000,8.2548310546875,0.43377992510795593,0.218716099858284,-0.01329902745783329
1772457951605899000,8.26489892578125,0.46527981758117676,0.22374574840068817,0.014936072751879692
1772457951615967200,8.27496728515625,0.4922938346862793,0.22858977317810059,0.04559518024325371
1772457951626035200,8.28503515625,0.5238275527954102,0.24580922722816467,0.07430938631296158
1772457951636103200,8.295103271484376,0.5552805066108704,0.26327505707740784,0.09871672093868256
1772457951646172200,8.305172119140625,0.5808442234992981,0.27172473073005676,0.11670797318220139
1772457951656240000,8.315240234375,0.5983656644821167,0.27044638991355896,0.1321287453174591
1772457951666308000,8.32530810546875,0.5996394753456116,0.2707923352718353,0.13857732713222504
1772457951676376000,8.3353759765625,0.5972327589988708,0.27857568860054016,0.15023984014987946
1772457951686446000,8.345446044921875,0.5926215052604675,0.2772800624370575,0.15136635303497314
1772457951696514000,8.35551416015625,0.5876011848449707,0.2651866674423218,0.15196609497070312
1772457951706582000,8.36558203125,0.5894656777381897,0.254710853099823,0.15295518934726715
1772457951716651300,8.3756513671875,0.6040693521499634,0.25481125712394714,0.15732544660568237
1772457951726719200,8.38571923828125,0.629706859588623,0.28605785965919495,0.17149718105793
1772457951736787200,8.395787109375,0.6729653477668762,0.34471452236175537,0.18063236773014069
1772457951746855200,8.405855224609375,0.7227758169174194,0.3948360085487366,0.19397053122520447
1772457951756923100,8.415923095703125,0.762271523475647,0.4431973993778229,0.21863433718681335
1772457951766992100,8.4259921875,0.77877277135849,0.47358939051628113,0.2496311366558075
1772457951777060400,8.436060302734376,0.7712224125862122,0.5143722295761108,0.2943096458911896
1772457951787128300,8.44612841796875,0.757108747959137,0.5892086625099182,0.3551248013973236
1772457951797196000,8.456196044921874,0.7155596613883972,0.5985395908355713,0.38684171438217163
1772457951807264000,8.466263916015626,0.6419864296913147,0.5415889620780945,0.36591726541519165
1772457951817332200,8.476332275390625,0.5594539642333984,0.41484513878822327,0.3279765546321869
1772457951827401200,8.486401123046875,0.4682849049568176,0.22600889205932617,0.272871732711792
1772457951837469200,8.49646923828125,0.35469549894332886,0.040937311947345734,0.22312122583389282
1772457951847537200,8.506537109375,0.22527067363262177,-0.07847776263952255,0.2028186172246933
1772457951857605000,8.516605224609375,0.10743751376867294,-0.0848672166466713,0.21923062205314636
1772457951867673000,8.526673095703124,0.01714196801185608,-0.0084249097853899,0.2634369730949402
1772457951877742300,8.536742431640626,-0.04340313374996185,0.09862590581178665,0.31542161107063293
1772457951887810300,8.546810302734375,-0.07265369594097137,0.20044681429862976,0.3784586191177368
1772457951897878300,8.556878173828125,-0.09243672341108322,0.2627139091491699,0.4355727732181549
1772457951907946000,8.566946044921876,-0.10094791650772095,0.27811285853385925,0.46758797764778137
1772457951918014200,8.57701416015625,-0.08970005810260773,0.27160435914993286,0.4821096658706665
1772457951928083200,8.587083251953125,-0.06503625959157944,0.26973026990890503,0.48767298460006714
1772457951938151200,8.597151123046874,-0.0326349101960659,0.26936355233192444,0.48611319065093994
1772457951948219100,8.60721923828125,0.0073015885427594185,0.26740267872810364,0.4830705225467682
1772457951958287400,8.617287353515625,0.05199688673019409,0.2616497278213501,0.4794193208217621
1772457951968355000,8.62735498046875,0.10088400542736053,0.23873400688171387,0.4798851013183594
1772457951978424000,8.637424072265626,0.14694230258464813,0.20224764943122864,0.4845094382762909
1772457951988492300,8.6474921875,0.182777538895607,0.17331372201442719,0.4937998652458191
1772457951998560300,8.657560302734375,0.20052377879619598,0.15907993912696838,0.5092688202857971
1772457952008628200,8.667628173828126,0.2071409374475479,0.1521189659833908,0.5151491165161133
1772457952018696200,8.6776962890625,0.20300237834453583,0.1411834955215454,0.5049441456794739
1772457952028765200,8.68776513671875,0.1848667860031128,0.13635703921318054,0.4838617444038391
1772457952038833200,8.697833251953124,0.1573731154203415,0.1511453092098236,0.44562914967536926
1772457952048901000,8.707901123046875,0.12743651866912842,0.1864529699087143,0.3877173662185669
1772457952058969300,8.71796923828125,0.10262251645326614,0.21445131301879883,0.30994853377342224
1772457952069037300,8.728037353515624,0.08808751404285431,0.2131788581609726,0.2124299705028534
1772457952079106000,8.73810595703125,0.08507893979549408,0.1742551624774933,0.11005806177854538
1772457952089174300,8.74817431640625,0.07796350866556168,0.0928891971707344,0.012679309584200382
1772457952099242200,8.7582421875,0.06723789125680923,0.016860472038388252,-0.06805121898651123
1772457952109310200,8.768310302734376,0.07010212540626526,-0.021494107320904732,-0.13453996181488037
1772457952119378200,8.778378173828125,0.08425096422433853,-0.04105555638670921,-0.18413761258125305
1772457952129447200,8.788447265625,0.10143208503723145,-0.05273272097110748,-0.23654836416244507
1772457952139515100,8.79851513671875,0.10328883677721024,-0.07335011661052704,-0.299915075302124
1772457952149583000,8.8085830078125,0.0800253301858902,-0.11529277265071869,-0.37339168787002563
1772457952159651300,8.8186513671875,0.03896790370345116,-0.17005348205566406,-0.4501541256904602
1772457952169719300,8.82871923828125,-0.017313476651906967,-0.22947260737419128,-0.5144870281219482
1772457952179788000,8.8387880859375,-0.07948843389749527,-0.30252018570899963,-0.5744686126708984
1772457952189856300,8.848856201171875,-0.14839133620262146,-0.3182094097137451,-0.6172019839286804
1772457952199924200,8.85892431640625,-0.21235087513923645,-0.2408355176448822,-0.6310956478118896
1772457952209992200,8.8689921875,-0.2541950047016144,-0.08108846098184586,-0.6021862626075745
1772457952220060200,8.87906005859375,-0.27681270241737366,0.11770612746477127,-0.5405346155166626
1772457952230128400,8.88912841796875,-0.2656410038471222,0.2994183897972107,-0.46252530813217163
1772457952240197000,8.899197021484374,-0.23327480256557465,0.4269406795501709,-0.38473328948020935
1772457952250265000,8.90926513671875,-0.19597643613815308,0.48317864537239075,-0.31324365735054016
1772457952260333000,8.9193330078125,-0.15682795643806458,0.4722639322280884,-0.2542349398136139
1772457952270401300,8.9294013671875,-0.11855141073465347,0.41886624693870544,-0.20977027714252472
1772457952280469200,8.93946923828125,-0.08415322750806808,0.3325579762458801,-0.17623388767242432
1772457952290538000,8.9495380859375,-0.048051949590444565,0.23471024632453918,-0.15280765295028687
1772457952300606500,8.9596064453125,-0.02093564160168171,0.16403287649154663,-0.12705115973949432
1772457952310674400,8.96967431640625,0.004958007019013166,0.143288716673851,-0.09264258295297623
1772457952320742400,8.979742431640625,0.031075628474354744,0.1477857381105423,-0.05934881046414375
1772457952330810400,8.989810302734375,0.05150366947054863,0.14443626999855042,-0.035952407866716385
1772457952340879400,8.99987939453125,0.07884501665830612,0.12507189810276031,-0.03471031039953232
1772457952350947300,9.009947265625,0.10325527936220169,0.0836070105433464,-0.04201163351535797
1772457952361015300,9.020015380859375,0.12219115346670151,0.00977300200611353,-0.06348070502281189
1772457952371083500,9.03008349609375,0.13189704716205597,-0.08181044459342957,-0.08913680166006088
1772457952381151500,9.0401513671875,0.13234952092170715,-0.15712010860443115,-0.10746334493160248
1772457952391220200,9.05022021484375,0.12319862842559814,-0.21881569921970367,-0.10788385570049286
1772457952401288400,9.060288330078125,0.10811901092529297,-0.2706639766693115,-0.09930767863988876
1772457952411356400,9.0703564453125,0.09995216131210327,-0.31608152389526367,-0.08061201870441437
1772457952421424400,9.08042431640625,0.08855889737606049,-0.35534265637397766,-0.047755803912878036
1772457952431492400,9.090492431640625,0.0671771690249443,-0.3793065845966339,-0.014812502078711987
1772457952441561300,9.100561279296874,0.03767920285463333,-0.37672969698905945,0.029414881020784378
1772457952451629300,9.11062939453125,-0.0013126720441505313,-0.34881791472435,0.08510637283325195
1772457952461697300,9.120697265625,-0.05661693960428238,-0.31615930795669556,0.14797215163707733
1772457952471765500,9.130765625,-0.11088843643665314,-0.29793182015419006,0.21235913038253784
1772457952481833500,9.14083349609375,-0.16497403383255005,-0.3129797577857971,0.2633725106716156
1772457952491902500,9.15090234375,-0.20959369838237762,-0.3516879975795746,0.30054971575737
1772457952501970400,9.160970458984375,-0.24364835023880005,-0.4195309579372406,0.3138687014579773
1772457952512038400,9.171038330078124,-0.26733583211898804,-0.49518629908561707,0.3086467981338501
1772457952522106400,9.1811064453125,-0.28184765577316284,-0.5517656803131104,0.2758190631866455
1772457952532174300,9.19117431640625,-0.29439833760261536,-0.5880512595176697,0.21453599631786346
1772457952542243600,9.20124365234375,-0.3179763853549957,-0.5846474766731262,0.1436714082956314
1772457952552311300,9.211311279296876,-0.3471321165561676,-0.5495758056640625,0.06120849773287773
1772457952562379300,9.221379150390625,-0.3728577196598053,-0.5119503736495972,-0.027479294687509537
1772457952572447500,9.231447509765625,-0.3980341851711273,-0.4658249616622925,-0.09958437830209732
1772457952582515500,9.241515380859376,-0.4049357771873474,-0.3920047879219055,-0.141627699136734
1772457952592584400,9.25158447265625,-0.40421193838119507,-0.3134878873825073,-0.16342061758041382
1772457952602652400,9.26165234375,-0.4104873836040497,-0.33490556478500366,-0.20525754988193512
1772457952612720400,9.271720458984374,-0.4217011630535126,-0.41534286737442017,-0.25935834646224976
1772457952622788400,9.281788330078125,-0.4229872226715088,-0.46998828649520874,-0.2933456003665924
1772457952632856300,9.291856201171875,-0.4192691743373871,-0.47827044129371643,-0.3221578001976013
1772457952642924300,9.30192431640625,-0.41308265924453735,-0.43987351655960083,-0.33012598752975464
1772457952652993500,9.31199365234375,-0.3943651616573334,-0.390516072511673,-0.3265112638473511
1772457952663061500,9.3220615234375,-0.3708134889602661,-0.3373391628265381,-0.30829232931137085
1772457952673129200,9.332129150390625,-0.3356967866420746,-0.30958688259124756,-0.2831651270389557
1772457952683197400,9.342197509765626,-0.3079301416873932,-0.3399743437767029,-0.26372405886650085
1772457952693265400,9.352265380859375,-0.29291069507598877,-0.4033258855342865,-0.26085716485977173
1772457952703334400,9.36233447265625,-0.27828356623649597,-0.44886353611946106,-0.26258209347724915
1772457952713402600,9.372402587890624,-0.27021524310112,-0.4698852002620697,-0.255575567483902
1772457952723470300,9.38247021484375,-0.27010124921798706,-0.4816150963306427,-0.24882818758487701
1772457952733538300,9.392538330078125,-0.2715185880661011,-0.5079652070999146,-0.22728508710861206
1772457952743606300,9.402606201171874,-0.2804553508758545,-0.5279088020324707,-0.19393618404865265
1772457952753675500,9.412675537109376,-0.2888408601284027,-0.5318623185157776,-0.14902223646640778
1772457952763743500,9.422743408203125,-0.2950902283191681,-0.5201656818389893,-0.085784412920475
1772457952773811500,9.4328115234375,-0.2972487211227417,-0.5083996057510376,-0.024778317660093307
1772457952783879400,9.44287939453125,-0.29289790987968445,-0.49066346883773804,0.035154789686203
1772457952793947400,9.452947509765625,-0.2930569052696228,-0.47517505288124084,0.09464102238416672
1772457952804016400,9.463016357421875,-0.28864964842796326,-0.44491487741470337,0.14639662206172943
1772457952814084600,9.473084716796874,-0.28482961654663086,-0.3667484521865845,0.20736438035964966
1772457952824152600,9.483152587890626,-0.267112672328949,-0.24964071810245514,0.2783416211605072
1772457952834220300,9.49322021484375,-0.23192377388477325,-0.10770116001367569,0.3489747643470764
1772457952844288300,9.503288330078124,-0.20769301056861877,0.04332190752029419,0.41123175621032715
1772457952854357500,9.513357421875,-0.18084141612052917,0.15698295831680298,0.4584709107875824
1772457952864425500,9.523425537109375,-0.1652720421552658,0.2311442643404007,0.4956081509590149
1772457952874493400,9.533493408203125,-0.16391544044017792,0.2509046494960785,0.5097609758377075
1772457952884561700,9.543561767578124,-0.1684103161096573,0.24834881722927094,0.5133013725280762
1772457952894629400,9.55362939453125,-0.17879317700862885,0.23490305244922638,0.5080304741859436
1772457952904698400,9.563698486328125,-0.18750996887683868,0.19973307847976685,0.48884105682373047
1772457952914766300,9.573766357421874,-0.19457879662513733,0.13819701969623566,0.45560747385025024
1772457952924834600,9.58383447265625,-0.20441864430904388,0.07195141911506653,0.40952014923095703
1772457952934902500,9.593902587890625,-0.21039558947086334,0.0012985573848709464,0.3484530448913574
1772457952944970500,9.603970458984374,-0.2154843509197235,-0.08868858963251114,0.26922401785850525
1772457952955039500,9.61403955078125,-0.22527119517326355,-0.19219553470611572,0.1683993935585022
1772457952965107500,9.624107421875,-0.24858611822128296,-0.28048571944236755,0.05391969159245491
1772457952975175400,9.634175537109375,-0.2890893220901489,-0.33691731095314026,-0.050227485597133636
1772457952985243400,9.644243408203126,-0.34362688660621643,-0.33893918991088867,-0.1340331733226776
1772457952995311600,9.6543115234375,-0.3873964548110962,-0.2852975130081177,-0.19386161863803864
1772457953005380400,9.66438037109375,-0.4152235686779022,-0.16504327952861786,-0.22639904916286469
1772457953015448300,9.6744482421875,-0.4197522699832916,-0.007280283607542515,-0.2528402507305145
1772457953025516500,9.6845166015625,-0.39570340514183044,0.14176112413406372,-0.2756584882736206
1772457953035584500,9.69458447265625,-0.342279851436615,0.24472399055957794,-0.30851975083351135
1772457953045652500,9.704652587890624,-0.27104881405830383,0.30544140934944153,-0.32700207829475403
1772457953055721500,9.714721435546876,-0.19937728345394135,0.34384632110595703,-0.31653159856796265
1772457953065789400,9.72478955078125,-0.13058383762836456,0.35258999466896057,-0.2822396755218506
1772457953075857400,9.734857421875,-0.06114591285586357,0.30166369676589966,-0.23266707360744476
1772457953085925400,9.74492529296875,0.0011030812747776508,0.19123440980911255,-0.18524229526519775
1772457953095993600,9.75499365234375,0.05760204419493675,0.0632130578160286,-0.13876906037330627
1772457953106062300,9.765062255859375,0.10780476033687592,-0.06558965891599655,-0.10632936656475067
1772457953116130300,9.77513037109375,0.14985553920269012,-0.16059046983718872,-0.07913636416196823
1772457953126198500,9.785198486328126,0.1873917281627655,-0.19792506098747253,-0.05757887288928032
1772457953136266500,9.7952666015625,0.21702152490615845,-0.19193269312381744,-0.0561535507440567
1772457953146334500,9.80533447265625,0.24619458615779877,-0.15407292544841766,-0.07136659324169159
1772457953156403500,9.815403564453124,0.27804121375083923,-0.11385785788297653,-0.10644814372062683
1772457953166471400,9.825471435546875,0.3066158592700958,-0.07333466410636902,-0.1604975312948227
1772457953176539400,9.835539306640625,0.335366815328598,-0.0345262847840786,-0.21195432543754578
1772457953186607400,9.845607421875,0.34937557578086853,-0.011759188026189804,-0.2650021016597748
1772457953196675600,9.855675537109375,0.36355024576187134,0.0002532666258048266,-0.30719321966171265
1772457953206744300,9.865744384765625,0.3705567717552185,-0.0046570696868002415,-0.3429461717605591
1772457953216812300,9.875812255859374,0.3662443161010742,0.0007795072160661221,-0.3659153878688812
1772457953226880300,9.88588037109375,0.3627025783061981,0.020373182371258736,-0.3665284514427185
1772457953236948500,9.895948486328125,0.3639092445373535,0.04772944003343582,-0.3537077307701111
1772457953247016400,9.906016357421874,0.3692808449268341,0.0682176724076271,-0.33405813574790955
1772457953257084400,9.91608447265625,0.3773302435874939,0.08281658589839935,-0.3159875273704529
1772457953267153400,9.9261533203125,0.3757658898830414,0.10355435311794281,-0.2925194799900055
1772457953277221400,9.936221435546875,0.37629029154777527,0.13871873915195465,-0.2753322422504425
1772457953287289300,9.946289306640624,0.37327077984809875,0.17975085973739624,-0.26657843589782715
1772457953297357300,9.956357421875,0.3742412328720093,0.20818382501602173,-0.2614837884902954
1772457953307425300,9.96642529296875,0.3658362925052643,0.2140185534954071,-0.2626582682132721
1772457953317494300,9.976494384765624,0.36433640122413635,0.19565339386463165,-0.2581609785556793
1772457953327562200,9.986562255859376,0.3602322041988373,0.16606353223323822,-0.23627698421478271
1772457953337630200,9.996630126953125,0.35546809434890747,0.13119396567344666,-0.19643636047840118
1772457953347698200,10.0066982421875,0.3528589904308319,0.09257493913173676,-0.13529230654239655
1772457953357766100,10.01676611328125,0.3513132929801941,0.06384608894586563,-0.053947921842336655
1772457953367835400,10.02683544921875,0.34477177262306213,0.061776548624038696,0.04308488592505455
1772457953377903000,10.036903076171875,0.343256413936615,0.0939648449420929,0.1477721482515335
1772457953387971000,10.04697119140625,0.35256683826446533,0.15551209449768066,0.24964632093906403
1772457953398039000,10.0570390625,0.37315574288368225,0.22742676734924316,0.3367615044116974
1772457953408107300,10.067107177734375,0.3906439244747162,0.2835851013660431,0.4009639322757721
1772457953418176300,10.07717626953125,0.41106823086738586,0.32661938667297363,0.4438927471637726
1772457953428244200,10.087244140625,0.42480215430259705,0.3663138151168823,0.479539692401886
1772457953438312200,10.097312255859375,0.4503048360347748,0.4190249443054199,0.5109738111495972
1772457953448380200,10.107380126953124,0.47419261932373047,0.4012131989002228,0.5247071981430054
1772457953458448100,10.1174482421875,0.4851624369621277,0.28164607286453247,0.5041702389717102
1772457953468517400,10.127517333984375,0.47627201676368713,0.16448427736759186,0.4704870879650116
1772457953478585300,10.13758544921875,0.4478963017463684,0.1114753931760788,0.4335801899433136
1772457953488653000,10.147653076171874,0.38863828778266907,0.07416610419750214,0.3762604594230652
1772457953498721000,10.157720947265625,0.30475297570228577,0.003500725142657757,0.3002476990222931
1772457953508789200,10.167789306640625,0.2064027041196823,-0.07798108458518982,0.21037667989730835
1772457953518858200,10.177858154296874,0.11496759951114655,-0.1120985746383667,0.12172403931617737
1772457953528926200,10.18792626953125,0.03982970491051674,-0.09113044291734695,0.03190067410469055
1772457953538994400,10.197994384765625,-0.008333031088113785,-0.02912885695695877,-0.03659263253211975
1772457953549062100,10.208062255859375,-0.03585893288254738,0.05735436826944351,-0.07535387575626373
1772457953559130000,10.218130126953126,-0.045647379010915756,0.13408589363098145,-0.09738807380199432
1772457953569199400,10.228199462890625,-0.03286527097225189,0.1960746943950653,-0.10051435977220535
1772457953579267300,10.238267333984375,-0.002752909669652581,0.23649616539478302,-0.07786177843809128
1772457953589335300,10.248335205078124,0.04758243262767792,0.25909706950187683,-0.04198606684803963
1772457953599403300,10.2584033203125,0.11693274229764938,0.27704277634620667,0.007440339308232069
1772457953609471200,10.26847119140625,0.20346443355083466,0.290537029504776,0.053227003663778305
1772457953619540200,10.278540283203125,0.29350191354751587,0.29279085993766785,0.11614285409450531
1772457953629608200,10.288608154296876,0.35797733068466187,0.29133063554763794,0.18824447691440582
1772457953639676400,10.298676513671875,0.37989887595176697,0.2934523820877075,0.2577822804450989
1772457953649744400,10.308744384765625,0.3815114200115204,0.3191468417644501,0.32423001527786255
1772457953659812000,10.31881201171875,0.3684920072555542,0.3689567446708679,0.3811476230621338
1772457953669881000,10.328881103515625,0.36195263266563416,0.4095153510570526,0.4306352734565735
1772457953679949300,10.33894921875,0.3556603789329529,0.4435710608959198,0.4639865756034851
1772457953690017300,10.349017333984374,0.34370145201683044,0.4597542881965637,0.4823967516422272
1772457953700085200,10.359085205078125,0.3254489302635193,0.4308938682079315,0.4738897979259491
1772457953710153200,10.3691533203125,0.3100270926952362,0.3778572678565979,0.4349128305912018
1772457953720222200,10.37922216796875,0.2948063313961029,0.2814154326915741,0.35667237639427185
1772457953730290200,10.389290283203126,0.2742326259613037,0.18340018391609192,0.25880253314971924
1772457953740358100,10.399358154296875,0.24481241405010223,0.08482567220926285,0.15090030431747437
1772457953750426400,10.40942626953125,0.21909800171852112,-0.003222158644348383,0.05125466361641884
1772457953760494300,10.419494384765626,0.19940312206745148,-0.06950876861810684,-0.033002156764268875
1772457953770563000,10.42956298828125,0.1809234470129013,-0.1405176967382431,-0.10009144991636276
1772457953780631300,10.43963134765625,0.16348320245742798,-0.21879945695400238,-0.15958327054977417
1772457953790699300,10.44969921875,0.13681884109973907,-0.310677707195282,-0.2186838686466217
1772457953800767200,10.459767333984376,0.08756047487258911,-0.39292386174201965,-0.3001166880130768
1772457953810835200,10.469835205078125,0.029232187196612358,-0.4594043493270874,-0.4151463210582733
1772457953820904200,10.479904296875,-0.028376247733831406,-0.4949711263179779,-0.5345156192779541
1772457953830972200,10.48997216796875,-0.08739935606718063,-0.4664614498615265,-0.6425826549530029
1772457953841040100,10.5000400390625,-0.1273832619190216,-0.36465492844581604,-0.7120522856712341
1772457953851108400,10.5101083984375,-0.13973340392112732,-0.18742609024047852,-0.7152885794639587
1772457953861176300,10.52017626953125,-0.11574284732341766,0.03345303237438202,-0.6543682217597961
1772457953871245000,10.5302451171875,-0.05529521405696869,0.24578100442886353,-0.540728747844696
1772457953881313300,10.540313232421875,0.028895031660795212,0.39819931983947754,-0.3981175422668457
1772457953891381200,10.55038134765625,0.10745402425527573,0.4631466269493103,-0.26075196266174316
1772457953901449200,10.56044921875,0.1654597967863083,0.4441833198070526,-0.13666915893554688
1772457953911517200,10.57051708984375,0.19769389927387238,0.3588614761829376,-0.04225477948784828
1772457953921586200,10.580586181640625,0.2287072092294693,0.25161466002464294,0.018483668565750122
1772457953931654100,10.590654052734376,0.24404674768447876,0.16263392567634583,0.059852682054042816
1772457953941722000,10.60072216796875,0.24826307594776154,0.09539895504713058,0.07318472862243652
1772457953951790300,10.610790283203125,0.24163579940795898,0.043905939906835556,0.06315074115991592
1772457953961858300,10.6208583984375,0.22994664311408997,0.013059076853096485,0.029569344595074654
1772457953971927000,10.630927001953125,0.21928495168685913,0.02629525400698185,-0.014828214421868324
1772457953981995000,10.6409951171875,0.2188521921634674,0.06617076694965363,-0.06610844284296036
1772457953992063200,10.651063232421874,0.2160492092370987,0.10777892917394638,-0.11590875685214996
1772457954002131200,10.661131103515626,0.20366497337818146,0.11692342162132263,-0.15061268210411072
1772457954012199200,10.67119921875,0.18412882089614868,0.09098450094461441,-0.16984575986862183
1772457954022268400,10.681268310546875,0.16003121435642242,0.05247998610138893,-0.1641378104686737
1772457954032336100,10.691336181640626,0.131015807390213,0.00723447697237134,-0.1409856230020523
1772457954042404000,10.701404052734375,0.10131969302892685,-0.03798413276672363,-0.10778532177209854
1772457954052472000,10.71147216796875,0.0721823200583458,-0.1004541665315628,-0.08224613964557648
1772457954062540300,10.721540283203124,0.04049070179462433,-0.1669306606054306,-0.05908755585551262
1772457954072609300,10.731609375,0.0120675815269351,-0.20624691247940063,-0.04213413596153259
1772457954082677200,10.74167724609375,-0.016687899827957153,-0.20862963795661926,-0.020075174048542976
1772457954092745200,10.7517451171875,-0.04784848168492317,-0.1776706576347351,-0.003465837799012661
1772457954102813200,10.761813232421876,-0.07528197020292282,-0.14209775626659393,0.006876281928271055
1772457954112881200,10.771881103515625,-0.09760218858718872,-0.10983888059854507,0.007711449172347784
1772457954122950400,10.781950439453125,-0.11801771819591522,-0.07975687831640244,0.013992780819535255
1772457954133018400,10.792018310546876,-0.14429885149002075,-0.0665808916091919,0.037459757179021835
1772457954143086000,10.802086181640625,-0.16810086369514465,-0.04531155526638031,0.07062410563230515
1772457954153154000,10.812154052734375,-0.18002836406230927,0.001888980157673359,0.11120109260082245
1772457954163222300,10.82222216796875,-0.18465879559516907,0.04790707305073738,0.15923652052879333
1772457954173291300,10.832291259765626,-0.18196260929107666,0.07530567049980164,0.21485957503318787
1772457954183359200,10.842359130859375,-0.17285247147083282,0.12227371335029602,0.2786571979522705
1772457954193427200,10.85242724609375,-0.15982934832572937,0.1333034634590149,0.3325579762458801
1772457954203495200,10.8624951171875,-0.15155543386936188,0.04637815058231354,0.36135366559028625
1772457954213563100,10.872563232421875,-0.16068501770496368,-0.06090729311108589,0.35703855752944946
1772457954223632400,10.88263232421875,-0.18134714663028717,-0.16374099254608154,0.32731980085372925
1772457954233700400,10.892700439453124,-0.20444661378860474,-0.22281603515148163,0.27279186248779297
1772457954243768300,10.902768310546875,-0.21743032336235046,-0.21191571652889252,0.1931779831647873
1772457954253836000,10.9128359375,-0.22740359604358673,-0.1575573980808258,0.1046782061457634
1772457954263904300,10.922904296875,-0.2258312702178955,-0.10428299754858017,0.00818229652941227
1772457954273973200,10.93297314453125,-0.22765234112739563,-0.046119026839733124,-0.061597585678100586
1772457954284041200,10.943041259765625,-0.22922545671463013,0.037877608090639114,-0.09515953809022903
1772457954294109200,10.953109130859374,-0.22044049203395844,0.11873836815357208,-0.1235823929309845
1772457954304177400,10.963177490234376,-0.19574260711669922,0.1692502796649933,-0.1408737599849701
1772457954314245000,10.9732451171875,-0.1690763682126999,0.17421174049377441,-0.13619858026504517
1772457954324314000,10.983314208984375,-0.14822781085968018,0.14778412878513336,-0.1189490258693695
1772457954334382300,10.99338232421875,-0.1267765909433365,0.08326400071382523,-0.1023881584405899
1772457954344450300,11.0034501953125,-0.09709858894348145,-0.00768934516236186,-0.08516576141119003
1772457954354518300,11.013518310546875,-0.07121985405683517,-0.11523311585187912,-0.07095752656459808
1772457954364586200,11.023586181640624,-0.049667153507471085,-0.22357556223869324,-0.04135436564683914
1772457954374655200,11.0336552734375,-0.05164668336510658,-0.3649880886077881,-0.01624927669763565
1772457954384723200,11.04372314453125,-0.029761889949440956,-0.43961411714553833,-0.005076517816632986
1772457954394791200,11.053791259765624,0.0032887374982237816,-0.4366593360900879,0.04217701405286789
1772457954404859400,11.063859375,0.01480318047106266,-0.36465492844581604,0.10033299773931503
1772457954414927400,11.07392724609375,0.021205952391028404,-0.25146180391311646,0.15997715294361115
1772457954424996000,11.08399609375,0.01990792714059353,-0.14272145926952362,0.20164257287979126
1772457954435064300,11.094064208984374,-0.005188902840018272,-0.08151323348283768,0.2279098629951477
1772457954445132300,11.10413232421875,-0.03847202658653259,-0.059305399656295776,0.22720278799533844
1772457954455200300,11.1142001953125,-0.05410504713654518,-0.07226327806711197,0.212699756026268
