time,seconds_elapsed,z,y,x
1772561346564076300,0.072076171875,-1.1778942346572876,0.34459614753723145,0.10857214778661728
1772561346574143200,0.082143310546875,-1.2384766340255737,-0.17967873811721802,0.11773081123828888
1772561346584209200,0.092209228515625,-1.2554875612258911,-0.6356254816055298,0.14001934230327606
1772561346594276000,0.102276123046875,-1.2471234798431396,-0.8198364973068237,0.28148218989372253
1772561346604342300,0.11234228515625,-1.2128478288650513,-0.9419733285903931,0.522227942943573
1772561346614409200,0.1224091796875,-1.1735509634017944,-1.061416745185852,0.8158011436462402
1772561346624476200,0.13247607421875,-1.0281153917312622,-1.1725281476974487,1.0367580652236938
1772561346634542300,0.142542236328125,-0.42413052916526794,-1.3211613893508911,1.071250081062317
1772561346644609300,0.152609375,0.24535512924194336,-1.234184741973877,1.0478408336639404
1772561346654675200,0.16267529296875,0.6046168804168701,-0.5571784377098083,1.2575061321258545
1772561346664742100,0.1727421875,0.7716074585914612,-0.3093257546424866,1.4236279726028442
1772561346674809300,0.182809326171875,0.8101996779441833,-0.5679242610931396,1.5067747831344604
1772561346684875300,0.192875244140625,0.7534666061401367,-1.0085762739181519,1.5193111896514893
1772561346694942200,0.202942138671875,0.6332545876502991,-1.4065845012664795,1.4975205659866333
1772561346705008400,0.21300830078125,0.5045381188392639,-1.600266933441162,1.5123482942581177
1772561346715075300,0.223075439453125,0.37556248903274536,-1.653441071510315,1.556162714958191
1772561346725142300,0.233142333984375,0.21718880534172058,-1.6122081279754639,1.5776020288467407
1772561346735208200,0.243208251953125,0.0035109701566398144,-1.4643514156341553,1.566028356552124
1772561346745275100,0.253275146484375,-0.23195907473564148,-1.2115819454193115,1.5048110485076904
1772561346755341300,0.26334130859375,-0.4240413308143616,-0.8825370073318481,1.4175881147384644
1772561346765408300,0.273408203125,-0.4898885190486908,-0.5114707946777344,1.3005951642990112
1772561346775475200,0.28347509765625,-0.34901052713394165,-0.000040998682379722595,1.044195294380188
1772561346785541400,0.293541259765625,-0.19174259901046753,0.23198185861110687,0.9166852235794067
1772561346795608300,0.3036083984375,0.07488955557346344,0.3936622440814972,0.6678118109703064
1772561346805674200,0.31367431640625,0.3537597954273224,0.5255577564239502,0.459453284740448
1772561346815741200,0.3237412109375,0.5961105823516846,0.7295317053794861,0.24099770188331604
1772561346825808400,0.333808349609375,0.7583876252174377,1.0265038013458252,0.06198880448937416
1772561346835874000,0.3438740234375,0.8008302450180054,1.2985488176345825,-0.09130082279443741
1772561346845941200,0.353941162109375,0.7720348238945007,1.4661810398101807,-0.2543017268180847
1772561346856007200,0.364007080078125,0.7270923852920532,1.5577119588851929,-0.395580530166626
1772561346866074000,0.37407421875,0.7065820693969727,1.6281813383102417,-0.49271827936172485
1772561346876141300,0.384141357421875,0.7104508280754089,1.7093861103057861,-0.5524168014526367
1772561346886207000,0.39420703125,0.7038741707801819,1.7722508907318115,-0.5878927707672119
1772561346896274200,0.404274169921875,0.6669769883155823,1.8157875537872314,-0.5952541828155518
1772561346906340000,0.414340087890625,0.5924055576324463,1.856833577156067,-0.5773354172706604
1772561346916407000,0.424406982421875,0.5161586403846741,1.9027743339538574,-0.5588833689689636
1772561346926474000,0.434473876953125,0.46023067831993103,1.9172744750976562,-0.545249879360199
1772561346936540200,0.4445400390625,0.4437211751937866,1.918342113494873,-0.511683464050293
1772561346946607000,0.454607177734375,0.43626725673675537,1.8977906703948975,-0.4702500104904175
1772561346956673000,0.464673095703125,0.42986565828323364,1.8905022144317627,-0.40997686982154846
1772561346966740200,0.474740234375,0.440595805644989,1.875985026359558,-0.3409179151058197
1772561346976807200,0.48480712890625,0.4612308740615845,1.8054934740066528,-0.29900914430618286
1772561346986873000,0.494873046875,0.4594321846961975,1.7145805358886719,-0.27368834614753723
1772561346996940000,0.50493994140625,0.3988496661186218,1.5992426872253418,-0.2756132185459137
1772561347007006200,0.515006103515625,0.2591402232646942,1.4607555866241455,-0.3118990361690521
1772561347017073200,0.5250732421875,0.09568464756011963,1.326746940612793,-0.3600505292415619
1772561347027140000,0.53514013671875,-0.040460940450429916,1.1397712230682373,-0.42249739170074463
1772561347037206300,0.545206298828125,-0.11188060790300369,0.7823989391326904,-0.5106573700904846
1772561347047273200,0.555273193359375,-0.08598775416612625,0.2438984364271164,-0.6801832914352417
1772561347057339100,0.565339111328125,-0.026931555941700935,-0.07095914334058762,-0.8270753622055054
1772561347067406000,0.575406005859375,-0.06339502334594727,-0.23319678008556366,-0.9448262453079224
1772561347077473300,0.585473388671875,-0.24485670030117035,-0.38968318700790405,-0.9741755127906799
1772561347087539200,0.595539306640625,-0.5275350213050842,-0.6239963173866272,-0.9234254956245422
1772561347097606100,0.605606201171875,-0.8324553966522217,-0.8537564277648926,-0.8163321018218994
1772561347107672300,0.61567236328125,-1.055608868598938,-0.895254373550415,-0.7557286620140076
1772561347117739300,0.6257392578125,-1.1517235040664673,-0.7306504249572754,-0.8244849443435669
1772561347127806200,0.63580615234375,-1.1014997959136963,-0.4854270815849304,-0.9135062098503113
1772561347137872100,0.6458720703125,-1.0037682056427002,-0.5882439017295837,-1.001782774925232
1772561347147939300,0.655939208984375,-1.0526676177978516,-0.8744397163391113,-1.129573106765747
1772561347158005200,0.666005126953125,-1.3176003694534302,-1.0105947256088257,-1.3338276147842407
1772561347168072200,0.676072265625,-1.651658296585083,-0.9419512152671814,-1.6164427995681763
1772561347178139100,0.68613916015625,-1.783769965171814,-0.49333542585372925,-1.8831520080566406
1772561347188205300,0.696205322265625,-1.694608449935913,0.3494373559951782,-1.9690881967544556
1772561347198272300,0.706272216796875,-1.4765819311141968,0.852105438709259,-1.8691492080688477
1772561347208338200,0.716338134765625,-1.182257056236267,0.73427414894104,-1.6196147203445435
1772561347218405000,0.726405029296875,-0.8977978229522705,0.3537045419216156,-1.1655133962631226
1772561347228472300,0.736472412109375,-0.6589266061782837,0.055244602262973785,-0.49992984533309937
1772561347238538200,0.746538330078125,-0.469816654920578,-0.530446469783783,0.11278965324163437
1772561347248605200,0.756605224609375,-0.3431450128555298,-1.580743432044983,0.3594524562358856
1772561347258671400,0.76667138671875,-0.0851425752043724,-2.4223415851593018,0.6398135423660278
1772561347268738300,0.77673828125,0.17302584648132324,-2.880272150039673,1.1871552467346191
1772561347278805200,0.78680517578125,0.2023385912179947,-3.128164768218994,1.7528356313705444
1772561347288871200,0.79687109375,-0.014084260910749435,-3.4857614040374756,2.055981159210205
1772561347298938400,0.8069384765625,-0.3403446078300476,-3.9654128551483154,2.0460264682769775
1772561347309004300,0.81700439453125,-0.5946725010871887,-4.404870510101318,1.876505970954895
1772561347319071200,0.8270712890625,-0.7939227819442749,-4.261562824249268,1.5044102668762207
1772561347329138200,0.83713818359375,-0.7680786848068237,-3.414212703704834,1.3025619983673096
1772561347339204400,0.847204345703125,-0.5697599649429321,-2.204317092895508,1.191330075263977
1772561347349271300,0.857271240234375,-0.36915549635887146,-0.8339673280715942,1.1172572374343872
1772561347359337200,0.867337158203125,-0.11363214999437332,0.19895362854003906,1.054404616355896
1772561347369404400,0.877404296875,0.11377038061618805,0.6869710087776184,0.7736039161682129
1772561347379471400,0.887471435546875,0.351022332906723,1.3623408079147339,0.2872704863548279
1772561347389537000,0.897537109375,0.48849526047706604,1.346275806427002,-0.1131373941898346
1772561347399604000,0.90760400390625,0.5200809836387634,1.1054978370666504,-0.44721487164497375
1772561347409670100,0.917670166015625,0.4886345863342285,0.1641540676355362,-0.7778050303459167
1772561347419737000,0.927737060546875,0.4398168921470642,-1.1588354110717773,-1.0153863430023193
1772561347429804000,0.937803955078125,0.4973036050796509,-1.9819881916046143,-1.0790808200836182
1772561347439870200,0.9478701171875,0.6016077995300293,-1.959030270576477,-0.9488921165466309
1772561347449937200,0.957937255859375,0.5453320145606995,-1.3844830989837646,-0.7352190017700195
1772561347460003000,0.968003173828125,0.4105493724346161,-0.8276787400245667,-0.551454484462738
1772561347470070000,0.978070068359375,0.37530776858329773,-0.49176785349845886,-0.37832075357437134
1772561347480137500,0.988137451171875,0.4742019474506378,-0.37987518310546875,-0.1789252758026123
1772561347490203400,0.998203369140625,0.6022643446922302,-0.42539578676223755,0.05594875290989876
1772561347500270300,1.008270263671875,0.6191580295562744,-0.34708258509635925,0.2872633635997772
1772561347510336500,1.01833642578125,0.592377245426178,0.5072368383407593,0.3800867795944214
1772561347520403500,1.028403564453125,0.5266769528388977,1.1295838356018066,0.544701337814331
1772561347530470400,1.038470458984375,0.4873708188533783,1.0163875818252563,0.8151187300682068
1772561347540536300,1.048536376953125,0.5959688425064087,0.8367840647697449,1.0284838676452637
1772561347550603300,1.058603271484375,0.6068441271781921,0.43783271312713623,1.5670695304870605
1772561347560669400,1.06866943359375,0.5017935633659363,-0.05223122984170914,2.179314613342285
1772561347570736400,1.078736328125,0.34081557393074036,-0.48898378014564514,2.631910562515259
1772561347580803300,1.08880322265625,0.09251876920461655,-0.31895560026168823,2.829341173171997
1772561347590869500,1.098869384765625,0.04369663819670677,0.26915693283081055,2.7201695442199707
1772561347600936400,1.1089365234375,0.38657253980636597,1.0742039680480957,2.3294012546539307
1772561347611002000,1.119002197265625,1.1353884935379028,1.831889033317566,1.9724634885787964
1772561347621069300,1.1290693359375,1.9340519905090332,2.098632574081421,1.7141255140304565
1772561347631136500,1.139136474609375,2.4477014541625977,1.7637499570846558,1.6668541431427002
1772561347641202200,1.1492021484375,2.637305498123169,1.239967703819275,1.8448669910430908
1772561347651269400,1.159269287109375,2.6540944576263428,0.6764598488807678,1.993231177330017
1772561347661335300,1.169335205078125,2.600619316101074,-0.05513186380267143,1.8526054620742798
1772561347671402200,1.17940234375,2.626194953918457,-0.43208205699920654,1.3767614364624023
1772561347681469400,1.189469482421875,2.610487222671509,-0.03378589078783989,0.5159192681312561
1772561347691535400,1.199535400390625,2.6305861473083496,0.49673283100128174,-0.7110331058502197
1772561347701602300,1.209602294921875,2.6487069129943848,0.959945559501648,-1.8202028274536133
1772561347711668200,1.219668212890625,2.400857925415039,1.2535455226898193,-2.5666186809539795
1772561347721735200,1.229735107421875,1.7045828104019165,1.4387240409851074,-3.0572118759155273
1772561347731802000,1.239802001953125,1.0325816869735718,1.3592084646224976,-3.3750126361846924
1772561347741868300,1.249868408203125,0.5003073215484619,1.4052801132202148,-3.2389461994171143
1772561347751935200,1.259935302734375,0.10525322705507278,1.4539624452590942,-2.6870298385620117
1772561347762001200,1.270001220703125,-0.2432527244091034,0.9840213060379028,-2.115273952484131
1772561347772068400,1.280068359375,-0.5846827626228333,0.1066034659743309,-1.597542643547058
1772561347782134300,1.29013427734375,-1.0284405946731567,-0.8892834186553955,-1.1635574102401733
1772561347792201200,1.300201171875,-1.574377179145813,-1.7799217700958252,-0.9350304007530212
1772561347802268200,1.31026806640625,-2.072909116744995,-2.3361856937408447,-1.0222680568695068
1772561347812334300,1.320334228515625,-2.2552974224090576,-2.2530014514923096,-1.27786123752594
1772561347822401300,1.3304013671875,-2.0511512756347656,-1.2386893033981323,-1.2848104238510132
1772561347832467200,1.34046728515625,-1.1919670104980469,0.3503992259502411,-0.6221756935119629
1772561347842534400,1.350534423828125,-0.5702065229415894,1.1566781997680664,-0.016327666118741035
1772561347852601300,1.360601318359375,-0.4386189579963684,1.3683968782424927,0.45159265398979187
1772561347862667300,1.370667236328125,-0.7697910666465759,1.0758941173553467,0.7259100079536438
1772561347872734200,1.380734130859375,-1.4383819103240967,0.430536150932312,0.6374850869178772
1772561347882801400,1.390801513671875,-2.123034954071045,-0.11723753064870834,0.16322243213653564
1772561347892867300,1.400867431640625,-2.476458787918091,-0.46774548292160034,-0.6585904359817505
1772561347902934300,1.410934326171875,-2.276660203933716,-0.2804639935493469,-1.4553797245025635
1772561347913000400,1.42100048828125,-1.6340906620025635,0.1927264779806137,-2.0935025215148926
1772561347923067400,1.4310673828125,-0.9703982472419739,0.43670445680618286,-2.5382587909698486
1772561347933133300,1.44113330078125,-0.6215111017227173,0.23627734184265137,-2.769860029220581
1772561347943200300,1.4512001953125,-0.7152199149131775,-0.1607999950647354,-2.8069772720336914
1772561347953267500,1.461267333984375,-1.1401240825653076,-0.5128507018089294,-2.6490769386291504
1772561347963333400,1.47133349609375,-1.63823664188385,-0.8467616438865662,-2.35022234916687
1772561347973400300,1.481400390625,-1.9722367525100708,-1.4139398336410522,-2.0278191566467285
1772561347983466500,1.491466552734375,-2.2222630977630615,-2.0378761291503906,-1.814281940460205
1772561347993533400,1.501533447265625,-2.4849936962127686,-2.392799139022827,-1.799363374710083
1772561348003600400,1.511600341796875,-2.7310609817504883,-2.5844357013702393,-1.8649448156356812
1772561348013666300,1.521666259765625,-2.9551897048950195,-2.7953293323516846,-1.9051846265792847
1772561348023733500,1.5317333984375,-3.150738000869751,-3.2130401134490967,-1.7058674097061157
1772561348033799400,1.54179931640625,-3.42136549949646,-3.914761543273926,-1.2027363777160645
1772561348043866400,1.551866455078125,-3.9182755947113037,-4.635351181030273,-0.4165242612361908
1772561348053933300,1.561933349609375,-4.577184200286865,-4.6772332191467285,0.4163053333759308
1772561348063999500,1.57199951171875,-5.083888053894043,-4.153629779815674,0.807032585144043
1772561348074066400,1.58206640625,-5.279650688171387,-3.7061526775360107,0.4602600038051605
1772561348084132400,1.59213232421875,-5.128847122192383,-3.464010238647461,-0.44660016894340515
1772561348094199300,1.60219921875,-4.738918304443359,-3.1867403984069824,-1.3888369798660278
1772561348104266500,1.6122666015625,-4.295779228210449,-2.632786512374878,-1.8462949991226196
1772561348114332400,1.62233251953125,-3.972557544708252,-1.9007043838500977,-1.7192111015319824
1772561348124399400,1.6323994140625,-3.564087152481079,-0.6151828765869141,-1.2388620376586914
1772561348134465300,1.64246533203125,-2.9612178802490234,0.8975831866264343,-0.6818222403526306
1772561348144532200,1.6525322265625,-2.186347007751465,2.056084394454956,-0.0790724977850914
1772561348154599400,1.662599365234375,-1.3342941999435425,2.4421019554138184,0.5376636981964111
1772561348164665300,1.672665283203125,-0.5880514979362488,2.1162526607513428,1.2193752527236938
1772561348174732300,1.682732177734375,0.017997141927480698,1.4236993789672852,1.8025974035263062
1772561348184798200,1.692798095703125,0.32035374641418457,0.7839415073394775,2.165360450744629
1772561348194865200,1.702865234375,0.528264045715332,0.981839656829834,2.660701036453247
1772561348204932000,1.71293212890625,0.8903254866600037,2.081369400024414,3.504063129425049
1772561348214998300,1.722998291015625,1.3930137157440186,3.390509843826294,4.646905899047852
1772561348225065200,1.733065185546875,1.8169095516204834,3.5585618019104004,5.577709674835205
1772561348235131100,1.743131103515625,1.680086374282837,2.7739858627319336,5.922599792480469
1772561348245198300,1.7531982421875,0.955421507358551,1.2406150102615356,5.392491340637207
1772561348255265300,1.763265380859375,0.727992057800293,0.6107264161109924,4.789427757263184
1772561348265331200,1.773331298828125,1.190319538116455,0.9633914828300476,4.343787670135498
1772561348275398100,1.783398193359375,1.8258781433105469,1.7336429357528687,4.156448841094971
1772561348285464300,1.79346435546875,2.2058846950531006,2.2939090728759766,4.108992099761963
1772561348295531300,1.80353125,2.172555923461914,3.0217397212982178,4.339791774749756
1772561348305598200,1.81359814453125,1.8674817085266113,2.874575614929199,4.324758529663086
1772561348315664400,1.823664306640625,1.0369434356689453,1.364487886428833,3.4062252044677734
1772561348325731300,1.8337314453125,-0.08245480805635452,0.27877944707870483,2.4384734630584717
1772561348335797200,1.84379736328125,-0.4505137801170349,-0.25622057914733887,1.6798840761184692
1772561348345864200,1.8538642578125,-0.18898984789848328,-0.17051401734352112,0.8019514083862305
1772561348355931400,1.863931396484375,0.21922694146633148,0.31169334053993225,-0.302787721157074
1772561348365997300,1.873997314453125,0.6746578216552734,0.8804663419723511,-1.1512523889541626
1772561348376064300,1.884064208984375,1.0546895265579224,1.4937952756881714,-1.3525617122650146
1772561348386130400,1.89413037109375,0.9546511769294739,1.9970660209655762,-1.0794298648834229
1772561348396197400,1.904197265625,0.47968974709510803,2.3078277111053467,-0.5711156725883484
1772561348406264300,1.914264404296875,-0.03525735065340996,2.530076503753662,0.08620293438434601
1772561348416330200,1.924330322265625,-0.378961980342865,2.467857599258423,0.6594153642654419
1772561348426397400,1.9343974609375,-0.6072445511817932,2.0153627395629883,0.8798853158950806
1772561348436463400,1.94446337890625,-0.8859738707542419,1.2987091541290283,0.6029983162879944
1772561348446530300,1.9545302734375,-1.2487956285476685,0.14645567536354065,-0.2609398663043976
1772561348456597200,1.96459716796875,-1.3404179811477661,-0.77187579870224,-1.7043126821517944
1772561348466663400,1.974663330078125,-1.1881053447723389,-0.9715872406959534,-3.28143310546875
1772561348476730000,1.984730224609375,-0.9207601547241211,-0.2611653208732605,-4.621934413909912
1772561348486796000,1.994796142578125,-0.5384886264801025,1.3164393901824951,-5.173332214355469
1772561348496863200,2.00486328125,-0.09015878289937973,2.6003241539001465,-4.90854024887085
1772561348506930200,2.01493017578125,0.06197776272892952,2.858633041381836,-4.390655040740967
1772561348516996000,2.02499609375,0.035527247935533524,2.273855447769165,-3.769277334213257
1772561348527063000,2.03506298828125,-0.041657932102680206,1.2919025421142578,-3.1394925117492676
1772561348537129200,2.045129150390625,0.0004772718530148268,0.19892311096191406,-2.590304374694824
1772561348547196200,2.055196044921875,0.2376728653907776,-0.8586635589599609,-2.309551239013672
1772561348557263000,2.06526318359375,0.6929453015327454,-1.8766661882400513,-2.3039910793304443
1772561348567329300,2.075329345703125,1.1474578380584717,-2.6578149795532227,-2.4608230590820312
1772561348577396200,2.085396240234375,1.4140573740005493,-2.8440492153167725,-2.6023612022399902
1772561348587462100,2.095462158203125,1.448278546333313,-2.5626916885375977,-2.7065024375915527
1772561348597529000,2.105529052734375,1.1882110834121704,-1.9058711528778076,-2.7676076889038086
1772561348607596000,2.115595947265625,0.7019954323768616,-1.177173376083374,-2.779547691345215
1772561348617662200,2.125662109375,0.21873077750205994,-0.7873566746711731,-2.6823337078094482
1772561348627729200,2.135729248046875,-0.031799525022506714,-0.8319087624549866,-2.4005379676818848
1772561348637795300,2.14579541015625,-0.07590732723474503,-1.2193585634231567,-2.0082762241363525
1772561348647862300,2.1558623046875,-0.1328660249710083,-1.8036069869995117,-1.5962671041488647
1772561348657928200,2.16592822265625,-0.32540377974510193,-2.2976982593536377,-1.2755693197250366
1772561348667995100,2.1759951171875,-0.6300312876701355,-2.548778772354126,-1.150357723236084
1772561348678062000,2.18606201171875,-0.8739411234855652,-2.4559247493743896,-1.1926474571228027
1772561348688128300,2.196128173828125,-0.9973042011260986,-2.234565258026123,-1.2626861333847046
1772561348698195200,2.2061953125,-1.064023494720459,-1.870713233947754,-1.3126119375228882
1772561348708262100,2.21626220703125,-1.1123759746551514,-1.1658867597579956,-1.1679612398147583
1772561348718328000,2.226328125,-1.0831544399261475,-0.25898608565330505,-0.8171869516372681
1772561348728395300,2.236395263671875,-0.9857773780822754,0.41281136870384216,-0.42422303557395935
1772561348738461000,2.2464609375,-0.889495849609375,0.700300395488739,-0.10026254504919052
1772561348748528000,2.256528076171875,-0.8855664730072021,0.6307493448257446,0.11639926582574844
1772561348758595300,2.26659521484375,-0.8893276453018188,0.3727007508277893,0.3810868561267853
1772561348768661000,2.276660888671875,-0.8419496417045593,-0.06965887546539307,0.7763349413871765
1772561348778728000,2.28672802734375,-0.7816863059997559,-0.36889246106147766,1.3438758850097656
1772561348788794000,2.296794189453125,-0.7334067821502686,0.27682480216026306,2.31059193611145
1772561348798861000,2.306861083984375,-0.6940809488296509,1.4034945964813232,3.379666566848755
1772561348808928000,2.316927978515625,-0.6960123777389526,1.8343230485916138,3.8780786991119385
1772561348818994000,2.326993896484375,-0.6043266654014587,1.2699345350265503,3.455345869064331
1772561348829061000,2.33706103515625,-0.35557645559310913,1.4910547733306885,2.7863566875457764
1772561348839127000,2.347126953125,0.14826034009456635,2.4167933464050293,2.4059271812438965
1772561348849194000,2.357194091796875,0.4356166422367096,3.049739122390747,1.8930296897888184
1772561348859261000,2.367260986328125,0.9825378060340881,4.413318634033203,1.6352397203445435
1772561348869327000,2.3773271484375,2.03627610206604,5.952027797698975,1.7797905206680298
1772561348879394000,2.38739404296875,3.2283403873443604,6.48501443862915,2.077991485595703
1772561348889460000,2.3974599609375,3.9896130561828613,6.019824981689453,2.6631901264190674
1772561348899527200,2.407527099609375,4.041908264160156,4.290861129760742,3.450941324234009
1772561348909594000,2.417593994140625,3.472576141357422,2.054049491882324,4.230814456939697
1772561348919660000,2.427659912109375,2.352771520614624,0.39884713292121887,4.767315864562988
1772561348929727000,2.43772705078125,0.9307644963264465,0.23184777796268463,5.304342746734619
1772561348939793200,2.447793212890625,-0.018789269030094147,0.22908076643943787,5.519845008850098
1772561348949860000,2.457860107421875,0.16859202086925507,-0.46865445375442505,4.972977161407471
1772561348959926000,2.467926025390625,0.7503920197486877,-1.0576149225234985,3.98799729347229
1772561348969993200,2.4779931640625,0.9230057597160339,-0.8957927227020264,2.805903196334839
1772561348980060200,2.48806005859375,0.8141400218009949,-0.29035183787345886,1.8159575462341309
1772561348990126000,2.4981259765625,0.6848887801170349,0.0016219953540712595,1.1425491571426392
1772561349000193000,2.508193115234375,0.4597203731536865,-0.03789878264069557,0.649955689907074
1772561349010260200,2.51826025390625,-0.058713339269161224,-0.0371132455766201,0.186763733625412
1772561349020326100,2.528326171875,-0.7162842750549316,0.28232041001319885,-0.29688599705696106
1772561349030393000,2.53839306640625,-1.1195546388626099,0.810966432094574,-0.5852846503257751
1772561349040459300,2.548459228515625,-1.1178661584854126,1.105347752571106,-0.6649099588394165
1772561349050526200,2.558526123046875,-0.9287739396095276,0.938467264175415,-0.8317235708236694
1772561349060593200,2.56859326171875,-0.7652995586395264,0.5924981236457825,-1.1349375247955322
1772561349070659000,2.5786591796875,-0.6392996907234192,0.31565240025520325,-1.57345712184906
1772561349080726300,2.588726318359375,-0.4518706500530243,-0.010198666714131832,-2.084298849105835
1772561349090792200,2.598792236328125,-0.23017503321170807,-0.35339921712875366,-2.6184704303741455
1772561349100859100,2.608859130859375,-0.05400692671537399,-0.39472535252571106,-2.983041524887085
1772561349110926000,2.618926025390625,0.08208789676427841,-0.18869183957576752,-3.0589194297790527
1772561349120992300,2.6289921875,0.20384790003299713,-0.15791715681552887,-2.9524569511413574
1772561349131059200,2.63905908203125,0.31258055567741394,-0.3660435080528259,-2.8186874389648438
1772561349141125000,2.649125,0.365736722946167,-0.5980818271636963,-2.6045920848846436
1772561349151192000,2.659192138671875,0.30305010080337524,-0.8649906516075134,-2.3532204627990723
1772561349161259300,2.66925927734375,0.10560441017150879,-1.191227912902832,-2.175811529159546
1772561349171325200,2.6793251953125,-0.11904515326023102,-1.4494898319244385,-2.06205677986145
1772561349181392100,2.68939208984375,-0.3089836835861206,-1.701320767402649,-2.045982599258423
1772561349191458300,2.699458251953125,-0.3840041756629944,-2.047896146774292,-2.0829989910125732
1772561349201525200,2.709525146484375,-0.42885124683380127,-2.519533395767212,-2.1324872970581055
1772561349211592200,2.71959228515625,-0.4878312349319458,-2.932065010070801,-2.176055908203125
1772561349221658000,2.729658203125,-0.6080750226974487,-3.1024038791656494,-2.2050533294677734
1772561349231725300,2.739725341796875,-0.8640286326408386,-3.03853702545166,-2.3298234939575195
1772561349241791000,2.749791015625,-1.2235682010650635,-2.6979544162750244,-2.433652639389038
1772561349251858000,2.75985791015625,-1.541882038116455,-2.1858975887298584,-2.4046013355255127
1772561349261925000,2.769925048828125,-1.7300000190734863,-1.8301666975021362,-2.245896816253662
1772561349271991000,2.779990966796875,-1.7849538326263428,-1.7406730651855469,-1.8271191120147705
1772561349282058000,2.79005810546875,-1.8138763904571533,-1.9306784868240356,-1.073020339012146
1772561349292124200,2.800124267578125,-1.859443187713623,-2.4336533546447754,-0.19936762750148773
1772561349302191000,2.810191162109375,-1.8729875087738037,-3.1068522930145264,0.49150028824806213
1772561349312258000,2.820258056640625,-1.7848145961761475,-3.4767181873321533,0.8036323189735413
1772561349322324000,2.830323974609375,-1.5631769895553589,-3.3749442100524902,0.7805246114730835
1772561349332391000,2.840390869140625,-1.2282637357711792,-2.8764045238494873,0.6966506838798523
1772561349342457000,2.85045703125,-0.7876610159873962,-2.109358549118042,0.6875429749488831
1772561349352524000,2.86052392578125,-0.3871326744556427,-1.193992257118225,0.847194492816925
1772561349362591000,2.870591064453125,-0.060905821621418,-0.11596569418907166,1.2391318082809448
1772561349372657200,2.8806572265625,0.1042291522026062,0.8805233836174011,1.7067407369613647
1772561349382724000,2.89072412109375,-0.007638254202902317,1.3891186714172363,2.00810170173645
1772561349392790000,2.9007900390625,-0.35968679189682007,1.1318260431289673,2.158001661300659
1772561349402857000,2.91085693359375,-0.7887958288192749,0.6176902651786804,2.382154941558838
1772561349412924200,2.920924072265625,-0.9462870359420776,0.8470887541770935,3.08642578125
1772561349422990000,2.930989990234375,-0.6441873908042908,1.5207360982894897,3.890881061553955
1772561349433057000,2.94105712890625,-0.1758371740579605,0.9333319067955017,3.537943124771118
1772561349443123200,2.951123291015625,-0.3826689124107361,0.45948368310928345,2.0323245525360107
1772561349453190100,2.961190185546875,-0.8904005289077759,2.082927942276001,0.7196100354194641
1772561349463257000,2.971257080078125,-1.2380224466323853,4.045123100280762,-0.3158126175403595
1772561349473323000,2.981322998046875,-0.6781414747238159,5.9145941734313965,-0.9213026762008667
1772561349483389400,2.991389404296875,0.9132333397865295,7.24605131149292,-0.6057623028755188
1772561349493455400,3.001455322265625,2.688194990158081,7.59176778793335,0.669757604598999
1772561349503522300,3.011522216796875,3.5399467945098877,6.579035758972168,2.3230059146881104
1772561349513589500,3.021589599609375,3.4219729900360107,5.032720565795898,4.2324347496032715
1772561349523655400,3.031655517578125,2.591478109359741,2.6387181282043457,5.841479301452637
1772561349533722400,3.041722412109375,1.1081957817077637,-0.3705027401447296,6.455013275146484
1772561349543788500,3.05178857421875,-0.4104153513908386,-2.538792848587036,6.334130764007568
1772561349553855500,3.06185546875,-0.8568899035453796,-3.317845344543457,5.869468688964844
1772561349563922400,3.07192236328125,-0.038639798760414124,-3.297013759613037,4.76035213470459
1772561349573988400,3.08198828125,0.9709410667419434,-2.6924126148223877,2.9867312908172607
1772561349584055300,3.09205517578125,1.5480294227600098,-1.5402894020080566,1.0063825845718384
1772561349594121500,3.10212158203125,2.002695083618164,-0.3504743278026581,-0.5043995380401611
1772561349604188400,3.1121884765625,2.3398516178131104,0.46170032024383545,-1.0957226753234863
1772561349614255400,3.12225537109375,2.269869327545166,0.9460527300834656,-0.9583523273468018
1772561349624321500,3.132321533203125,1.6943457126617432,1.3377422094345093,-0.3250121474266052
1772561349634388500,3.142388427734375,0.9790337681770325,1.6660953760147095,0.6047840118408203
1772561349644454400,3.152454345703125,0.4286472797393799,1.498539686203003,1.2773083448410034
1772561349654521300,3.162521240234375,-0.11707720160484314,0.8355069756507874,1.3103506565093994
1772561349664588500,3.172588623046875,-0.6200697422027588,-0.2908562421798706,0.6784648299217224
1772561349674654500,3.182654541015625,-0.9106622934341431,-1.7759463787078857,-0.6055128574371338
1772561349684721400,3.192721435546875,-1.0661969184875488,-2.870197296142578,-2.192098617553711
1772561349694787600,3.20278759765625,-1.0476018190383911,-3.358375072479248,-3.336167573928833
1772561349704854500,3.2128544921875,-0.935783326625824,-3.1614978313446045,-4.0766215324401855
1772561349714921500,3.22292138671875,-0.8853142857551575,-2.455167770385742,-4.529341220855713
1772561349724987400,3.2329873046875,-0.9121126532554626,-1.605128288269043,-4.766532897949219
1772561349735054600,3.2430546875,-1.0376824140548706,-0.8208321332931519,-4.674077987670898
1772561349745120500,3.25312060546875,-1.2141070365905762,-0.19895394146442413,-4.247865676879883
1772561349755187500,3.2631875,-1.3065229654312134,-0.015037641860544682,-3.6705164909362793
1772561349765254400,3.27325439453125,-1.3110830783843994,-0.5856236219406128,-3.2307560443878174
1772561349775320600,3.283320556640625,-1.2571464776992798,-1.6321974992752075,-3.0106661319732666
1772561349785387500,3.293387451171875,-1.17696213722229,-2.6590986251831055,-2.8595683574676514
1772561349795453400,3.303453369140625,-1.133386254310608,-3.482689142227173,-2.6975579261779785
1772561349805520600,3.313520751953125,-1.1617201566696167,-4.060951232910156,-2.476731300354004
1772561349815587600,3.323587646484375,-1.257803201675415,-4.307656764984131,-2.249243974685669
1772561349825653500,3.333653564453125,-1.3701609373092651,-4.096743583679199,-2.161292791366577
1772561349835720400,3.343720458984375,-1.4299756288528442,-3.424407958984375,-2.246429681777954
1772561349845786600,3.35378662109375,-1.363122820854187,-2.5361762046813965,-2.4578208923339844
1772561349855853600,3.363853515625,-1.1633375883102417,-1.8354016542434692,-2.7662932872772217
1772561349865920500,3.37392041015625,-0.8406527638435364,-1.4721022844314575,-3.021167755126953
1772561349875986700,3.383986572265625,-0.41809332370758057,-1.508312463760376,-3.186762809753418
1772561349886053600,3.3940537109375,0.018560152500867844,-1.6336486339569092,-3.201596260070801
1772561349896120600,3.40412060546875,0.4294920265674591,-1.5678021907806396,-3.0509960651397705
1772561349906186500,3.4141865234375,0.7294614911079407,-1.297245740890503,-2.701350688934326
1772561349916253400,3.42425341796875,0.9872816801071167,-0.9196910262107849,-2.2103490829467773
1772561349926319600,3.434319580078125,1.290915608406067,-0.6298296451568604,-1.6633905172348022
1772561349936386600,3.444386474609375,1.5554776191711426,-0.3984653353691101,-1.1557283401489258
1772561349946453500,3.45445361328125,1.8084912300109863,-0.003788044210523367,-0.7940409183502197
1772561349956519700,3.464519775390625,2.0696842670440674,0.6524003744125366,-0.578860878944397
1772561349966586600,3.474586669921875,2.185854911804199,1.5020697116851807,-0.42887723445892334
1772561349976652300,3.48465234375,2.1842193603515625,2.0989205837249756,-0.1518910527229309
1772561349986719500,3.494719482421875,2.0611069202423096,2.1166915893554688,0.35848698019981384
1772561349996786700,3.50478662109375,1.8252865076065063,1.656959056854248,1.0900310277938843
1772561350006852400,3.514852294921875,1.5681079626083374,1.0499980449676514,1.7782864570617676
1772561350016919300,3.524919189453125,1.4219202995300293,0.8709663152694702,2.370147466659546
1772561350026985500,3.5349853515625,1.5212482213974,0.7641527652740479,2.5307836532592773
1772561350037052400,3.545052490234375,1.6602540016174316,-0.20923088490962982,1.9285521507263184
1772561350047119400,3.555119384765625,1.5576362609863281,-0.49348312616348267,1.185295581817627
1772561350057185500,3.565185546875,1.3832937479019165,1.0863144397735596,0.9218452572822571
1772561350067252500,3.57525244140625,1.024670958518982,2.5463273525238037,0.6277395486831665
1772561350077318400,3.585318359375,0.7659514546394348,4.362290859222412,0.5782862305641174
1772561350087385300,3.59538525390625,1.158588171005249,6.0747389793396,1.1143320798873901
1772561350097452300,3.605452392578125,1.923229455947876,6.993371486663818,1.9855488538742065
1772561350107518500,3.6155185546875,2.6671366691589355,6.981555938720703,2.8133134841918945
1772561350117585400,3.62558544921875,2.9184439182281494,5.959700584411621,3.512366533279419
1772561350127651300,3.6356513671875,2.252943992614746,3.9289541244506836,4.1225810050964355
1772561350137718500,3.645718505859375,0.9046189188957214,1.5042002201080322,4.398303985595703
1772561350147785500,3.655785400390625,0.03171380236744881,-0.3220904469490051,4.566990375518799
1772561350157851400,3.665851318359375,-0.10941892862319946,-1.2920066118240356,4.811417579650879
1772561350167918300,3.67591845703125,-0.4153277277946472,-1.1799999475479126,4.838769912719727
1772561350177984500,3.685984619140625,-0.9944640398025513,-0.37029245495796204,4.131954193115234
1772561350188051500,3.696051513671875,-1.215275526046753,0.3169306814670563,2.6918208599090576
1772561350198118400,3.706118408203125,-0.8648147583007812,0.7174648642539978,1.0682153701782227
1772561350208184600,3.7161845703125,-0.3155663311481476,0.8815337419509888,-0.09755593538284302
1772561350218251500,3.72625146484375,0.089898981153965,0.796949565410614,-0.5130846500396729
1772561350228317400,3.7363173828125,0.20274962484836578,0.5473613142967224,-0.30301153659820557
1772561350238384400,3.74638427734375,0.11700521409511566,0.5334134697914124,0.29158109426498413
1772561350248451600,3.75645166015625,0.10425692796707153,1.058699131011963,1.0441752672195435
1772561350258517500,3.766517578125,0.3970416784286499,1.6805894374847412,1.5953325033187866
1772561350268584400,3.77658447265625,0.8003473281860352,1.8619526624679565,1.7073205709457397
1772561350278650600,3.786650634765625,0.9277136325836182,1.5546398162841797,1.3618279695510864
1772561350288717600,3.796717529296875,0.7229999303817749,0.8501996397972107,0.6774195432662964
1772561350298784500,3.806784423828125,0.3365406095981598,0.008523006923496723,-0.17561331391334534
1772561350308850400,3.816850341796875,0.019415931776165962,-0.43353137373924255,-0.9178549647331238
1772561350318917600,3.826917724609375,-0.05876338854432106,-0.3360045850276947,-1.419334888458252
1772561350328983600,3.836983642578125,0.04414301738142967,0.20766618847846985,-1.608441948890686
1772561350339050500,3.847050537109375,0.24020130932331085,0.909868061542511,-1.5152618885040283
1772561350349117400,3.857117431640625,0.48341235518455505,1.3942735195159912,-1.2632865905761719
1772561350359183600,3.86718359375,0.6906918883323669,1.6358667612075806,-0.9652520418167114
1772561350369250600,3.87725048828125,0.8312684297561646,1.7606230974197388,-0.6394065618515015
1772561350379316500,3.88731640625,0.8333116769790649,1.649646520614624,-0.38012126088142395
1772561350389383700,3.8973837890625,0.6636853814125061,1.1509370803833008,-0.28441286087036133
1772561350399450600,3.90745068359375,0.43563464283943176,0.5172085165977478,-0.34311947226524353
1772561350409516500,3.9175166015625,0.2737211287021637,-0.010948498733341694,-0.5529619455337524
1772561350419583500,3.92758349609375,0.15966317057609558,-0.40108829736709595,-0.9744653105735779
1772561350429650400,3.937650390625,0.06537926942110062,-0.5870163440704346,-1.4888242483139038
1772561350439716600,3.947716552734375,-0.12173096835613251,-0.47986900806427,-2.003211736679077
1772561350449783600,3.957783447265625,-0.39478832483291626,-0.1518069952726364,-2.4341275691986084
1772561350459849500,3.967849365234375,-0.5892274379730225,0.4206240475177765,-2.638467788696289
1772561350469916700,3.977916748046875,-0.6283367276191711,1.1023008823394775,-2.5117714405059814
1772561350479983900,3.98798388671875,-0.5016468167304993,1.6401984691619873,-2.0680081844329834
1772561350490049500,3.998049560546875,-0.2758893072605133,1.7339556217193604,-1.4661056995391846
1772561350500116500,4.008116455078125,-0.11131297051906586,1.3371572494506836,-0.9182425737380981
1772561350510182700,4.0181826171875,-0.04461489990353584,0.6908997297286987,-0.5456530451774597
1772561350520249600,4.02824951171875,-0.06461887806653976,0.05550635606050491,-0.37406858801841736
1772561350530316500,4.038316650390625,-0.01306913048028946,-0.3889866769313812,-0.37381690740585327
1772561350540382700,4.0483828125,0.161569282412529,-0.599789559841156,-0.5082718133926392
1772561350550449700,4.05844970703125,0.37734097242355347,-0.5446178913116455,-0.6567875146865845
1772561350560515600,4.068515625,0.5499080419540405,-0.10698524862527847,-0.7486211657524109
1772561350570582500,4.07858251953125,0.6386938095092773,0.6675501465797424,-0.8386141657829285
1772561350580649700,4.088649658203125,0.6131804585456848,1.5183478593826294,-0.969537615776062
1772561350590715600,4.098715576171875,0.5606192350387573,2.177354097366333,-1.1527364253997803
1772561350600782600,4.108782470703125,0.5412000417709351,2.38844895362854,-1.3448622226715088
1772561350610848800,4.118848876953125,0.5441899299621582,1.8939754962921143,-1.4346972703933716
1772561350620915700,4.128915771484375,0.7195475697517395,0.8655540943145752,-1.2131264209747314
1772561350630982700,4.138982666015625,0.9209699034690857,-0.1636282056570053,-0.6783385872840881
1772561350641048600,4.149048583984375,0.7277582883834839,-1.0600814819335938,-0.2641984820365906
1772561350651115800,4.15911572265625,-0.0659494623541832,-1.5779920816421509,-0.43081462383270264
1772561350661181700,4.169181640625,-0.987808346748352,-0.27111944556236267,-0.9015828967094421
1772561350671248600,4.17924853515625,-1.453583002090454,1.575330376625061,-1.764969825744629
1772561350681315600,4.189315673828125,-1.2497364282608032,2.9172611236572266,-2.939225912094116
1772561350691381800,4.1993818359375,-0.08527965098619461,4.632587432861328,-3.3817403316497803
1772561350701448700,4.20944873046875,2.035004138946533,3.423799991607666,-1.3507684469223022
1772561350711514600,4.2195146484375,2.5672049522399902,-1.3547800779342651,1.2653502225875854
1772561350721581800,4.229581787109375,1.283704161643982,-4.328436374664307,1.2698734998703003
1772561350731648800,4.239648681640625,0.2591303586959839,-4.470710754394531,0.6433821320533752
1772561350741714700,4.249714599609375,0.44537490606307983,-4.105981349945068,-0.060374174267053604
1772561350751781600,4.25978173828125,1.130612850189209,-3.2124972343444824,-0.2215106040239334
1772561350761848600,4.2698486328125,1.3785532712936401,-1.8996996879577637,0.10591623187065125
1772561350771914800,4.279914794921875,1.320754885673523,-1.094146490097046,1.0217783451080322
1772561350781981700,4.289981689453125,0.9154504537582397,-1.1447081565856934,2.0712978839874268
1772561350792047600,4.300047607421875,0.11297234892845154,-1.9077565670013428,2.766630172729492
1772561350802114800,4.31011474609375,-0.6376079320907593,-2.8288230895996094,2.8580729961395264
1772561350812181800,4.320181640625,-0.9811341166496277,-2.9984097480773926,2.431507110595703
1772561350822247700,4.33024755859375,-0.9380433559417725,-2.22727108001709,1.6769814491271973
1772561350832314600,4.340314697265625,-0.7529544830322266,-0.9064961075782776,0.7062098383903503
1772561350842380800,4.350380859375,-0.5668548941612244,0.36305591464042664,-0.19520409405231476
1772561350852447700,4.36044775390625,-0.3957982361316681,1.2351353168487549,-0.7819317579269409
1772561350862514700,4.3705146484375,-0.22952800989151,1.8139936923980713,-0.9789332747459412
1772561350872580900,4.380580810546875,-0.03301975131034851,2.2043280601501465,-0.806133508682251
1772561350882647800,4.390647705078125,0.1921014040708542,2.341761350631714,-0.3679409623146057
1772561350892713700,4.400713623046875,0.405303418636322,1.9920804500579834,0.04635477811098099
1772561350902780700,4.41078076171875,0.5144933462142944,1.2500300407409668,0.24269697070121765
1772561350912848000,4.420847900390625,0.4768117368221283,0.35999515652656555,0.219698965549469
1772561350922913800,4.430913818359375,0.30736374855041504,-0.35911598801612854,-0.06827976554632187
1772561350932980700,4.440980712890625,0.11749368160963058,-0.5575276017189026,-0.5926213264465332
1772561350943047000,4.451046875,0.042742226272821426,-0.2207420915365219,-1.2765532732009888
1772561350953113900,4.46111376953125,0.12804487347602844,0.37229007482528687,-2.0024120807647705
1772561350963180800,4.471180908203125,0.3810538351535797,0.9464724659919739,-2.557464122772217
1772561350973246700,4.481246826171875,0.6722191572189331,1.087389588356018,-2.7614731788635254
1772561350983314000,4.49131396484375,0.7852726578712463,0.6730173230171204,-2.6154305934906006
1772561350993380900,4.501380859375,0.5902584791183472,-0.23070028424263,-2.2687885761260986
1772561351003446500,4.511446533203125,0.10301034152507782,-1.3867703676223755,-1.908797025680542
1772561351013513700,4.521513671875,-0.44293978810310364,-2.3697423934936523,-1.6867648363113403
1772561351023579600,4.53157958984375,-0.7455182671546936,-2.89442777633667,-1.6095415353775024
1772561351033646600,4.541646484375,-0.7238393425941467,-2.878558397293091,-1.6147961616516113
1772561351043713800,4.5517138671875,-0.502303421497345,-2.4555885791778564,-1.6354496479034424
1772561351053779700,4.56177978515625,-0.25733259320259094,-1.5925331115722656,-1.3741028308868408
1772561351063846700,4.5718466796875,-0.3140726089477539,-0.8566513061523438,-0.6606934666633606
1772561351073912600,4.58191259765625,-0.7720063328742981,-1.4778032302856445,-0.5538029670715332
1772561351083979500,4.5919794921875,-1.0646358728408813,-2.32572340965271,-0.7311840653419495
1772561351094046700,4.602046630859375,-0.9692670702934265,-2.3724451065063477,-0.7943750023841858
1772561351104112600,4.612112548828125,-0.912017822265625,-1.785903811454773,-0.7290447950363159
1772561351114178600,4.622178466796875,-0.957896888256073,-0.9683589339256287,-0.6406861543655396
1772561351124245800,4.632245849609375,-1.0183990001678467,-0.3375505208969116,-0.5265143513679504
1772561351134312700,4.642312744140625,-1.039689064025879,-0.05511588975787163,-0.3625546991825104
1772561351144378600,4.652378662109375,-1.0797346830368042,0.023800773546099663,-0.14317958056926727
1772561351154445600,4.662445556640625,-1.1673800945281982,0.1817520707845688,0.13236384093761444
1772561351164511700,4.67251171875,-1.130310297012329,0.43924951553344727,0.45824185013771057
1772561351174578700,4.68257861328125,-0.9098812341690063,0.628616213798523,0.8870248794555664
1772561351184645600,4.692645751953125,-0.6233661770820618,0.676676869392395,1.373300313949585
1772561351194711800,4.7027119140625,-0.42335161566734314,0.7203614711761475,1.837750792503357
1772561351204778800,4.71277880859375,-0.3541708290576935,0.8411315679550171,2.2239413261413574
1772561351214845700,4.722845703125,-0.45900028944015503,0.8773683905601501,2.3994264602661133
1772561351224911600,4.73291162109375,-0.7223992347717285,0.8782193064689636,2.2734246253967285
1772561351234978600,4.742978515625,-0.8895576000213623,1.1257747411727905,2.0157971382141113
1772561351245044700,4.753044677734375,-0.8417019844055176,1.3766988515853882,1.5002069473266602
1772561351255111700,4.763111572265625,-0.6360050439834595,1.358426570892334,0.6194871068000793
1772561351265178600,4.7731787109375,-0.3812679946422577,1.3503010272979736,-0.5345218777656555
1772561351275244800,4.783244873046875,-0.21184435486793518,2.4028828144073486,-1.4034818410873413
1772561351285311700,4.793311767578125,-0.07026927173137665,3.9566283226013184,-1.7158013582229614
1772561351295377700,4.803377685546875,0.33629846572875977,4.979964733123779,-1.3520622253417969
1772561351305444600,4.813444580078125,0.31694144010543823,4.082420349121094,-0.35785651206970215
1772561351315511800,4.82351171875,-0.18908154964447021,0.8888577818870544,0.05147692933678627
1772561351325577700,4.83357763671875,0.12432024627923965,-1.4075934886932373,-2.218933343887329
1772561351335644700,4.843644775390625,1.545189619064331,-0.4706628620624542,-4.909335613250732
1772561351345710800,4.8537109375,2.800678253173828,2.363318920135498,-6.2936577796936035
1772561351355777800,4.86377783203125,3.1827938556671143,4.537784576416016,-6.074551105499268
1772561351365844700,4.8738447265625,2.790412664413452,5.0362467765808105,-4.676995754241943
1772561351375910700,4.88391064453125,2.1689748764038086,3.8882830142974854,-2.4535505771636963
1772561351385977900,4.893977783203125,1.6371145248413086,1.3787014484405518,0.2707400619983673
1772561351396044800,4.904044921875,0.9675063490867615,-1.342434287071228,3.0922343730926514
1772561351406110700,4.91411083984375,0.2665311098098755,-3.6052005290985107,5.488861560821533
1772561351416177700,4.924177734375,-0.2469191551208496,-5.017405033111572,6.946366310119629
1772561351426243800,4.934243896484375,-0.4843862056732178,-5.01068639755249,7.132531642913818
1772561351436310800,4.944310791015625,-0.39627766609191895,-3.9707984924316406,5.6733174324035645
1772561351446377700,4.954377685546875,0.061484914273023605,-1.9868955612182617,3.169800043106079
1772561351456444000,4.96444384765625,0.6626264452934265,0.42043453454971313,0.6609784364700317
1772561351466510800,4.9745107421875,1.085677146911621,2.2966911792755127,-1.2303217649459839
1772561351476576800,4.98457666015625,1.2451019287109375,3.295410394668579,-2.1716299057006836
1772561351486643200,4.994643310546875,1.2733792066574097,3.460249185562134,-2.069676160812378
1772561351496711200,5.004711181640625,1.2911605834960938,2.7529497146606445,-1.2772973775863647
1772561351506777300,5.01477734375,1.222927451133728,1.321308970451355,-0.41793739795684814
1772561351516844300,5.02484423828125,0.9071148633956909,-0.03312288969755173,0.07802416384220123
1772561351526910200,5.03491015625,0.5373360514640808,-0.8225731253623962,0.055516552180051804
1772561351536977400,5.044977294921875,0.33522212505340576,-1.051674485206604,-0.4379996955394745
1772561351547044400,5.05504443359375,0.4187641441822052,-0.7166052460670471,-1.1572067737579346
1772561351557110300,5.0651103515625,0.6687396168708801,-0.07372906804084778,-1.9306691884994507
1772561351567177200,5.07517724609375,0.9211828708648682,0.4157925248146057,-2.528573513031006
1772561351577243400,5.085243408203125,1.1241687536239624,0.6957576274871826,-2.754706382751465
1772561351587310300,5.095310302734375,1.2246283292770386,0.5953119397163391,-2.6586318016052246
1772561351597377300,5.105377197265625,1.1325374841690063,0.06267387419939041,-2.3814709186553955
1772561351607443500,5.115443359375,0.8084809184074402,-0.8733798265457153,-2.0206778049468994
1772561351617510400,5.125510498046875,0.3080953359603882,-1.9625293016433716,-1.704583764076233
1772561351627577300,5.135577392578125,-0.12030410766601562,-2.650171995162964,-1.367902159690857
1772561351637643300,5.145643310546875,-0.32706156373023987,-2.7507853507995605,-1.0041288137435913
1772561351647710200,5.155710205078125,-0.36017656326293945,-2.452350616455078,-0.8186835646629333
1772561351657776400,5.1657763671875,-0.3282785415649414,-2.132948398590088,-0.9439187049865723
1772561351667843300,5.17584326171875,-0.3682379424571991,-1.7184988260269165,-1.1808241605758667
1772561351677910300,5.18591015625,-0.4603770971298218,-0.6301658153533936,-0.9247430562973022
1772561351687976400,5.1959765625,-0.7092961668968201,-0.10339559614658356,-0.5237274169921875
1772561351698043400,5.20604345703125,-0.8322793841362,-0.5023296475410461,-0.20978282392024994
1772561351708109300,5.216109375,-0.619979977607727,-0.9942483901977539,0.37744101881980896
1772561351718176300,5.22617626953125,-0.45634493231773376,-1.223785161972046,0.9685453176498413
1772561351728243500,5.236243408203125,-0.5537028312683105,-1.1485542058944702,1.2271499633789062
1772561351738309400,5.246309326171875,-0.7597787380218506,-0.7150874137878418,1.1223963499069214
1772561351748376300,5.256376220703125,-0.8591932058334351,-0.013638706877827644,0.8092882633209229
1772561351758442500,5.2664423828125,-0.8226791620254517,0.5903385281562805,0.483705073595047
1772561351768509400,5.276509521484375,-0.7018903493881226,0.9302332997322083,0.31659838557243347
1772561351778576400,5.286576416015625,-0.5627462863922119,1.1345713138580322,0.42502763867378235
1772561351788642300,5.296642333984375,-0.41696983575820923,1.1866035461425781,0.8216456174850464
1772561351798709500,5.30670947265625,-0.3019886612892151,1.069023609161377,1.352748990058899
1772561351808776400,5.3167763671875,-0.29566502571105957,0.8552972674369812,1.8969911336898804
1772561351818842400,5.32684228515625,-0.4234246015548706,0.5834053158760071,2.281339168548584
1772561351828909300,5.336909423828125,-0.6177194714546204,0.23788051307201385,2.4346439838409424
1772561351838975500,5.3469755859375,-0.8066595792770386,-0.1718212515115738,2.307964563369751
1772561351849042400,5.35704248046875,-0.9232019782066345,-0.6951246857643127,1.9375537633895874
1772561351859109400,5.367109375,-0.924282431602478,-1.2102959156036377,1.4767122268676758
1772561351869175600,5.377175537109375,-1.0353635549545288,-1.2817705869674683,1.0753790140151978
1772561351879242500,5.387242431640625,-1.3066602945327759,-0.5426471829414368,0.41218850016593933
1772561351889308200,5.39730810546875,-1.589839220046997,0.48909005522727966,-0.6137280464172363
1772561351899375400,5.407375244140625,-1.7751203775405884,0.8149133920669556,-1.8043266534805298
1772561351909442300,5.4174423828125,-1.9016542434692383,0.998437762260437,-2.408191204071045
1772561351919508200,5.42750830078125,-1.9992649555206299,0.11841188371181488,-2.407524585723877
1772561351929575200,5.4375751953125,-1.6635568141937256,-2.682610511779785,-3.2857372760772705
1772561351939641300,5.447641357421875,-0.416919469833374,-5.039029598236084,-5.086507320404053
1772561351949708300,5.457708251953125,0.9152024388313293,-3.873283863067627,-6.576068878173828
1772561351959775200,5.467775146484375,1.0856850147247314,-0.5668862462043762,-6.7227325439453125
1772561351969841200,5.477841064453125,0.3359604775905609,1.176572561264038,-5.822041988372803
1772561351979908400,5.487908447265625,-0.3269304037094116,0.5422989130020142,-4.037624835968018
1772561351989974300,5.497974365234375,-0.5816844701766968,-0.9722852110862732,-1.471927523612976
1772561352000041200,5.508041259765625,-0.7420024871826172,-2.2079663276672363,1.3464046716690063
1772561352010108200,5.518108154296875,-1.1836233139038086,-3.2819266319274902,3.8991031646728516
1772561352020174300,5.52817431640625,-1.660300612449646,-4.132874488830566,5.868514060974121
1772561352030241300,5.5382412109375,-1.6181882619857788,-4.241955280303955,6.9733662605285645
1772561352040308200,5.54830810546875,-1.0692636966705322,-3.6108264923095703,7.02509880065918
1772561352050374100,5.5583740234375,-0.3472537100315094,-2.505276679992676,6.319008827209473
1772561352060441300,5.56844140625,-0.01734958216547966,-1.3043922185897827,5.24252986907959
1772561352070507300,5.57850732421875,-0.3728434443473816,-0.3767560124397278,4.005139350891113
1772561352080574200,5.58857421875,-1.1434533596038818,0.2993859648704529,2.8867928981781006
1772561352090641200,5.59864111328125,-1.8583228588104248,1.0243098735809326,1.9673336744308472
1772561352100707300,5.608707275390625,-2.026444673538208,1.6020458936691284,1.2238962650299072
1772561352110774300,5.618774169921875,-1.6595076322555542,1.5656529664993286,0.5450029373168945
1772561352120840200,5.628840087890625,-1.1556642055511475,1.0909250974655151,-0.21009193360805511
1772561352130907400,5.638907470703125,-0.8593170642852783,0.8789758086204529,-1.068407416343689
1772561352140974300,5.648974365234375,-0.7650379538536072,1.2655932903289795,-1.9084078073501587
1772561352151040300,5.659040283203125,-0.6563306450843811,2.1543004512786865,-2.5676705837249756
1772561352161107200,5.669107177734375,-0.372414231300354,3.022186040878296,-2.844437837600708
1772561352171173400,5.67917333984375,-0.01759568229317665,3.41636061668396,-2.6938953399658203
1772561352181240300,5.689240234375,0.2543359696865082,3.240100145339966,-2.1967833042144775
1772561352191307300,5.699307373046875,0.3889133930206299,2.6564929485321045,-1.480552315711975
1772561352201373400,5.70937353515625,0.42210811376571655,1.62611722946167,-0.675556480884552
1772561352211440400,5.7194404296875,0.3257962167263031,0.2129446417093277,0.009710794314742088
1772561352221507300,5.72950732421875,0.19036142528057098,-1.1540018320083618,0.4717007875442505
1772561352231573200,5.7395732421875,0.04721486568450928,-2.1577091217041016,0.721741259098053
1772561352241640400,5.749640380859375,-0.090532086789608,-2.433755397796631,0.7189444303512573
1772561352251706400,5.759706298828125,-0.10664412379264832,-1.9947129487991333,0.32720765471458435
1772561352261773300,5.769773193359375,-0.01683114841580391,-1.2140922546386719,-0.32986557483673096
1772561352271840300,5.77984033203125,0.043665774166584015,-0.4485146701335907,-1.1140071153640747
1772561352281906400,5.789906494140625,0.003910373896360397,-0.1262809932231903,-1.9599205255508423
1772561352291973400,5.799973388671875,-0.1895992010831833,0.08124299347400665,-2.676375389099121
1772561352302039300,5.810039306640625,-0.3482162654399872,0.49394455552101135,-2.926737070083618
1772561352312106500,5.8201064453125,-0.28837406635284424,0.877159833908081,-2.7235450744628906
1772561352322173400,5.83017333984375,-0.17033502459526062,0.9288480281829834,-2.49509596824646
1772561352332239400,5.8402392578125,-0.10549595952033997,1.0684894323349,-2.2654573917388916
1772561352342306300,5.850306396484375,-0.06882982701063156,1.3057358264923096,-1.945369839668274
1772561352352373200,5.860373291015625,-0.11668309569358826,1.3764705657958984,-1.5750528573989868
1772561352362439400,5.870439453125,-0.13461948931217194,1.2079968452453613,-1.1559865474700928
1772561352372506400,5.88050634765625,-0.011366723105311394,0.9005396366119385,-0.6389970779418945
1772561352382572300,5.890572265625,0.18176224827766418,0.6548047065734863,-0.015542050823569298
1772561352392639500,5.900639404296875,0.3691679537296295,0.6372034549713135,0.463670939207077
1772561352402706400,5.91070654296875,0.5041776895523071,0.9543848633766174,0.8099614977836609
1772561352412772400,5.9207724609375,0.6548716425895691,1.292128562927246,1.121722936630249
1772561352422839300,5.93083935546875,0.7394102811813354,1.3055766820907593,1.4063050746917725
1772561352432905500,5.940905517578125,0.7053530216217041,1.1396350860595703,1.6619199514389038
1772561352442972400,5.950972412109375,0.6116436123847961,1.1455172300338745,2.1167452335357666
1772561352453039400,5.961039306640625,0.41443318128585815,0.9173568487167358,2.5818960666656494
1772561352463105500,5.97110546875,0.10661090910434723,0.5113469958305359,2.822918653488159
1772561352473172500,5.98117236328125,-0.19448541104793549,-0.0515526607632637,2.8203701972961426
1772561352483240000,5.991239990234375,-0.5458226799964905,-0.6159257888793945,2.4503157138824463
1772561352493305900,6.001305908203125,-0.9303226470947266,0.09719070047140121,2.040325164794922
1772561352503372800,6.011372802734375,-1.3060219287872314,1.030235767364502,1.5163451433181763
1772561352513439000,6.02143896484375,-1.4531499147415161,2.4285364151000977,1.6175450086593628
1772561352523506000,6.031505859375,-1.824048399925232,1.9795037508010864,2.814310073852539
1772561352533572900,6.04157275390625,-2.0939226150512695,-0.7522889971733093,3.406864643096924
1772561352543638800,6.051638671875,-2.2151172161102295,-3.1639044284820557,2.1188089847564697
1772561352553706000,6.0617060546875,-2.033715009689331,-2.8622994422912598,0.2812436819076538
1772561352563773000,6.07177294921875,-1.4119676351547241,-1.1884349584579468,-1.2276705503463745
1772561352573838600,6.081838623046875,-0.6963455080986023,0.09192919731140137,-2.08907413482666
1772561352583906000,6.091906005859375,-0.18411068618297577,0.23408153653144836,-2.254409074783325
1772561352593971700,6.1019716796875,0.0674716904759407,-0.34732306003570557,-1.6098068952560425
1772561352604038700,6.11203857421875,-0.052451517432928085,-0.9956986904144287,-0.5401397347450256
1772561352614105900,6.12210595703125,-0.3617258071899414,-1.6438568830490112,0.3682050406932831
1772561352624171800,6.132171875,-0.6081720590591431,-2.2421083450317383,0.9146729111671448
1772561352634238700,6.14223876953125,-0.6238272190093994,-2.587557792663574,1.0925343036651611
1772561352644304600,6.1523046875,-0.3794628083705902,-2.4725515842437744,0.9619720578193665
1772561352654371800,6.162371826171875,-0.039227358996868134,-1.8916192054748535,0.6512337327003479
1772561352664438800,6.172438720703125,0.45124462246894836,-1.1086863279342651,0.3709900677204132
1772561352674504700,6.182504638671875,1.0284037590026855,-0.3069439232349396,0.3170722723007202
1772561352684571600,6.192571533203125,1.4730224609375,0.35268059372901917,0.5612207651138306
1772561352694638800,6.202638916015625,1.647563099861145,0.7658495903015137,1.0586509704589844
1772561352704704800,6.212704833984375,1.5862188339233398,0.8248671293258667,1.5645532608032227
1772561352714771700,6.222771728515625,1.348574161529541,0.4816876947879791,1.8374218940734863
1772561352724838000,6.232837890625,1.052568793296814,-0.19327528774738312,1.7156983613967896
1772561352734904800,6.24290478515625,0.8046097159385681,-0.7929198145866394,1.1732667684555054
1772561352744971800,6.2529716796875,0.6835017204284668,-0.9685196280479431,0.3019595146179199
1772561352755037700,6.26303759765625,0.6389458179473877,-0.5685871243476868,-0.6967366933822632
1772561352765105000,6.27310498046875,0.6787984371185303,0.30261892080307007,-1.5855776071548462
1772561352775170800,6.2831708984375,0.7074189186096191,1.219489336013794,-2.213425636291504
1772561352785237800,6.29323779296875,0.7014451622962952,1.7098332643508911,-2.480050802230835
1772561352795304700,6.3033046875,0.6339374780654907,1.5714821815490723,-2.4567644596099854
1772561352805371000,6.313370849609375,0.5073835253715515,0.8781284689903259,-2.189610242843628
1772561352815437800,6.323437744140625,0.25743353366851807,-0.007825834676623344,-1.801889419555664
1772561352825504800,6.3335048828125,-0.0714505985379219,-0.7750313878059387,-1.4415661096572876
1772561352835570700,6.34357080078125,-0.26935335993766785,-1.2616487741470337,-1.127250075340271
1772561352845638000,6.353637939453125,-0.2095520943403244,-1.5626733303070068,-0.8130660653114319
1772561352855703800,6.363703857421875,0.03006366454064846,-1.789476990699768,-0.4808672070503235
1772561352865770800,6.373770751953125,0.3255555033683777,-2.0984199047088623,-0.2472749650478363
1772561352875837700,6.383837646484375,0.5002447962760925,-2.343290090560913,-0.12574054300785065
1772561352885904000,6.39390380859375,0.3401206135749817,-2.3749349117279053,0.045507628470659256
1772561352895970800,6.403970703125,-0.17193304002285004,-1.6737533807754517,0.502110481262207
1772561352906036700,6.41403662109375,-0.7011188268661499,-1.2326524257659912,0.9381889700889587
1772561352916104000,6.42410400390625,-0.974594235420227,-1.57987642288208,0.5879799127578735
1772561352926171000,6.4341708984375,-0.8363796472549438,-1.4098727703094482,0.10974141210317612
1772561352936236800,6.44423681640625,-0.7168554663658142,-0.5726658701896667,-0.3790207803249359
1772561352946303700,6.4543037109375,-0.7581339478492737,0.3376811444759369,-0.7914724946022034
1772561352956371000,6.464370849609375,-0.924991250038147,0.9687955975532532,-0.9578383564949036
1772561352966436900,6.474436767578125,-1.167506456375122,1.2480416297912598,-0.9352717995643616
1772561352976503800,6.48450390625,-1.3330106735229492,1.4532685279846191,-0.7043942809104919
1772561352986570000,6.494570068359375,-1.3420475721359253,1.6826313734054565,-0.31423133611679077
1772561352996637000,6.504636962890625,-1.208580493927002,1.8585284948349,0.23862329125404358
1772561353006703900,6.514703857421875,-0.980073869228363,1.7287484407424927,0.8866246938705444
1772561353016769800,6.524769775390625,-0.7179466485977173,1.4616259336471558,1.4965229034423828
1772561353026837000,6.5348369140625,-0.5417020916938782,1.2622592449188232,1.980364203453064
1772561353036904000,6.544904052734375,-0.5101951360702515,1.2018178701400757,2.3698909282684326
1772561353046969900,6.554969970703125,-0.615497350692749,1.1955846548080444,2.5885746479034424
1772561353057036800,6.565036865234375,-0.664664089679718,1.2519274950027466,2.7100696563720703
1772561353067103000,6.57510302734375,-0.6500880718231201,1.222075343132019,2.6191577911376953
1772561353077170000,6.585169921875,-0.6165879368782043,1.0091744661331177,2.0194153785705566
1772561353087236900,6.59523681640625,-0.5813907980918884,0.8076781034469604,0.7523499131202698
1772561353097303000,6.605302978515625,-0.6743717193603516,1.4017060995101929,-0.7732148766517639
1772561353107370000,6.615369873046875,-0.7426295876502991,1.8267353773117065,-2.287668466567993
1772561353117436000,6.625435791015625,-0.549457848072052,2.0855278968811035,-3.3776166439056396
1772561353127502800,6.6355029296875,0.022164370864629745,3.0020017623901367,-2.6682369709014893
1772561353137569800,6.64556982421875,0.8331436514854431,1.620441198348999,-0.139535591006279
1772561353147636000,6.655635986328125,0.5859591364860535,-0.5012688636779785,0.5016984343528748
1772561353157703000,6.665702880859375,0.06143249571323395,-0.6870017051696777,0.8140957951545715
1772561353167769900,6.675769775390625,-0.23416081070899963,-0.016468917950987816,1.4239438772201538
1772561353177836000,6.6858359375,-0.02986738830804825,-0.16257227957248688,1.877619981765747
1772561353187903000,6.695903076171875,0.25387829542160034,-0.5092527866363525,2.152189016342163
1772561353197968600,6.70596875,0.3377212584018707,-0.599500298500061,2.629286766052246
1772561353208035600,6.71603564453125,0.22934018075466156,-0.7899988889694214,3.275784730911255
1772561353218103000,6.72610302734375,0.04987654089927673,-1.331200361251831,3.605851411819458
1772561353228168700,6.736168701171875,0.021188171580433846,-1.7149031162261963,3.5998523235321045
1772561353238235600,6.746235595703125,0.12822742760181427,-1.6563979387283325,3.1841681003570557
1772561353248302800,6.756302734375,0.2903926372528076,-1.1608086824417114,2.3881008625030518
1772561353258368800,6.76636865234375,0.44663897156715393,-0.16692446172237396,1.4501193761825562
1772561353268435700,6.776435791015625,0.589467465877533,0.9511592388153076,0.5168440341949463
1772561353278501600,6.786501708984375,0.7663905620574951,1.8333572149276733,-0.11149178445339203
1772561353288568800,6.79656884765625,0.9951646327972412,2.4532406330108643,-0.24864670634269714
1772561353298635800,6.8066357421875,1.2053190469741821,2.5229833126068115,-0.040336642414331436
1772561353308701700,6.81670166015625,1.281460165977478,1.822629451751709,0.28178414702415466
1772561353318768600,6.8267685546875,1.1547707319259644,0.6563238501548767,0.41931769251823425
1772561353328834800,6.836834716796875,0.9454358816146851,-0.27231454849243164,0.16459538042545319
1772561353338901800,6.84690185546875,0.8084554672241211,-0.4947860538959503,-0.45973724126815796
1772561353348968700,6.85696875,0.877263069152832,-0.09559952467679977,-1.2799454927444458
1772561353359035000,6.867034912109375,1.1226705312728882,0.6547605991363525,-2.028585910797119
1772561353369101800,6.877101806640625,1.3627878427505493,1.3604053258895874,-2.4754323959350586
1772561353379168800,6.887168701171875,1.4978820085525513,1.7351622581481934,-2.546753406524658
1772561353389234700,6.897234619140625,1.5939851999282837,1.7519444227218628,-2.2243053913116455
1772561353399302000,6.907302001953125,1.6329700946807861,1.3187530040740967,-1.6562695503234863
1772561353409367800,6.917367919921875,1.4384446144104004,0.27566099166870117,-1.0245041847229004
1772561353419434800,6.927434814453125,1.0395666360855103,-1.0052417516708374,-0.42998072504997253
1772561353429501700,6.937501708984375,0.732516884803772,-1.8709616661071777,0.018359504640102386
1772561353439568000,6.94756787109375,0.654890775680542,-2.0275871753692627,0.18026037514209747
1772561353449634800,6.957634765625,0.736094057559967,-1.6264091730117798,-0.012074189260601997
1772561353459701800,6.96770166015625,0.8173698782920837,-1.0275216102600098,-0.5164546370506287
1772561353469768000,6.977767822265625,0.8244948983192444,-0.4717145264148712,-1.176775574684143
1772561353479835000,6.9878349609375,0.7293438911437988,-0.03750041872262955,-1.7721247673034668
1772561353489900800,6.99790087890625,0.5036249756813049,0.27803462743759155,-2.0884053707122803
1772561353499967700,7.0079677734375,0.23966462910175323,0.5434742569923401,-2.0699450969696045
1772561353510034700,7.01803466796875,0.07331587374210358,0.8292348980903625,-1.6887195110321045
1772561353520100900,7.028100830078125,-0.014300605282187462,0.8371103405952454,-1.1207239627838135
1772561353530167800,7.038167724609375,-0.057045936584472656,0.28930234909057617,-0.7000645399093628
1772561353540234800,7.04823486328125,-0.055267542600631714,-0.4067637622356415,-0.39065271615982056
1772561353550301000,7.058301025390625,-0.04548894986510277,-0.784296989440918,-0.1690652221441269
1772561353560367900,7.068367919921875,-0.11013153195381165,-0.8249814510345459,-0.0025835782289505005
1772561353570433800,7.078433837890625,-0.23273707926273346,-0.576474666595459,0.0927133783698082
1772561353580500700,7.088500732421875,-0.33900687098503113,-0.1577562540769577,0.1355861872434616
1772561353590568000,7.09856787109375,-0.4252016842365265,0.19021210074424744,0.17721539735794067
1772561353600633600,7.108633544921875,-0.48939236998558044,0.4177490174770355,0.26811453700065613
1772561353610700800,7.11870068359375,-0.5474423766136169,0.5674503445625305,0.4475362002849579
1772561353620766700,7.1287666015625,-0.6921596527099609,0.5471537709236145,0.6985799074172974
1772561353630833700,7.138833740234375,-0.8372835516929626,0.4939379394054413,1.0489052534103394
1772561353640900900,7.14890087890625,-0.8185416460037231,0.38038840889930725,1.42666494846344
1772561353650966500,7.158966552734375,-0.6462809443473816,0.12563681602478027,1.7337620258331299
1772561353661033700,7.16903369140625,-0.5563824772834778,-0.3816673159599304,1.8657299280166626
1772561353671101000,7.179100830078125,-0.7048174738883972,-0.8881217241287231,1.6697497367858887
1772561353681166600,7.18916650390625,-1.0142064094543457,-0.7679757475852966,1.2809054851531982
1772561353691233500,7.199233642578125,-1.2284412384033203,-0.11876843124628067,0.9486925601959229
1772561353701299700,7.2092998046875,-1.3060951232910156,0.43693962693214417,0.6040815711021423
1772561353711366700,7.21936669921875,-1.1900222301483154,1.0579884052276611,0.39456430077552795
1772561353721433600,7.22943359375,-1.050256609916687,1.1407573223114014,0.34059569239616394
1772561353731499800,7.239499755859375,-0.5082970261573792,0.4004281461238861,0.2820626199245453
1772561353741566700,7.249566650390625,0.130277618765831,0.026743950322270393,0.14938929677009583
1772561353751632600,7.259632568359375,0.5626357197761536,0.5953152775764465,0.32823601365089417
1772561353761699600,7.269699462890625,0.5292109251022339,1.5625319480895996,1.0184069871902466
1772561353771766800,7.279766845703125,0.24629904329776764,1.5890687704086304,1.7932605743408203
1772561353781832700,7.289832763671875,0.04802471399307251,0.508744478225708,2.4159653186798096
1772561353791899600,7.299899658203125,0.08498326689004898,-0.7112370729446411,3.052821159362793
1772561353801966600,7.309966552734375,0.18144631385803223,-1.711465835571289,3.7273106575012207
1772561353812032800,7.32003271484375,-0.013004384934902191,-2.2318270206451416,4.158977031707764
1772561353822099700,7.330099609375,-0.4652866721153259,-2.2712457180023193,4.026008605957031
1772561353832165600,7.34016552734375,-0.8398541808128357,-1.8404074907302856,3.2718658447265625
1772561353842232800,7.35023291015625,-1.0144184827804565,-1.0193597078323364,2.0540497303009033
1772561353852299800,7.3602998046875,-1.0408607721328735,-0.01276337169110775,0.6796011924743652
1772561353862365700,7.37036572265625,-1.0702849626541138,0.745121955871582,-0.4270898699760437
1772561353872432600,7.3804326171875,-1.090980887413025,1.225049376487732,-0.9927266836166382
1772561353882499600,7.39049951171875,-1.0044723749160767,1.4151488542556763,-1.027976632118225
1772561353892565800,7.400565673828125,-0.718183159828186,1.4338942766189575,-0.6326761841773987
1772561353902632700,7.4106328125,-0.23272614181041718,1.4351798295974731,0.04112248122692108
1772561353912698600,7.42069873046875,0.3022794723510742,1.4213180541992188,0.7376078367233276
1772561353922765800,7.430765869140625,0.7719706296920776,1.1391507387161255,1.2322348356246948
1772561353932832800,7.440832763671875,1.012522578239441,0.6482158303260803,1.4795032739639282
1772561353942898700,7.450898681640625,1.0647094249725342,0.12063513696193695,1.3933204412460327
1772561353952965600,7.460965576171875,1.0281085968017578,-0.5361536145210266,0.7877366542816162
1772561353963032800,7.47103271484375,0.9754303693771362,-0.9175893068313599,-0.2236570566892624
1772561353973098800,7.4810986328125,0.9198305010795593,-0.8074651956558228,-1.4387820959091187
1772561353983165700,7.491165771484375,0.8162860870361328,-0.33886662125587463,-2.639777183532715
1772561353993232000,7.50123193359375,0.6583968997001648,0.18097788095474243,-3.5867726802825928
1772561354003298800,7.511298828125,0.45748206973075867,0.6433167457580566,-4.132509231567383
1772561354013365800,7.52136572265625,0.31961873173713684,0.848172128200531,-4.28433084487915
1772561354023431700,7.531431640625,0.34877631068229675,0.4503479599952698,-4.172386169433594
1772561354033499000,7.541498779296875,0.2961330711841583,-0.5569069981575012,-4.144839286804199
1772561354043565800,7.55156591796875,0.1404581069946289,-1.6748191118240356,-4.211263656616211
1772561354053631700,7.5616318359375,-0.01054899301379919,-2.370258092880249,-4.200477600097656
1772561354063698700,7.57169873046875,-0.06529319286346436,-2.5832736492156982,-4.073977947235107
1772561354073764900,7.581764892578125,0.08746492862701416,-2.4793291091918945,-3.8564236164093018
1772561354083831800,7.591831787109375,0.37146440148353577,-2.0945870876312256,-3.4898550510406494
1772561354093898800,7.601898681640625,0.5382091999053955,-1.586273431777954,-2.920036554336548
1772561354103965000,7.61196484375,0.4191350042819977,-1.1273168325424194,-2.1141862869262695
1772561354114031900,7.622031982421875,0.16092902421951294,-0.8700739145278931,-1.0956549644470215
1772561354124097800,7.632097900390625,-0.054893478751182556,-1.0701509714126587,-0.06290543079376221
1772561354134164700,7.642164794921875,-0.06309947371482849,-1.999695897102356,0.49928390979766846
1772561354144231700,7.652231689453125,0.10687101632356644,-2.782029151916504,0.5429142713546753
1772561354154297900,7.6622978515625,0.3120284378528595,-2.747102975845337,0.3910733163356781
1772561354164364800,7.67236474609375,0.15852995216846466,-2.116093873977661,0.0567382276058197
1772561354174431700,7.682431640625,-0.3527162969112396,-1.2805986404418945,-0.33285829424858093
1772561354184498000,7.692497802734375,-0.9031540751457214,-0.5576607584953308,-0.7150156497955322
1772561354194564900,7.70256494140625,-1.1116005182266235,0.06756207346916199,-0.9356971383094788
1772561354204630800,7.712630859375,-1.0555042028427124,0.6540634632110596,-0.9048303365707397
1772561354214697700,7.72269775390625,-1.0865156650543213,1.1156493425369263,-0.5941643118858337
1772561354224765000,7.732764892578125,-1.25154709815979,1.3311164379119873,-0.011230876669287682
1772561354234830800,7.742830810546875,-1.3595420122146606,1.227901577949524,0.7176209092140198
1772561354244897800,7.752897705078125,-1.2868928909301758,0.8831596970558167,1.446478247642517
1772561354254964700,7.76296484375,-1.1570887565612793,0.7101297974586487,2.1148295402526855
1772561354265030700,7.77303076171875,-0.9723435640335083,0.8623154163360596,2.735830068588257
1772561354275097900,7.783097900390625,-0.7813704013824463,0.9122568368911743,2.9836087226867676
1772561354285163500,7.79316357421875,-0.7244542837142944,0.8862321972846985,2.8320536613464355
1772561354295230700,7.803230712890625,-0.9045215249061584,1.408400535583496,2.5118067264556885
1772561354305298000,7.8132978515625,-1.1404935121536255,1.6184113025665283,1.6850918531417847
1772561354315363600,7.823363525390625,-1.1933634281158447,1.605137825012207,0.33256787061691284
1772561354325430500,7.833430419921875,-0.6331876516342163,2.2393250465393066,-0.7035918831825256
1772561354335496700,7.84349658203125,0.4336629807949066,3.362217903137207,-0.5997560024261475
1772561354345563600,7.853563720703125,0.9321029782295227,2.5585415363311768,-0.04570538550615311
1772561354355630600,7.863630615234375,1.4947333335876465,1.1687418222427368,0.6321095824241638
1772561354365696800,7.87369677734375,1.6022465229034424,0.9386127591133118,1.6858752965927124
1772561354375763700,7.883763671875,1.0760468244552612,0.2928638756275177,2.1436057090759277
1772561354385830700,7.89383056640625,0.7804380059242249,-0.8514625430107117,2.0772173404693604
1772561354395896600,7.903896484375,0.800309419631958,-1.5141911506652832,1.6048041582107544
1772561354405963800,7.9139638671875,0.8332861065864563,-1.1731985807418823,1.174805998802185
1772561354416029700,7.92402978515625,0.6155269145965576,-0.5135468244552612,0.7986611723899841
1772561354426096600,7.9340966796875,0.21256370842456818,-0.16877560317516327,0.3507917821407318
1772561354436163600,7.94416357421875,-0.09622529149055481,-0.004126994404941797,-0.21162842214107513
1772561354446229800,7.954229736328125,-0.19204652309417725,0.1865481734275818,-0.7472438216209412
1772561354456296700,7.964296630859375,-0.1828112155199051,0.46102339029312134,-1.134440541267395
1772561354466363600,7.97436376953125,-0.21696005761623383,0.9175596833229065,-1.2669038772583008
1772561354476429800,7.984429931640625,-0.23592150211334229,1.720636248588562,-0.9448351263999939
1772561354486497000,7.9944970703125,-0.10630179196596146,2.4329640865325928,-0.15388675034046173
1772561354496563000,8.00456298828125,0.1402195692062378,2.6224379539489746,0.8590471148490906
1772561354506630000,8.0146298828125,0.3599887490272522,2.083327531814575,1.8156191110610962
1772561354516696800,8.02469677734375,0.4786674678325653,1.0841144323349,2.5905590057373047
1772561354526763000,8.034762939453126,0.5695783495903015,-0.014013446867465973,3.1127421855926514
1772561354536830000,8.044829833984375,0.5241860747337341,-1.3397241830825806,2.9581613540649414
1772561354546897000,8.05489697265625,0.3328388035297394,-2.301854133605957,2.165351152420044
1772561354556963000,8.064963134765625,0.34391969442367554,-2.461094617843628,1.006218433380127
1772561354567030000,8.075030029296874,0.47549763321876526,-1.8904485702514648,-0.3446245789527893
1772561354577096000,8.085095947265625,0.6669299006462097,-0.8509751558303833,-1.6531221866607666
1772561354587163000,8.095162841796874,0.84565669298172,0.3171226680278778,-2.6624505519866943
1772561354597230000,8.10522998046875,1.0248117446899414,0.9440086483955383,-3.2811310291290283
1772561354607296000,8.1152958984375,1.0915615558624268,0.778891384601593,-3.53851318359375
1772561354617363000,8.125363037109375,1.0054609775543213,0.09651815891265869,-3.4007949829101562
1772561354627430000,8.135429931640624,0.7958270311355591,-0.7360702753067017,-3.079871416091919
1772561354637496000,8.14549609375,0.538285493850708,-1.3777556419372559,-2.689897298812866
1772561354647563000,8.15556298828125,0.3975830078125,-1.7523753643035889,-2.1556918621063232
1772561354657629000,8.16562890625,0.390414297580719,-1.866997241973877,-1.6812174320220947
1772561354667695900,8.17569580078125,0.3927382528781891,-1.6123647689819336,-1.442397952079773
1772561354677763000,8.18576318359375,0.283394455909729,-1.0461434125900269,-1.438066840171814
1772561354687829000,8.1958291015625,0.05851513892412186,-0.5009457468986511,-1.5534194707870483
1772561354697896000,8.20589599609375,-0.13457521796226501,-0.23254279792308807,-1.7050987482070923
1772561354707962000,8.215962158203125,-0.2845965325832367,-0.4543406367301941,-1.9424971342086792
1772561354718029000,8.226029052734376,-0.3201787769794464,-0.737899899482727,-2.1105833053588867
1772561354728096000,8.236095947265625,-0.34710514545440674,-0.7903758883476257,-2.145840883255005
1772561354738162000,8.246161865234376,-0.4553234875202179,-0.6289486885070801,-2.092782735824585
1772561354748229000,8.25622900390625,-0.5946908593177795,-0.33237797021865845,-1.9776804447174072
1772561354758296000,8.266296142578126,-0.6833791732788086,-0.04904933273792267,-1.811968445777893
1772561354768362000,8.276362060546875,-0.7117490768432617,0.17154434323310852,-1.578000545501709
1772561354778429000,8.286428955078126,-0.6577399373054504,0.31385621428489685,-1.1749194860458374
1772561354788495000,8.2964951171875,-0.5591167211532593,0.22803916037082672,-0.5958511829376221
1772561354798562000,8.30656201171875,-0.5193317532539368,-0.04971228912472725,0.0570477657020092
1772561354808629000,8.31662890625,-0.5511882901191711,-0.1720607578754425,0.718001663684845
1772561354818695000,8.32669482421875,-0.6265770196914673,-0.02899014949798584,1.2431135177612305
1772561354828762000,8.33676220703125,-0.6515716314315796,0.39911115169525146,1.651108741760254
1772561354838829000,8.3468291015625,-0.5429873466491699,0.8042066693305969,1.9924792051315308
1772561354848894700,8.356894775390625,-0.48789507150650024,0.7888668775558472,2.1257224082946777
1772561354858962200,8.366962158203124,-0.6468136310577393,0.3628394305706024,1.9991488456726074
1772561354869027800,8.37702783203125,-1.0868332386016846,0.02215806022286415,1.4973578453063965
1772561354879094800,8.3870947265625,-1.595159649848938,0.692909300327301,0.8273882865905762
1772561354889162000,8.397161865234375,-2.0558128356933594,2.2202537059783936,0.13230551779270172
1772561354899228000,8.407227783203124,-2.148759603500366,3.178515911102295,-0.6601876020431519
1772561354909294800,8.417294921875,-1.8710105419158936,3.9795844554901123,-1.265910029411316
1772561354919361800,8.42736181640625,-1.3561656475067139,4.312564849853516,-1.562744140625
1772561354929428000,8.437427978515625,-0.9413009285926819,3.9471564292907715,-1.5371317863464355
1772561354939495000,8.447494873046875,-0.2497558295726776,3.004206418991089,-1.6923202276229858
1772561354949560800,8.457560791015625,0.6500396132469177,2.942354202270508,-1.2512660026550293
1772561354959627800,8.467627685546875,1.0263872146606445,1.9430689811706543,-0.8145884871482849
1772561354969695000,8.477695068359376,1.2414630651474,0.48981818556785583,0.003116042586043477
1772561354979761000,8.487760986328125,1.0932543277740479,-0.5936865210533142,1.0180288553237915
1772561354989827800,8.497827880859376,0.6619647741317749,-1.3015965223312378,1.9323352575302124
1772561354999894000,8.50789404296875,0.29659053683280945,-1.9936429262161255,2.3950679302215576
1772561355009961000,8.5179609375,0.03917459398508072,-2.2819910049438477,2.283308506011963
1772561355020028000,8.52802783203125,-0.18139506876468658,-1.8744277954101562,1.5911483764648438
1772561355030093800,8.53809375,-0.2629810869693756,-0.9168537259101868,0.4820806384086609
1772561355040160800,8.548160888671875,-0.08116069436073303,0.19718730449676514,-0.6981079578399658
1772561355050228000,8.55822802734375,0.26109352707862854,0.8674343824386597,-1.4980933666229248
1772561355060294000,8.5682939453125,0.6530378460884094,1.0908223390579224,-1.6471707820892334
1772561355070360800,8.57836083984375,1.0816317796707153,1.0687243938446045,-1.1167343854904175
1772561355080427000,8.588427001953125,1.3874433040618896,0.9621603488922119,0.0009239346254616976
1772561355090494000,8.598493896484374,1.4488153457641602,0.7602023482322693,1.3049037456512451
1772561355100561000,8.608560791015625,1.320694088935852,0.26785334944725037,2.3109848499298096
1772561355110626000,8.6186259765625,1.0430313348770142,-0.4557245671749115,2.7659387588500977
1772561355120693000,8.62869287109375,0.758074939250946,-1.0378724336624146,2.5682740211486816
1772561355130760000,8.638760009765624,0.5919504165649414,-1.1445465087890625,1.7511097192764282
1772561355140826000,8.648826171875,0.5071966052055359,-0.6428410410881042,0.4199417233467102
1772561355150893000,8.65889306640625,0.4871827960014343,0.38480961322784424,-1.0829004049301147
1772561355160959000,8.668958984375,0.5139417052268982,1.4361085891723633,-2.26157283782959
1772561355171026000,8.67902587890625,0.5317938327789307,2.1480135917663574,-2.858828544616699
1772561355181092900,8.6890927734375,0.4784989058971405,2.350511312484741,-2.914537191390991
1772561355191159000,8.699158935546874,0.4378288686275482,2.055558681488037,-2.5247716903686523
1772561355201226000,8.70922607421875,0.41003745794296265,1.316489577293396,-1.8210476636886597
1772561355211293000,8.71929296875,0.2756202816963196,0.1601601243019104,-1.0360091924667358
1772561355221359000,8.729359130859375,0.07217235118150711,-1.1569511890411377,-0.41788551211357117
1772561355231426000,8.739426025390625,-0.043706461787223816,-2.1333048343658447,-0.053361546248197556
1772561355241492000,8.749491943359375,0.0657675638794899,-2.4381539821624756,0.07644917815923691
1772561355251559000,8.759558837890625,0.3437901735305786,-2.2013890743255615,-0.031238675117492676
1772561355261626000,8.769626220703126,0.5019758343696594,-1.934823751449585,-0.30962714552879333
1772561355271692000,8.779692138671875,0.3205409049987793,-1.9657267332077026,-0.6242501139640808
1772561355281759000,8.789759033203126,-0.08544816821813583,-2.2405927181243896,-0.8599121570587158
1772561355291826000,8.799825927734375,-0.47545507550239563,-2.5018887519836426,-0.9805780053138733
1772561355301892000,8.80989208984375,-0.7108611464500427,-2.487072467803955,-0.8621048927307129
1772561355311959000,8.819958984375,-0.8690669536590576,-2.1119253635406494,-0.4124220907688141
1772561355322025000,8.83002490234375,-1.0901719331741333,-1.874085783958435,0.22401350736618042
1772561355332092200,8.840092041015625,-1.2730242013931274,-2.0096147060394287,0.4031100571155548
1772561355342159000,8.8501591796875,-1.3160663843154907,-1.9877945184707642,0.15154573321342468
1772561355352225000,8.86022509765625,-1.2405112981796265,-1.4573503732681274,-0.31904464960098267
1772561355362292000,8.8702919921875,-1.2033476829528809,-0.6670156717300415,-0.8364979028701782
1772561355372359000,8.88035888671875,-1.2323710918426514,0.08087129145860672,-1.1555770635604858
1772561355382424800,8.8904248046875,-1.2515863180160522,0.6549302935600281,-1.1439331769943237
1772561355392492000,8.900491943359375,-1.1890031099319458,1.0361676216125488,-0.79856276512146
1772561355402558000,8.910557861328124,-1.059725046157837,1.23281729221344,-0.10268861800432205
1772561355412625000,8.920625,-0.8738033771514893,1.235088586807251,0.8355816602706909
1772561355422692000,8.930692138671875,-0.5988562107086182,1.2440088987350464,1.9122827053070068
1772561355432757800,8.9407578125,-0.2949855327606201,1.3673737049102783,2.9263980388641357
1772561355442825000,8.950824951171874,0.026249218732118607,1.4320285320281982,3.5511081218719482
1772561355452891000,8.960890869140625,0.34331244230270386,1.3091765642166138,3.8349239826202393
1772561355462957800,8.970957763671874,0.5151337385177612,0.6649819016456604,3.729142904281616
1772561355473024800,8.981024658203125,0.6545129418373108,-0.2411022186279297,3.5314548015594482
1772561355483091000,8.991091064453125,0.6176595687866211,-0.39462438225746155,3.4382479190826416
1772561355493158000,9.001157958984376,0.29569920897483826,-0.32171475887298584,2.94930100440979
1772561355503224800,9.011224853515625,-0.017024893313646317,0.09945325553417206,1.945419192314148
1772561355513291800,9.021291748046876,0.10211801528930664,1.2507585287094116,0.5802240967750549
1772561355523358000,9.03135791015625,0.5979946255683899,2.4036736488342285,-0.6129999160766602
1772561355533425000,9.0414248046875,1.0955342054367065,2.5946712493896484,-1.254957675933838
1772561355543490800,9.05149072265625,1.2259143590927124,2.076085090637207,-1.0266520977020264
1772561355553557800,9.061557861328126,0.799268364906311,0.9364933371543884,-0.2537263035774231
1772561355563625000,9.071625,0.1181526929140091,-0.33017846941947937,0.7311793565750122
1772561355573691000,9.08169091796875,-0.5556429028511047,-1.1916992664337158,1.2850838899612427
1772561355583757800,9.0917578125,-0.7911832332611084,-1.206126093864441,1.2682000398635864
1772561355593824000,9.101823974609376,-0.5983524322509766,-0.7218301892280579,1.0132331848144531
1772561355603891000,9.111890869140625,-0.4790872633457184,-0.44816264510154724,0.7309284806251526
1772561355613958000,9.1219580078125,-0.6212674975395203,-0.6667953133583069,0.5775203704833984
1772561355624023800,9.13202392578125,-0.8026447296142578,-0.980983316898346,0.5112598538398743
1772561355634091000,9.142091064453124,-0.786318838596344,-1.0584361553192139,0.3942802846431732
1772561355644158000,9.152157958984375,-0.595561683177948,-1.0393288135528564,0.19485853612422943
1772561355654224000,9.162223876953124,-0.3640148341655731,-1.0007041692733765,-0.08991043269634247
1772561355664290800,9.172290771484375,-0.18062183260917664,-0.8630739450454712,-0.35577699542045593
1772561355674357000,9.18235693359375,-0.0560055635869503,-0.540702760219574,-0.5450116395950317
1772561355684424000,9.192423828125,0.08071233332157135,0.05230069160461426,-0.595951497554779
1772561355694491000,9.202490966796875,0.25875309109687805,0.8220198750495911,-0.3111876845359802
1772561355704557000,9.21255712890625,0.4307573437690735,1.2410917282104492,0.2389255315065384
1772561355714624000,9.2226240234375,0.6138865351676941,1.0694748163223267,0.895264744758606
1772561355724691000,9.23269091796875,0.6132332682609558,0.34153813123703003,1.332942008972168
1772561355734756900,9.2427568359375,0.35764992237091064,-0.6404138207435608,1.3028967380523682
1772561355744823800,9.25282373046875,0.06947589665651321,-1.3640230894088745,0.7998446226119995
1772561355754890000,9.262889892578125,-0.010779871605336666,-1.4035223722457886,-0.024863487109541893
1772561355764957000,9.27295703125,0.07307108491659164,-0.7376854419708252,-0.9372822046279907
1772561355775023900,9.28302392578125,0.117882639169693,0.27676936984062195,-1.7872555255889893
1772561355785090000,9.293090087890626,0.0989353135228157,1.125672459602356,-2.418999195098877
1772561355795157000,9.303156982421875,0.05874248966574669,1.5893235206604004,-2.6779465675354004
1772561355805224000,9.313223876953124,-0.04311090335249901,1.4714951515197754,-2.622631072998047
1772561355815289900,9.323289794921875,-0.2936970591545105,0.809577226638794,-2.3655524253845215
1772561355825357000,9.333357177734374,-0.5638020038604736,-0.021946094930171967,-2.0697600841522217
1772561355835422700,9.343422607421875,-0.7018442749977112,-0.6465779542922974,-1.9433196783065796
1772561355845490000,9.353489990234374,-0.6820910573005676,-0.8473483324050903,-2.0327610969543457
1772561355855556900,9.363556884765625,-0.5135610103607178,-0.7067006826400757,-2.2331748008728027
1772561355865622800,9.373622802734374,-0.30423495173454285,-0.4329628646373749,-2.414182186126709
1772561355875689700,9.383689697265625,-0.14786778390407562,-0.27680790424346924,-2.533926010131836
1772561355885757000,9.3937568359375,-0.10645803064107895,-0.26334482431411743,-2.544551372528076
1772561355895822800,9.40382275390625,-0.0944681391119957,-0.2942686676979065,-2.3887252807617188
1772561355905889800,9.413889892578124,0.04492969438433647,-0.3636091351509094,-1.9936937093734741
1772561355915955700,9.423955810546875,0.3839728832244873,-0.5651903748512268,-1.2066371440887451
1772561355926022700,9.434022705078124,0.7569438219070435,-1.0325218439102173,-0.10461762547492981
1772561355936089900,9.44408984375,0.8332405686378479,-1.68448805809021,0.9009746313095093
1772561355946155800,9.45415576171875,0.47045010328292847,-2.1027143001556396,1.661935567855835
1772561355956222700,9.46422265625,-0.18507638573646545,-2.114375114440918,1.9321062564849854
1772561355966289700,9.47428955078125,-0.7037405967712402,-1.8949520587921143,1.6217100620269775
1772561355976355800,9.48435595703125,-0.723633348941803,-1.538450837135315,0.9310397505760193
1772561355986422800,9.4944228515625,-0.37266066670417786,-0.988674521446228,0.15647318959236145
1772561355996488700,9.50448876953125,-0.10715121775865555,-0.2448594719171524,-0.3422364890575409
1772561356006556000,9.514555908203125,-0.16494926810264587,0.3539786636829376,-0.45877987146377563
1772561356016622800,9.524622802734376,-0.398826003074646,0.6876553297042847,-0.2283080369234085
1772561356026688800,9.534688720703125,-0.5963931083679199,0.6529927253723145,0.29291146993637085
1772561356036755700,9.544755615234376,-0.7773445844650269,0.37196972966194153,1.0090943574905396
1772561356046823000,9.554822998046875,-0.8901689052581787,0.12240438163280487,1.7100836038589478
1772561356056888800,9.564888916015626,-0.9181757569313049,0.2069081962108612,2.200251817703247
1772561356066955800,9.574955810546875,-0.6419740319252014,0.6160435080528259,2.523834705352783
1772561356077022000,9.58502197265625,-0.27935662865638733,0.6187329292297363,2.438786029815674
1772561356087089000,9.5950888671875,-0.092021644115448,0.5901997685432434,1.9585821628570557
1772561356097155800,9.60515576171875,-0.12356898933649063,1.3571888208389282,1.363761067390442
1772561356107221800,9.6152216796875,-0.23556849360466003,1.9297196865081787,0.2855660021305084
1772561356117288700,9.625288818359374,-0.044969458132982254,2.218754768371582,-0.8908388018608093
1772561356127356000,9.63535595703125,0.5894477367401123,2.410932779312134,-1.5683956146240234
1772561356137421800,9.645421875,1.387435793876648,2.6231770515441895,-1.5073769092559814
1772561356147488800,9.65548876953125,1.9248223304748535,2.4369654655456543,-0.6304741501808167
1772561356157555000,9.665554931640624,1.9662967920303345,1.43910813331604,0.8459866046905518
1772561356167622000,9.675621826171875,1.5502750873565674,0.04205701872706413,2.533388376235962
1772561356177688800,9.685688720703125,0.7584153413772583,-1.396820068359375,3.6626698970794678
1772561356187754800,9.695754638671875,0.053696613758802414,-2.3165476322174072,3.966495990753174
1772561356197822000,9.705822021484375,-0.0815715491771698,-2.368751049041748,3.685389280319214
1772561356207889000,9.715888916015626,0.06482534855604172,-1.7081091403961182,3.0978286266326904
1772561356217954800,9.725954833984375,-0.041797153651714325,-0.8198834657669067,2.421229600906372
1772561356228021800,9.736021728515626,-0.45120251178741455,-0.24958643317222595,1.5444735288619995
1772561356238088000,9.746087890625,-0.9713748097419739,0.08869792520999908,0.5841424465179443
1772561356248155000,9.75615478515625,-1.2713305950164795,0.26410436630249023,-0.34876447916030884
1772561356258221800,9.766221923828125,-1.1835919618606567,0.4095126986503601,-1.037717342376709
1772561356268288000,9.7762880859375,-0.8426544070243835,0.779533863067627,-1.2243160009384155
1772561356278355000,9.78635498046875,-0.5653184652328491,1.247397541999817,-0.9273827075958252
1772561356288422000,9.796421875,-0.5034790635108948,1.7959500551223755,-0.1754351556301117
1772561356298487800,9.80648779296875,-0.5086137652397156,2.1933705806732178,0.903342068195343
1772561356308555000,9.816554931640624,-0.3835279941558838,1.9409525394439697,1.8527286052703857
1772561356318621000,9.826620849609375,-0.10372975468635559,0.9762991070747375,2.2723443508148193
1772561356328687900,9.83668798828125,0.09667657315731049,-0.5400038957595825,1.9417319297790527
1772561356338754800,9.8467548828125,0.014702675864100456,-1.8515987396240234,1.0268539190292358
1772561356348821000,9.856821044921874,-0.10714200139045715,-2.1778740882873535,-0.24385127425193787
1772561356358888000,9.866887939453125,-0.10238251835107803,-1.5471199750900269,-1.6029846668243408
1772561356368955000,9.876954833984374,0.014573662541806698,-0.34982365369796753,-2.7968380451202393
1772561356379021000,9.88702099609375,0.13132421672344208,0.9000200629234314,-3.586474895477295
1772561356389088000,9.897087890625,0.18943464756011963,1.5440096855163574,-3.856642007827759
1772561356399154000,9.90715380859375,0.16277876496315002,1.4482804536819458,-3.6759719848632812
1772561356409220900,9.917220947265625,0.09972097724676132,0.6077762842178345,-3.2104551792144775
1772561356419287800,9.927287841796876,-0.004889218136668205,-0.8459582328796387,-2.752150297164917
1772561356429354000,9.93735400390625,-0.20524601638317108,-2.3603804111480713,-2.476270914077759
1772561356439421000,9.9474208984375,-0.40671610832214355,-3.2303848266601562,-2.4039576053619385
1772561356449488000,9.95748779296875,-0.40038204193115234,-3.3171980381011963,-2.475193500518799
1772561356459554000,9.967553955078126,-0.13802416622638702,-2.7604246139526367,-2.631868839263916
1772561356469621000,9.97762109375,0.22246770560741425,-1.8265191316604614,-2.7356369495391846
1772561356479687000,9.98768701171875,0.49510249495506287,-0.919684112071991,-2.601605176925659
1772561356489753600,9.997753662109375,0.5404316186904907,-0.4243318736553192,-2.1576993465423584
1772561356499820500,10.007820556640626,0.36629045009613037,-0.2298608422279358,-1.3682315349578857
1772561356509886500,10.017886474609375,0.08764658868312836,-0.22604826092720032,-0.43830034136772156
1772561356519953400,10.027953369140626,-0.2700427770614624,-0.4275287687778473,0.2536924481391907
1772561356530020400,10.038020263671875,-0.5696726441383362,-0.7375614643096924,0.5033395886421204
1772561356540086500,10.04808642578125,-0.5799272060394287,-0.8995040655136108,0.40108370780944824
1772561356550153500,10.058153564453125,-0.37357297539711,-0.779262900352478,0.18339131772518158
1772561356560219600,10.0682197265625,-0.22922806441783905,-0.49927544593811035,0.00031550973653793335
1772561356570286600,10.07828662109375,-0.27766987681388855,-0.11307847499847412,-0.011099332012236118
1772561356580353500,10.088353515625,-0.44541385769844055,0.2669869065284729,0.1009102612733841
1772561356590419500,10.09841943359375,-0.556969940662384,0.5856650471687317,0.16109637916088104
1772561356600486400,10.108486328125,-0.5732908248901367,0.6786512136459351,0.12261846661567688
1772561356610553600,10.1185537109375,-0.5703456401824951,0.5949962735176086,0.10581152886152267
1772561356620619500,10.12861962890625,-0.5768526792526245,0.5943123698234558,0.3262157142162323
1772561356630686500,10.1386865234375,-0.5110952258110046,0.7411518692970276,0.8547059297561646
1772561356640752600,10.148752685546874,-0.4208829402923584,0.8930696249008179,1.6328898668289185
1772561356650819600,10.158819580078125,-0.32163411378860474,1.0302791595458984,2.6264150142669678
1772561356660886500,10.168886474609375,-0.14545762538909912,0.9686978459358215,3.6148386001586914
1772561356670952400,10.178952392578125,0.013032158836722374,0.02842007763683796,4.181247234344482
1772561356681019600,10.18901953125,-0.049212630838155746,-2.1503241062164307,3.8922154903411865
1772561356691086600,10.199086669921876,-0.42896315455436707,-3.983448028564453,2.789217472076416
1772561356701152500,10.209152587890625,-0.9087173938751221,-3.3308775424957275,1.6743073463439941
1772561356711219500,10.219219482421876,-1.3151782751083374,-1.4457238912582397,0.48853084444999695
1772561356721285600,10.22928564453125,-1.1546686887741089,1.227378010749817,-0.47950708866119385
1772561356731352600,10.2393525390625,-0.32212966680526733,3.8662075996398926,-0.4302263557910919
1772561356741419500,10.24941943359375,0.4237387478351593,5.4484639167785645,0.7367140650749207
1772561356751485700,10.259485595703126,0.5670199990272522,4.876436233520508,2.1960277557373047
1772561356761552600,10.269552734375,0.07412365823984146,2.7462122440338135,3.54813289642334
1772561356771619600,10.27961962890625,-0.7999822497367859,0.7009968757629395,4.786130905151367
1772561356781685500,10.289685546875,-1.4616727828979492,-1.0877125263214111,5.201607704162598
1772561356791752700,10.299752685546874,-1.4455715417861938,-2.0920257568359375,4.739938735961914
1772561356801818600,10.309818603515625,-0.8226749897003174,-1.7991496324539185,3.908418893814087
1772561356811885600,10.319885498046874,-0.3680313527584076,-0.7925238609313965,2.783597707748413
1772561356821952500,10.329952392578125,-0.32154351472854614,0.17668774724006653,1.5042991638183594
1772561356832018700,10.340018798828124,-0.4459882378578186,0.6395059823989868,0.27531638741493225
1772561356842085600,10.350085693359375,-0.5530056357383728,0.47430986166000366,-0.7586252093315125
1772561356852152600,10.360152587890624,-0.6296671032905579,-0.13681289553642273,-1.4765572547912598
1772561356862218500,10.370218505859375,-0.6598643064498901,-0.9168740510940552,-1.896942138671875
1772561356872285700,10.38028564453125,-0.6385917663574219,-1.4198524951934814,-1.9479411840438843
1772561356882351600,10.3903515625,-0.6244747042655945,-1.4719164371490479,-1.601141095161438
1772561356892418600,10.40041845703125,-0.6930164694786072,-0.9983232617378235,-0.970625638961792
1772561356902485500,10.410485595703125,-0.8168309330940247,-0.037332262843847275,-0.20201000571250916
1772561356912551700,10.4205517578125,-0.8805654048919678,0.9486663937568665,0.4620548188686371
1772561356922618600,10.43061865234375,-0.662214994430542,1.3953520059585571,0.741089403629303
1772561356932685600,10.440685546875,-0.2722248435020447,0.9963774681091309,0.4707995355129242
1772561356942751700,10.450751708984376,-0.023790128529071808,0.08303897082805634,-0.29169827699661255
1772561356952818700,10.460818603515625,0.09911501407623291,-0.7372934818267822,-1.227874517440796
1772561356962884600,10.470884521484376,0.20261156558990479,-1.1409226655960083,-2.1339187622070312
1772561356972951600,10.48095166015625,0.37711837887763977,-1.0391230583190918,-2.797226905822754
1772561356983018800,10.491018798828126,0.6493357419967651,-0.49597758054733276,-3.1524229049682617
1772561356993084700,10.501084716796875,0.8776232600212097,0.13459159433841705,-3.2213685512542725
1772561357003151600,10.511151611328126,1.0337140560150146,0.4952417314052582,-2.9978153705596924
1772561357013218600,10.521218505859375,1.084496021270752,0.36298277974128723,-2.6134445667266846
1772561357023284700,10.53128466796875,0.9109683036804199,-0.37523308396339417,-2.272688627243042
1772561357033351700,10.5413515625,0.48943039774894714,-1.6253656148910522,-2.152550458908081
1772561357043417300,10.551417236328126,0.014625760726630688,-2.817986488342285,-2.333305835723877
1772561357053484800,10.56148486328125,-0.25353777408599854,-3.564159631729126,-2.671132802963257
1772561357063551700,10.5715517578125,-0.2265430986881256,-3.86116623878479,-3.051161766052246
1772561357073617400,10.581617431640625,-0.10149463266134262,-3.6627495288848877,-3.391150951385498
1772561357083684600,10.5916845703125,-0.12819206714630127,-3.047931671142578,-3.597484827041626
1772561357093751600,10.60175146484375,-0.529134213924408,-2.2283525466918945,-3.5859975814819336
1772561357103817500,10.6118173828125,-1.229756236076355,-1.4167968034744263,-3.3857369422912598
1772561357113884700,10.621884765625,-1.7856796979904175,-0.9087967276573181,-2.8989648818969727
1772561357123950600,10.63195068359375,-2.0081021785736084,-0.8921981453895569,-2.0959312915802
1772561357134017500,10.642017578125,-2.0585262775421143,-1.4822421073913574,-1.0512638092041016
1772561357144084500,10.65208447265625,-2.2164833545684814,-2.4734742641448975,0.14215578138828278
1772561357154150400,10.662150390625,-2.574981927871704,-3.4475584030151367,1.1576998233795166
1772561357164217600,10.672217529296875,-2.9628071784973145,-3.99509334564209,1.943756103515625
1772561357174284500,10.682284423828126,-3.3197712898254395,-4.100871562957764,2.3541860580444336
1772561357184350500,10.6923505859375,-3.3626859188079834,-3.888073682785034,2.176379442214966
1772561357194417400,10.70241748046875,-3.1111762523651123,-3.2699639797210693,1.3152042627334595
1772561357204484400,10.712484375,-2.7015140056610107,-1.8067817687988281,-0.0755123570561409
1772561357214550500,10.722550537109376,-2.2709171772003174,0.43656715750694275,-1.4347662925720215
1772561357224617500,10.732617431640625,-1.9277863502502441,2.8158371448516846,-2.2142882347106934
1772561357234683400,10.742683349609376,-1.4510762691497803,4.618678569793701,-2.174548625946045
1772561357244750600,10.75275048828125,-0.7679072022438049,5.727726936340332,-1.446571946144104
1772561357254817500,10.762817626953124,0.0039839185774326324,6.045525074005127,-0.4852496385574341
1772561357264883500,10.772883544921875,0.6349204182624817,5.518179416656494,0.38011857867240906
1772561357274950400,10.782950439453124,1.2267993688583374,4.189846515655518,1.052320122718811
1772561357285017600,10.793017578125,1.957107424736023,2.4743659496307373,1.819338321685791
1772561357295083500,10.80308349609375,2.5176491737365723,0.8408901691436768,2.5721447467803955
1772561357305150500,10.813150390625,2.7204325199127197,0.12422715872526169,2.9018144607543945
1772561357315216600,10.823216552734374,3.076220989227295,0.4468699097633362,2.7259914875030518
1772561357325283600,10.83328369140625,3.8378665447235107,1.6878215074539185,2.2941956520080566
1772561357335350500,10.8433505859375,4.5909647941589355,3.119560956954956,2.0049736499786377
1772561357345416400,10.85341650390625,4.9444580078125,3.5909252166748047,2.047907829284668
1772561357355483600,10.863483642578124,4.857794284820557,3.1227052211761475,2.7363507747650146
1772561357365550600,10.873550537109375,4.439317226409912,2.023507833480835,3.9373743534088135
1772561357375616500,10.883616455078124,3.3558456897735596,0.47436782717704773,4.909051418304443
1772561357385683500,10.893683349609375,1.9317721128463745,-0.9854897260665894,5.272137641906738
1772561357395749600,10.90374951171875,0.7783083319664001,-1.4315630197525024,5.098127841949463
1772561357405816600,10.913816650390626,0.08757302910089493,-0.7495616674423218,4.360213756561279
1772561357415883500,10.923883544921875,-0.19274678826332092,0.3402852714061737,3.058804988861084
1772561357425949700,10.93394970703125,-0.26839470863342285,1.2714000940322876,1.5360326766967773
1772561357436016600,10.9440166015625,-0.32545265555381775,1.9394209384918213,0.1454612761735916
1772561357446083600,10.95408349609375,-0.34548860788345337,2.2773921489715576,-0.9032526612281799
1772561357456149500,10.9641494140625,-0.3044740557670593,2.2367138862609863,-1.4637337923049927
1772561357466216400,10.974216552734376,-0.24230502545833588,1.8517894744873047,-1.500396490097046
1772561357476282600,10.98428271484375,-0.2567627727985382,1.2518929243087769,-1.1739422082901
1772561357486350600,10.9943505859375,-0.3417739272117615,0.8704099059104919,-0.6435608267784119
1772561357496417500,11.00441748046875,-0.38411208987236023,0.9011747241020203,-0.004422455094754696
1772561357506483500,11.0144833984375,-0.2868986129760742,1.028464913368225,0.53230220079422
1772561357516550700,11.024550537109375,-0.0654091089963913,0.9624965786933899,0.7744706273078918
1772561357526617600,11.03461767578125,0.20778463780879974,0.6172216534614563,0.6439521908760071
1772561357536683500,11.04468359375,0.43118390440940857,0.0529092513024807,0.10399837791919708
1772561357546750500,11.05475048828125,0.5892202258110046,-0.4685118496417999,-0.707622766494751
1772561357556816400,11.06481640625,0.6647272109985352,-0.6565483212471008,-1.5896347761154175
1772561357566883600,11.074883544921875,0.7242220640182495,-0.485797256231308,-2.3586273193359375
1772561357576950500,11.084950439453126,0.7633798718452454,0.06307865679264069,-2.8399460315704346
1772561357587016400,11.095016357421875,0.8053239583969116,0.7585788369178772,-2.9861576557159424
1772561357597083400,11.10508349609375,0.8443078398704529,1.335709810256958,-2.7935128211975098
1772561357607150600,11.115150634765625,0.9389336705207825,1.5365735292434692,-2.389885663986206
1772561357617216300,11.12521630859375,1.0833481550216675,1.1862350702285767,-1.9888211488723755
1772561357627283500,11.135283447265625,1.1515719890594482,0.3928675055503845,-1.6994911432266235
1772561357637350700,11.1453505859375,1.0781893730163574,-0.5862916111946106,-1.5216737985610962
1772561357647416300,11.155416259765625,0.9357099533081055,-1.379101037979126,-1.4039573669433594
1772561357657483300,11.165483154296876,0.843096137046814,-1.7104469537734985,-1.2802263498306274
1772561357667549400,11.175549560546875,0.8332018852233887,-1.7362101078033447,-1.2252295017242432
1772561357677616400,11.185616455078126,0.8202048540115356,-1.489992618560791,-1.3061352968215942
1772561357687683300,11.195683349609375,0.731099545955658,-1.006836175918579,-1.4901385307312012
1772561357697749500,11.20574951171875,0.645475447177887,-0.44191044569015503,-1.685315728187561
1772561357707816400,11.21581640625,0.6040863990783691,-0.0529509037733078,-1.8218673467636108
1772561357717883400,11.22588330078125,0.6389093995094299,0.21855489909648895,-1.7569894790649414
1772561357727949300,11.23594921875,0.7676452398300171,0.28907862305641174,-1.4513719081878662
1772561357738016300,11.246016357421874,0.8939352631568909,0.04413147270679474,-1.087361216545105
1772561357748082400,11.25608251953125,1.0141310691833496,-0.15147830545902252,-0.6629276275634766
1772561357758149400,11.2661494140625,1.2266459465026855,-0.3155849575996399,-0.18334025144577026
1772561357768216300,11.27621630859375,1.471090316772461,-0.5120906829833984,0.2250765860080719
1772561357778282500,11.286282470703124,1.6448074579238892,-0.8073902726173401,0.5368714928627014
1772561357788349400,11.296349365234375,1.718085527420044,-1.1609210968017578,0.8114338517189026
1772561357798416400,11.30641650390625,1.7180663347244263,-1.5157822370529175,1.1210317611694336
1772561357808482300,11.316482421875,1.586238145828247,-1.7758692502975464,1.459499716758728
1772561357818549500,11.326549560546875,1.3237625360488892,-1.9953306913375854,1.8048396110534668
1772561357828615400,11.336615478515625,1.082176923751831,-2.0059235095977783,2.1632027626037598
1772561357838682400,11.346682373046875,1.024726390838623,-1.5512877702713013,2.41935658454895
1772561357848749300,11.356749267578126,1.0429134368896484,-0.8152590394020081,2.4867379665374756
1772561357858815500,11.3668154296875,1.1489030122756958,-0.20429950952529907,2.337308168411255
1772561357868882400,11.37688232421875,1.418906331062317,0.22871550917625427,1.8908525705337524
1772561357878949400,11.386949462890625,1.7657066583633423,0.47674795985221863,1.2267611026763916
1772561357889015600,11.397015625,1.9594167470932007,0.3505524694919586,0.40460148453712463
1772561357899082500,11.40708251953125,1.8352892398834229,0.11187996715307236,-0.46397650241851807
1772561357909149400,11.4171494140625,1.4928144216537476,0.35222741961479187,-1.1287459135055542
1772561357919215400,11.42721533203125,1.083797812461853,0.6302542090415955,-1.505961298942566
1772561357929282300,11.4372822265625,0.8225120306015015,1.164780616760254,-1.3853882551193237
1772561357939348500,11.447348388671875,0.693664014339447,1.7764911651611328,-1.0352041721343994
1772561357949415400,11.45741552734375,0.5466607213020325,2.2763233184814453,-0.6946557760238647
1772561357959482400,11.467482421875,0.41625845432281494,2.73454213142395,-0.5017989873886108
1772561357969548500,11.477548583984374,0.25510522723197937,2.8685221672058105,-0.6472700238227844
1772561357979615500,11.487615478515625,0.09445773810148239,2.668363332748413,-1.0584324598312378
1772561357989682400,11.497682373046874,-0.07077234238386154,2.140240430831909,-1.5824538469314575
1772561357999748400,11.507748291015625,-0.15826410055160522,1.6479703187942505,-2.1463990211486816
1772561358009815600,11.517815673828125,0.013403169810771942,1.3131448030471802,-2.6559159755706787
1772561358019881500,11.527881591796875,0.2542070150375366,1.1845428943634033,-2.9307525157928467
1772561358029948400,11.537948486328125,0.355904221534729,1.248255729675293,-2.872234582901001
1772561358040015400,11.548015380859376,0.38744935393333435,1.3070727586746216,-2.6023216247558594
1772561358050081500,11.55808154296875,0.3393521010875702,1.277408242225647,-2.295609712600708
1772561358060148500,11.5681484375,0.13195602595806122,1.0474355220794678,-1.8914210796356201
1772561358070215400,11.57821533203125,-0.2901478409767151,1.1399524211883545,-1.4292997121810913
1772561358080281600,11.588281494140626,-0.6986464262008667,1.1513714790344238,-0.9756821990013123
1772561358090348500,11.5983486328125,-0.9343677759170532,1.3035554885864258,-0.475829154253006
1772561358100414500,11.60841455078125,-1.003818154335022,2.1046648025512695,-0.004830717574805021
1772561358110481400,11.6184814453125,-0.8953933715820312,2.3216702938079834,0.41272827982902527
1772561358120548600,11.628548583984376,-0.5485273003578186,1.9091567993164062,0.7250262498855591
1772561358130614500,11.638614501953125,-0.1617060750722885,1.5219062566757202,0.9112994074821472
1772561358140681500,11.648681396484376,0.1126522421836853,1.3105093240737915,0.9781671166419983
1772561358150748400,11.65874853515625,0.29954400658607483,1.1951624155044556,0.9517130851745605
1772561358160814600,11.668814697265624,0.5276946425437927,1.2332624197006226,0.8801531791687012
1772561358170881500,11.678881591796875,0.8260766267776489,1.4334098100662231,0.7593750357627869
1772561358180948500,11.688948486328124,1.1004475355148315,1.5840061902999878,0.5706745982170105
1772561358191014700,11.6990146484375,1.2723830938339233,1.447165608406067,0.29031720757484436
1772561358201081600,11.70908154296875,1.3172736167907715,0.9900532364845276,-0.029696213081479073
1772561358211147500,11.7191474609375,0.8293688297271729,0.254523366689682,0.21165505051612854
1772561358221214500,11.72921435546875,-0.036431215703487396,0.5902747511863708,0.6502726078033447
1772561358231281400,11.739281494140625,-0.7475007772445679,0.42223984003067017,0.8888347148895264
1772561358241347600,11.74934765625,-1.0601441860198975,0.23879863321781158,0.821915328502655
1772561358251414500,11.75941455078125,-1.191632628440857,-0.15762455761432648,0.6051859259605408
1772561358261481500,11.7694814453125,-1.3402329683303833,-0.6185572743415833,0.4209039807319641
1772561358271547600,11.779547607421875,-1.4109408855438232,-0.9316412210464478,0.21729254722595215
1772561358281614600,11.789614501953125,-1.3914744853973389,-1.141855239868164,-0.026955801993608475
1772561358291680300,11.79968017578125,-1.3164185285568237,-1.3393720388412476,-0.3428397476673126
1772561358301747500,11.80974755859375,-1.1823773384094238,-1.3943068981170654,-0.6909260749816895
1772561358311814700,11.819814697265626,-1.0771074295043945,-1.2323681116104126,-1.060054063796997
1772561358321880300,11.82988037109375,-1.0386676788330078,-1.002774953842163,-1.3946470022201538
1772561358331947500,11.839947509765626,-1.0345947742462158,-0.7495208382606506,-1.6701390743255615
1772561358342014500,11.850014404296875,-0.9518862962722778,-0.16223253309726715,-1.7011523246765137
1772561358352080400,11.860080322265626,-0.6970115900039673,1.0937200784683228,-1.3322354555130005
1772561358362147300,11.870147216796875,-0.44422221183776855,2.054023504257202,-0.8253346681594849
1772561358372213200,11.880213134765626,-0.2829115688800812,2.280101776123047,-0.31369712948799133
1772561358382280400,11.890280517578125,-0.2561614513397217,1.9812473058700562,0.037832122296094894
1772561358392347400,11.900347412109374,-0.33000868558883667,1.4266762733459473,0.2221960723400116
1772561358402413300,11.910413330078125,-0.40350446105003357,1.0686278343200684,0.28233692049980164
1772561358412480300,11.920480224609374,-0.3701881766319275,1.403039574623108,0.1957273781299591
1772561358422547500,11.93054736328125,-0.3128545880317688,1.375158667564392,0.14010725915431976
1772561358432613400,11.94061328125,-0.21352888643741608,0.5208166241645813,0.16116318106651306
1772561358442680300,11.950680419921875,0.01853204518556595,-0.6711106896400452,0.08872147649526596
1772561358452746500,11.96074658203125,0.33263325691223145,-1.3538306951522827,0.019383162260055542
1772561358462813400,11.9708134765625,0.5977551341056824,-1.3197280168533325,0.15272124111652374
1772561358472880400,11.98088037109375,0.7440885901451111,-1.1977649927139282,0.29871779680252075
1772561358482946300,11.9909462890625,0.7407580018043518,-1.2448946237564087,0.31301552057266235
1772561358493012500,12.001012451171874,0.6077727675437927,-1.277518391609192,0.2793632745742798
1772561358503079400,12.011079345703125,0.3841535449028015,-1.1609687805175781,0.24946793913841248
1772561358513145300,12.021145263671874,0.1020561084151268,-1.093858242034912,0.22717541456222534
1772561358523212500,12.031212646484375,-0.1407727748155594,-1.2457033395767212,0.2138042151927948
1772561358533278500,12.041278564453124,-0.24242885410785675,-1.2396175861358643,0.26754894852638245
1772561358543345400,12.051345458984375,-0.18828412890434265,-1.0800734758377075,0.3622267246246338
1772561358553412400,12.061412353515625,-0.030465126037597656,-0.8684511184692383,0.474592387676239
1772561358563478500,12.071478515625,0.17127278447151184,-0.6618170142173767,0.6030094623565674
1772561358573545500,12.08154541015625,0.3604907989501953,-0.5109719634056091,0.7132055163383484
1772561358583612400,12.0916123046875,0.5039774179458618,-0.45292308926582336,0.7894662022590637
1772561358593678600,12.1016787109375,0.6095141768455505,-0.4341089129447937,0.8542316555976868
1772561358603745500,12.11174560546875,0.6845892071723938,-0.3608754575252533,0.934692919254303
1772561358613812500,12.1218125,0.7017443776130676,-0.22332991659641266,1.0196365118026733
1772561358623878400,12.13187841796875,0.6782279014587402,-0.05926854908466339,1.0853122472763062
1772561358633945300,12.1419453125,0.6317140460014343,0.05804755166172981,1.1200014352798462
1772561358644011500,12.152011474609376,0.5729977488517761,0.16057951748371124,1.108481764793396
1772561358654078500,12.162078369140625,0.502002477645874,0.2091427892446518,1.0749303102493286
1772561358664145400,12.1721455078125,0.40874284505844116,0.26079294085502625,1.022681474685669
1772561358674211600,12.182211669921875,0.33686375617980957,0.3049590289592743,0.9395350813865662
1772561358684278500,12.192278564453124,0.3061748445034027,0.24038110673427582,0.818581223487854
1772561358694345500,12.202345458984375,0.2996515929698944,0.10118076950311661,0.6819139122962952
1772561358704411400,12.212411376953124,0.3078559935092926,-0.019985603168606758,0.5834435820579529
1772561358714478600,12.222478515625,0.32543137669563293,-0.037718500941991806,0.5278000831604004
1772561358724544500,12.23254443359375,0.3357495367527008,0.00001822458580136299,0.5114232301712036
1772561358734611500,12.242611572265625,0.3396936357021332,0.05705936998128891,0.5057185292243958
1772561358744678400,12.252678466796874,0.3339068591594696,0.1382860392332077,0.4931659698486328
1772561358754744600,12.26274462890625,0.3152088224887848,0.2771731913089752,0.47256284952163696
1772561358764811500,12.2728115234375,0.2890893220901489,0.50315922498703,0.4464907646179199
1772561358774878500,12.28287841796875,0.2507948577404022,0.7664792537689209,0.3939054608345032
1772561358784944600,12.292944580078125,0.1952088177204132,0.9649380445480347,0.3228723108768463
1772561358795011600,12.303011474609375,0.14802660048007965,1.065710186958313,0.21957245469093323
1772561358805078500,12.31307861328125,0.11602072417736053,1.0105289220809937,0.11053971201181412
1772561358815144400,12.32314453125,0.11433946341276169,0.7747341990470886,0.03880095109343529
1772561358825211600,12.333211669921875,0.15515266358852386,0.45475882291793823,0.03410792723298073
1772561358835277600,12.343277587890626,0.2125018835067749,0.1478542536497116,0.08609408140182495
1772561358845344500,12.353344482421875,0.2704072594642639,-0.0782633051276207,0.15767745673656464
1772561358855411500,12.363411376953126,0.32690301537513733,-0.17014183104038239,0.2519456446170807
1772561358865477600,12.3734775390625,0.31723546981811523,-0.05431269481778145,0.48210054636001587
1772561358875544600,12.383544677734376,0.3452797532081604,-0.06709649413824081,0.4633568823337555
1772561358885611500,12.393611572265625,0.3352561295032501,-0.1462661325931549,0.32692262530326843
1772561358895677400,12.403677490234376,0.35596418380737305,-0.2718493938446045,0.19808429479599
1772561358905744600,12.41374462890625,0.3571002781391144,-0.38599061965942383,0.09739071130752563
1772561358915810300,12.423810302734376,0.3161943554878235,-0.4678952693939209,0.03310828283429146
1772561358925877200,12.433877197265625,0.20552588999271393,-0.47667941451072693,0.029525265097618103
