time,seconds_elapsed,z,y,x
1772562312737501000,0.0665009765625,-0.13133154721856116,-0.07621843954473734,-0.2311072783635929
1772562312747567900,0.07656787109375,0.07769991027414798,-0.06863660611361265,-0.1209584025684744
1772562312757635800,0.0866357421875,0.2772515917599201,-0.09701134446561335,-0.0006636150078848004
1772562312767702800,0.096702880859375,0.29343174218833445,-0.11066606806963682,0.049387058177217835
1772562312777769700,0.106769775390625,0.08557634273767471,-0.07581950335502624,-0.044563364347815514
1772562312787836700,0.116836669921875,0.01716156268119812,0.012042612232267855,-0.09962572821509093
1772562312797905000,0.12690478515625,0.034548166289925575,0.025895488756895065,-0.09594886633325368
1772562312807971800,0.136971923828125,0.020684476110339165,0.03526245203912258,-0.08130655646398663
1772562312818039000,0.1470390625,0.07866086426079273,0.06802110456377268,-0.0715242903791368
1772562312828106000,0.15710595703125,0.22857085522115228,0.06191635794788598,0.00630019612275064
1772562312838173000,0.1671728515625,0.31733459582328793,0.043996670375764366,0.06395107864588499
1772562312848241000,0.177240966796875,0.30296821681857106,0.053987610775232314,0.09940470587555318
1772562312858307800,0.187307861328125,0.25539631830453874,0.09153554340302944,0.09270897109657525
1772562312868374800,0.197374755859375,0.20487959851026533,0.13735475303083658,0.11433953241799026
1772562312878441700,0.207441650390625,0.19875380910634993,0.136486738024652,0.12471578234061598
1772562312888508700,0.2175087890625,0.07961772659420967,0.1269113926887512,0.06272372880801558
1772562312898577000,0.227576904296875,-0.011105331382155418,0.16518910089582203,0.016123196076788006
1772562312908643800,0.237643798828125,0.045507951721549034,0.1385167825475335,-0.0019128844166174529
1772562312918711000,0.2477109375,0.12330956880450249,0.08627280056923628,-0.010012933035567403
1772562312928778000,0.257778076171875,0.21009061115682123,0.04306231213510036,0.020050123729556796
1772562312938845000,0.267844970703125,0.3094850513666868,0.0013379706054925918,0.05743716670721769
1772562312948913000,0.277912841796875,0.42993689265251156,-0.016922200967371463,0.07422427005283534
1772562312958979800,0.287979736328125,0.4803028057992458,-0.021943536260724067,0.0853210528023541
1772562312969046800,0.298046875,0.2808984238296747,-0.02117839710712433,0.007477569339051842
1772562312979113700,0.30811376953125,0.037730303457379336,0.03912263459861278,-0.11647321997843682
1772562312989181000,0.318180908203125,-0.0437970561504364,0.07994885824471712,-0.09968538598045706
1772562312999249000,0.328248779296875,-0.06875614084005355,0.09733750768005847,-0.06299217048585415
1772562313009315800,0.33831591796875,0.01945639562010765,0.11473463268280029,0.023936609774082896
1772562313019383000,0.348383056640625,0.1537076296776533,0.08439823886901139,0.0914320830285549
1772562313029450000,0.358449951171875,0.14358254150450228,0.05935819789767265,0.07221446460038423
1772562313039517000,0.368516845703125,0.033387890338897705,0.08982932400703429,0.06346515829246491
1772562313049585000,0.3785849609375,0.0702010789513588,0.09404226552695036,0.07201017419993877
1772562313059651800,0.38865185546875,0.09765782567560673,0.07910451637506484,0.08709679377060384
1772562313069718800,0.39871875,0.03547755609452724,0.0557744941920042,0.0612380202949047
1772562313079785700,0.40878564453125,-0.005717793124914169,0.027038813573122024,0.01638177394773811
1772562313089853000,0.41885302734375,0.01868248863816261,0.030747897224128243,0.06015924861487001
1772562313099921000,0.4289208984375,0.0477314729899168,0.01809299831241369,0.11469663875997066
1772562313109988000,0.438988037109375,0.06476970155239105,-0.012514613658189773,0.08266604478154331
1772562313120055000,0.449054931640625,0.08162322119772433,-0.040889644271135325,0.022805888711102305
1772562313130122000,0.4591220703125,-0.0434744000673294,-0.03843699042201042,-0.10284216951094567
1772562313140189000,0.46918896484375,-0.2239174764573574,-0.031898820824921126,-0.25612901649326086
1772562313150257000,0.4792568359375,-0.3533037348270416,-0.002531272043287754,-0.335174021233432
1772562313160323800,0.48932373046875,-0.33557635495662685,0.006086041915416717,-0.3099981885205954
1772562313170390800,0.499390869140625,-0.2797609442323446,-0.006669102500379085,-0.24532018383964896
1772562313180457700,0.509457763671875,-0.22659049505889414,0.004540566039085388,-0.20831512591689824
1772562313190525000,0.51952490234375,-0.0731155050933361,-0.06468319231271744,-0.21119334823433308
1772562313200593000,0.529593017578125,0.00040390462577342983,-0.13313479724824429,-0.21996303974315523
1772562313210660000,0.53966015625,0.04746317744255066,-0.15899170756042003,-0.2801182515037246
1772562313220727000,0.54972705078125,-0.10121113424301147,0.0020779753178358077,-0.15863396189762277
1772562313230794000,0.5597939453125,-0.5333166031062603,0.5114902634844184,0.24813505859728902
1772562313240862000,0.569862060546875,-0.7100789451569318,1.001243326935172,0.6334286170009523
1772562313250929000,0.579928955078125,-0.6542407380789518,1.2749667445689439,0.6808804693318903
1772562313260995800,0.589995849609375,-0.9853910932868718,1.3706512243449687,0.4947207688607275
1772562313271062800,0.600062744140625,-0.9750783735871315,1.5740654264777898,0.30998123738579453
1772562313281129700,0.610129638671875,-0.6355798767507076,1.8923986779496074,0.2844081855162978
1772562313291197700,0.62019775390625,0.31722704379558564,1.755845304429531,0.43770982820894566
1772562313301264600,0.6302646484375,1.4949042114794253,0.8899526972264051,0.4384985674338415
1772562313311332000,0.64033203125,1.7924965804785489,-0.2958694907292723,0.2793663736904971
1772562313321399000,0.65039892578125,0.873652719810605,-0.43476884285360573,0.020848653696104884
1772562313331466000,0.660466064453125,-0.23865035068690776,0.2794984939038753,-0.22951226425711063
1772562313341534000,0.670533935546875,-0.6534557251811027,0.6372995401501655,-0.3885848550340161
1772562313351601000,0.680600830078125,-0.7550438760429621,0.44770869618654247,-0.49312056712247426
1772562313361667800,0.690667724609375,-0.39388650510609147,0.2755477104514837,-0.4644023490950465
1772562313371734800,0.70073486328125,-0.08501870885491371,-0.07892857528626919,-0.42681613028347487
1772562313381801700,0.7108017578125,-0.2676964124292135,-0.2965563039496541,-0.4392371473740786
1772562313391869700,0.72086962890625,-0.6836164701670407,-0.11264350562244653,-0.4717880023669451
1772562313401937000,0.73093701171875,-0.8286684997022151,-0.10080518379062414,-0.5402911182940006
1772562313412003800,0.74100390625,-0.5260632709771395,-0.22780133215337992,-0.554928715455532
1772562313422070800,0.75107080078125,-0.03856324715018272,-0.2501023035496473,-0.425252095837146
1772562313432137700,0.7611376953125,0.20932722556889055,-0.21198680016696453,-0.25422676306851205
1772562313442205700,0.771205810546875,0.1496422799348831,-0.19816081164926289,-0.09294446035288274
1772562313452272600,0.781272705078125,0.14826280827522276,-0.2041588830202818,0.01633504872918129
1772562313462339600,0.791339599609375,0.19303484693765638,-0.3061637979894876,-0.049378801805526014
1772562313472406800,0.80140673828125,0.28225217652618884,-0.308375044298172,-0.16159472966566682
1772562313482473700,0.8114736328125,0.19838380675017833,-0.2389531330257654,-0.24226181918233633
1772562313492541700,0.821541748046875,0.13186463118195532,-0.16416297271847724,-0.26858590861484405
1772562313502609000,0.83160888671875,0.5214186600416898,-0.3580541442245245,-0.3383814755052328
1772562313512675800,0.84167578125,1.3343027306348085,-0.7970616475611925,-0.1927129215069115
1772562313522742800,0.85174267578125,1.1299632303506135,-0.38787469747066494,-0.25104367605298755
1772562313532809700,0.861809814453125,0.836382435080409,-0.1974526633799076,-0.5580737354829907
1772562313542877700,0.871877685546875,0.7738701570659875,-0.6002011048555373,-0.6207891348540783
1772562313552944600,0.881944580078125,0.948260509288311,-1.0324585494101046,-0.43815264007300136
1772562313563011600,0.892011474609375,1.2238882992386817,-1.130346676710248,-0.37848040779009456
1772562313573078800,0.902078857421875,1.4351906242728232,-0.8981412643790244,-0.4659396416649222
1772562313583146000,0.91214599609375,1.019171782335639,-0.7527759311109781,-0.6628143590264022
1772562313593213700,0.922213623046875,0.5858499234199523,-0.6843611510545015,-0.8518038760960102
1772562313603281000,0.932281005859375,0.45023733788132664,-0.5974599894538521,-1.0099598634846507
1772562313613347800,0.942347900390625,0.39033261201679703,-0.4323924691110849,-1.105764024117589
1772562313623414800,0.952414794921875,-0.08690496099293231,-0.1890112905099988,-1.1216831855222582
1772562313633481700,0.962481689453125,-0.5669470700293779,-0.049610418604314324,-1.0472432999573646
1772562313643549700,0.9725498046875,-0.7081301491767168,0.07106207969486714,-0.8035552473641931
1772562313653616600,0.98261669921875,-0.5334598109692334,0.15149930597841738,-0.4278421123303473
1772562313663683600,0.99268359375,-0.25169863283038135,0.16087883648127316,-0.06410115464106202
1772562313673750500,1.00275048828125,-0.15893267084956167,0.1465846459299326,0.24599136109948158
1772562313683818000,1.01281787109375,-0.07103226907849311,0.26039222689568997,0.43268151518553494
1772562313693885700,1.0228857421875,0.08330489067435264,0.44241029751747846,0.5360650250315666
1772562313703953000,1.032952880859375,0.23646248525381086,0.4811468554079532,0.6079502576775848
1772562313714019800,1.043019775390625,0.3674450729042291,0.32795185142755506,0.5676832753494382
1772562313724086800,1.053086669921875,0.5167424849241972,0.28290274938941,0.4780703705720603
1772562313734153700,1.06315380859375,0.9780524209618567,0.3656725102737546,0.5310757653769106
1772562313744221700,1.0732216796875,1.537857802543044,0.41672056046575306,0.765132212402299
1772562313754288600,1.08328857421875,1.7688140915960073,0.3938657545790076,0.9523292200319469
1772562313764355600,1.09335546875,1.7377496757686137,0.24472733251303433,1.0111246694803238
1772562313774422500,1.103422607421875,1.638995287027955,0.10181669892072677,0.8569945035416633
1772562313784490000,1.113489990234375,1.0984615921497345,-0.004031447473168373,0.36522140550538895
1772562313794557700,1.1235576171875,0.6827905407369136,0.02666471956372261,-0.12955934991426765
1772562313804625000,1.133625,0.6458101788640022,0.1667158720716834,-0.40284397427197544
1772562313814691800,1.14369189453125,0.14225275420546532,0.2072501270338893,-0.6440975297272205
1772562313824758800,1.1537587890625,-0.4219301118075847,0.239317582423985,-0.8335603633970021
1772562313834825700,1.16382568359375,-0.6337386327981949,0.270573136909306,-0.7958412389207631
1772562313844893700,1.173893798828125,-0.572683567854762,0.2808282812029123,-0.6375231197729706
1772562313854960600,1.183960693359375,-0.6245546248674392,0.166537592895329,-0.5477397537995129
1772562313865027600,1.194027587890625,-0.4248644116938114,0.093308106033504,-0.4391641186704859
1772562313875094500,1.204094482421875,-0.11791443176269531,0.07173252630233765,-0.26755959777440874
1772562313885161700,1.21416162109375,0.011496961048245428,0.01980330936163664,-0.12806704726358875
1772562313895229700,1.224229736328125,0.00017418752312660217,0.0027656653210520743,-0.038714126862958075
1772562313905297000,1.234296875,-0.10784195055961608,0.02262479652315378,0.007133980065770447
1772562313915363800,1.24436376953125,-0.36007717448472976,0.011702420492470264,-0.1036919730070047
1772562313925430800,1.2544306640625,-0.5258060813456773,-0.048778643955290316,-0.25210270185293626
1772562313935497700,1.264497802734375,-0.6569283697277307,-0.10507336262911557,-0.447410480424948
1772562313945565700,1.274565673828125,-0.5630073924928903,-0.13561404684334993,-0.5622973445273935
1772562313955632600,1.284632568359375,-0.4562210884660482,-0.2380626139268279,-0.6000847484668717
1772562313965699600,1.294699462890625,-0.41069150943458077,-0.3095297672912478,-0.560438820646517
1772562313975766800,1.304766845703125,-0.4029407491773367,-0.3278247179165482,-0.5225881056798621
1772562313985833700,1.314833740234375,-0.4913473469048738,-0.2841962963312864,-0.5336274591537192
1772562313995901700,1.324901611328125,-0.4613981988430023,-0.23963147067874668,-0.4898532724222168
1772562314005969000,1.334968994140625,-0.3876590088933706,-0.2518155372083187,-0.3772930246364325
1772562314016035800,1.345035888671875,-0.36442484830021854,-0.2537681325808167,-0.32863482872303573
1772562314026102800,1.355102783203125,-0.2436065117895603,-0.24329174675196408,-0.3290837050016969
1772562314036169700,1.365169677734375,-0.18450374995768068,-0.21725801856815813,-0.29822818268463014
1772562314046237700,1.37523779296875,-0.2103103913873434,-0.20610621769577264,-0.23396314271874724
1772562314056304600,1.3853046875,-0.31158290042877196,-0.18660861328244208,-0.2385022474531084
1772562314066371600,1.39537158203125,-0.2618015091717243,-0.10704057104885578,-0.21595453475415705
1772562314076438800,1.405438720703125,-0.025335516786575314,-0.06385521705597638,-0.11972842238210141
1772562314086505700,1.415505615234375,0.17250059295296669,-0.05718962168693542,0.027688801914453505
1772562314096574000,1.425573974609375,0.27626491881012916,-0.014646949511766432,0.1351993650952354
1772562314106641000,1.435640869140625,0.392307711482048,-0.00930968013703823,0.1873581164754927
1772562314116707800,1.445707763671875,0.22141104659438132,-0.029218495699763296,0.15829974324088542
1772562314126774800,1.45577490234375,0.059817632102966305,0.05611556271463632,0.07293580114487558
1772562314136841700,1.465841796875,0.07838672349452971,0.14136457319408655,-0.03198470901008695
1772562314146909700,1.47590966796875,0.0673819298774004,0.12552695259302854,-0.10467618000507355
1772562314156976600,1.4859765625,0.12001578795611857,0.08728343891650438,-0.13752853869516402
1772562314167043600,1.496043701171875,0.10849252342283724,0.05100187296271324,-0.1406014798671007
1772562314177110800,1.50611083984375,-0.0813812291353941,0.09303016587495803,-0.14461634153164923
1772562314187177700,1.516177734375,-0.046698622810840605,0.13669424329549074,-0.155574154201895
1772562314197246000,1.526245849609375,0.0838683697760105,0.1369613697990775,-0.12829627117589115
1772562314207313000,1.53631298828125,0.24132862998545168,0.11077917305529117,-0.01456146318539977
1772562314217379800,1.5463798828125,0.35787294243872164,0.09007599224448204,0.09492248242758214
1772562314227446800,1.55644677734375,0.2755740139365196,0.002001110689342022,0.08949687718227504
1772562314237513700,1.566513671875,0.1084989531636238,0.01751929007768631,-0.014290318093821405
1772562314247581700,1.576581787109375,0.09058452628850937,0.10490560484677552,-0.08148578548841177
1772562314257648600,1.586648681640625,0.11946458381414413,0.11376286504119634,-0.08886986785773188
1772562314267715600,1.596715576171875,0.12752923232614993,0.0738297908425331,-0.007593523868918419
1772562314277782800,1.60678271484375,0.18508944089114665,0.032819150540232656,0.07296400432605296
1772562314287849700,1.616849609375,0.12466741315424441,0.02379939326047897,0.06346753291264176
1772562314297918000,1.62691796875,0.12416121719777583,0.042615152889490124,0.05413801556397229
1772562314307985000,1.63698486328125,0.12702888158857822,0.05076075768321752,0.0754736490594223
1772562314318051800,1.6470517578125,0.16534429145753382,0.052990708692371845,0.0942922947652638
1772562314328118800,1.657118896484375,0.17935469663143158,0.021492577622830866,0.07596925055664032
1772562314338185700,1.667185791015625,0.08539163382053375,0.02221913833171129,0.06242489199191331
1772562314348253700,1.677253662109375,0.04741875377893447,0.0684472210213542,0.07023615026473999
1772562314358320600,1.687320556640625,0.12961129929721354,0.07768675853163004,0.07435136703122407
1772562314368387600,1.6973876953125,-0.02271101350188255,0.02054740572720766,0.017155388668738305
1772562314378455300,1.707455322265625,-0.1510106456786394,0.035030981370806694,-0.047251142127066846
1772562314388522500,1.7175224609375,-0.09423077383637428,0.04549596902281046,-0.12819350492116063
1772562314398590200,1.727590087890625,0.012707505881786346,-0.001725216357409954,-0.14439279844146222
1772562314408657400,1.737657470703125,0.028852584996819496,-0.07094839018732309,-0.16372085497416555
1772562314418724400,1.747724365234375,-0.06284662453532218,-0.09340776701569557,-0.1407417651206255
1772562314428791300,1.757791259765625,-0.012844868525862693,-0.09472732518166303,-0.12965349447112529
1772562314438858200,1.767858154296875,0.09513561372160911,-0.09915507849603891,-0.07363846952151507
1772562314448926500,1.777926513671875,0.11647066269516944,-0.10333177965879439,0.015903452378883957
1772562314458993400,1.787993408203125,0.11152794559597969,-0.07613456065356732,0.09455237047355622
1772562314469060400,1.798060302734375,0.15646423490941525,-0.06444412285983563,0.11260394079703837
1772562314479127300,1.808127197265625,0.17192250080406665,-0.09929565601050853,0.061343782224319875
1772562314489194500,1.818194580078125,0.1605611488342285,-0.1128971881225705,-0.04232037119399756
1772562314499262200,1.82826220703125,0.05908113452196121,-0.1235614977389574,-0.14458430242557077
1772562314509329400,1.838329345703125,-0.04097147733569145,-0.10585486839562654,-0.231698558787629
1772562314519396400,1.848396240234375,-0.025801380732655525,-0.08850947358012198,-0.2827925670132041
1772562314529463300,1.85846337890625,0.10200842210054396,-0.1093880109578371,-0.24476857783887535
1772562314539530200,1.8685302734375,0.09114858991205692,-0.11751052713692188,-0.23224435610212385
1772562314549598500,1.878598388671875,-0.012433365115523337,-0.10503712227195501,-0.2962648832550272
1772562314559665400,1.88866552734375,-0.045128597015142435,-0.08863923743963241,-0.3657834598349407
1772562314569732400,1.898732421875,-0.004570376655459404,-0.08372896130532026,-0.40374885068982835
1772562314579799300,1.90879931640625,-0.015028057783842086,-0.06538198823183775,-0.3533116989377886
1772562314589866500,1.918866455078125,0.0019371055424213409,-0.025905425629019735,-0.26451423872914165
1772562314599934500,1.9289345703125,0.06436871953606606,-0.023732173243165015,-0.14318382451049982
1772562314610001400,1.93900146484375,0.22282617408931255,-0.039736090321838856,-0.07066281471159308
1772562314620068400,1.949068359375,0.31711656915843484,-0.04706804064512252,-0.007481660992279648
1772562314630135300,1.95913525390625,0.31177053195536136,-0.03863835821300745,0.010902794547379016
1772562314640202200,1.9692021484375,0.2812836237549782,-0.02646510533839464,0.015766345463134348
1772562314650270500,1.9792705078125,0.19955518861711025,0.020864801113307473,-0.026467516491189596
1772562314660337400,1.98933740234375,0.12928455156087876,0.051228082934021944,-0.036906091060303146
1772562314670404400,1.999404296875,0.08621347159743309,0.05964432136267423,-0.046381410087831317
1772562314680471300,2.00947119140625,0.08497486971318721,0.012091712071001529,-0.06574567044507712
1772562314690538500,2.01953857421875,0.11403203737139701,-0.006668225717544555,-0.09505158869996666
1772562314700606500,2.0296064453125,0.1007213048994541,-0.02164046166092157,-0.15519319206029175
1772562314710673400,2.03967333984375,0.05808627826571464,-0.03157937961220741,-0.12152242965940385
1772562314720740400,2.049740234375,0.12625497460663318,-0.03535480649769306,-0.09574895984698087
1772562314730807300,2.059807373046875,0.1497305427402258,-0.04304506873935461,-0.044968839876167475
1772562314740874200,2.069874267578125,0.17325521071255207,-0.022700492107868193,-0.014168774073384701
1772562314750942500,2.0799423828125,0.10178805734813212,-0.026918109802901744,0.023812581535615024
1772562314761009400,2.090009521484375,0.030690906339883802,-0.011882160973548888,-0.05049516554959118
1772562314771076400,2.100076416015625,-0.0039016836136579513,0.03039864539504051,-0.07977098092716187
1772562314781143600,2.1101435546875,0.022558453288674354,0.019900632256269455,-0.07929397453255951
1772562314791210500,2.12021044921875,0.0877291368573904,0.036732524591684336,-0.050826918254606425
1772562314801278500,2.130278564453125,0.14656535670757292,0.022419044817984103,-0.0015338950363919138
1772562314811345400,2.140345458984375,0.18044482995569705,0.04212298545837402,0.038656076532788575
1772562314821412400,2.150412353515625,0.14829028080403803,0.02673340088576078,0.03153301971983164
1772562314831479300,2.160479248046875,0.04800561375617981,0.012966741339862345,-0.021060835142061113
1772562314841546200,2.170546142578125,-0.13024199841618536,-0.006930383785068988,-0.13407562176231294
1772562314851614500,2.180614501953125,-0.21193886937201023,0.046781332658231256,-0.24060922966971993
1772562314861681400,2.190681396484375,-0.1072924999833107,0.05250818587243557,-0.2719907851548865
1772562314871748400,2.200748291015625,-0.022784078738093374,0.026484979082643984,-0.19110939530041068
1772562314881815600,2.210815673828125,-0.0003115501672029495,-0.00078209028840065,-0.05624112532306462
1772562314891882500,2.220882568359375,-0.0587982259273529,0.00035918870121240615,-0.03728588415812701
1772562314901950500,2.230950439453125,-0.1301759474426508,0.013819851037859916,-0.09809585176669061
1772562314912017400,2.241017333984375,-0.054526539957523344,0.01476297710686922,-0.15459581068903208
1772562314922084400,2.25108447265625,0.05218611431121826,-0.015184709650278091,-0.18082414812948552
1772562314932151300,2.2611513671875,0.1481663621634245,-0.041975685942173005,-0.1490271802438423
1772562314942218200,2.27121826171875,0.22770050212740897,-0.06895984671860933,-0.07759940904174
1772562314952286500,2.281286376953125,0.22035072388648985,-0.0717713970080018,-0.04072838929481804
1772562314962353400,2.291353515625,0.1727653813689947,-0.05135667774975299,-0.07268599110227078
1772562314972420400,2.30142041015625,0.11805120988488196,-0.02765986808091402,-0.11315580252613872
1772562314982487600,2.311487548828125,0.14520517427027224,-0.015171557907760142,-0.12757055071722714
1772562314992554500,2.321554443359375,0.22455635888278483,0.004472761499881744,-0.11475625999271868
1772562315002622500,2.33162255859375,0.19072014025449752,-0.017539456082880496,-0.08986216683071106
1772562315012689400,2.341689453125,0.13614859211146832,-0.020535423028469085,-0.10497936420273035
1772562315022756400,2.35175634765625,0.08810966060757637,-0.016736615267395973,-0.12494060407243668
1772562315032823300,2.3618232421875,0.05002981306016445,0.03206862443387508,-0.1592730087198317
1772562315042890200,2.37189013671875,0.04109071980118751,0.06112900696247816,-0.16016385661233215
1772562315052958500,2.38195849609375,0.008828034099936485,0.05386164630800485,-0.1574042557058856
1772562315063025400,2.392025390625,0.005794365492463111,0.02856646153181791,-0.1808015709714964
1772562315073092400,2.40209228515625,0.06452537140250206,0.03298603153973818,-0.19113215512149034
1772562315083159600,2.41215966796875,0.17487199825942515,0.0270528420984745,-0.1827459830375388
1772562315093226500,2.4222265625,0.130701432621479,-0.004399404002726078,-0.1675819873817265
1772562315103294500,2.43229443359375,0.07816694326400757,-0.025668402002751826,-0.1634877038054168
1772562315113361400,2.442361328125,0.06803367178440094,-0.019778467181324956,-0.16833054072670636
1772562315123428400,2.452428466796875,0.13934183519482612,-0.023955752865970133,-0.16239015435967594
1772562315133495300,2.462495361328125,0.2767635159820318,-0.033709377378225325,-0.09512965890485793
1772562315143562200,2.472562255859375,0.35184710627794263,-0.06594225246310234,0.00045658466108143325
1772562315153630500,2.48263037109375,0.304609554284811,-0.052450318205356596,0.017939013327099382
1772562315163697400,2.492697509765625,0.12484627685248852,-0.02574614341408014,-0.07841277125123888
1772562315173764400,2.502764404296875,0.03968962083160877,-0.017494155636429785,-0.18021237290669231
1772562315183831600,2.51283154296875,-0.023977087914943695,-0.028406302534043786,-0.23657515184804795
1772562315193898500,2.5228984375,-0.09065642248094082,-0.010926759944856167,-0.22608028051443396
1772562315203966500,2.532966552734375,-0.10829495502412319,-0.002932254059612751,-0.2096293137880042
1772562315214033400,2.543033447265625,-0.061386488854885096,-0.010213058717548847,-0.1884476287452504
1772562315224100400,2.553100341796875,0.030786183407902717,-0.0326689284145832,-0.1404380329336971
1772562315234167300,2.563167236328125,0.05907821191251278,-0.03551175062507391,-0.11867767122015356
1772562315244234200,2.573234130859375,0.07327800217866898,-0.030703765821456907,-0.11746891648489981
1772562315254302200,2.58330224609375,-0.0018190321207046509,0.021974515920877454,-0.10947897717691957
1772562315264369400,2.593369384765625,-0.019003391155600548,0.0680962156265974,-0.1186569937583059
1772562315274436400,2.603436279296875,0.014388006314635276,0.10707798044979572,-0.08582465494293719
1772562315284503600,2.613503662109375,0.10586217491924763,0.07007131509184837,-0.06901311127580702
1772562315294570500,2.623570556640625,0.16216566142141817,0.05484685795307159,-0.07023315459005534
1772562315304638500,2.633638427734375,0.16738193476498126,0.058572308216989034,-0.07911646254118532
1772562315314705400,2.643705322265625,0.14989713147878647,0.07162994271069764,-0.07280731592699885
1772562315324772400,2.6537724609375,0.17095745516419408,0.059978667883574956,-0.04103577474355698
1772562315334839300,2.66383935546875,0.1873965487897396,0.059362874072790145,-0.010456621682457624
1772562315344906200,2.67390625,0.19506138432919978,0.050125674650073046,-0.0037247196115553377
1772562315354974200,2.68397412109375,0.19147125088274478,0.020863924330472947,0.006945252560637891
1772562315365041400,2.69404150390625,0.11211655913889408,-0.011225158369541167,-0.014463519236259161
1772562315375107800,2.70410791015625,0.03699205231070518,-0.009701309803128243,-0.04902827133480459
1772562315385174800,2.7141748046875,-0.010526070189476013,-0.005607610748708248,-0.08978121054898947
1772562315395241700,2.72424169921875,-0.020897826600074765,-0.03629267186969518,-0.13441734787207096
1772562315405309700,2.734309814453125,-0.031229835522174832,-0.07138911969214677,-0.15352047307509928
1772562315415376600,2.744376708984375,0.00490647674202919,-0.10310586194843054,-0.12100834265742451
1772562315425443600,2.754443603515625,0.02113514248728752,-0.09808715700358152,-0.07849949968662112
1772562315435510800,2.7645107421875,0.002335164949297905,-0.09367986195534467,-0.04223225451912731
1772562315445578000,2.774577880859375,-0.016975684720277787,-0.09095014473050832,-0.035171741548366844
1772562315455645700,2.784645751953125,0.0008452186524868011,-0.10637246252894401,-0.018090258366055784
1772562315465713000,2.794712890625,-0.02293371634185314,-0.1093967787861824,-0.06013948446847498
1772562315475779800,2.80477978515625,-0.01830956367254257,-0.12102233465015888,-0.12262998904250562
1772562315485846800,2.8148466796875,0.06996259402036667,-0.1601113592401147,-0.14070921455789356
1772562315495913700,2.824913818359375,0.13747078062593937,-0.18038959263712168,-0.16276012018322944
1772562315505981700,2.834981689453125,0.12677461456656455,-0.18888737186938523,-0.1418759567823261
1772562315516048600,2.845048583984375,0.1631710390716791,-0.14786182625889777,-0.11465195936802774
1772562315526115600,2.855115478515625,0.15033669193983076,-0.11018266846686602,-0.04381232678480446
1772562315536182500,2.8651826171875,0.08340192130804061,-0.06574439180344342,-0.02484144965931773
1772562315546250000,2.87525,0.0007879355072975159,-0.02210194169282913,-0.034579145950078966
1772562315556317700,2.885317626953125,-0.061975102397799485,0.0494569816082716,-0.03586805324945599
1772562315566385000,2.895385009765625,0.006223989081382751,0.06830401315838099,-0.0387041534582153
1772562315576451800,2.905451904296875,0.14067162249386309,0.07599485992193221,0.004337262019328773
1772562315586518800,2.915518798828125,0.2178571535050869,0.09134498926699161,0.047287565147317946
1772562315596585700,2.925585693359375,0.12586802111566067,0.09703326403647661,0.04318038555681705
1772562315606653700,2.93565380859375,-0.02539806062877178,0.12700403940826654,0.00015953794326633214
1772562315616720600,2.945720703125,-0.0875982039541006,0.16556582525372504,-0.08714881621878594
1772562315626787600,2.95578759765625,-0.07120470303595065,0.1751639669433236,-0.12921039034612475
1772562315636854500,2.9658544921875,0.03947627034187317,0.17717822937518357,-0.10462653217706828
1772562315646922000,2.975921875,0.2746469622194767,0.11092822613716125,-0.03851710645351559
1772562315656989700,2.98598974609375,0.41229134584665295,0.05416968934386968,0.038562991421855985
1772562315667057000,2.996056884765625,0.3294143251955509,0.04222586131095886,0.04907919780444354
1772562315677123800,3.006123779296875,0.2284709019780159,0.0487117161989212,0.02757745049446821
1772562315687190800,3.016190673828125,0.11843348720073699,0.07192015782892704,-0.018206103298068047
1772562315697257700,3.0262578125,0.07856967884600162,0.08545651575028895,-0.05286061603929847
1772562315707325700,3.03632568359375,0.05385843143761158,0.05792056630998849,-0.050259639760665595
1772562315717392600,3.046392578125,0.11007891583144665,0.029058336701989172,-0.06559727495033293
1772562315727459600,3.05645947265625,0.18012685004770754,-0.004334522072970867,-0.0892055295528844
1772562315737526500,3.066526611328125,0.17520926738977433,-0.07084054589867592,-0.06903199863936751
1772562315747593700,3.07659375,0.13050152613520621,-0.11529869630634784,-0.09453490788210182
1772562315757661700,3.08666162109375,0.07481997092366219,-0.0953475029066205,-0.1125765048008412
1772562315767729000,3.09672900390625,0.07722352493405342,-0.08766191684007645,-0.12592998043596743
1772562315777795800,3.1067958984375,0.02539455349743366,-0.08420710021108388,-0.1556167512346059
1772562315787862800,3.11686279296875,-0.021678747844696044,-0.09596271219551562,-0.16927330146953462
1772562315797930800,3.1269306640625,-0.06113105278909206,-0.07650777788013219,-0.17839677485208957
1772562315807997700,3.136997802734375,-0.07390694773197173,-0.045832069109380244,-0.1788654518097639
1772562315818064600,3.147064697265625,-0.03886836757659912,-0.03258037334829569,-0.11606193576380609
1772562315828131600,3.157131591796875,-0.011716156756877899,-0.028517946214973926,-0.07231317573450505
1772562315838198800,3.16719873046875,0.004849193596839905,-0.020013152720034122,-0.06516173307728022
1772562315848266800,3.177266845703125,-0.02891805144846439,-0.017314999677240848,-0.09439140775818378
1772562315858334000,3.187333984375,-0.11746902608275413,-0.03463730587810278,-0.14479622814320026
1772562315868401000,3.19740087890625,-0.1297176822811365,0.008277706740796566,-0.16566581502947955
1772562315878467800,3.2074677734375,-0.09480652789771556,0.028595395365357396,-0.1657363595150411
1772562315888534800,3.21753466796875,-0.01052490114569664,-0.008146189315617084,-0.08637330180164426
1772562315898602800,3.227602783203125,0.06628945846557617,-0.02540332132577896,0.030308957817591724
1772562315908669700,3.237669677734375,0.09850304432809352,-0.016961656194925307,0.031545513875223696
1772562315918736600,3.247736572265625,0.06735796447992325,-0.0242296013712883,-0.015971877972595392
1772562315928803600,3.257803466796875,-0.0690109923839569,-0.014529752872884273,-0.1352574154254049
1772562315938870800,3.267870849609375,-0.09775953248441219,0.0010334347009658812,-0.21154413443338124
1772562315948938800,3.277938720703125,-0.04058978454172611,0.02126578312963247,-0.21263536373618988
1772562315959006000,3.288005859375,0.12238719326257705,0.004088146096467972,-0.14464944008365271
1772562315969073000,3.298072998046875,0.2200052714496851,-0.022969956699013708,-0.04205375614706427
1772562315979139800,3.308139892578125,0.23598726895749567,-0.0007265607088804244,-0.020498817345127464
1772562315989206800,3.318206787109375,0.16196517041325567,-0.003636602936685085,-0.05655245629455894
1772562315999274800,3.328274658203125,0.08965104483067989,0.04847060091942548,-0.13330609869454055
1772562316009341700,3.338341796875,0.11566694509685038,0.05432721799314022,-0.16691753212362526
1772562316019408600,3.34840869140625,0.16604571772515772,0.028961598329246042,-0.11700195656027644
1772562316029475600,3.3584755859375,0.19407588042318819,0.01757628096193075,-0.07850764646045863
1772562316039542800,3.368542724609375,0.21487141569256782,-0.0004889525607228278,-0.09865432589966804
1772562316049610800,3.37861083984375,0.13392156371176242,0.01467412977963686,-0.13474267083629965
1772562316059678000,3.388677978515625,0.03723579793870449,0.04864245035499334,-0.16904168467074632
1772562316069745000,3.398744873046875,-0.001785129851102829,0.09130904117077589,-0.17983517362475393
1772562316079811800,3.408811767578125,0.016369535520672798,0.10930705467611551,-0.14250829986911268
1772562316089878800,3.418878662109375,0.0910007058739662,0.09767156194001436,-0.05515227064043283
1772562316099946800,3.42894677734375,0.16576456269621848,0.0816337425917387,-0.04755513004232198
1772562316110013700,3.439013671875,0.11475392190515994,0.04260170888602734,-0.1088094438849017
1772562316120080600,3.44908056640625,0.016776947277784348,0.03207096252143383,-0.17622659120615572
1772562316130147600,3.459147705078125,-0.06446107399463653,0.032848376634716986,-0.2105298428243026
1772562316140214800,3.46921484375,0.03172434104084968,0.03242372148185968,-0.16885003455616532
1772562316150282800,3.47928271484375,0.17146657373011112,-0.02012479640096426,-0.1055953772092238
1772562316160350000,3.489349853515625,0.3032347588002682,-0.04640519282221794,-0.010597893316671252
1772562316170417000,3.4994169921875,0.3265080823600292,-0.06015548575520515,0.037153015026077624
1772562316180483800,3.50948388671875,0.27806758431792256,-0.06035071606636047,0.01683989297877997
1772562316190550800,3.51955078125,0.17372341274619102,-0.046132513360679146,-0.02970445258580148
1772562316200618800,3.52961865234375,0.02398468669950962,-0.00800911893248558,-0.05822875547632575
1772562316210685700,3.539685791015625,-0.048315994879603384,0.01657470270395279,-0.08489219639841467
1772562316220752600,3.549752685546875,-0.12778642195761203,-0.010156360094249249,-0.09254936008807271
1772562316230819600,3.559819580078125,-0.11009002174735069,0.0022387188374996185,-0.09336283189542591
1772562316240886800,3.56988671875,-0.10933540398776531,0.008314823880791664,-0.09229838100168854
1772562316250954800,3.579954833984375,-0.06043021104335784,-0.000668108519911766,-0.0857491420213133
1772562316261022000,3.59002197265625,0.009207973328232765,-0.033242636649310583,-0.053950639765709636
1772562316271089000,3.6000888671875,0.06665186203718185,-0.05051993466466665,-0.09234021084941924
1772562316281155800,3.61015576171875,0.02684592134952545,-0.05950111349970102,-0.16413140853643415
1772562316291222800,3.620222900390625,-0.13733634059131145,-0.010449205560982227,-0.18051384007129817
1772562316301290800,3.630290771484375,-0.1772276214748621,0.04605740229785442,-0.21817827521823346
1772562316311357700,3.640357666015625,-0.11698971813321113,0.05902385137677192,-0.17501922471038997
1772562316321424600,3.650424560546875,0.027447394374012946,0.04999854113906622,-0.11536339557301252
1772562316331491600,3.66049169921875,0.2074082402050495,0.013266893330216406,-0.032417474404163656
1772562316341558800,3.670558837890625,0.26823534161150453,-0.013943185156583784,0.021252156463079153
1772562316351626800,3.680626708984375,0.23394904112815856,0.003051496525108814,0.016618761041387913
1772562316361694000,3.69069384765625,0.07158288869857787,0.026225159102678298,-0.04012545496560633
1772562316371761000,3.700760986328125,0.050714872714877124,0.05558686266541481,-0.11792966586444527
1772562316381828000,3.710828125,0.09725099844038486,0.04795622165650129,-0.13115995351132004
1772562316391895000,3.72089501953125,0.14990648382902144,0.0060118076354265205,-0.1175964518547058
1772562316401963300,3.73096337890625,0.13893851509094238,0.001630231550335884,-0.12867178995739667
1772562316412030200,3.7410302734375,0.10342062698602676,-0.010645897176861763,-0.16201021513137964
1772562316422097200,3.75109716796875,0.055175359255075454,0.006408990259468555,-0.18146160578280687
1772562316432164000,3.7611640625,0.021707389417290685,0.031016485032439232,-0.15101513919066636
1772562316442231300,3.771231201171875,0.11302899780869484,0.027530981004238127,-0.08447302113827318
1772562316452299000,3.781299072265625,0.22608839075565337,-0.0012035305708646773,-0.02639010387342423
1772562316462366200,3.7913662109375,0.21856325594782827,-0.04309738344848156,-0.006569770311750471
1772562316472433200,3.80143310546875,0.13095686868727208,-0.07216507250070571,-0.0829103749314323
1772562316482500000,3.8115,0.04882394440174102,-0.04638356551229954,-0.15293145767338573
1772562316492567000,3.821567138671875,0.03478080600202083,-0.03350537923872471,-0.20822609592657534
1772562316502635300,3.83163525390625,0.10126549477875232,-0.0302662511870265,-0.15328863708060234
1772562316512702200,3.8417021484375,0.1413596047580242,-0.05277823498547077,-0.0822744151154533
1772562316522769200,3.85176904296875,0.17128186481297014,-0.05691694222539663,-0.040444603917375206
1772562316532836000,3.861836181640625,0.1260275955915451,-0.057953299535810944,-0.05910645162630826
1772562316542903300,3.8719033203125,0.027481881165504454,-0.058199090990424154,-0.12365695747006684
1772562316552971000,3.881970947265625,0.03147007401883602,-0.03258884891569614,-0.1474563507305458
1772562316563038200,3.8920380859375,0.06510112546384335,-0.010879705932736397,-0.14284513060804455
1772562316573105200,3.902105224609375,0.04989829563498497,-0.02335252627581358,-0.07242061816435306
1772562316583172000,3.912172119140625,0.007530395504832268,0.00935498058348894,-0.04090933535229414
1772562316593239000,3.922239013671875,-0.026226912668347358,0.030182372295856474,-0.03485661118458956
1772562316603307300,3.932307373046875,-0.07286416068077087,0.05700432824790477,-0.10594411758165806
1772562316613374200,3.942374267578125,-0.07742401594221592,0.08598726162612438,-0.1433766071362421
1772562316623441200,3.952441162109375,-0.023431144469976423,0.09815057762861251,-0.11481770785637199
1772562316633508000,3.962508056640625,0.017470190238952635,0.045427872222661966,-0.03215027483534068
1772562316643575300,3.9725751953125,0.07346446466147899,0.027201602919399735,0.03994100177679211
1772562316653643000,3.98264306640625,0.1825947014659643,0.022515198668837545,0.08342007801923901
1772562316663710200,3.992710205078125,0.2021358527600765,-0.0000046761751174926755,0.08012194978930055
1772562316673777200,4.002777099609375,0.2134907749891281,0.004990940155088901,0.03750244951825589
1772562316683844000,4.012843994140625,0.23473230046033858,0.0011164368093013763,0.006394413744844496
1772562316693911000,4.0229111328125,0.17630407688915728,-0.002246317622065544,-0.04776869972776621
1772562316703979300,4.032979248046875,0.12270868030190467,0.02524082424044609,-0.0341061581434682
1772562316714046200,4.043046142578125,0.108494861510396,0.04366057028919458,-0.049820663821510965
1772562316724113200,4.053113037109375,0.05564648389816284,0.026196517530083653,-0.042655448367260394
1772562316734180000,4.06318017578125,0.05568564686477184,0.058147068542242046,-0.03582147416137159
1772562316744247300,4.073247314453125,0.027343349477648732,0.07014525711089373,0.0036250951619818807
1772562316754315300,4.083315185546875,0.0310918883562088,0.040161622257530685,0.002567074009031057
1772562316764382200,4.09338232421875,-0.02887245874106884,0.02892828058153391,0.005892674767784774
1772562316774449200,4.10344921875,-0.04638765716552734,0.06673077249228954,-0.03153561353571713
1772562316784516000,4.11351611328125,-0.03206570182442665,0.06465747334957123,-0.028235037620365618
1772562316794583000,4.1235830078125,-0.04794891513288021,0.0407490667566657,-0.02862553477529436
1772562316804651300,4.1336513671875,-0.03621054654419422,0.03463233744204044,-0.018204130536690354
1772562316814718200,4.14371826171875,0.021837153276801108,0.02026449713259935,-0.05183299002461135
1772562316824785200,4.15378515625,0.03207154704332352,0.020121289269626138,-0.051964945841208095
1772562316834852000,4.16385205078125,0.026349077743291854,0.04487082286179066,-0.011775631859153509
1772562316844919300,4.173919189453125,0.09711772744953631,0.0437882883220911,0.01511887787245214
1772562316854987300,4.1839873046875,0.13502864817082882,0.03755757723897695,0.05052873902563006
1772562316865054200,4.19405419921875,0.10521452466547489,0.04813800796419382,0.04725234770346433
1772562316875121200,4.20412109375,0.0510036265283823,0.045671325589716434,-0.017105375514551997
1772562316885188000,4.21418798828125,0.03983516678214073,0.04959025259912014,-0.090845369181782
1772562316895255000,4.224255126953125,0.07966507286727428,0.05235679470300674,-0.11539890527781098
1772562316905323300,4.2343232421875,0.12113105572164058,0.01212912147194147,-0.11438242171164602
1772562316915390200,4.24439013671875,0.11165654041171073,-0.003323299203813076,-0.08417403819169848
1772562316925457200,4.25445703125,0.0533826306194067,-0.008048281899094581,-0.12923311363458634
1772562316935524400,4.2645244140625,0.004143675675988197,-0.021876608504354952,-0.1700562320081517
1772562316945591300,4.27459130859375,0.030882044997811317,-0.0026651275560259815,-0.18764814893063156
1772562316955659300,4.2846591796875,0.06849719764292239,0.009067688074707984,-0.15798413795307278
1772562316965726200,4.294726318359375,0.14123217898607254,-0.0061871642023324964,-0.07644530710317193
1772562316975793200,4.304793212890625,0.24460078352391718,0.002419336101412773,-0.013868110626377165
1772562316985860000,4.314860107421875,0.24706688137650487,0.005937573355436325,0.023588673119246957
1772562316995928300,4.32492822265625,0.19262158996164797,-0.0027805706292390823,-0.02946910945996642
1772562317005995300,4.334995361328125,0.11619710645079612,-0.01769669247120619,-0.1097113976933062
1772562317016062200,4.345062255859375,0.08431085284650325,-0.03343319078534841,-0.1742733747791499
1772562317026129200,4.355129150390625,0.09705576812922954,-0.03461567856818437,-0.20774119848646222
1772562317036196400,4.3651962890625,0.061392334073781966,-0.05534487060308456,-0.18017500003837048
1772562317046264000,4.37526416015625,0.11045827053785323,-0.06390870080888271,-0.1593775650728494
1772562317056331300,4.385331298828125,0.11842530389428138,-0.02861789945811033,-0.129944513306953
1772562317066398200,4.395398193359375,0.08734101432263851,0.006290040054917335,-0.05302848341949284
1772562317076465200,4.405465087890625,-0.0013198504269123076,0.05932195754051208,-0.025128194178827105
1772562317086532000,4.415531982421875,-0.08224281440079212,0.10183569588214159,-0.01592953666821122
1772562317096600000,4.42560009765625,-0.0846744254618883,0.0886634950980544,-0.07190477759670466
1772562317106667300,4.435667236328125,-0.02578150698840618,0.07563274861127138,-0.1542598567329347
1772562317116734200,4.445734130859375,0.049393268722295755,0.05693710823059082,-0.20420228377059102
1772562317126801200,4.45580126953125,0.02175122855901718,0.04298252489715814,-0.17046298617813735
1772562317136868400,4.465868408203125,0.015814239725470542,0.04765139349102974,-0.10972929867617785
1772562317146936000,4.47593603515625,0.07043547222912311,0.05855681838691234,-0.06037738487757742
1772562317157003300,4.486003173828125,0.1432294902831316,0.03328384544253349,-0.05207352078221738
1772562317167070200,4.4960703125,0.27868250134587286,-0.031600130139291284,-0.04099734242931008
1772562317177137200,4.50613720703125,0.36615620213747024,-0.08617693897932767,-0.039642128428071736
1772562317187204000,4.5162041015625,0.34676059679389,-0.07790829232782125,-0.026753201564773916
1772562317197272000,4.52627197265625,0.24913901147544382,-0.06689823801368475,-0.030942908339574932
1772562317207339300,4.53633935546875,0.15703239018619058,-0.03205956434458494,-0.06858648336157203
1772562317217406200,4.54640625,0.0930401027470827,-0.0460822444781661,-0.10016202704887836
1772562317227473200,4.55647314453125,-0.001640168422460556,-0.04439736013114452,-0.168098558601737
1772562317237540400,4.566540283203125,-0.06749006642699241,-0.04875234047025442,-0.20371588849313557
1772562317247608000,4.576608154296875,-0.07745616464614867,-0.0459472199216485,-0.237231569930166
1772562317257675300,4.58667529296875,-0.05097966113090515,-0.029516017341613767,-0.2305238889850676
1772562317267742200,4.5967421875,-0.03514613218307495,-0.06120733289569616,-0.2065353663606569
1772562317277809200,4.60680908203125,-0.024037878191471098,-0.06076601886898279,-0.20522450295779854
1772562317287876000,4.6168759765625,-0.004724690434336662,-0.03594371230155229,-0.16450199541449545
1772562317297944000,4.626944091796875,0.023301380610466,-0.0011395254239439964,-0.12234686125218867
1772562317308011000,4.637010986328125,0.054902972054481504,0.00547375523597002,-0.098969346665591
1772562317318078200,4.647078125,0.002181435692310333,0.034844518887996674,-0.08757179087121039
1772562317328145200,4.657145263671875,-0.009279869520664214,0.052929918415844435,-0.07987367411665618
1772562317338212400,4.66721240234375,0.002146364378929138,0.0806096602410078,-0.07795425036139786
1772562317348280000,4.677280029296875,0.03388298037946224,0.10308628046512604,-0.07356481976341456
1772562317358347300,4.68734716796875,0.04621931486129761,0.11707476606816053,-0.018459055145829916
1772562317368414200,4.697414306640625,0.0765057320535183,0.12000702012777328,0.027124409497343002
1772562317378481200,4.707481201171875,0.15587152971327303,0.11113748497366904,0.052822001061961055
1772562317388548000,4.717548095703125,0.18080255735218523,0.07776976063996553,0.01577222721464932
1772562317398616000,4.727615966796875,0.1711579461723566,0.05274813210815191,-0.039766558525338766
1772562317408683000,4.73768310546875,0.09474164596796035,0.062036184935271736,-0.07037168627791106
1772562317418750200,4.747750244140625,0.10001754054427146,0.04328150784373283,-0.08142707757111638
1772562317428817200,4.757817138671875,0.19497136795818804,0.05564443807154894,-0.09794084386806934
1772562317438884400,4.76788427734375,0.16919570618867874,0.04516863676458597,-0.07014346701260656
1772562317448952300,4.777952392578125,0.21147534351348876,0.03229804927557706,-0.04682948264889419
1772562317459019300,4.788019287109375,0.25850597475767134,0.002461421677470207,-0.07319996850639582
1772562317469086200,4.798086181640625,0.2125532018780708,-0.0249789584338665,-0.12979202615898103
1772562317479153200,4.808153076171875,0.22886779234111307,0.009445873737335204,-0.18587321167998014
1772562317489220000,4.81822021484375,0.2420253800779581,-0.00952536871433258,-0.17226868389323352
1772562317499288000,4.8282880859375,0.172500008431077,-0.012314999432861804,-0.1232380744708702
1772562317509355000,4.83835498046875,0.1587929701179266,-0.008351356498897075,-0.08679770122617482
1772562317519422000,4.848421875,0.13029343634247778,-0.03794453072994947,-0.08052574481721966
1772562317529489200,4.8584892578125,0.1310299339234829,-0.045233226433396334,-0.15041549279708413
1772562317539556400,4.868556396484375,0.12026362523734568,-0.07149374911040067,-0.20401921882126478
1772562317549624300,4.878624267578125,0.10603986957371234,-0.07062924123555421,-0.22333562144879252
1772562317559691300,4.888691162109375,0.10689853222966193,-0.07548018839806318,-0.1940717522373423
1772562317569758200,4.89875830078125,0.02942833905816078,-0.08191431309878826,-0.1972244806472212
1772562317579824000,4.90882421875,-0.0817687671482563,-0.06022708968669176,-0.2373442365244031
1772562317589892000,4.91889208984375,-0.11824176402091979,-0.04926701199412346,-0.2650723110033199
1772562317599959000,4.928958984375,-0.0537789364606142,-0.06298632526695729,-0.30197989990096535
1772562317610026200,4.939026123046875,-0.006428571742773056,-0.0693862554371357,-0.2519735773142427
1772562317620093200,4.94909326171875,-0.005010521638393402,-0.04306581926643848,-0.18953293976392596
1772562317630160100,4.95916015625,-0.011268997511267661,-0.035954525956511496,-0.1367264650646597
1772562317640228400,4.969228271484375,-0.03214811941087246,-0.0284448809787631,-0.0900339066684246
1772562317650295300,4.97929541015625,0.02946048776209354,-0.011050386324524878,-0.10564977427758276
1772562317660362200,4.9893623046875,0.08488777595162392,-0.04392769679278135,-0.09937862158622592
1772562317670429200,4.99942919921875,0.14116671253442764,-0.02936374938935041,-0.07272939185258001
1772562317680496000,5.00949609375,0.1954611973017454,-0.01944207483381033,-0.030540318888053298
1772562317690564000,5.019564208984375,0.24233693024516104,-0.03856383167207241,-0.012953662662580608
1772562317700631000,5.029631103515625,0.19979367354810237,-0.020381986032426355,-0.0512601585727185
1772562317710698200,5.0396982421875,0.11278817479014396,0.01598287429064512,-0.04933558371830731
1772562317720765200,5.04976513671875,0.05660042362213134,0.05786679029613733,-0.030805984086915848
1772562317730832100,5.05983203125,0.029423662883043288,0.05453764587342739,-0.06535422344207763
1772562317740900400,5.069900390625,0.07585866632163524,0.03417641036808491,-0.02421981062963605
1772562317750967300,5.07996728515625,0.08155717022418975,0.008651216228306294,-0.038048027637042105
1772562317761034200,5.0900341796875,0.09578326397538185,-0.009921674555540085,-0.03545446747988462
1772562317771101200,5.10010107421875,0.057617491710186,-0.0024395021066069603,-0.06566770983804017
1772562317781168000,5.110168212890625,0.028601240584254263,0.00012245733588933945,-0.12661657446064054
1772562317791236000,5.120236083984375,-0.05644903245270252,0.023605039732158183,-0.11366302139591425
1772562317801303000,5.130302978515625,-0.09732231011092662,0.04052373356819153,-0.10953640645258128
1772562317811370200,5.140370361328125,-0.05507715957760811,0.039545243924856185,-0.08490892833750695
1772562317821437200,5.150437255859375,-0.008892916029691696,0.03075724957436323,-0.047436545163951814
1772562317831504100,5.160504150390625,0.1109171202212572,0.027170623259246348,0.007475888838618994
1772562317841572400,5.170572265625,0.16976970668435096,0.016771686580777167,0.03994176896177232
1772562317851639300,5.180639404296875,0.16823592124581335,0.025128011515736577,0.027355514839477835
1772562317861706200,5.190706298828125,0.16206278556883333,0.018330314199626444,0.016604988244362174
1772562317871773200,5.200773193359375,0.12589023294746876,0.04789923077225685,0.017246574083529413
1772562317881840000,5.210840087890625,0.1178887127995491,0.08583703950047493,0.023897775601036845
1772562317891908000,5.220908203125,0.09341887293159962,0.08977817834168672,0.048397353020124136
1772562317901975000,5.23097509765625,0.10636953991949558,0.09083616296201943,0.056445634919218717
1772562317912042200,5.241042236328125,0.05673427913486957,0.08349222993999719,0.03452398169673979
1772562317922109200,5.251109130859375,-0.028885318222641943,0.08871054911017417,-0.010566840591281651
1772562317932176100,5.261176025390625,-0.015319734206795691,0.08732318640500307,-0.03547434122413397
1772562317942244400,5.271244384765625,0.032681203374266624,0.05419190117567777,-0.07159892651792615
1772562317952311300,5.281311279296875,0.05452887804508209,0.0062158057749271385,-0.08980926759969443
1772562317962379300,5.291379150390625,0.07664601730704307,-0.034601357781887054,-0.08963855067528784
1772562317972446200,5.3014462890625,0.055174190211296076,-0.06488514462560414,-0.12144837804250419
1772562317982513200,5.31151318359375,0.00022796353697776794,-0.053499534997344014,-0.18129607649017124
1772562317992580000,5.321580078125,0.06007014555931091,-0.02180003613680601,-0.21057039403039962
1772562318002648000,5.33164794921875,0.11643559138178824,-0.022158348055183887,-0.13799436610862612
1772562318012715000,5.341715087890625,0.15293372269570826,0.0049044309154152865,-0.03536408578269183
1772562318022782200,5.3517822265625,0.13709317948520183,-0.021066753426194188,-0.009573445639759301
1772562318032849200,5.36184912109375,0.16114391715824603,-0.03310965791940689,-0.04819916356690228
1772562318042916000,5.371916015625,0.1868552815198898,-0.047774727609753605,-0.11605079331528395
1772562318052984300,5.381984375,0.17286884174346923,-0.06589344488531351,-0.18360464569348842
1772562318063051300,5.39205126953125,0.1707698236376047,-0.09367255543172359,-0.22485000806711614
1772562318073118200,5.4021181640625,0.1650841792166233,-0.08743483008593321,-0.2214967521164566
1772562318083185200,5.41218505859375,0.13495382936894892,-0.09582593407332897,-0.22173114539422092
1772562318093252000,5.422252197265625,0.03118891898989677,-0.07197831775695085,-0.23923622428346425
1772562318103320000,5.432320068359375,-0.0009165303230285644,-0.023872458496689796,-0.2495203754758462
1772562318113387000,5.442386962890625,0.03428162430822849,0.02900309938341379,-0.2017247146759182
1772562318123454200,5.4524541015625,0.04846797057092189,0.033921851085126395,-0.13051252245325595
1772562318133521200,5.462521240234375,-0.03148994776308536,0.03659486968666315,-0.08464907182492315
1772562318143588000,5.472588134765625,-0.0835334387332201,0.047503217191994185,-0.06383110552802682
1772562318153656300,5.48265625,-0.05366670825779438,0.08252718430012464,-0.0702119656715542
1772562318163723300,5.49272314453125,0.015946926194429396,0.081774904628098,-0.08849358189124613
1772562318173790200,5.502790283203125,0.107898064661026,0.03959814315587282,-0.08377813420929014
1772562318183857200,5.512857177734375,0.14081658392250537,0.008802899658679962,-0.06563168867658824
1772562318193924000,5.522924072265625,0.1432382581114769,0.05964695171117782,-0.040910504396073515
1772562318203992000,5.532991943359375,0.16185644934177398,0.011522095489501952,-0.06378383232019841
1772562318214059000,5.54305908203125,0.11517711575329304,0.015272387933731079,-0.04224171646721661
1772562318224126200,5.553126220703125,0.04974222829043865,0.05440671297013759,-0.025239910924993454
1772562318234193200,5.563193115234375,0.02586392457485199,0.033092122262716295,-0.012201346457935868
1772562318244260000,5.573260009765625,0.009594926819205284,0.0038680736050009726,-0.04873827541228384
1772562318254328300,5.583328369140625,0.045024552118778226,0.007768295913934707,-0.07824110447876155
1772562318264395300,5.593395263671875,0.06873451353013516,0.006554536210000515,-0.07396726308446377
1772562318274462200,5.603462158203125,0.040917116799950595,-0.017136135978996752,-0.10020064202621579
1772562318284529200,5.613529052734375,-0.005345452681183815,-0.01586363182514906,-0.09453154688123613
1772562318294596000,5.62359619140625,-0.010032733714580536,-0.019599018961191175,-0.09704221452791244
1772562318304664000,5.6336640625,0.023917466682195663,-0.009243629163503646,-0.11945819060597568
1772562318314731000,5.64373095703125,0.05751695394515991,0.011572072111070156,-0.13111476266272365
1772562318324798200,5.653798095703125,0.09984393754303454,-0.003475567156076431,-0.11416377399228513
1772562318334865200,5.663865234375,0.14787585478425025,-0.025154607261717317,-0.093667842723988
1772562318344932000,5.67393212890625,0.19990356366336345,-0.011901742456853388,-0.05272391098234802
1772562318355000300,5.684000244140625,0.1796452040106058,-0.0003568506136536598,-0.014722243237681686
1772562318365067300,5.6940673828125,0.1347077456533909,0.03720598732233047,0.006734715082496404
1772562318375134200,5.70413427734375,0.06437748736441135,0.027199557092785834,-0.01365921711605042
1772562318385201200,5.714201171875,0.03388824107646942,0.021942659477889537,-0.06916439284738153
1772562318395268000,5.72426806640625,0.03999532577991485,0.016190671822428702,-0.10035320223942398
1772562318405336000,5.734336181640625,0.009237783944606781,-0.01663607750236988,-0.11285079169757664
1772562318415403000,5.744403076171875,-0.03396481344401836,0.010666647703945636,-0.10888408002369106
1772562318425470200,5.75447021484375,-0.014684358912706374,0.026684008786082267,-0.11535429895110427
1772562318435537200,5.764537109375,0.002561374920606613,0.025454174730181692,-0.10883483405448496
1772562318445604000,5.77460400390625,0.07754793458282946,-0.007443594004213809,-0.09361629519984126
1772562318455672000,5.784672119140625,0.07050444581210613,-0.03305208251327276,-0.07199906828403473
1772562318465739300,5.7947392578125,0.05821370403766632,-0.010905717156827449,-0.08769033921696245
1772562318475806200,5.80480615234375,0.0922948373377323,-0.009928104296326637,-0.10592625313140451
1772562318485873200,5.814873046875,0.12941548446416853,-0.06439443849921227,-0.14631182033792137
1772562318495940000,5.824940185546875,0.1437608206808567,-0.057713645561039445,-0.11744060370586812
1772562318506008000,5.835008056640625,0.1801291881352663,-0.03796148186475038,-0.11208755224011838
1772562318516075000,5.845074951171875,0.20985095718204974,-0.048695934107899665,-0.09507504264079034
1772562318526142200,5.85514208984375,0.1672363888144493,-0.04268032708019018,-0.0865112855002284
1772562318536209200,5.865209228515625,0.15355331589877605,-0.025538638143241404,-0.12607976417019962
1772562318546276000,5.875276123046875,0.1544885509222746,-0.0037643209695816036,-0.09829130127355455
1772562318556344000,5.885343994140625,0.11195464657545089,0.021107962219417093,-0.0763087481766939
1772562318566411000,5.895410888671875,0.09972469507753848,0.04162672637403011,-0.07371668585687875
1772562318576478200,5.905478271484375,0.07948737821280956,0.05746083984375,-0.07078947329856455
1772562318586545200,5.915545166015625,0.04907470429241657,0.04675502917319536,-0.10953976745344698
1772562318596612000,5.925612060546875,0.06112871470153331,0.026808219687640664,-0.14621237855143845
1772562318606680000,5.93568017578125,0.025354806008934975,0.03103577425479889,-0.17954093991853295
1772562318616747300,5.945747314453125,-0.032435704180598254,0.06596387977302073,-0.1478599265627563
1772562318626814200,5.955814208984375,-0.011356675794720649,0.08461275840252637,-0.06926240986175834
1772562318636881200,5.965881103515625,0.023324761486053464,0.05230506451576948,-0.02044518746174872
1772562318646948000,5.975947998046875,0.08119827378392219,0.051752399069070816,-0.040712680269032714
1772562318657016000,5.98601611328125,0.14698679699003694,0.02379559386819601,-0.0660965662419796
1772562318667083000,5.9960830078125,0.18114274909198283,-0.01631225237548351,-0.05784669735617935
1772562318677150200,6.006150146484375,0.2544306881427765,-0.031713235124945637,-0.038676644396781916
1772562318687217200,6.016217041015625,0.2722667890846729,-0.02930938885360956,0.011463058778643608
1772562318697284000,6.0262841796875,0.22740531857311724,-0.021015900021791458,0.029838892620429394
1772562318707352000,6.03635205078125,0.1468371593862772,0.0006014730244874954,0.026767157024890183
1772562318717419300,6.046419189453125,0.03781213652193546,0.022369360457360744,-0.01522277663834393
1772562318727486200,6.056486328125,-0.011575286981463432,-0.008296411441266536,-0.07406622994691132
1772562318737553200,6.06655322265625,-0.01727262184023857,-0.021681670454144476,-0.10580825277492403
1772562318747621000,6.07662109375,0.0475789127767086,-0.03853080618530512,-0.1403800191361457
1772562318757688000,6.08668798828125,0.043398996743559834,-0.07913374246954917,-0.14922858456745744
1772562318767755000,6.096755126953125,-0.03979951094686985,-0.06899900968521833,-0.15996310987584292
1772562318777822000,6.106822021484375,-0.09062427377700805,-0.016126958936452863,-0.18719941878244278
1772562318787889200,6.11688916015625,-0.16922025610804556,0.0060106385916471475,-0.18007435267549007
1772562318797957000,6.12695703125,-0.1601566596865654,0.02790039883852005,-0.12503306812886147
1772562318808024000,6.137024169921875,-0.03731938456892967,0.031843291245400904,-0.06578640431426465
1772562318818091300,6.14709130859375,0.0933189196884632,0.028877427177131175,-0.029523944919742643
1772562318828158200,6.157158203125,0.09145254129469395,0.006607143180072307,-0.02170958137437701
1772562318838225200,6.16722509765625,0.0493739794999361,0.018021394380927085,-0.050015017349831756
1772562318848293000,6.177293212890625,0.08193594040870666,0.05263385807871818,-0.09015055531803517
1772562318858360000,6.187360107421875,0.13966682936549185,0.03750701609551906,-0.04219546617269516
1772562318868427000,6.197427001953125,0.22700492107868192,-0.0031792145580053326,-0.002044182646088302
1772562318878494000,6.207493896484375,0.2229454165548086,-0.027886954835057258,0.013635288251191377
1772562318888561200,6.21756103515625,0.16933716048598288,-0.01669043803811073,-0.003380399685911834
1772562318898629000,6.227629150390625,0.10226327364444732,-0.010458265650272369,-0.08002860895004123
1772562318908696000,6.237696044921875,0.05488718996345997,0.00481149193495512,-0.11883549213036894
1772562318918763300,6.24776318359375,0.060868602460622784,0.021140695445239544,-0.07812664778623729
1772562318928830200,6.257830322265625,0.07397709035873412,-0.04134352551847696,-0.0551439412035048
1772562318938897200,6.267897216796875,0.11810673946440219,-0.057869128383696074,-0.08700487770345061
1772562318948965000,6.277965087890625,0.10895312667191027,-0.05259907902628183,-0.10527253846302628
1772562318959032000,6.288031982421875,0.08187456561028957,-0.043785073451697826,-0.10555018636062741
1772562318969099000,6.29809912109375,0.08790507794618606,-0.0003214870393276214,-0.08867321277447045
1772562318979166000,6.308166015625,0.12872574863433836,0.025302783560752867,-0.019556933385133743
1772562318989233000,6.31823291015625,0.10774199731647968,0.02266658983826637,0.0072973174013197415
1772562318999301000,6.328301025390625,0.06759294227957725,0.06777882024049758,0.022316424693726
1772562319009368000,6.3383681640625,0.029169395861029623,0.07688157962858677,-0.026730734004639087
1772562319019435300,6.348435302734375,0.02841886975467205,0.08417056759297847,-0.057978945433720945
1772562319029502200,6.358502197265625,0.07450023745000361,0.060386371901631354,-0.04796093436423689
1772562319039569200,6.368569091796875,0.1454734698176384,0.019111527705192564,-0.022022556313686072
1772562319049637000,6.37863720703125,0.17707155413031578,-0.0004842763856053352,-0.013595029306039213
1772562319059704000,6.3887041015625,0.11514438252747058,-0.033711715465784074,-0.03845565858986229
1772562319069771000,6.39877099609375,-0.052987493821978565,0.023294658608734607,-0.08492061877530067
1772562319079838000,6.408837890625,-0.14873919361531734,0.061629649960994716,-0.09417882445342839
1772562319089905000,6.41890478515625,-0.08275719366371631,0.0672705784574151,-0.07170275221858173
1772562319099973000,6.42897314453125,-0.00404722956418991,0.041083705538511275,-0.02928096647672355
1772562319110040000,6.4390400390625,0.04515080884695053,0.017146072851121425,-0.017134747739508748
1772562319120107300,6.449107177734375,0.012550854015350341,-0.013734803102910517,-0.05283595652207732
1772562319130174200,6.45917431640625,-0.030661095723509786,-0.00615647680312395,-0.08233549765292554
1772562319140241200,6.4692412109375,-0.028898177704215048,0.031870179252326485,-0.08499295335914939
1772562319150309000,6.47930908203125,0.059575640040636056,0.027213877879083154,-0.0535939352825284
1772562319160376000,6.4893759765625,0.15494447799623012,-0.011591945855319499,-0.01383581579197198
1772562319170443000,6.499443115234375,0.1864198127120733,-0.018261632877588273,0.014657507438398897
1772562319180510000,6.509510009765625,0.1837275048881769,-0.028328268861770627,-0.009177432059496641
1772562319190577200,6.5195771484375,0.17053776844739912,-0.011144202087819575,-0.01603120694439858
1772562319200645000,6.52964501953125,0.14084054931998252,-0.00540010547786951,-0.06026011517345905
1772562319210712300,6.53971240234375,0.10844868428111076,-0.03650573009848594,-0.07431775702256709
1772562319220779300,6.549779296875,0.10608137062788009,-0.04726210191249847,-0.10025514869242906
1772562319230846200,6.55984619140625,0.058169864895939824,-0.0007458499312400817,-0.07311623574569821
1772562319240913200,6.5699130859375,-0.008760814082622527,0.02463613634556532,-0.09755407304018736
1772562319250981000,6.579981201171875,-0.0686146865427494,0.026905834843218325,-0.12903291488736868
1772562319261048000,6.590048095703125,-0.03901215996146202,0.02040273655951023,-0.16393767606262116
1772562319271115000,6.600114990234375,0.04442191005051136,0.003928279359638691,-0.1645258877467364
1772562319281182000,6.610181884765625,0.03739128076136112,-0.018189444424211977,-0.09847864053919911
1772562319291249200,6.620249267578125,0.010509703576564788,0.02801438060700893,-0.0648672436427325
1772562319301317000,6.630317138671875,0.01968202106952667,0.0360240840613842,-0.039153358530439435
1772562319311384300,6.64038427734375,0.04550269102454185,0.050580724941194054,-0.07841857993751764
1772562319321451300,6.650451171875,0.0659305620253086,0.06050736793279647,-0.0907218523999676
1772562319331518200,6.660518310546875,0.12344693144857882,0.048508010320365426,-0.0894769303727895
1772562319341585200,6.670585205078125,0.1489279941856861,0.036384149545431135,-0.07710278463121503
1772562319351653000,6.680653076171875,0.15599311026632784,0.0008086860343813895,-0.057816740609332916
1772562319361720000,6.690719970703125,0.12527005522251128,-0.013443418940901756,-0.05291135984584689
1772562319371787000,6.700787109375,0.039191023659706115,-0.005596212571859359,-0.09773885502256452
1772562319381854500,6.7108544921875,-0.010302782827615738,0.024098668467998505,-0.13708853984270244
1772562319391922400,6.72092236328125,-0.011304068824648857,0.028130115941166878,-0.1549963543139398
1772562319401989400,6.7309892578125,0.007871171766519545,0.0026528525963425637,-0.1407498022966087
1772562319412056300,6.741056396484375,0.050853988924622534,-0.0051154433175921435,-0.08661635330989956
1772562319422123500,6.75112353515625,0.08824468516409396,-0.02529576929807663,-0.04576846582125872
1772562319432190500,6.7611904296875,0.08490355804264545,-0.011687222923338413,-0.07444189485888927
1772562319442258400,6.771258544921875,0.025441315248608588,-0.028593641799688336,-0.1070582893686369
1772562319452325400,6.781325439453125,0.0009644611179828644,-0.011838029570877552,-0.15839447231963277
1772562319462392300,6.791392333984375,0.02926058127582073,0.011150339567661285,-0.18710056151784957
1772562319472459300,6.801459228515625,0.09768822081387042,0.012008125440776347,-0.14812811251226812
1772562319482526500,6.8115263671875,0.2187456267774105,-0.010849310794472693,-0.13333799167014657
1772562319492594400,6.821594482421875,0.2525941203653812,-0.019989187322556973,-0.047844724106043575
1772562319502661400,6.831661376953125,0.22774434126913545,-0.018901099824905395,-0.06452537140250206
1772562319512728600,6.841728515625,0.17561258749365805,-0.0115635965436697,-0.09981474798116832
1772562319522795500,6.85179541015625,0.12285247268676758,0.028929741886258124,-0.10295859896484762
1772562319532862500,6.861862548828125,0.16693769812881945,0.06063391692191362,-0.09207651841193437
1772562319542930400,6.871930419921875,0.18312369377613066,0.04025076184570789,-0.07389350372850895
1772562319552997400,6.881997314453125,0.12387889312505722,0.008523790456354617,-0.08912296583596617
1772562319563064300,6.892064208984375,0.03650105392336845,0.03834346691966056,-0.1642950381329283
1772562319573131300,6.90213134765625,0.006177811852097511,0.07333879245519638,-0.15686196552272885
1772562319583198200,6.9121982421875,0.07855915745198726,0.06093640699982643,-0.09545187659654766
1772562319593266400,6.922266357421875,0.14337503623366354,0.050294016954302787,-0.03722260966356843
1772562319603333400,6.93233349609375,0.1585620839715004,0.06558072567433118,0.01565342314057052
1772562319613400600,6.942400634765625,0.1336129361540079,0.05000643218457698,0.014066227014362812
1772562319623467500,6.952467529296875,0.10627543189525604,0.025008184528350828,-0.01739222963191569
1772562319633534500,6.962534423828125,0.11047580619454384,0.008080722863972186,-0.08482263829354196
1772562319643602400,6.9726025390625,0.1817412995070219,0.02573532975912094,-0.1090180816669017
1772562319653669400,6.98266943359375,0.28149288259148597,-0.03685936584174633,-0.09306585824284702
1772562319663736300,6.992736328125,0.2795440866112709,-0.08240735731273889,-0.047330052582174535
1772562319673803300,7.00280322265625,0.22577099536955356,-0.053902562840282914,-0.026409246965311467
1772562319683870200,7.0128701171875,0.18934066859483717,-0.03385959950387478,-0.053134172283671795
1772562319693938400,7.0229384765625,0.12401274863779545,-0.0193561501160264,-0.05630860106870532
1772562319704005400,7.03300537109375,0.03957856167256832,-0.027879940572381016,-0.05109254692085087
1772562319714072600,7.043072509765625,0.010564648634195328,-0.03359451882690191,-0.05215553650986403
1772562319724139500,7.053139404296875,0.008459785309433936,-0.02107201412320137,-0.0717491121109575
1772562319734206500,7.06320654296875,-0.033333529803156854,0.009411971467733383,-0.0718004039067775
1772562319744274400,7.0732744140625,-0.1163940903276205,0.007208616204559802,-0.052851409819535906
1772562319754341400,7.08334130859375,-0.16495207726955413,0.012327274392545223,-0.07103164802398532
1772562319764408300,7.093408203125,-0.14061433934867382,0.03636661388874054,-0.11577584883142263
1772562319774475300,7.103475341796875,-0.08826163629889487,0.022129998743534086,-0.12434808153938501
1772562319784543500,7.11354345703125,-0.05615326437652111,-0.009300327786803245,-0.09665635701548307
1772562319794610400,7.1236103515625,-0.003122515934705734,-0.026329788520932196,-0.08158727310150861
1772562319804677400,7.133677490234375,0.02006371386349201,-0.014326631516218184,-0.06974759956281631
1772562319814744600,7.14374462890625,0.06609072102308274,0.023862813885509968,-0.06095467330887913
1772562319824811500,7.1538115234375,0.17327859158813952,0.027164193518459796,-0.05430442163944244
1772562319834879500,7.16387939453125,0.21443302427530286,0.008450725220143795,-0.03763067900780588
1772562319844946400,7.173946533203125,0.24776012433767317,0.0017746084570884704,0.009986045028641819
1772562319855013400,7.184013427734375,0.28924890354573723,0.015097908149659632,0.017600429022498428
1772562319865080300,7.194080322265625,0.2404348960161209,0.022025369325280188,0.006104710083268582
1772562319875147300,7.204147216796875,0.19266484458148478,0.03949409825950861,0.009188939834199845
1772562319885214200,7.214214111328125,0.10770458791553973,0.04381897572129965,-0.009448869412019847
1772562319895282400,7.224282470703125,0.01818798311948776,0.07180676058232784,-0.058314314867928624
1772562319905349400,7.234349365234375,0.0240203425347805,0.10219254649579525,-0.10602255311273037
1772562319915416600,7.24441650390625,0.023936171382665634,0.04914280109256506,-0.11710738969612866
1772562319925483500,7.2544833984375,0.04965688809454441,0.046617082007229325,-0.057723436302691694
1772562319935551500,7.264551513671875,0.07561433617174625,0.06661942107230424,-0.04421685246508568
1772562319945618400,7.274618408203125,0.058142392367124554,0.0763113785251975,-0.008936645573563873
1772562319955685400,7.284685302734375,0.03610591712594032,0.06748772833943367,-0.017460070703737438
1772562319965752300,7.29475244140625,0.011111176601052283,0.06315086817890406,-0.05528181530423462
1772562319975819300,7.3048193359375,0.009729366853833198,0.060979661619663235,-0.1214133432617411
1772562319985887500,7.314887451171875,0.07574819168448448,0.053443713156878944,-0.14225052571576088
1772562319995954400,7.324954345703125,0.1702344015866518,-0.0009074702337384223,-0.14348832388240843
1772562320006021400,7.335021484375,0.19277531921863555,-0.03846738556027412,-0.13040522615388034
1772562320016088600,7.345088623046875,0.16408523130714892,-0.05484247403889894,-0.139509885238111
1772562320026155500,7.355155517578125,0.10330722973942756,-0.02956950109452009,-0.1331855045221746
1772562320036223500,7.365223388671875,0.07328209383189678,-0.004009820163249969,-0.14253800088763235
1772562320046290400,7.37529052734375,0.12208148831427097,-0.03409486956447363,-0.120402704914473
1772562320056357400,7.385357421875,0.10001403341293334,-0.029223464135825633,-0.11302735384088008
1772562320066424300,7.39542431640625,0.04509294117987156,-0.01668488508015871,-0.1132427866898477
1772562320076491300,7.4054912109375,0.058392567735910415,0.0057893970564007755,-0.1032959776930511
1772562320086559500,7.4155595703125,0.1049696099936962,0.011018822142481803,-0.05222834601774812
1772562320096626400,7.42562646484375,0.0813806446135044,-0.01339227327555418,-0.03780618170518428
1772562320106693600,7.435693603515625,0.016543138521909712,-0.030813948197662828,-0.08775248120035975
1772562320116760600,7.445760498046875,-0.034278701698780056,-0.017282850973308086,-0.1584393709072843
1772562320126827500,7.45582763671875,-0.0822130037844181,0.022919103294610974,-0.1774309254946187
1772562320136895500,7.4658955078125,-0.05710018983781338,0.04701075749993324,-0.12885536636337638
1772562320146962400,7.47596240234375,0.05367138443291187,0.023398703505098817,-0.06432959310207516
1772562320157029400,7.486029296875,0.1775748274773359,-0.03724836515933275,-0.0006332564022392034
1772562320167096300,7.496096435546875,0.25185645374059673,-0.05359218171685934,-0.0003828618377447128
1772562320177163300,7.506163330078125,0.25438392639160157,-0.034035248331725595,-0.02904171436075121
1772562320187231500,7.5162314453125,0.22658114270865917,-0.02454670449644327,-0.038712555960379536
1772562320197298400,7.52629833984375,0.142009008577466,0.00040828853994607925,-0.010814056818000971
1772562320207365600,7.53636572265625,0.06813654763698578,0.02543517776876688,-0.005399192162416875
1772562320217432600,7.5464326171875,0.0740700293391943,0.0029787235498428344,-0.014405834232270718
1772562320227499500,7.55649951171875,0.06508709693849087,-0.0264776725590229,-0.04999631264936179
1772562320237567500,7.5665673828125,0.03563771509230137,-0.008352525542676448,-0.06420114441681653
1772562320247634400,7.576634521484375,0.022032968109846115,-0.026135142731666564,-0.06140380531586706
1772562320257701400,7.586701416015625,0.00504325486421585,-0.0443047134116292,-0.07335420922003685
1772562320267768300,7.596768310546875,-0.03615852409601211,-0.037111002515256404,-0.08520542706605047
1772562320277835300,7.606835205078125,-0.07603110027909278,-0.029493805509805678,-0.09985416667610407
1772562320287903200,7.6169033203125,-0.10308043524622916,-0.010101707297563552,-0.13062489678654818
1772562320297970400,7.626970458984375,-0.08219605264961719,0.004842763856053352,-0.10118778990004211
1772562320308037600,7.63703759765625,0.002732639834284782,0.023173662577569483,-0.06481313883531838
1772562320318104600,7.6471044921875,0.08540449330210685,0.01879354779720306,-0.024772804869897663
1772562320328172500,7.657172607421875,0.13996902718245982,0.018778642489016055,0.01512380977589637
1772562320338239500,7.667239501953125,0.16185352673232553,0.03259118700325489,0.02735588016565889
1772562320348306400,7.677306396484375,0.17052198635637758,0.014171148693561553,0.05012571118269116
1772562320358373400,7.687373291015625,0.20048867007493973,-0.017397125002741813,0.006150156660191714
1772562320368440300,7.6974404296875,0.2160223392933607,-0.014995909079909324,-0.022409181011095642
1772562320378508300,7.70750830078125,0.16854922497868538,-0.04444558318704366,-0.042564007224142546
1772562320388575200,7.7175751953125,0.08210311366915703,-0.03850421043932438,-0.09307327436432242
1772562320398642200,7.72764208984375,0.030281741017103195,0.0065390463799238204,-0.09575696049034595
1772562320408709400,7.73770947265625,0.02499766313433647,0.026512743872404095,-0.07155285888649524
1772562320418776300,7.7477763671875,0.06477905390262603,0.0005438976183533668,-0.04404555101878941
1772562320428844300,7.75784423828125,0.11136544851064681,-0.04721767824888229,-0.033660642865672705
1772562320438911200,7.7679111328125,0.08973112432956695,-0.04693067800104618,-0.00246346750408411
1772562320448978200,7.777978271484375,0.06849018338024616,-0.033306349535286425,-0.0008133622094988822
1772562320459045000,7.788045166015625,0.004962590843439102,-0.020297522619366643,-0.07713796554245055
1772562320469112000,7.798112060546875,-0.004018587991595268,-0.0020528408765792846,-0.14427972998842598
1772562320479180300,7.80818017578125,0.002627425894141197,-0.012221768191456794,-0.17768932070247828
1772562320489247200,7.818247314453125,0.025580431458353994,-0.02373363454788923,-0.1632203581061214
1772562320499314400,7.828314453125,0.055017538344860076,-0.005845803418755531,-0.13225925652273
1772562320509381400,7.83838134765625,0.07706862663328647,0.01830401071459055,-0.05211480264067649
1772562320519448300,7.8484482421875,0.10868541564643383,0.023089491425454616,-0.017948913666605948
1772562320529516300,7.858516357421875,0.0934194574534893,0.033203181421756746,-0.01903049835823476
1772562320539583200,7.868583251953125,0.06709609867334365,0.01664484533071518,-0.055530529368296264
1772562320549650200,7.878650146484375,0.055039165654778476,0.023925065466761587,-0.08879201684854925
1772562320559717000,7.888717041015625,0.05980360357761383,0.025236148065328597,-0.12582483956106005
1772562320569784000,7.8987841796875,0.09001870909929274,0.051663844002783295,-0.09189612034372985
1772562320579852300,7.908852294921875,0.13457389014065266,0.050481063959002495,-0.02629274444617331
1772562320589919200,7.918919189453125,0.15624036302566527,0.023012919057905673,-0.012481149780005215
1772562320599986400,7.928986328125,0.14944997223317621,0.021071429601311684,-0.06822692933417857
1772562320610053400,7.939053466796875,0.10394026694595813,0.05268208113461732,-0.110633554039523
1772562320620120300,7.949120361328125,0.029694881039857863,0.05925941369831562,-0.08968019785992801
1772562320630188300,7.959188232421875,-0.013058219015598296,0.06304185484647751,-0.06665997227840126
1772562320640255200,7.969255126953125,0.01582183851003647,0.06453501601368189,-0.05644545225612819
1772562320650322200,7.979322265625,0.09025251785516739,0.03149930011332035,-0.06011420389674604
1772562320660389000,7.98938916015625,0.19436638780236243,-0.02179915935397148,-0.07097133267149329
1772562320670457300,7.999457275390625,0.20181261215507984,-0.044081426049768925,-0.06089592885896563
1772562320680524300,8.009524169921875,0.18625614658296108,-0.02013034935891628,-0.04441599176637828
1772562320690591200,8.01959130859375,0.11232698701918124,0.003372399042546749,-0.034099107348173854
1772562320700658400,8.029658447265625,0.03680675887167453,0.01185205809623003,-0.04551511211469769
1772562320710725400,8.039725341796874,-0.03010638445019722,0.023712299498915672,-0.08255414537228643
1772562320720793300,8.04979345703125,-0.07211831074953079,0.011927753680944442,-0.1102906588859856
1772562320730860300,8.0598603515625,-0.0865004718452692,0.037868250623345374,-0.12436938005574047
1772562320740927200,8.06992724609375,-0.04206920944452285,0.025054654018580914,-0.09297902020961046
1772562320750994200,8.079994140625,0.007167991933226585,-0.023648878873884678,-0.06720204326584935
1772562320761061000,8.09006103515625,-0.00973404302895069,-0.02269113975763321,-0.050161988072469826
1772562320771129300,8.10012939453125,-0.014916414102911947,-0.012780571117997169,-0.07870835666432976
1772562320781196300,8.1101962890625,-0.025987843215465545,-0.02371668341308832,-0.1757114447582513
1772562320791263200,8.12026318359375,-0.03469312771856785,-0.0420998968437314,-0.2144325858838856
1772562320801330400,8.130330322265625,0.007958850049972533,-0.038811961214244364,-0.22436416077893226
1772562320811397400,8.1403974609375,0.044133740758895874,-0.049691082625091074,-0.21241547390781343
1772562320821465300,8.15046533203125,0.12425532522201538,-0.012928747417032718,-0.17486257284395396
1772562320831532300,8.1605322265625,0.2096609875679016,-0.03845394155681133,-0.13190109073482453
1772562320841599200,8.17059912109375,0.237415255934,-0.03937631709873676,-0.062055401092395185
1772562320851666200,8.180666259765625,0.22943477857410907,-0.02259732399433851,-0.014238441776111721
1772562320861733000,8.190733154296876,0.1932476129055023,-0.010505319662392138,0.0031458237450569864
1772562320871801000,8.200801025390625,0.15831366216838358,-0.005097323139011859,-0.028844219027273355
1772562320881868300,8.210868408203124,0.15288053120374678,-0.0010775661036372185,-0.07242065469697118
1772562320891935200,8.220935302734375,0.10412614490687847,-0.0029153029248118398,-0.10571319490261376
1772562320902002400,8.23100244140625,0.0748281542301178,-0.016366612911224366,-0.1185895545452833
1772562320912069400,8.2410693359375,0.026724340796470642,0.004186930295825004,-0.11628314076643437
1772562320922137300,8.251137451171875,0.004344751206040382,0.028614976848661898,-0.09190419405233115
1772562320932204300,8.261204345703124,0.0233668470621109,0.013252280282974243,-0.06649385846387594
1772562320942271200,8.271271240234375,0.06578501607477664,0.02175999638736248,-0.042842714567668735
1772562320952338200,8.281338134765624,0.08106441827118396,0.03512158226370811,0.007730338523723184
1772562320962405000,8.291405029296875,0.04214461276829243,0.03642214346826076,-0.00023154373355209826
1772562320972473000,8.30147314453125,0.02891162170767784,0.04900163905620575,-0.009748400347866117
1772562320982540300,8.311540283203126,0.09391863914728164,0.06701192752122878,-0.006087101361341774
1772562320992607200,8.321607177734375,0.11318214254379272,0.0473959574252367,-0.0038961306557059286
1772562321002674400,8.33167431640625,0.10731120468378066,0.051776656727492806,0.01837415334135294
1772562321012741400,8.341741455078125,0.07898585843145847,0.0714662765815854,0.05194784857593476
1772562321022809300,8.351809326171875,0.08704232363700866,0.059634676751494406,0.023791977139003575
1772562321032876300,8.361876220703126,0.02357084520161152,0.07461597278416156,0.01590860347803682
1772562321042943200,8.371943115234375,-0.004964928930997848,0.08228431545495986,0.006786920193769037
1772562321053010200,8.38201025390625,0.03212064688205719,0.08086188143640756,-0.003732099200412631
1772562321063077000,8.3920771484375,0.06543254937529563,0.0883233033582568,0.024842143779061732
1772562321073145000,8.40214501953125,0.02418985388278961,0.04374269561469555,0.027282303472794592
1772562321083212300,8.41221240234375,-0.035171266624331475,0.02526040572375059,-0.035034305839054286
1772562321093279500,8.422279541015625,-0.05937047285735607,0.05424538492858409,-0.09123634126074612
1772562321103346400,8.432346435546876,0.020478724405169485,0.08559212482869624,-0.09685286596827208
1772562321113413400,8.442413330078125,0.08688041107356548,0.06399988622367382,-0.07133687804825603
1772562321123481300,8.4524814453125,0.05496902302801609,0.06961217314749955,-0.0336147213647142
1772562321133548300,8.46254833984375,0.05539864661693573,0.057876727168262004,-0.03227638543304056
1772562321143615200,8.472615234375,0.0727583622187376,0.038543957927823065,-0.06284231368638575
1772562321153682200,8.48268212890625,0.13056699258685112,0.040250177323818206,-0.09705942139104008
1772562321163750100,8.492750244140625,0.24226971022784707,0.0018698855251073835,-0.10059928595498203
1772562321173817000,8.502817138671874,0.3008095774799585,-0.01302753161638975,-0.05911277176924049
1772562321183884000,8.512884033203125,0.3459258995354175,-0.03648760991990566,-0.020085085445083677
1772562321193951500,8.522951416015625,0.2598983058989048,-0.024896833108365535,-0.03185582193341106
1772562321204018400,8.533018310546876,0.06487140836119651,-0.01355477036088705,-0.07650854506511241
1772562321214086400,8.54308642578125,-0.057036476951837535,0.02615180160552263,-0.1483452989269048
1772562321224153300,8.5531533203125,-0.05442717123627663,0.06427402698993682,-0.1832690935961902
1772562321234220300,8.56322021484375,0.039137832167744635,0.05264934790879488,-0.10858180914148688
1772562321244287200,8.573287353515624,0.0801829592615366,-0.0048310734182596205,-0.01818520664051175
1772562321254354200,8.583354248046875,0.06454115349352359,-0.017028876212239266,-0.0012629326079040765
1772562321264422100,8.593422119140625,-0.01941314100027084,0.01903115594536066,-0.02755005103088915
1772562321274489000,8.603489013671876,-0.11822247479856013,0.019274609312415123,-0.11536982531379908
1772562321284556000,8.61355615234375,-0.1588917543172836,0.049639060176908965,-0.1703781574388966
1772562321294623500,8.62362353515625,-0.0902262143701315,0.03502805876135826,-0.161550780926086
1772562321304690400,8.6336904296875,0.031737785044312475,0.014631167420744894,-0.08935439997166394
1772562321314758400,8.64375830078125,0.07455752059519291,0.010453004953265189,-0.013565657081082462
1772562321324825300,8.653825439453126,0.1327636258482933,0.007744622777402401,0.012934081179276108
1772562321334892300,8.663892333984375,0.14416297174096107,0.022362053933739662,0.0004980126500129699
1772562321344959200,8.673959228515624,0.18606617696881292,0.029019465996325013,0.011333148788660765
1772562321355026200,8.684026123046875,0.19664485412836075,0.025270634856820105,0.007675320400856435
1772562321365094100,8.69409423828125,0.19854104313850401,0.016054185961186886,-0.0023738164592534304
1772562321375161000,8.7041611328125,0.1519341902643442,0.011730185282230377,-0.022120829056389627
1772562321385228300,8.714228271484375,0.10512217020690441,-0.014839549474418163,-0.06105966805331409
1772562321395295500,8.72429541015625,-0.005984335106611251,-0.004836626376211643,-0.12462594863269477
1772562321405362400,8.734362548828125,-0.06952712521255015,0.012416121719777583,-0.1923456956297159
1772562321415430400,8.744430419921875,-0.002758358797430992,0.01585398721396923,-0.21772483236230908
1772562321425497300,8.754497314453126,0.0619745178759098,-0.03475450251698494,-0.16731391103006898
1772562321435564300,8.764564208984375,0.10367957018315792,-0.036949382212758064,-0.09774638074189423
1772562321445631200,8.77463134765625,0.1053098017334938,-0.021994097404181956,-0.04661671668104827
1772562321455698400,8.784698486328125,0.08742635451853274,0.007736439470946788,-0.003637845045700669
1772562321465766400,8.794766357421874,0.014324877950549125,0.033843817412853236,-0.030376397030614316
1772562321475833300,8.804833251953125,-0.014001637345552443,0.04325520435869693,-0.046069019670411944
1772562321485900300,8.814900390625,0.04141863658130169,0.028463877940177917,-0.049972968306392425
1772562321495967500,8.824967529296876,0.08533025902211666,0.02200052714496851,-0.042406368977017696
1772562321506034400,8.835034423828125,0.04711772500574588,0.010956862822175025,-0.010240458181127905
1772562321516102400,8.845102294921874,0.04949497553110122,0.01909165396094322,-0.031936193693242965
1772562321526169300,8.85516943359375,0.035620763957500454,0.008080430603027343,-0.06898892668262124
1772562321536236300,8.865236328125,-0.04203881430625915,-0.00996200656592846,-0.08958857405371963
1772562321546303200,8.87530322265625,-0.08090776640474796,0.023115502649545667,-0.1189391717005521
1772562321556371500,8.885371337890625,-0.08063654824793338,0.014927520018815994,-0.14842019079402088
1772562321566438400,8.8954384765625,-0.0207744924813509,0.038617899946868414,-0.12873024214636533
1772562321576504600,8.905504638671875,0.02510579968392849,0.05649257933348417,-0.09016611821334808
1772562321586571500,8.915571533203124,0.04841244099140167,0.02348667404949665,-0.09693524702209978
1772562321596638500,8.925638427734375,0.031231004565954207,-0.014066519275307655,-0.10652162520866841
1772562321606706400,8.93570654296875,0.036382395979762075,0.01626870549470186,-0.13863112964220345
1772562321616773400,8.9457734375,0.08859481377601623,0.04565817384719848,-0.157625168447569
1772562321626840300,8.95584033203125,0.13636954138576984,0.06148118140101432,-0.11642233004141599
1772562321636907300,8.9659072265625,0.19257950438559054,0.050880292409658426,-0.06185089149624109
1772562321646975200,8.975975341796875,0.29109657723903654,0.03347264601290226,-0.004736563535220921
1772562321657042200,8.986042236328124,0.31153087798058987,0.006833060890436172,-0.02355458818655461
1772562321667109400,8.996109375,0.36140228560864923,-0.012395078931748866,-0.07654171668235212
1772562321677176600,9.006176513671875,0.369112713855505,-0.05483984369039535,-0.1002776893178001
1772562321687243500,9.016243408203126,0.29783553010523317,-0.042370238217711444,-0.12501582473311573
1772562321697311500,9.0263115234375,0.20158114148676395,-0.014558394445478915,-0.13046660095229745
1772562321707378400,9.03637841796875,0.16903262458145618,0.03502542841285467,-0.0910005962761119
1772562321717445400,9.0464453125,0.09598141689598559,0.006286532923579216,-0.11219495813734828
1772562321727512300,9.05651220703125,0.0318587810754776,-0.011369535276293754,-0.13521481839269398
1772562321737579300,9.066579345703126,0.0036509237229824065,-0.0002811550289392471,-0.1197694850448519
1772562321747647200,9.076647216796875,-0.019018004202842713,-0.012174714179337024,-0.1406047678027302
1772562321757714200,9.086714111328124,-0.01722644461095333,-0.0200467627286911,-0.12341313877683133
1772562321767781400,9.096781494140625,-0.043515316599607466,-0.042425183275341984,-0.10730356936659663
1772562321777848600,9.1068486328125,-0.02313771448135376,-0.04311579588800669,-0.09155527101680636
1772562321787915500,9.11691552734375,-0.008238251513242721,-0.030095570795238016,-0.08444196841288358
1772562321797983500,9.1269833984375,-0.012175590962171554,-0.0308610022097826,-0.1042614617243409
1772562321808050400,9.137050537109374,0.045320904716849325,-0.05551818134337663,-0.10105009846240282
1772562321818117400,9.147117431640625,0.1003425347149372,-0.03535217614918947,-0.08889229888524859
1772562321828184300,9.157184326171874,0.12346505162715911,-0.028273616065084932,-0.06069211338255554
1772562321838251300,9.167251220703125,0.08497077805995941,-0.024855332054197786,-0.03775222302824258
1772562321848319200,9.1773193359375,0.05746668506264686,-0.007569850732386112,-0.020359299276582896
1772562321858386200,9.18738623046875,0.041675241690874096,0.016437047798931598,-0.010814531742036343
1772562321868453400,9.197453369140625,0.06004325755238533,0.022441256649792192,0.02222710244245827
1772562321878520600,9.2075205078125,0.06970072821378707,-0.002421381928026676,0.04572502853833139
1772562321888587500,9.21758740234375,0.04884206458032131,-0.030368250256776808,0.007807751141488552
1772562321898655500,9.227655517578125,0.03166471980810165,-0.021862287718057632,-0.020076354149356483
1772562321908722400,9.237722412109376,-0.0015460603982210158,-0.005298983190953731,-0.05109050109423697
1772562321918789400,9.247789306640625,-0.0185305129468441,0.0023494857355952263,-0.0583796717217192
1772562321928856300,9.257856201171874,-0.07289572486281394,0.021083412300050258,-0.028263313866779206
1772562321938923300,9.26792333984375,0.00037467853128910064,0.04484861102998256,-0.02013729055635631
1772562321948991200,9.2779912109375,0.05114683439135551,0.019730536386370658,0.014301241346634923
1772562321959059500,9.2880595703125,0.09275660963058471,0.0002601122409105301,0.0034181013477966185
1772562321969126400,9.29812646484375,0.06257365281283855,-0.01416208860427141,-0.031623912873677905
1772562321979193300,9.308193359375,0.0048322424620389935,0.011678747355937958,-0.08721110433265566
1772562321989260500,9.318260498046875,0.0555915388405323,0.04378653475642204,-0.10350790341068059
1772562321999328300,9.328328369140625,0.1722609389781952,0.030085341662168502,-0.07294007546119391
1772562322009395500,9.3383955078125,0.23432371965944765,0.0071843585461378095,-0.006390541287325322
1772562322019462400,9.34846240234375,0.2225280679255724,-0.009169979405403136,0.0273235487986356
1772562322029529300,9.358529296875,0.17912381048500536,-0.009967267262935639,-0.02610562437623739
1772562322039596300,9.36859619140625,0.08756547072827815,-0.004646949023008346,-0.07200315993726253
1772562322049664500,9.37866455078125,0.050611996862292286,0.007355623459815978,-0.10537713134866207
1772562322059731500,9.3887314453125,0.06728665280938148,0.028175124126672745,-0.08715005832780152
1772562322069798400,9.39879833984375,0.08377893792688847,0.02292202590405941,-0.07003511126730591
1772562322079865300,9.408865234375,0.07849486004412173,0.007240472647547722,-0.09263053556550294
1772562322089932500,9.4189326171875,0.06322714828550816,-0.021865502588450908,-0.11053327200282365
1772562322100000300,9.429000244140624,0.0845440770804882,-0.019478899712860584,-0.13870112613849342
1772562322110067500,9.4390673828125,0.12833821062147616,-0.010276771603524684,-0.14380137188695372
1772562322120134400,9.449134521484375,0.13765081336796284,-0.025992519390583037,-0.12954437154084444
1772562322130201300,9.459201416015626,0.08112930020093917,0.006884791077673435,-0.1092873635949567
1772562322140268300,9.469268310546875,-0.04219721973836422,0.024573884764313696,-0.09663841949999331
1772562322150336300,9.479336181640624,-0.056145081070065495,0.029018589213490483,-0.12884667160026728
1772562322160403500,9.489403564453125,0.03126373779177666,0.0022568390160799027,-0.15868461437262593
1772562322170470400,9.499470458984375,0.15444354273676872,-0.040810441555082795,-0.11030947318430989
1772562322180537300,9.509537353515626,0.24110826523303985,-0.07419394797980786,-0.06134411101788282
1772562322190604500,9.5196044921875,0.24256372473835944,-0.07961948015987873,-0.040722690206393596
1772562322200672500,9.529672607421874,0.1701478923469782,-0.04507891265451908,-0.05107088307831436
1772562322210739500,9.539739501953125,0.06738426796495914,-0.003895253872871399,-0.08276311194784938
1772562322220806400,9.549806396484374,0.001404021579027176,0.017894553130865097,-0.09893657690715044
1772562322230873300,9.559873291015625,0.016381810480356217,0.03199818954616785,-0.10913494951222091
1772562322240940300,9.569940185546875,0.007082651737332343,0.026366905660927295,-0.09717413381189108
1772562322251008300,9.58000830078125,-0.004529460123181343,0.01300531978458166,-0.07867313922047614
1772562322261075500,9.590075439453125,-0.0024351181924343107,0.03347819897085428,-0.07178579085953533
1772562322271142400,9.600142333984374,0.04624678739011288,0.018350187943875787,-0.038880021481774746
1772562322281209300,9.610209228515625,0.041433249628543854,-0.0018096797704696655,-0.04392228996530175
1772562322291276500,9.620276611328125,0.018135376149415967,-0.012982815691828726,-0.0829346325898543
1772562322301344500,9.630344482421876,0.010679799446463585,-0.002777063497900963,-0.11301299652196466
1772562322311411500,9.640411376953125,0.00547463201880455,0.047744624732434744,-0.143622983112745
1772562322321478400,9.650478515625,0.08224398344457148,0.030342823554575443,-0.10769487023912369
1772562322331545300,9.66054541015625,0.17698095323741436,0.03988748149126768,-0.035423049428313966
1772562322341613300,9.67061328125,0.19219138185083864,0.03209755826741457,0.039704708802886304
1772562322351680300,9.68068017578125,0.1432861889064312,0.037601124119758605,0.048847179146856066
1772562322361747200,9.690747314453125,0.11850479887127875,0.04276858988553285,0.04798972206730395
1772562322371814400,9.700814453125,0.13005085975825786,0.029639643721282482,-0.00362239174824208
1772562322381881300,9.71088134765625,0.07954349231421946,-0.008743570686876773,-0.037391646087542176
1772562322391949000,9.720948974609374,-0.001322188514471054,-0.0015384616136550901,-0.09675547000840305
1772562322402016300,9.731016357421876,-0.026357845571637152,0.020930267564952372,-0.10217179596871137
1772562322412083200,9.741083251953125,-0.032332828328013416,0.012311784562468528,-0.10080032495241611
1772562322422150100,9.751150146484376,0.014572715231776237,-0.007767419131100177,-0.061782137108966705
1772562322432217000,9.761217041015625,0.0771802703142166,-0.033283260920643806,-0.034622985091805454
1772562322442285000,9.77128515625,0.06784954738914967,-0.02696048763990402,-0.03209806972406804
1772562322452352000,9.78135205078125,0.0762479579001665,-0.00912234087139368,-0.07280947135146706
1772562322462419000,9.7914189453125,0.03310848887562751,-0.01873831047862768,-0.09427446684762834
1772562322472486100,9.801486083984376,0.0240203425347805,0.0018014964640140532,-0.10418361071515828
1772562322482553300,9.81155322265625,0.08409341070353984,0.0028264555975794792,-0.08486169166229665
1772562322492621000,9.82162109375,0.12859072407782077,-0.010773030687868595,-0.03147741707507521
1772562322502688300,9.831688232421875,0.1636544386744499,-0.011904080544412136,-0.04257902213018387
1772562322512755200,9.841755126953124,0.18540858984291553,-0.026131927861273288,-0.052599700080789624
1772562322522822100,9.851822265625,0.11781214043200015,-0.038840018264949316,-0.06429959982261062
1772562322532889000,9.86188916015625,0.025741174978017804,0.01805909604281187,-0.07772332768235356
1772562322542957000,9.87195703125,0.051666474351286885,0.06982786172479391,-0.12716763247214258
1772562322553024000,9.88202392578125,0.060893736901879304,0.006324526846408844,-0.06625431408695877
1772562322563091000,9.892091064453124,0.12544599631130696,0.006550736817717551,-0.05367412437926978
1772562322573158100,9.902158203125,0.07695756747424602,0.05249474186897277,-0.02723229031860828
1772562322583225300,9.912225341796875,-0.020631284618377686,0.0707540366590023,-0.006664499390497803
1772562322593293300,9.922293212890626,-0.06850362738370895,0.09401537752002477,-0.011516469466313718
1772562322603360300,9.9323603515625,-0.03775076172351837,0.09182195912897587,-0.015203998872637748
1772562322613427200,9.94242724609375,0.0313140066742897,0.09700988316088914,-0.026011735547706482
1772562322623494100,9.952494140625,0.04509001857042312,0.0949114495769143,-0.04049479973465204
1772562322633562000,9.96256201171875,0.012713351100683211,0.08104746713638306,-0.0806197432436049
1772562322643629000,9.972629150390626,-0.049210313370823856,0.06968699194937944,-0.13710220304187387
1772562322653696000,9.982696044921875,0.03490823177397251,0.05432400312274694,-0.1555390098232776
1772562322663763000,9.992762939453126,0.18216741596460342,0.023082184901833534,-0.12075970165859908
1772562322673830100,10.002830078125,0.30861703636050225,-0.001914309188723564,-0.06009531653318554
1772562322683898000,10.012898193359375,0.38287352818250653,-0.029112112715840337,-0.01635747975669801
1772562322693965300,10.02296533203125,0.37137422904670236,-0.053684536175429814,-0.019413762054778634
1772562322704032300,10.0330322265625,0.24841888050734995,-0.04681757301539182,-0.07811795302312821
1772562322714099200,10.04309912109375,0.17462708358764648,-0.011641045694053172,-0.12605828299075364
1772562322724166100,10.053166259765625,0.15421967085301874,-0.004734919567406177,-0.1142202899524942
1772562322734234000,10.063234130859374,0.1557166314125061,-0.014532675482332705,-0.08136822352334856
1772562322744301000,10.073301025390625,0.16475450887084006,-0.03237579068690538,-0.04583879111111164
1772562322754368000,10.083367919921875,0.11520517280399799,-0.054503743603825566,-0.04711867485381663
1772562322764435000,10.09343505859375,0.04023088810145855,-0.07514554961621761,-0.12305058907475322
1772562322774502100,10.103502197265625,-0.057228784653544425,-0.056573827876150604,-0.1504799363354221
1772562322784570000,10.113570068359374,-0.15508242516219614,-0.05726882440298795,-0.17554774209652094
1772562322794637300,10.12363720703125,-0.13776128800511359,-0.014734335534274577,-0.16977756119724363
1772562322804704300,10.133704345703125,-0.050151978135108945,-0.026751521064341068,-0.11984503449909388
1772562322814771200,10.143771240234376,0.03181728002130985,-0.02249415588080883,-0.07297737526427954
1772562322824838100,10.153838134765625,0.04502396759688854,-0.016009762297570704,-0.03725055711641907
1772562322834906000,10.163906005859374,-0.015256021320819853,0.019532967987656594,-0.054538376525789495
1772562322844973000,10.17397314453125,-0.05364274286031723,0.061167877668142315,-0.06830196733176708
1772562322855040000,10.1840400390625,0.042294834893941875,0.06881225494146347,-0.07735723431631922
1772562322865107000,10.19410693359375,0.17017536487579343,0.055578971619904036,-0.03587722293660044
1772562322875174100,10.204174072265625,0.2610515675872564,0.05019318692833185,0.04163936665989458
1772562322885242000,10.2142421875,0.21444237662553786,0.05470598817765712,0.11638079245463014
1772562322895309300,10.224309326171875,0.08677811974287032,0.11202508146315812,0.09887238909713923
1772562322905376300,10.234376220703124,0.06262099908590317,0.14442133041620253,0.07210004444047809
1772562322915443200,10.244443115234375,0.10270166506171226,0.13896686440259218,0.08375657996460795
1772562322925511200,10.25451123046875,0.11492869395017623,0.08478110070675611,0.09564502454847097
1772562322935578000,10.264578125,0.08215805872678757,0.03212240044772625,0.0745771386111155
1772562322945645000,10.27464501953125,-0.03479892618060112,0.02849807247072458,0.006814465787820518
1772562322955712000,10.2847119140625,-0.09950725293457507,0.03843786720484495,-0.08549469233620911
1772562322965779000,10.294779052734375,-0.07537117506563663,0.030787060190737247,-0.12002261955570429
1772562322975847200,10.30484716796875,-0.04713993683755398,0.010984043090045451,-0.09345069284196943
1772562322985914000,10.3149140625,-0.01248947921693325,0.026754735934734344,-0.04386986565832048
1772562322995981300,10.324981201171875,0.030984920850396155,0.027581249886751175,-0.011749912896007299
1772562323006048300,10.33504833984375,0.11549801827073096,-0.0010346037447452544,-0.004203881430625916
1772562323016115200,10.345115234375,0.12507482491135596,0.012137304778397083,-0.02154189665727317
1772562323026183200,10.35518310546875,0.1106517472833395,0.009877543152868748,-0.05602656925693154
1772562323036250000,10.36525,0.1167079785823822,0.01039718311280012,-0.09788973473533988
1772562323046317000,10.375317138671875,0.1388110893189907,0.035437224084138866,-0.096858382393606
1772562323056384000,10.385384033203126,0.21138123548924923,0.05108633637577295,-0.034187625881843264
1772562323066451200,10.395451171875,0.2484995445281267,0.03917290348112583,0.019633030828647313
1772562323076519000,10.405518798828124,0.22487959948778152,0.025363866098225114,0.018285013753175733
1772562323086586000,10.415586181640625,0.13981412888169287,0.03350304115116596,-0.019416794262081382
1772562323096653300,10.4256533203125,0.077485390740633,0.06191401986032724,-0.09113149264678358
1772562323106720300,10.43572021484375,0.0027630349725484846,0.05734305868297815,-0.12472294273376464
1772562323116787200,10.445787109375,-0.024206220495700835,0.03442541669309139,-0.0950377428377047
1772562323126855200,10.455855224609374,0.014495558342337608,0.05049567700624465,-0.07749087063334882
1772562323136922000,10.465922119140625,0.0614472791314125,0.042833471815288064,-0.06356964158024639
1772562323146989000,10.475989013671875,0.0005284077882766723,0.04033376395404339,-0.05471336776651442
1772562323157056000,10.486055908203125,-0.08010580237209797,0.060816580012440676,-0.03715498778745532
1772562323167124000,10.4961240234375,-0.06509820285439491,0.06932371159493923,-0.038357385847158726
1772562323177191000,10.50619091796875,0.041571196794509886,0.011418342854082584,-0.05501118166930973
1772562323187258400,10.51625830078125,0.19113339723050593,-0.047637949487566944,-0.07367690183576196
1772562323197325300,10.5263251953125,0.24565350744724274,-0.08390899404734373,-0.05678878580108285
1772562323207392300,10.536392333984375,0.13744038548767565,-0.06714081459790468,-0.07596599915362894
1772562323217460200,10.546460205078125,0.04009527902305126,-0.021880992418527603,-0.11871624966487287
1772562323227527200,10.556527099609376,0.012202478969097137,-0.00009089315384626388,-0.1208571341510862
1772562323237594000,10.566593994140625,0.02456628597974777,0.018709376645088194,-0.03373400036282837
1772562323247661000,10.5766611328125,0.06715338181853293,0.008804945485293864,0.01750822069440037
1772562323257728000,10.58672802734375,0.06420739149451256,-0.010839666183292865,0.05173493647761643
1772562323267796000,10.5967958984375,-0.02557809337079525,-0.023709084628522396,-0.011250512006506324
1772562323277863000,10.60686279296875,-0.1087041203469038,-0.010874152974784373,-0.08572462863456458
1772562323287930400,10.616930419921875,-0.12000234395265579,0.0013210194706916808,-0.17002061270549892
1772562323297997300,10.626997314453124,-0.12271160291135311,-0.013087445110082625,-0.18342150767892598
1772562323308064300,10.637064208984375,-0.05351823969781398,-0.014318155948817728,-0.15672606418337673
1772562323318132200,10.64713232421875,0.051552492582798,-0.009393266767263412,-0.10339425043575465
1772562323328199200,10.65719921875,0.08581132053732872,-0.013666706302762031,-0.09929945540279149
1772562323338266000,10.66726611328125,0.10977204183936118,-0.027525428046286105,-0.11672186097726225
1772562323348333000,10.6773330078125,0.2840980966538191,-0.012274375161528586,-0.11111125455386936
1772562323358401000,10.687401123046875,0.27687106800973416,-0.03611819208562374,0.06851517169103026
1772562323368468000,10.697468017578124,0.172470197814703,-0.03337473859637975,0.09082056353408843
1772562323378535000,10.707534912109375,0.350693844589591,0.057986032761633395,0.0017767273489385843
1772562323388602000,10.71760205078125,0.2623796013206243,0.013278291507065295,-0.010006722490489482
1772562323398669000,10.7276689453125,0.16216683046519756,-0.022503508231043814,-0.019026662433333695
1772562323408737000,10.737737060546875,0.11778700599074363,-0.057258303008973596,-0.06594751316010952
1772562323418804000,10.747803955078124,0.08899170413911342,-0.040650867079198356,-0.12730514124669134
1772562323428871000,10.757870849609375,0.05651566794812679,-0.007415829214453697,-0.1286179043456912
1772562323438937900,10.767937744140625,0.056250879532098765,-0.023348434622585772,-0.09518390984274447
1772562323449004800,10.7780048828125,0.036032267367839814,-0.058495151327550406,-0.04455547330230474
1772562323459073000,10.788072998046875,0.038327100306749344,-0.06601794804781674,-0.021936156671866772
1772562323469140000,10.798139892578124,0.023662030616402624,-0.0533563271343708,-0.04925758657865226
1772562323479207000,10.80820703125,0.04497662132382393,-0.021442601001262662,-0.02631740396339446
1772562323489274000,10.818274169921875,0.0010328501790761947,0.0504480384722352,-0.007046228717081248
1772562323499341000,10.828341064453125,0.033467385315895076,0.06352583897113799,-0.03230287158116698
1772562323509409000,10.838408935546875,0.05616203220486641,0.007674772411584854,-0.03243924784455448
1772562323519476000,10.84847607421875,0.03995499376952648,0.013309563428163527,0.038795156209915874
1772562323529543000,10.85854296875,0.12095745272040366,-0.024388883586227893,0.038942601856589314
1772562323539609900,10.86860986328125,0.11061316883862019,-0.04903992523998022,0.04340031191781163
1772562323549676800,10.8786767578125,0.050122752040624614,0.02080225727111101,0.0239481175487861
1772562323559745000,10.8887451171875,0.007943067958950997,0.09234043004512786,0.0350925022996962
1772562323569812000,10.89881201171875,-0.023997546181082723,0.059595806045830244,0.0442378952531144
1772562323579879200,10.908879150390625,0.009181085321307183,0.05051467396765947,0.0285650367597118
1772562323589946000,10.918946044921874,0.000893149447441101,0.02390402267873287,0.020117416812106964
1772562323600014000,10.92901416015625,-0.024539982494711874,0.061729018682241434,0.01063994236011058
1772562323610081000,10.9390810546875,-0.03793956229388713,0.09425970766991376,-0.03518303012736142
1772562323620148000,10.94914794921875,0.011771101814508437,0.07493132234364748,-0.019007994265481828
1772562323630215000,10.95921484375,0.1588017379462719,0.004091945488750934,0.007015395187400281
1772562323640281900,10.96928173828125,0.3369213398247957,-0.06313216347843409,-0.0357311289967969
1772562323650350000,10.97935009765625,0.44285657998025413,-0.1090174240797758,-0.13159213438350706
1772562323660417000,10.9894169921875,0.3727589614033699,-0.1170934707686305,-0.1772182691246271
1772562323670484000,10.99948388671875,0.23490414989590644,-0.057257133965194225,-0.11860511744059622
1772562323680551200,11.00955126953125,0.200310975420475,-0.022293957133591173,-0.0688785981759429
1772562323690618000,11.0196181640625,0.2226011331617832,-0.03140343852341175,-0.006357990724593401
1772562323700686000,11.02968603515625,0.1663350560605526,0.028867782565951346,0.06882694105394184
1772562323710753000,11.0397529296875,0.15806699393093585,0.08314005550146103,0.09316051425635814
1772562323720820000,11.049820068359375,0.20084990460276603,0.0959597895860672,0.1172670007046312
1772562323730887000,11.059886962890625,0.11114625280201434,0.02587473822981119,0.10741422666683792
1772562323740953900,11.069953857421876,-0.008172785061597824,-0.05962473987936973,0.025067221239209174
1772562323751022000,11.08002197265625,-0.08591302734613418,-0.08817600384205579,-0.14930391482599079
1772562323761089000,11.090089111328124,-0.09634498951137066,-0.08115268107652664,-0.2311795033495873
1772562323771156000,11.100156005859375,-0.12653963676691055,-0.07687690345346927,-0.15703151340335605
1772562323781223200,11.11022314453125,-0.19506138432919978,-0.08089461466223001,-0.12778032101038841
1772562323791290000,11.1202900390625,-0.16636778928637502,-0.04970803375989198,-0.11528919782564043
1772562323801358000,11.130358154296875,-0.18404314670860766,-0.021959902873635292,-0.062366585933417075
1772562323811425000,11.140425048828124,-0.09505962587594985,-0.012097849550843238,-0.05649926480259746
1772562323821492000,11.150491943359375,0.004751578441262245,-0.01564882003068924,-0.027885712726041675
1772562323831559000,11.160558837890624,0.04304653004407882,-0.03324380569308996,0.0028683219779282805
1772562323841627100,11.170627197265626,0.06391103889644145,-0.013833879563212394,-0.0026319924714043735
1772562323851694000,11.180694091796875,0.08222235613465309,-0.016892974872887132,-0.051868061337992544
1772562323861761000,11.190760986328126,0.10582944169342517,-0.01769961508065462,-0.1232287586532533
1772562323871828000,11.200827880859375,0.18008885612487793,-0.005313596238195896,-0.12556684621199965
1772562323881895200,11.210895263671874,0.2408662731707096,-0.030895489001274107,-0.11621179256327449
1772562323891963000,11.220962890625,0.22322657158374784,-0.0439887793302536,-0.08861519897691905
1772562323902030000,11.231030029296875,0.15033903002738952,0.00514087001979351,-0.1068672237759456
1772562323912097000,11.241096923828126,0.0567810408860445,0.06609305911064148,-0.19062486318647862
1772562323922164000,11.2511640625,0.21991174794733523,0.012213877145946026,-0.14085673326980322
1772562323932231000,11.26123095703125,0.18897066623866557,0.05657148978859186,0.06820716518778354
1772562323942299000,11.271298828125,0.1447404793679714,0.0818558609098196,0.3333195524731651
1772562323952366000,11.281365966796875,-0.0053916299104690545,0.14968670359849928,0.3662290481779724
1772562323962433000,11.29143310546875,-0.024966098952293396,0.22039660885483026,0.1506738149397075
1772562323972500000,11.3015,-0.07908698071837425,0.07304477794468403,-0.14650522401817143
1772562323982567200,11.311567138671874,-0.01424012227654457,-0.10292319885790348,-0.4206020415415987
1772562323992635100,11.32163525390625,-0.07963526225090026,0.059498190890252586,-0.5705398703569546
1772562324002702000,11.3317021484375,0.002978139027953148,0.07785042466074228,-0.47582113034054635
