time,seconds_elapsed,z,y,x
1772458187602301400,0.074301513671875,-0.0204753614962101,-0.06681881099939346,-0.32882067561149597
1772458187612369700,0.08436962890625,-0.03504498675465584,-0.08352748304605484,-0.29968035221099854
1772458187622438400,0.0944384765625,-0.04607025906443596,-0.10623791068792343,-0.26202747225761414
1772458187632506400,0.10450634765625,-0.04927484318614006,-0.13952235877513885,-0.23497723042964935
1772458187642575600,0.11457568359375,-0.039268624037504196,-0.18074125051498413,-0.23025137186050415
1772458187652643300,0.124643310546875,-0.01971755549311638,-0.18338896334171295,-0.2361513376235962
1772458187662712300,0.13471240234375,-0.0012453768867999315,-0.11951228976249695,-0.23056168854236603
1772458187672780500,0.144780517578125,0.01078012678772211,-0.06881742179393768,-0.22088722884655
1772458187682849300,0.154849365234375,0.015969933941960335,-0.046230774372816086,-0.20741748809814453
1772458187692917200,0.164917236328125,0.01864321529865265,-0.036236196756362915,-0.18352361023426056
1772458187702986500,0.174986572265625,0.009671979583799839,-0.04097327962517738,-0.1544804722070694
1772458187713054500,0.185054443359375,0.007700175046920776,-0.03540594130754471,-0.12735112011432648
1772458187723122400,0.195122314453125,0.009222345426678658,0.0023147203028202057,-0.09075908362865448
1772458187733191400,0.20519140625,0.023359736427664757,0.05013656988739967,-0.057260241359472275
1772458187743259400,0.21525927734375,0.04218730330467224,0.09277865290641785,-0.022515766322612762
1772458187753328400,0.225328369140625,0.05871807783842087,0.0979427844285965,0.0011096682865172625
1772458187763396600,0.235396728515625,0.06150375306606293,0.08429835736751556,0.001169032882899046
1772458187773465300,0.24546533203125,0.05563041567802429,0.05881962925195694,-0.006447607651352882
1772458187783533300,0.255533203125,0.044296592473983765,0.016318030655384064,-0.03240145370364189
1772458187793602600,0.2656025390625,0.03228466957807541,-0.03562106564640999,-0.07209693640470505
1772458187803670500,0.27567041015625,0.013606218621134758,-0.06689547002315521,-0.11228324472904205
1772458187813739500,0.285739501953125,-0.016082167625427246,-0.059396278113126755,-0.15149429440498352
1772458187823807500,0.295807373046875,-0.04039418697357178,-0.04148361086845398,-0.19866333901882172
1772458187833876500,0.30587646484375,-0.06121025234460831,-0.03353887051343918,-0.25225651264190674
1772458187843944200,0.315944091796875,-0.0711418092250824,-0.0275346040725708,-0.3090146481990814
1772458187854013400,0.326013427734375,-0.07206486165523529,-0.025569457560777664,-0.3531903624534607
1772458187864081400,0.336081298828125,-0.06772670894861221,0.0007235291413962841,-0.3740043640136719
1772458187874150400,0.346150390625,-0.05773107334971428,0.03984856233000755,-0.37145358324050903
1772458187884218400,0.35621826171875,-0.038002077490091324,0.07572721689939499,-0.3490736186504364
1772458187894287400,0.366287353515625,-0.011331052519381046,0.09075117856264114,-0.32716643810272217
1772458187904355600,0.37635546875,0.022855699062347412,0.09340663999319077,-0.2849418520927429
1772458187914423600,0.386423583984375,0.05822460725903511,0.08848884701728821,-0.23523154854774475
1772458187924492300,0.3964921875,0.09523651003837585,0.05708307772874832,-0.1868397295475006
1772458187934560500,0.406560546875,0.12858542799949646,0.019199077039957047,-0.13396692276000977
1772458187944629500,0.41662939453125,0.16002707183361053,-0.012034086510539055,-0.08537492901086807
1772458187954697500,0.426697509765625,0.18277287483215332,-0.0464186891913414,-0.047544192522764206
1772458187964766500,0.436766357421875,0.19949667155742645,-0.07887336611747742,-0.013517772778868675
1772458187974834400,0.44683447265625,0.20899109542369843,-0.08213706314563751,0.015890982002019882
1772458187984903400,0.4569033203125,0.21350505948066711,-0.06933560967445374,0.04016433283686638
1772458187994971400,0.466971435546875,0.2141524851322174,-0.06218981742858887,0.05167131870985031
1772458188005040400,0.477040283203125,0.20361268520355225,-0.05680632218718529,0.05247168242931366
1772458188015108400,0.4871083984375,0.1846267431974411,-0.05331625044345856,0.045393265783786774
1772458188025177600,0.497177490234375,0.15879109501838684,-0.0597025491297245,0.03566283732652664
1772458188035245300,0.507245361328125,0.13792335987091064,-0.06287889927625656,0.031592726707458496
1772458188045314300,0.517314208984375,0.10527940839529037,-0.054723504930734634,0.04165761172771454
1772458188055382500,0.527382568359375,0.07641393691301346,-0.0462178997695446,0.04863962158560753
1772458188065451300,0.537451171875,0.051053620874881744,-0.04549361392855644,0.0613950677216053
1772458188075519200,0.547519287109375,0.03056592121720314,-0.050194624811410904,0.06916937232017517
1772458188085588500,0.55758837890625,0.008866919204592705,-0.054171621799468994,0.07366422563791275
1772458188095656400,0.567656494140625,-0.017259225249290466,-0.0568411722779274,0.06992914527654648
1772458188105724400,0.577724365234375,-0.04085526615381241,-0.06465399265289307,0.0551435649394989
1772458188115793400,0.58779345703125,-0.0626806691288948,-0.05798357352614403,0.03871399164199829
1772458188125861400,0.597861328125,-0.08286070078611374,-0.04648876190185547,0.02068805694580078
1772458188135930600,0.6079306640625,-0.10449782013893127,-0.02687831036746502,-0.006047415547072887
1772458188145998600,0.61799853515625,-0.12134398519992828,-0.01413808949291706,-0.0279071144759655
1772458188156067300,0.6280673828125,-0.13108156621456146,-0.004534196574240923,-0.052539221942424774
1772458188166135300,0.63813525390625,-0.13762617111206055,0.004742505494505167,-0.07669224590063095
1772458188176204500,0.64820458984375,-0.1452140510082245,0.007518052123486996,-0.09558205306529999
1772458188186272300,0.658272216796875,-0.1557673066854477,0.021037371829152107,-0.1026652455329895
1772458188196341500,0.668341552734375,-0.16407690942287445,0.04800427705049515,-0.09851710498332977
1772458188206409500,0.678409423828125,-0.1682940274477005,0.058545589447021484,-0.09480543434619904
1772458188216478500,0.688478515625,-0.1755431592464447,0.0466788075864315,-0.09209620207548141
1772458188226546400,0.69854638671875,-0.1713368445634842,0.028790736570954323,-0.09192870557308197
1772458188236615400,0.708615478515625,-0.1614232212305069,0.0043373252265155315,-0.0884074717760086
1772458188246683400,0.718683349609375,-0.14674712717533112,-0.030719775706529617,-0.08900776505470276
1772458188256751600,0.728751708984375,-0.12945814430713654,-0.0605144277215004,-0.09080060571432114
1772458188266820400,0.7388203125,-0.10921807587146759,-0.07281257957220078,-0.08279142528772354
1772458188276888300,0.748888427734375,-0.08490261435508728,-0.060050711035728455,-0.07106845825910568
1772458188286957600,0.75895751953125,-0.06337374448776245,-0.05714667588472366,-0.05224088206887245
1772458188297025500,0.769025634765625,-0.05001719295978546,-0.07077939808368683,-0.024338144809007645
1772458188307094300,0.77909423828125,-0.04026388004422188,-0.09698913246393204,0.0013884524814784527
1772458188317162500,0.78916259765625,-0.03203817456960678,-0.11834875494241714,0.03418847918510437
1772458188327231500,0.7992314453125,-0.022330643609166145,-0.14252223074436188,0.06821519136428833
1772458188337299500,0.809299560546875,-0.01249505765736103,-0.17366257309913635,0.09217085689306259
1772458188347368400,0.819368408203125,-0.003882642602548003,-0.20138071477413177,0.12471168488264084
1772458188357436400,0.8294365234375,0.0018767097499221563,-0.2106892615556717,0.15342429280281067
1772458188367505400,0.83950537109375,0.010529480874538422,-0.213868647813797,0.1873481571674347
1772458188377573400,0.849573486328125,0.02526288665831089,-0.21223267912864685,0.21836279332637787
1772458188387642400,0.859642333984375,0.04128940403461456,-0.2239118218421936,0.2456035166978836
1772458188397710300,0.86971044921875,0.05383209511637688,-0.2941862642765045,0.25058630108833313
1772458188407779300,0.879779296875,0.052633628249168396,-0.3724832236766815,0.24433130025863647
1772458188417847300,0.889847412109375,0.039461635053157806,-0.39772680401802063,0.22582100331783295
1772458188427915300,0.899915283203125,0.025145798921585083,-0.3808287978172302,0.19423808157444
1772458188437984500,0.909984619140625,0.008354037068784237,-0.3597738444805145,0.14758563041687012
1772458188448052500,0.920052490234375,-0.009167643263936043,-0.36305585503578186,0.08060897886753082
1772458188458121500,0.93012158203125,-0.041684575378894806,-0.4009909927845001,0.014208382926881313
1772458188468189400,0.940189453125,-0.08500312268733978,-0.42727330327033997,-0.055265262722969055
1772458188478258400,0.950258544921875,-0.12724749743938446,-0.4110354781150818,-0.10173502564430237
1772458188488326400,0.960326416015625,-0.15690767765045166,-0.3415943384170532,-0.12974666059017181
1772458188498395400,0.9703955078125,-0.1592256873846054,-0.2256949096918106,-0.15492978692054749
1772458188508463400,0.98046337890625,-0.14348317682743073,-0.08069960027933121,-0.17125651240348816
1772458188518532600,0.99053271484375,-0.09930665045976639,0.04998357221484184,-0.19564440846443176
1772458188528601000,1.00060107421875,-0.0369885116815567,0.1478208303451538,-0.21027907729148865
1772458188538670000,1.010670166015625,0.023692147806286812,0.21530985832214355,-0.21493826806545258
1772458188548738300,1.02073828125,0.07503405958414078,0.26047804951667786,-0.2108183652162552
1772458188558807000,1.03080712890625,0.11224214732646942,0.28598660230636597,-0.20205655694007874
1772458188568875000,1.040875,0.1465473175048828,0.3005028963088989,-0.18689273297786713
1772458188578943200,1.050943115234375,0.1830643117427826,0.308424711227417,-0.1421220600605011
1772458188589012200,1.06101220703125,0.22194722294807434,0.2898422181606293,-0.08389715105295181
1772458188599080200,1.071080078125,0.25273576378822327,0.2526077628135681,-0.016337813809514046
1772458188609149200,1.081149169921875,0.27401554584503174,0.20744939148426056,0.054402898997068405
1772458188619217200,1.091217041015625,0.2878519892692566,0.1556098908185959,0.11529314517974854
1772458188629286400,1.101286376953125,0.28930485248565674,0.10790930688381195,0.17016497254371643
1772458188639354000,1.11135400390625,0.2820083200931549,0.04931230470538139,0.20597116649150848
1772458188649423000,1.121423095703125,0.27129846811294556,-0.013514263555407524,0.2279832363128662
1772458188659491000,1.131490966796875,0.2508012056350708,-0.07912789285182953,0.23603689670562744
1772458188669560300,1.141560302734375,0.22074481844902039,-0.13391253352165222,0.2316291183233261
1772458188679628000,1.1516279296875,0.19287723302841187,-0.1883171796798706,0.21729731559753418
1772458188689697300,1.161697265625,0.16083887219429016,-0.24593625962734222,0.1933797299861908
1772458188699765200,1.17176513671875,0.12381719797849655,-0.27280542254447937,0.16574516892433167
1772458188709834000,1.181833984375,0.09266422688961029,-0.2553490400314331,0.14197327196598053
1772458188719902200,1.191902099609375,0.07176133990287781,-0.2205175757408142,0.12405181676149368
1772458188729971200,1.20197119140625,0.06156323477625847,-0.19248734414577484,0.11554919183254242
1772458188740039200,1.2120390625,0.057810839265584946,-0.16521470248699188,0.12731316685676575
1772458188750107400,1.222107421875,0.05515601485967636,-0.13289609551429749,0.15959057211875916
1772458188760176000,1.232176025390625,0.054754674434661865,-0.10219943523406982,0.20488695800304413
1772458188770244000,1.242244140625,0.04731445014476776,-0.06953698396682739,0.2654152512550354
1772458188780313300,1.252313232421875,0.03814012557268143,-0.029133101925253868,0.31976932287216187
1772458188790381300,1.26238134765625,0.032780278474092484,0.006773785222321749,0.3673457205295563
1772458188800450000,1.272449951171875,0.0227753147482872,0.03361312299966812,0.3954721689224243
1772458188810518300,1.282518310546875,0.009245466440916061,0.038013018667697906,0.3981892764568329
1772458188820587300,1.292587158203125,0.003412610851228237,0.004450794775038958,0.38625407218933105
1772458188830655000,1.302655029296875,-0.010752007365226746,-0.05178937688469887,0.3623679280281067
1772458188840724200,1.31272412109375,-0.017171556130051613,-0.09684420377016068,0.3375520706176758
1772458188850792200,1.322792236328125,-0.02192811667919159,-0.14426033198833466,0.29330360889434814
1772458188860861200,1.332861083984375,-0.027619557455182076,-0.20268049836158752,0.2453020215034485
1772458188870929200,1.34292919921875,-0.04019438847899437,-0.2630697190761566,0.19330520927906036
1772458188880997000,1.3529970703125,-0.06826330721378326,-0.3556281626224518,0.12625212967395782
1772458188891066000,1.363066162109375,-0.09890599548816681,-0.47400230169296265,0.052674271166324615
1772458188901134300,1.37313427734375,-0.1326514333486557,-0.5894618034362793,-0.02810739353299141
1772458188911203000,1.383203125,-0.18177653849124908,-0.6790448427200317,-0.10615234076976776
1772458188921271000,1.39327099609375,-0.22466515004634857,-0.7107639312744141,-0.17920391261577606
1772458188931340300,1.40334033203125,-0.25935643911361694,-0.6662708520889282,-0.22919926047325134
1772458188941408300,1.413408203125,-0.2829965054988861,-0.5476794838905334,-0.24990133941173553
1772458188951477200,1.423477294921875,-0.2914462685585022,-0.36544662714004517,-0.2552438974380493
1772458188961545200,1.433545166015625,-0.2779533565044403,-0.13368582725524902,-0.2561403214931488
1772458188971614200,1.4436142578125,-0.24488690495491028,0.11419729888439178,-0.2659223675727844
1772458188981682200,1.45368212890625,-0.194457545876503,0.33565378189086914,-0.29289963841438293
1772458188991751200,1.463751220703125,-0.14355766773223877,0.5056982040405273,-0.32003140449523926
1772458189001819100,1.473819091796875,-0.10431253165006638,0.6150350570678711,-0.36645588278770447
1772458189011888400,1.483888427734375,-0.07214857637882233,0.6819980144500732,-0.4236968159675598
1772458189021956000,1.4939560546875,-0.03975148871541023,0.7180801033973694,-0.48242509365081787
1772458189032024000,1.504024169921875,-0.0038681691512465477,0.7110913395881653,-0.5264705419540405
1772458189042093300,1.51409326171875,0.019763657823204994,0.6640300750732422,-0.5662776231765747
1772458189052161300,1.524161376953125,0.019391030073165894,0.5750263929367065,-0.5818845629692078
1772458189062230000,1.53422998046875,0.002193136140704155,0.45066553354263306,-0.5771092176437378
1772458189072298200,1.54429833984375,-0.02117241732776165,0.3022696375846863,-0.5361117720603943
1772458189082367200,1.5543671875,-0.04453366622328758,0.14275482296943665,-0.4657534658908844
1772458189092435200,1.564435302734375,-0.057619608938694,-0.02355930581688881,-0.37217336893081665
1772458189102504200,1.574504150390625,-0.05929366871714592,-0.18329384922981262,-0.26513585448265076
1772458189112572200,1.584572265625,-0.0652967318892479,-0.30506184697151184,-0.15995892882347107
1772458189122641200,1.59464111328125,-0.06479340046644211,-0.3763831555843353,-0.0673413798213005
1772458189132709400,1.60470947265625,-0.040563322603702545,-0.40757986903190613,0.006603158079087734
1772458189142778000,1.614778076171875,0.006292069796472788,-0.43781739473342896,0.06696263700723648
1772458189152846000,1.62484619140625,0.05645899474620819,-0.47814813256263733,0.10182607173919678
1772458189162915300,1.634915283203125,0.09639789164066315,-0.48799917101860046,0.12451726943254471
1772458189172983300,1.6449833984375,0.12348361313343048,-0.4530904293060303,0.15044663846492767
1772458189183051000,1.655051025390625,0.1375379115343094,-0.4066994786262512,0.16700831055641174
1772458189193120300,1.665120361328125,0.14621630311012268,-0.3473760187625885,0.15998956561088562
1772458189203188200,1.675188232421875,0.15284410119056702,-0.27650532126426697,0.1382877230644226
1772458189213257000,1.685257080078125,0.15198911726474762,-0.18332035839557648,0.10194171965122223
1772458189223325200,1.6953251953125,0.14858053624629974,-0.09542272239923477,0.060538362711668015
1772458189233394200,1.705394287109375,0.14698368310928345,-0.03798716142773628,0.01888645440340042
1772458189243462100,1.715462158203125,0.14729847013950348,-0.0031902999617159367,-0.004076384007930756
1772458189253531100,1.72553125,0.14699724316596985,0.014045926742255688,-0.011157147586345673
1772458189263599000,1.73559912109375,0.14242565631866455,0.02962195686995983,-0.0016238290118053555
1772458189273668400,1.74566845703125,0.14588291943073273,0.059198442846536636,0.021276410669088364
1772458189283736300,1.755736328125,0.1606576144695282,0.09943827241659164,0.07262668758630753
1772458189293805000,1.76580517578125,0.18557105958461761,0.1536768674850464,0.13732333481311798
1772458189303873000,1.775873046875,0.22160762548446655,0.1864745020866394,0.2117277979850769
1772458189313942300,1.7859423828125,0.24658499658107758,0.14575965702533722,0.2677828073501587
1772458189324010200,1.79601025390625,0.2572328448295593,0.0698864683508873,0.30121612548828125
1772458189334078000,1.806077880859375,0.2389080971479416,0.025009475648403168,0.33547720313072205
1772458189344147200,1.816147216796875,0.20800292491912842,0.012160789221525192,0.3559017777442932
1772458189354215200,1.826215087890625,0.16386529803276062,0.01407909207046032,0.36385977268218994
1772458189364284200,1.8362841796875,0.1179737076163292,0.022948216646909714,0.34880200028419495
1772458189374352100,1.84635205078125,0.07837115228176117,0.037812091410160065,0.322255939245224
1772458189384421000,1.856421142578125,0.039298586547374725,0.06809648871421814,0.2843623459339142
1772458189394489300,1.8664892578125,0.007786152418702841,0.10733465850353241,0.24752363562583923
1772458189404558000,1.87655810546875,-0.012456269934773445,0.14356829226016998,0.2045503407716751
1772458189414626000,1.8866259765625,-0.019151877611875534,0.18924082815647125,0.16008219122886658
1772458189424695300,1.8966953125,-0.01882936805486679,0.2445586770772934,0.12828299403190613
1772458189434763300,1.90676318359375,-0.005414864048361778,0.2869725823402405,0.10109716653823853
1772458189444832000,1.91683203125,0.016325851902365685,0.2900943458080292,0.07508952915668488
1772458189454900200,1.926900146484375,0.04340151697397232,0.25936397910118103,0.06390239298343658
1772458189464968200,1.93696826171875,0.07703084498643875,0.20746110379695892,0.06344539672136307
1772458189475037200,1.947037109375,0.11350454390048981,0.14608865976333618,0.08461619913578033
1772458189485105200,1.957105224609375,0.15623869001865387,0.10554177314043045,0.12659800052642822
1772458189495174100,1.967174072265625,0.1963864415884018,0.089508555829525,0.18965467810630798
1772458189505242000,1.9772421875,0.22563888132572174,0.10678394883871078,0.26535022258758545
1772458189515311400,1.987311279296875,0.23546990752220154,0.12334506213665009,0.35365644097328186
1772458189525379000,1.997379150390625,0.23436549305915833,0.15207843482494354,0.43662774562835693
1772458189535447600,2.007447509765625,0.21861137449741364,0.2076174020767212,0.5031803846359253
1772458189545515800,2.017515869140625,0.209974467754364,0.2844005823135376,0.5447869300842285
1772458189555584800,2.027584716796875,0.20728379487991333,0.3644716143608093,0.5477327704429626
1772458189565652700,2.03765283203125,0.21354302763938904,0.42221561074256897,0.5197528004646301
1772458189575721700,2.0477216796875,0.22563865780830383,0.4344407021999359,0.4647592306137085
1772458189585789700,2.057789794921875,0.2285556197166443,0.4268112778663635,0.3886788487434387
1772458189595857700,2.067857666015625,0.2272585928440094,0.41035154461860657,0.316112756729126
1772458189605926700,2.0779267578125,0.23656634986400604,0.3794013559818268,0.23224210739135742
1772458189615994600,2.08799462890625,0.2570473849773407,0.3033933639526367,0.14468884468078613
1772458189626064000,2.09806396484375,0.28914913535118103,0.2065581977367401,0.05946716293692589
1772458189636131800,2.1081318359375,0.3037489652633667,0.0966683030128479,-0.004394423216581345
1772458189646200600,2.11820068359375,0.29980480670928955,-0.03391420841217041,-0.06720215082168579
1772458189656268800,2.128268798828125,0.2807336151599884,-0.1902969628572464,-0.12422065436840057
1772458189666337800,2.138337890625,0.22655050456523895,-0.3569362759590149,-0.1878504902124405
1772458189676405800,2.14840576171875,0.1461503505706787,-0.48120826482772827,-0.25783804059028625
1772458189686474800,2.158474853515625,0.0730668231844902,-0.544583261013031,-0.32398349046707153
1772458189696542700,2.168542724609375,0.006680835038423538,-0.5507077574729919,-0.3519621789455414
1772458189706611700,2.17861181640625,-0.05917966738343239,-0.45195189118385315,-0.33792516589164734
1772458189716680000,2.188679931640625,-0.119515560567379,-0.26749640703201294,-0.2889256775379181
1772458189726748700,2.198748779296875,-0.14989104866981506,-0.04771292954683304,-0.23242563009262085
1772458189736816600,2.208816650390625,-0.13692009449005127,0.1680113971233368,-0.19345514476299286
1772458189746884900,2.218884765625,-0.08816774189472198,0.34957054257392883,-0.19225113093852997
1772458189756953600,2.22895361328125,-0.029622312635183334,0.4603549540042877,-0.22206701338291168
1772458189767021600,2.239021484375,0.015344897285103798,0.5176880359649658,-0.2674765884876251
1772458189777090800,2.2490908203125,0.045040473341941833,0.5285824537277222,-0.3180244565010071
1772458189787158800,2.25915869140625,0.06409166008234024,0.5256282091140747,-0.356586754322052
1772458189797227500,2.2692275390625,0.07907726615667343,0.5110631585121155,-0.3775908350944519
1772458189807295700,2.279295654296875,0.08995095640420914,0.4806980490684509,-0.3791644871234894
1772458189817364700,2.28936474609375,0.08923766762018204,0.4251835346221924,-0.3620675802230835
1772458189827432700,2.2994326171875,0.07487311214208603,0.3659937381744385,-0.327169269323349
1772458189837501700,2.309501708984375,0.04972093179821968,0.31989923119544983,-0.2799404561519623
1772458189847569700,2.319569580078125,0.032540079206228256,0.27759653329849243,-0.23175401985645294
1772458189857639000,2.329638916015625,0.023301631212234497,0.23387466371059418,-0.18937967717647552
1772458189867707000,2.339706787109375,0.023836925625801086,0.1843888759613037,-0.15521983802318573
1772458189877775600,2.349775634765625,0.02747926115989685,0.11335589736700058,-0.1321253776550293
1772458189887843600,2.359843505859375,0.0357409231364727,0.025645751506090164,-0.11360123753547668
1772458189897911800,2.369911865234375,0.033547013998031616,-0.07275591045618057,-0.09481771290302277
1772458189907980800,2.379980712890625,0.02329331263899803,-0.16640037298202515,-0.07441417127847672
1772458189918048500,2.390048583984375,0.01745845191180706,-0.24751399457454681,-0.037624541670084
1772458189928117800,2.40011767578125,0.004898184910416603,-0.3284416198730469,0.005161270499229431
1772458189938185700,2.410185791015625,-0.014717837795615196,-0.397290974855423,0.04685264080762863
1772458189948254700,2.420254638671875,-0.037212759256362915,-0.4376048445701599,0.09258417785167694
1772458189958322700,2.43032275390625,-0.07846462726593018,-0.44211629033088684,0.12754635512828827
1772458189968391700,2.4403916015625,-0.11898542195558548,-0.4236818850040436,0.14972569048404694
1772458189978460000,2.4504599609375,-0.16414722800254822,-0.39564988017082214,0.17600689828395844
1772458189988528600,2.460528564453125,-0.21377283334732056,-0.35299909114837646,0.19863790273666382
1772458189998596600,2.4705966796875,-0.26411810517311096,-0.27157488465309143,0.21751326322555542
1772458190008665900,2.480665771484375,-0.2910517156124115,-0.16203241050243378,0.2292386293411255
1772458190018733800,2.49073388671875,-0.304229736328125,-0.1358313113451004,0.21705861389636993
1772458190028801800,2.5008017578125,-0.3159897029399872,-0.19908511638641357,0.1671334058046341
1772458190038870800,2.510870849609375,-0.35508865118026733,-0.24056437611579895,0.1088370755314827
1772458190048938800,2.520938720703125,-0.4207342267036438,-0.22123542428016663,0.05398367717862129
1772458190059007700,2.5310078125,-0.5043581128120422,-0.17402563989162445,0.0029610092751681805
1772458190069075700,2.54107568359375,-0.5865864157676697,-0.13100546598434448,-0.04655487835407257
1772458190079144700,2.551144775390625,-0.6736170649528503,-0.08099815994501114,-0.09899652749300003
1772458190089212700,2.561212646484375,-0.7353704571723938,-0.01687750220298767,-0.16556009650230408
1772458190099281700,2.57128173828125,-0.7634350657463074,0.05915391072630882,-0.23400753736495972
1772458190109349600,2.581349609375,-0.7536892294883728,0.14714181423187256,-0.29484638571739197
1772458190119418600,2.591418701171875,-0.7259795665740967,0.18995298445224762,-0.35774821043014526
1772458190129486800,2.60148681640625,-0.6871802806854248,0.1842506229877472,-0.42157700657844543
1772458190139555600,2.6115556640625,-0.6377925872802734,0.1517103910446167,-0.4786394536495209
1772458190149623600,2.62162353515625,-0.5788688063621521,0.11772099882364273,-0.5248631238937378
1772458190159691800,2.63169189453125,-0.5175997018814087,0.08354984223842621,-0.5360540747642517
1772458190169760800,2.6417607421875,-0.46036893129348755,0.05956675112247467,-0.5186836123466492
1772458190179828700,2.651828857421875,-0.4185810685157776,0.028313420712947845,-0.469771146774292
1772458190189897700,2.661897705078125,-0.38735124468803406,-0.006868001073598862,-0.3909096419811249
1772458190199965700,2.671965576171875,-0.3700339198112488,-0.04708269611001015,-0.29654982686042786
1772458190210034700,2.68203466796875,-0.35356414318084717,-0.09141207486391068,-0.18673598766326904
1772458190220103000,2.69210302734375,-0.347505122423172,-0.12092275172472,-0.06130728870630264
1772458190230171600,2.702171630859375,-0.3408738672733307,-0.12347006052732468,0.07026351988315582
1772458190240239600,2.712239501953125,-0.33085373044013977,-0.11827587336301804,0.19515709578990936
1772458190250308900,2.722308837890625,-0.3136869966983795,-0.11681726574897766,0.28773096203804016
1772458190260376600,2.73237646484375,-0.2881823182106018,-0.11632020026445389,0.3631836473941803
1772458190270445800,2.74244580078125,-0.26984459161758423,-0.10347577184438705,0.41209205985069275
1772458190280513800,2.752513671875,-0.2635217607021332,-0.07293470203876495,0.45017844438552856
1772458190290581800,2.762581787109375,-0.2784418761730194,-0.023726142942905426,0.47580206394195557
1772458190300650800,2.772650634765625,-0.30719810724258423,0.01186598651111126,0.4851524531841278
1772458190310718700,2.78271875,-0.34565469622612,0.034766241908073425,0.4822312295436859
1772458190320787700,2.79278759765625,-0.39101171493530273,0.06827501207590103,0.4790273904800415
1772458190330855700,2.802855712890625,-0.4389323592185974,0.1108831912279129,0.4719633460044861
1772458190340924700,2.812924560546875,-0.47820696234703064,0.14943760633468628,0.4492660462856293
1772458190350992600,2.82299267578125,-0.5162020325660706,0.16378751397132874,0.4222637414932251
1772458190361062000,2.833061767578125,-0.5477624535560608,0.15148493647575378,0.3736532926559448
1772458190371129900,2.8431298828125,-0.572697103023529,0.1124427318572998,0.3176129162311554
1772458190381198600,2.853198486328125,-0.5880996584892273,0.0715707391500473,0.2480606734752655
1772458190391266800,2.863266845703125,-0.5980231761932373,0.016091501340270042,0.1656228005886078
1772458190401335800,2.873335693359375,-0.6070144772529602,-0.03844889625906944,0.08095593750476837
1772458190411403800,2.88340380859375,-0.6272454261779785,-0.08856399357318878,-0.0004512991290539503
1772458190421472800,2.89347265625,-0.6540234684944153,-0.13804897665977478,-0.0836775079369545
1772458190431540700,2.903540771484375,-0.6766443252563477,-0.17723660171031952,-0.15283048152923584
1772458190441608700,2.913608642578125,-0.6831316351890564,-0.19615206122398376,-0.19970186054706573
1772458190451677700,2.923677734375,-0.6916100978851318,-0.20111167430877686,-0.23030716180801392
1772458190461745700,2.93374560546875,-0.6994538903236389,-0.1847134530544281,-0.23491206765174866
1772458190471814700,2.943814697265625,-0.6929078102111816,-0.15886880457401276,-0.23056286573410034
1772458190481883000,2.9538828125,-0.6739231944084167,-0.13242444396018982,-0.20951609313488007
1772458190491951600,2.96395166015625,-0.6437394618988037,-0.11691233515739441,-0.17502549290657043
1772458190502019600,2.97401953125,-0.6116760969161987,-0.11176841706037521,-0.13475003838539124
1772458190512088800,2.9840888671875,-0.5820633172988892,-0.12042476236820221,-0.09731796383857727
1772458190522156800,2.99415673828125,-0.5504292249679565,-0.148956298828125,-0.06331518292427063
1772458190532225300,3.004225341796875,-0.5174121260643005,-0.20294097065925598,-0.045409150421619415
1772458190542293200,3.014293212890625,-0.489719420671463,-0.2716576159000397,-0.03189338743686676
1772458190552361500,3.024361572265625,-0.46221616864204407,-0.32406169176101685,-0.021406393498182297
1772458190562430500,3.034430419921875,-0.4501141309738159,-0.3589990437030792,-0.012139439582824707
1772458190572498400,3.04449853515625,-0.45130401849746704,-0.3705126643180847,-0.006450394168496132
1772458190582567400,3.0545673828125,-0.4558076858520508,-0.36463800072669983,-0.011489533819258213
1772458190592635400,3.064635498046875,-0.4627057909965515,-0.3435841202735901,-0.03021049126982689
1772458190602704600,3.07470458984375,-0.46624553203582764,-0.3253679871559143,-0.05956150218844414
1772458190612772400,3.0847724609375,-0.47453781962394714,-0.3098614513874054,-0.09279242902994156
1772458190622841300,3.09484130859375,-0.4802663326263428,-0.29368916153907776,-0.13045035302639008
1772458190632909600,3.10490966796875,-0.4794921576976776,-0.2695082128047943,-0.16790957748889923
1772458190642978300,3.114978271484375,-0.48090097308158875,-0.25182029604911804,-0.20095057785511017
1772458190653046300,3.12504638671875,-0.471510648727417,-0.237234964966774,-0.23595276474952698
1772458190663115500,3.135115478515625,-0.4585795998573303,-0.2249816507101059,-0.2632565498352051
1772458190673183500,3.14518359375,-0.4397166967391968,-0.2053578794002533,-0.2771039307117462
1772458190683252200,3.155252197265625,-0.42100322246551514,-0.18822473287582397,-0.27544906735420227
1772458190693320400,3.165320556640625,-0.40171074867248535,-0.17298613488674164,-0.26141101121902466
1772458190703388400,3.175388427734375,-0.3744935095310211,-0.15077431499958038,-0.24091024696826935
1772458190713457400,3.18545751953125,-0.3416236937046051,-0.12660746276378632,-0.21172359585762024
1772458190723525600,3.195525634765625,-0.2979995608329773,-0.11405093222856522,-0.188040092587471
1772458190733594400,3.205594482421875,-0.2528483271598816,-0.0982607826590538,-0.15028499066829681
1772458190743662300,3.215662353515625,-0.21106187999248505,-0.08064998686313629,-0.11292698234319687
1772458190753731600,3.225731689453125,-0.17094933986663818,-0.052858032286167145,-0.06769878417253494
1772458190763799600,3.235799560546875,-0.13794566690921783,-0.017141124233603477,-0.015712101012468338
1772458190773868300,3.245868408203125,-0.1091126874089241,0.006632648408412933,0.03486745059490204
1772458190783936500,3.2559365234375,-0.07847440987825394,0.014409277588129044,0.0770447701215744
1772458190794005500,3.266005615234375,-0.05244254693388939,0.025531435385346413,0.11157744377851486
1772458190804073200,3.2760732421875,-0.031203778460621834,0.03266157582402229,0.1401720643043518
1772458190814142500,3.286142578125,-0.012436749413609505,0.05303875356912613,0.16208907961845398
1772458190824210400,3.29621044921875,0.011791560798883438,0.08968830853700638,0.18849116563796997
1772458190834278400,3.3062783203125,0.03408754616975784,0.08577665686607361,0.20323655009269714
1772458190844347400,3.316347412109375,0.0501200333237648,0.05875222012400627,0.2138708382844925
1772458190854415400,3.326415283203125,0.05536060035228729,0.0502583347260952,0.2256723791360855
1772458190864484400,3.336484375,0.057927362620830536,0.04365956410765648,0.24031469225883484
1772458190874552600,3.346552490234375,0.055282577872276306,0.05305972322821617,0.2458151876926422
1772458190884621300,3.356621337890625,0.04461054876446724,0.0839734897017479,0.26191025972366333
1772458190894689300,3.366689208984375,0.028749294579029083,0.13041874766349792,0.2868741750717163
1772458190904758500,3.376758544921875,0.02015472576022148,0.17180025577545166,0.3171250820159912
1772458190914826500,3.386826416015625,0.01895017921924591,0.19941510260105133,0.36209309101104736
1772458190924895500,3.3968955078125,0.01917155832052231,0.20897726714611053,0.4168891906738281
1772458190934963500,3.40696337890625,0.017773929983377457,0.21843895316123962,0.4685819447040558
1772458190945031400,3.417031494140625,0.024413302540779114,0.22586528956890106,0.5013459920883179
1772458190955100400,3.427100341796875,0.032066430896520615,0.22921474277973175,0.5195353627204895
1772458190965168400,3.43716845703125,0.04894931614398956,0.2287958711385727,0.5204172134399414
1772458190975237400,3.4472373046875,0.05790898948907852,0.20117701590061188,0.5008261799812317
1772458190985305300,3.457305419921875,0.06623083353042603,0.14416247606277466,0.45279043912887573
1772458190995374300,3.467374267578125,0.0735103115439415,0.056631021201610565,0.37722113728523254
1772458191005442300,3.4774423828125,0.07645396143198013,-0.0432710275053978,0.28273725509643555
1772458191015511600,3.487511474609375,0.07762601971626282,-0.13100700080394745,0.17997226119041443
1772458191025579500,3.49757958984375,0.07464973628520966,-0.20354875922203064,0.09476834535598755
1772458191035648300,3.507648193359375,0.06389375776052475,-0.2416231781244278,0.04491504281759262
1772458191045716500,3.517716552734375,0.048418812453746796,-0.23705466091632843,0.023650549352169037
1772458191055785500,3.527785400390625,0.04249035194516182,-0.18223294615745544,0.039756014943122864
1772458191065853400,3.537853515625,0.055459946393966675,-0.11881163716316223,0.06636818498373032
1772458191075921400,3.54792138671875,0.0847773477435112,-0.0896843746304512,0.06170978397130966
1772458191085990400,3.557990478515625,0.12299095839262009,-0.09320569783449173,0.00041653914377093315
1772458191096058400,3.568058349609375,0.15168093144893646,-0.09259103983640671,-0.09937609732151031
1772458191106127600,3.578127685546875,0.1814594268798828,-0.05120435357093811,-0.2057379186153412
1772458191116195300,3.5881953125,0.2173157036304474,0.03074723668396473,-0.2799149751663208
1772458191126264300,3.598264404296875,0.2517130672931671,0.13044241070747375,-0.3113386631011963
1772458191136332500,3.60833251953125,0.2971703112125397,0.224269300699234,-0.30700409412384033
1772458191146401300,3.6184013671875,0.33649611473083496,0.2880071997642517,-0.26334553956985474
1772458191156469200,3.62846923828125,0.36192741990089417,0.32660120725631714,-0.1978653520345688
1772458191166538500,3.63853857421875,0.3775748312473297,0.3520967364311218,-0.13009673357009888
1772458191176606500,3.6486064453125,0.3884378671646118,0.37447819113731384,-0.08575963973999023
1772458191186675200,3.65867529296875,0.40881678462028503,0.3725060224533081,-0.06590279191732407
1772458191196743400,3.668743408203125,0.4334651529788971,0.3448448181152344,-0.06997662782669067
1772458191206811400,3.678811279296875,0.4577794671058655,0.2662290334701538,-0.08796070516109467
1772458191216880400,3.68888037109375,0.464539110660553,0.1528172791004181,-0.11758517473936081
1772458191226948600,3.698948486328125,0.453681081533432,0.01772303879261017,-0.12922048568725586
1772458191237017300,3.709017333984375,0.4244491755962372,-0.12953965365886688,-0.14065316319465637
1772458191247085300,3.719085205078125,0.3744848668575287,-0.2815229594707489,-0.14240241050720215
1772458191257154600,3.729154541015625,0.31175705790519714,-0.42835554480552673,-0.1528925895690918
1772458191267222500,3.739222412109375,0.23465217649936676,-0.5343855619430542,-0.17022866010665894
1772458191277291500,3.74929150390625,0.15334613621234894,-0.578119695186615,-0.20742715895175934
1772458191287359500,3.759359375,0.07542765140533447,-0.5759835839271545,-0.2335621565580368
1772458191297428500,3.769428466796875,0.0013520957436412573,-0.5272712111473083,-0.2418893277645111
1772458191307496200,3.77949609375,-0.08079458773136139,-0.42109134793281555,-0.2232181876897812
1772458191317565400,3.7895654296875,-0.14452910423278809,-0.25600677728652954,-0.1965002864599228
1772458191327633400,3.79963330078125,-0.1849968582391739,-0.056241724640131,-0.17746713757514954
1772458191337701400,3.809701416015625,-0.18778225779533386,0.14758969843387604,-0.18810805678367615
1772458191347770400,3.819770263671875,-0.16626861691474915,0.338940292596817,-0.21618014574050903
1772458191357838300,3.82983837890625,-0.12080685794353485,0.48990398645401,-0.26740047335624695
1772458191367907600,3.839907470703125,-0.06515659391880035,0.5833996534347534,-0.31493550539016724
1772458191377975600,3.8499755859375,-0.013924295082688332,0.6158377528190613,-0.3523513078689575
1772458191388044300,3.860044189453125,0.02503269910812378,0.6061350107192993,-0.37243449687957764
1772458191398112500,3.870112548828125,0.05356927216053009,0.5557331442832947,-0.3766891658306122
1772458191408181500,3.880181396484375,0.06990903615951538,0.47863057255744934,-0.38344743847846985
1772458191418249500,3.89024951171875,0.08685020357370377,0.37955060601234436,-0.3877575099468231
1772458191428318500,3.900318359375,0.0937608852982521,0.26123571395874023,-0.3771757185459137
1772458191438386400,3.910386474609375,0.0944887325167656,0.13478218019008636,-0.36698856949806213
1772458191448454400,3.920454345703125,0.08815552294254303,0.01699220947921276,-0.3467799425125122
1772458191458523400,3.9305234375,0.0779992863535881,-0.057123564183712006,-0.31823620200157166
1772458191468591400,3.94059130859375,0.07575569301843643,-0.1025463193655014,-0.2873513102531433
1772458191478660400,3.950660400390625,0.08238696306943893,-0.1295827180147171,-0.26739969849586487
1772458191488728600,3.960728515625,0.09589079022407532,-0.1608351767063141,-0.2613159716129303
1772458191498797300,3.97079736328125,0.11425195634365082,-0.19943609833717346,-0.26231545209884644
1772458191508864500,3.980864501953125,0.129415363073349,-0.21978193521499634,-0.2626846432685852
1772458191518932200,3.99093212890625,0.15031105279922485,-0.23379015922546387,-0.25672101974487305
1772458191529000400,4.00100048828125,0.16606354713439941,-0.2513120472431183,-0.24641214311122894
1772458191539069000,4.01106884765625,0.17033977806568146,-0.28158098459243774,-0.236080139875412
1772458191549137000,4.021136962890625,0.16158072650432587,-0.33693256974220276,-0.2301633358001709
1772458191559206000,4.031205810546875,0.14826439321041107,-0.39951980113983154,-0.23290319740772247
1772458191569273900,4.04127392578125,0.11978723108768463,-0.44976934790611267,-0.22722378373146057
1772458191579343000,4.051343017578125,0.08743568509817123,-0.4759064018726349,-0.218617781996727
1772458191589411000,4.0614111328125,0.057002510875463486,-0.4641854763031006,-0.1944541186094284
1772458191599479800,4.071479736328125,0.02813570946455002,-0.4175197184085846,-0.16162987053394318
1772458191609547800,4.0815478515625,0.005551619455218315,-0.37665584683418274,-0.11075388640165329
1772458191619617000,4.091616943359375,-0.004694625735282898,-0.32663822174072266,-0.06332644820213318
1772458191629685000,4.10168505859375,-0.01117668952792883,-0.2448524534702301,-0.009579397737979889
1772458191639754000,4.11175390625,-0.006473280489444733,-0.12617294490337372,0.034957706928253174
1772458191649822000,4.121822021484375,0.01546193566173315,-0.0419839583337307,0.058883342891931534
1772458191659890000,4.131889892578125,0.04211005941033363,-0.03876286372542381,0.04209637641906738
1772458191669959200,4.141959228515625,0.05116331949830055,-0.06545454263687134,0.020040851086378098
1772458191680027100,4.152027099609375,0.04730439931154251,-0.0771588683128357,-0.002913200296461582
1772458191690095900,4.162095947265625,0.03451615199446678,-0.0613759309053421,-0.017809271812438965
1772458191700164000,4.1721640625,0.015713702887296677,-0.034445784986019135,-0.03083212859928608
1772458191710233000,4.182233154296875,0.0038004862144589424,-0.0318216010928154,-0.05424374341964722
1772458191720300800,4.19230078125,-0.007334190420806408,-0.0725618377327919,-0.08663018047809601
1772458191730370000,4.2023701171875,-0.010752083733677864,-0.12547270953655243,-0.12174131721258163
1772458191740438000,4.21243798828125,0.0013043126091361046,-0.16673332452774048,-0.15965114533901215
1772458191750506800,4.2225068359375,0.0160452239215374,-0.18686118721961975,-0.18917547166347504
1772458191760575000,4.232574951171875,0.03967731446027756,-0.1962253898382187,-0.21191008388996124
1772458191770643000,4.242642822265625,0.059629421681165695,-0.23021428287029266,-0.2364692986011505
1772458191780712000,4.2527119140625,0.08471133559942245,-0.2789407968521118,-0.24961546063423157
1772458191790780200,4.2627802734375,0.10450388491153717,-0.3270929753780365,-0.24399293959140778
1772458191800849000,4.272848876953125,0.10875429213047028,-0.36702388525009155,-0.23004250228405
1772458191810916900,4.282916748046875,0.11123493313789368,-0.38458243012428284,-0.19308188557624817
1772458191820986000,4.292986083984375,0.11419717222452164,-0.37469837069511414,-0.1415334790945053
1772458191831054000,4.30305419921875,0.1212306097149849,-0.3528500497341156,-0.07431415468454361
1772458191841122800,4.313122802734375,0.13418875634670258,-0.33041372895240784,-0.013005259446799755
1772458191851191000,4.32319091796875,0.15049591660499573,-0.28324398398399353,0.07493501156568527
1772458191861260800,4.3332607421875,0.1719447523355484,-0.2024223655462265,0.17967501282691956
1772458191871329000,4.3433291015625,0.1869371384382248,-0.101920947432518,0.2970855236053467
1772458191881398000,4.35339794921875,0.19679589569568634,0.0012379302643239498,0.4173024594783783
1772458191891466000,4.363466064453125,0.20890182256698608,0.09535697102546692,0.5226024985313416
1772458191901535000,4.373534912109375,0.2185099720954895,0.14619778096675873,0.6026560664176941
1772458191911603000,4.38360302734375,0.2174471616744995,0.1507824808359146,0.6511258482933044
1772458191921671000,4.3936708984375,0.2089918851852417,0.1289256513118744,0.6810203194618225
1772458191931740200,4.403740234375,0.1870603859424591,0.11240434646606445,0.694344162940979
1772458191941807900,4.413807861328125,0.1564481407403946,0.10268327593803406,0.68454509973526
1772458191951876900,4.423876953125,0.1180594339966774,0.10011833906173706,0.6598250269889832
1772458191961945000,4.433945068359375,0.0773807093501091,0.10878639668226242,0.6132796406745911
1772458191972013800,4.444013916015625,0.033813171088695526,0.12231890112161636,0.5572648048400879
1772458191982081800,4.454081787109375,-0.007006962317973375,0.1347675919532776,0.47207796573638916
1772458191992151000,4.464151123046875,-0.052446894347667694,0.13468687236309052,0.3695306181907654
1772458192002219000,4.474218994140625,-0.09781597554683685,0.13542376458644867,0.2485208660364151
1772458192012287700,4.484287841796875,-0.14769069850444794,0.1137780100107193,0.1081339418888092
1772458192022356000,4.49435595703125,-0.19412371516227722,0.09766747802495956,-0.04098550230264664
1772458192032424000,4.504423828125,-0.23148413002490997,0.0797761008143425,-0.18430058658123016
1772458192042493000,4.514492919921875,-0.2616969048976898,0.08191248774528503,-0.31217917799949646
1772458192052561200,4.52456103515625,-0.2864382863044739,0.10694560408592224,-0.41527411341667175
1772458192062630000,4.5346298828125,-0.2997879087924957,0.133915975689888,-0.4908410608768463
1772458192072697900,4.54469775390625,-0.29816457629203796,0.16660051047801971,-0.5203059911727905
1772458192082767000,4.55476708984375,-0.286388099193573,0.19956885278224945,-0.5038244724273682
1772458192092835000,4.5648349609375,-0.2625674307346344,0.22254659235477448,-0.44984138011932373
1772458192102904000,4.574904052734375,-0.22411353886127472,0.23216646909713745,-0.37666916847229004
1772458192112972000,4.584971923828125,-0.1736735701560974,0.2151336669921875,-0.2871207296848297
1772458192123041000,4.595041015625,-0.10973212867975235,0.18625834584236145,-0.19491411745548248
1772458192133108700,4.605108642578125,-0.03786855190992355,0.1649528294801712,-0.10139423608779907
1772458192143177000,4.615177001953125,0.04584312438964844,0.1477101892232895,-0.02916823886334896
1772458192153246000,4.625245849609375,0.12296272814273834,0.0935218334197998,0.025723256170749664
1772458192163314000,4.63531396484375,0.1868455708026886,0.02711937576532364,0.060442354530096054
1772458192173383000,4.6453828125,0.23589184880256653,-0.019481243565678596,0.08656793087720871
1772458192183451000,4.655450927734375,0.2692466080188751,-0.05122798681259155,0.097222700715065
1772458192193520000,4.66552001953125,0.2928285598754883,-0.05499347671866417,0.09471452236175537
1772458192203588000,4.675588134765625,0.3088216483592987,-0.02520815283060074,0.08555777370929718
1772458192213656800,4.68565673828125,0.3222653269767761,0.029169637709856033,0.07630600035190582
1772458192223725000,4.69572509765625,0.34027576446533203,0.08241395652294159,0.05805988237261772
1772458192233794000,4.7057939453125,0.36227044463157654,0.1442369967699051,0.04158053174614906
1772458192243862000,4.715862060546875,0.3836814761161804,0.1836906522512436,0.026413828134536743
1772458192253929700,4.7259296875,0.40532416105270386,0.19884593784809113,0.0031859492883086205
1772458192263999000,4.7359990234375,0.42870378494262695,0.2111625224351883,-0.018040509894490242
1772458192274067000,4.74606689453125,0.46139317750930786,0.216398686170578,-0.03534245863556862
1772458192284136000,4.756135986328125,0.49609097838401794,0.20391619205474854,-0.055951330810785294
1772458192294204000,4.766203857421875,0.5325897336006165,0.181705042719841,-0.08333724737167358
1772458192304273000,4.77627294921875,0.5592506527900696,0.15540365874767303,-0.10780531167984009
1772458192314341000,4.786341064453125,0.5820543766021729,0.14834269881248474,-0.1306578516960144
1772458192324409900,4.796409912109375,0.6123656630516052,0.16215971112251282,-0.14391586184501648
1772458192334477800,4.806477783203125,0.6448460221290588,0.1865570843219757,-0.15682287514209747
1772458192344547000,4.816547119140625,0.6761474609375,0.22019946575164795,-0.1652728170156479
1772458192354615000,4.826614990234375,0.7023996710777283,0.2829180955886841,-0.15332761406898499
1772458192364683000,4.83668310546875,0.7352303266525269,0.36553704738616943,-0.11821115761995316
1772458192374752000,4.846751953125,0.7810467481613159,0.46971210837364197,-0.05818045884370804
1772458192384820000,4.856820068359375,0.8409153819084167,0.6342983245849609,0.025136005133390427
1772458192394889000,4.866888916015625,0.9248501658439636,0.7369064688682556,0.09985955059528351
1772458192404957200,4.876957275390625,1.000882625579834,0.6615715026855469,0.11686809360980988
1772458192415026000,4.88702587890625,1.0576176643371582,0.5707394480705261,0.12692730128765106
1772458192425094000,4.897093994140625,1.0989751815795898,0.5104899406433105,0.15038496255874634
1772458192435163100,4.9071630859375,1.1082737445831299,0.4057841897010803,0.17669253051280975
1772458192445230800,4.91723095703125,1.0906939506530762,0.2638286352157593,0.2075633555650711
1772458192455299800,4.9272998046875,1.0482901334762573,0.1389775574207306,0.26189666986465454
1772458192465368000,4.9373681640625,1.0028568506240845,0.04811982437968254,0.3230244517326355
1772458192475436000,4.94743603515625,0.9684398770332336,-0.00982694886624813,0.38112524151802063
1772458192485504800,4.9575048828125,0.958026111125946,-0.037415169179439545,0.41957807540893555
1772458192495573000,4.967572998046875,0.9622007012367249,-0.07313206791877747,0.4376993477344513
1772458192505642000,4.97764208984375,0.9636606574058533,-0.1374516636133194,0.42621421813964844
1772458192515710000,4.9877099609375,0.9622183442115784,-0.20621581375598907,0.386991947889328
1772458192525779000,4.997779052734375,0.9602835774421692,-0.26827627420425415,0.33433592319488525
1772458192535848000,5.007847900390625,0.9622334837913513,-0.29156026244163513,0.29022282361984253
1772458192545917000,5.0179169921875,0.9627181887626648,-0.27270883321762085,0.2503989636898041
1772458192555985000,5.02798486328125,0.9569123387336731,-0.22675374150276184,0.21758615970611572
1772458192566054000,5.038053955078125,0.952523946762085,-0.13072042167186737,0.1977626532316208
1772458192576121900,5.048121826171875,0.9463304281234741,-0.009106472134590149,0.18669745326042175
1772458192586190000,5.058190185546875,0.944607675075531,0.11212274432182312,0.17117363214492798
1772458192596258800,5.0682587890625,0.9419645071029663,0.22435985505580902,0.15253233909606934
1772458192606326800,5.078326904296875,0.955132246017456,0.32038649916648865,0.13425906002521515
1772458192616396000,5.08839599609375,0.9737957119941711,0.4092860817909241,0.13519088923931122
1772458192626464000,5.098464111328125,0.9960131049156189,0.47556257247924805,0.13303638994693756
1772458192636533000,5.108532958984375,1.0212596654891968,0.543341875076294,0.13278335332870483
1772458192646601000,5.11860107421875,1.0668785572052002,0.6467998623847961,0.12861418724060059
1772458192656670000,5.128669921875,1.1368746757507324,0.7440100312232971,0.1218058168888092
1772458192666738000,5.138738037109375,1.2315596342086792,0.7787786722183228,0.09887013584375381
1772458192676807000,5.148806884765625,1.3369947671890259,0.7676419019699097,0.07600446045398712
1772458192686875000,5.158875,1.430368185043335,0.7470506429672241,0.0595402717590332
1772458192696943900,5.16894384765625,1.5158112049102783,0.7167614698410034,0.042411353439092636
1772458192707011800,5.17901171875,1.5954396724700928,0.6590406894683838,0.02714425139129162
1772458192717079800,5.189079833984375,1.6651420593261719,0.5686659216880798,0.018816567957401276
1772458192727149000,5.199149169921875,1.7118839025497437,0.4751375913619995,0.03249642997980118
1772458192737217000,5.209217041015625,1.7288333177566528,0.35193490982055664,0.05190372094511986
1772458192747285800,5.21928564453125,1.7174288034439087,0.1954752653837204,0.07942083477973938
1772458192757354000,5.22935400390625,1.685767412185669,0.034941405057907104,0.11766275018453598
1772458192767423000,5.239423095703125,1.6248856782913208,-0.08013539016246796,0.15688632428646088
1772458192777491000,5.249490966796875,1.5401650667190552,-0.12533454596996307,0.18905009329319
1772458192787560000,5.259559814453125,1.4571186304092407,-0.11966148018836975,0.20061354339122772
1772458192797628000,5.2696279296875,1.3846101760864258,-0.08374113589525223,0.221538245677948
1772458192807697000,5.27969677734375,1.3099253177642822,-0.008050365373492241,0.22836366295814514
1772458192817765000,5.28976513671875,1.233027696609497,0.11218080669641495,0.22363576292991638
1772458192827832800,5.299832763671875,1.162480115890503,0.2610618770122528,0.19429545104503632
1772458192837901800,5.30990185546875,1.1014760732650757,0.40936151146888733,0.13803133368492126
1772458192847970000,5.319969970703125,1.0621403455734253,0.5552045106887817,0.06256429105997086
1772458192858038800,5.330038818359375,1.0362480878829956,0.6786367893218994,-0.02590957283973694
1772458192868106800,5.340106689453125,1.0234133005142212,0.7572178840637207,-0.12023074924945831
1772458192878176000,5.350176025390625,1.0076992511749268,0.7896698713302612,-0.1938174068927765
1772458192888244000,5.360243896484375,0.9864650964736938,0.7783328294754028,-0.2360903024673462
1772458192898312700,5.370312744140625,0.9546879529953003,0.7454115152359009,-0.25191137194633484
1772458192908381000,5.380380859375,0.9220549464225769,0.7126650214195251,-0.23306362330913544
1772458192918450000,5.390449951171875,0.8966925740242004,0.6684083342552185,-0.20062948763370514
1772458192928518000,5.400517822265625,0.8727001547813416,0.616287887096405,-0.1662597954273224
1772458192938586000,5.410586181640625,0.8626964092254639,0.5642363429069519,-0.1358814388513565
1772458192948654800,5.42065478515625,0.8576263189315796,0.5208598375320435,-0.0998467281460762
1772458192958722800,5.430722900390625,0.8562931418418884,0.4979287385940552,-0.0662410780787468
1772458192968792000,5.4407919921875,0.853638231754303,0.4685708284378052,-0.035554539412260056
1772458192978859800,5.45085986328125,0.8467110395431519,0.4272054433822632,-0.012920871376991272
1772458192988929000,5.460928955078125,0.83033287525177,0.38505053520202637,0.008717578835785389
1772458192998997000,5.4709970703125,0.8031031489372253,0.3392716348171234,0.033356599509716034
1772458193009066000,5.48106591796875,0.7646433711051941,0.2987860143184662,0.05253242701292038
1772458193019133700,5.4911337890625,0.7207491397857666,0.2693183720111847,0.07320287078619003
1772458193029203000,5.501202880859375,0.6777364015579224,0.25251489877700806,0.09117867052555084
1772458193039271000,5.51127099609375,0.6392099857330322,0.2504982352256775,0.10397543013095856
1772458193049339000,5.5213388671875,0.6029099822044373,0.24685771763324738,0.10951533913612366
1772458193059408000,5.531407958984375,0.5791451930999756,0.24820171296596527,0.10991427302360535
1772458193069475800,5.541475830078125,0.5584601163864136,0.24822300672531128,0.09806160628795624
1772458193079545000,5.551545166015625,0.5409061312675476,0.24322263896465302,0.07985616475343704
1772458193089613000,5.561613037109375,0.5295528173446655,0.24266763031482697,0.061627089977264404
1772458193099681800,5.571681884765625,0.5168001651763916,0.2433399260044098,0.04618115723133087
1772458193109750000,5.58175,0.5012235641479492,0.2509341835975647,0.026089737191796303
1772458193119819000,5.591819091796875,0.4825352132320404,0.25990116596221924,0.012093711644411087
1772458193129887000,5.601886962890625,0.45281192660331726,0.27312642335891724,-0.011722937226295471
1772458193139956000,5.6119560546875,0.42399343848228455,0.2900272011756897,-0.03907204419374466
1772458193150024000,5.62202392578125,0.40060606598854065,0.29779696464538574,-0.05742175504565239
1772458193160092000,5.632091796875,0.38630393147468567,0.29359060525894165,-0.0762539952993393
1772458193170161000,5.642160888671875,0.37864333391189575,0.29650408029556274,-0.09695714712142944
1772458193180228900,5.652228759765625,0.3837045431137085,0.2995593845844269,-0.11451751738786697
1772458193190297900,5.6622978515625,0.397491455078125,0.3034957945346832,-0.1322813481092453
1772458193200366000,5.672365966796875,0.41114553809165955,0.3058120310306549,-0.1422295868396759
1772458193210434800,5.682434814453125,0.4339240789413452,0.29285600781440735,-0.1467074155807495
1772458193220502800,5.692502685546875,0.45804715156555176,0.2738547623157501,-0.1433749943971634
1772458193230572000,5.702572021484375,0.4892599284648895,0.2571578025817871,-0.13595914840698242
1772458193240640000,5.712639892578125,0.5238356590270996,0.23615548014640808,-0.120762899518013
1772458193250708700,5.722708740234375,0.5591683387756348,0.2263324111700058,-0.11778707802295685
1772458193260777000,5.73277685546875,0.6011140942573547,0.25782740116119385,-0.10739728808403015
1772458193270845000,5.742844970703125,0.6382308006286621,0.3216407299041748,-0.10836534947156906
1772458193280914000,5.752913818359375,0.6700626611709595,0.3808261454105377,-0.1258479654788971
1772458193290982000,5.76298193359375,0.6962183713912964,0.40912461280822754,-0.17374224960803986
1772458193301051000,5.77305078125,0.7185757160186768,0.4275018870830536,-0.23471780121326447
1772458193311118800,5.783118896484375,0.7326435446739197,0.4049563705921173,-0.3075006604194641
1772458193321188000,5.79318798828125,0.7292933464050293,0.3586096465587616,-0.3874603807926178
1772458193331255800,5.803255859375,0.7121024131774902,0.31037208437919617,-0.46509474515914917
1772458193341324800,5.81332470703125,0.6870154142379761,0.24855884909629822,-0.5442577004432678
1772458193351393000,5.82339306640625,0.6428453326225281,0.1518847644329071,-0.6085147261619568
1772458193361461800,5.833461669921875,0.6009323000907898,0.06872119009494781,-0.6331620812416077
1772458193371529700,5.84352978515625,0.5726801156997681,0.01249546930193901,-0.6080591082572937
1772458193381598000,5.853597900390625,0.5568034648895264,0.026933610439300537,-0.5481187701225281
1772458193391667000,5.8636669921875,0.5602578520774841,0.08393643796443939,-0.46834486722946167
1772458193401735000,5.87373486328125,0.591690182685852,0.15760859847068787,-0.3728007674217224
1772458193411804000,5.883803955078125,0.656693696975708,0.21449477970600128,-0.2845582365989685
1772458193421871900,5.893871826171875,0.7410879135131836,0.2532660961151123,-0.2053428292274475
1772458193431941000,5.903941162109375,0.83530592918396,0.30974453687667847,-0.1495424211025238
1772458193442009000,5.914009033203125,0.938714325428009,0.3581298589706421,-0.10812385380268097
1772458193452077800,5.924077880859375,1.053393006324768,0.36611855030059814,-0.07893427461385727
1772458193462146000,5.93414599609375,1.1651616096496582,0.32910969853401184,-0.043659333139657974
1772458193472215000,5.944215087890625,1.25552237033844,0.26080015301704407,-0.0020916485227644444
1772458193482282800,5.95428271484375,1.3075379133224487,0.1537752002477646,0.048009276390075684
1772458193492350700,5.964350830078125,1.3409746885299683,0.023558344691991806,0.0936926081776619
1772458193502420000,5.974419921875,1.3545950651168823,-0.12813329696655273,0.15783649682998657
1772458193512488000,5.984488037109375,1.3630077838897705,-0.2921736240386963,0.20949622988700867
1772458193522557000,5.994556884765625,1.3565270900726318,-0.4457195997238159,0.27082008123397827
1772458193532625000,6.004625,1.3309975862503052,-0.575194239616394,0.3107166290283203
1772458193542694000,6.01469384765625,1.2882577180862427,-0.6661217212677002,0.33267828822135925
1772458193552761900,6.024761962890625,1.2311917543411255,-0.6874504685401917,0.3251812160015106
1772458193562830800,6.034830810546875,1.1788389682769775,-0.650094211101532,0.2944939434528351
1772458193572898800,6.04489892578125,1.128292441368103,-0.5630538463592529,0.2739388644695282
1772458193582967800,6.0549677734375,1.0625853538513184,-0.4305342435836792,0.2655826807022095
1772458193593036000,6.0650361328125,0.9805514216423035,-0.24736681580543518,0.27287760376930237
1772458193603104000,6.07510400390625,0.9057384133338928,-0.04218487814068794,0.29151782393455505
1772458193613172700,6.0851728515625,0.8537409901618958,0.16101351380348206,0.31109365820884705
1772458193623241000,6.095240966796875,0.8298482894897461,0.3520013988018036,0.33001330494880676
1772458193633310000,6.10531005859375,0.829322874546051,0.5183948874473572,0.33321788907051086
1772458193643377700,6.115377685546875,0.8467762470245361,0.6673721671104431,0.3323081135749817
1772458193653447000,6.125447021484375,0.8819015026092529,0.8104659914970398,0.32708460092544556
1772458193663515000,6.135514892578125,0.9139511585235596,0.9273073077201843,0.32013916969299316
1772458193673583900,6.145583984375,0.9434352517127991,0.9882979393005371,0.3118889629840851
1772458193683651800,6.15565185546875,0.9737340211868286,0.9991808533668518,0.29618826508522034
1772458193693720800,6.165720947265625,1.0063518285751343,0.9711012840270996,0.2716834545135498
1772458193703788800,6.175788818359375,1.0297317504882812,0.9077625870704651,0.24037931859493256
1772458193713857000,6.18585693359375,1.0480375289916992,0.824459433555603,0.20605996251106262
1772458193723925800,6.19592578125,1.0653423070907593,0.7428670525550842,0.16824650764465332
1772458193733993700,6.20599365234375,1.08045494556427,0.6705819368362427,0.12056633830070496
1772458193744063000,6.21606298828125,1.0961451530456543,0.6059165000915527,0.06045885384082794
1772458193754131000,6.226130859375,1.1039544343948364,0.5465152263641357,-0.01121959462761879
1772458193764199700,6.23619970703125,1.1142815351486206,0.485259473323822,-0.11000585556030273
1772458193774268000,6.246267822265625,1.1201585531234741,0.42531412839889526,-0.23166438937187195
1772458193784337000,6.2563369140625,1.1171120405197144,0.3812405467033386,-0.36212947964668274
1772458193794404900,6.26640478515625,1.1173959970474243,0.3748154044151306,-0.4912048876285553
1772458193804473900,6.276473876953125,1.1222636699676514,0.40257805585861206,-0.6018165946006775
1772458193814541800,6.286541748046875,1.1425515413284302,0.43916669487953186,-0.6819388270378113
1772458193824609800,6.29660986328125,1.1847248077392578,0.46829095482826233,-0.7338095903396606
1772458193834678800,6.3066787109375,1.2430168390274048,0.4854806065559387,-0.7298657298088074
1772458193844746800,6.316746826171875,1.3115686178207397,0.48435330390930176,-0.6811224222183228
1772458193854816000,6.32681591796875,1.3705328702926636,0.4801231622695923,-0.5901914834976196
1772458193864884000,6.336884033203125,1.420331597328186,0.4663037359714508,-0.48504582047462463
1772458193874952700,6.34695263671875,1.4645302295684814,0.4423307776451111,-0.37772950530052185
1772458193885020700,6.357020751953125,1.5005347728729248,0.3962748646736145,-0.2777882218360901
1772458193895090000,6.36708984375,1.5220767259597778,0.342999666929245,-0.21651394665241241
1772458193905158000,6.377157958984375,1.5238295793533325,0.2851223945617676,-0.17645013332366943
1772458193915227000,6.387226806640625,1.507047176361084,0.24080686271190643,-0.16720576584339142
1772458193925294800,6.397294921875,1.482208251953125,0.22373032569885254,-0.1773197203874588
1772458193935362800,6.40736279296875,1.4569960832595825,0.24467608332633972,-0.19307471811771393
1772458193945432000,6.41743212890625,1.4345287084579468,0.2970287501811981,-0.22290581464767456
1772458193955499800,6.427499755859375,1.4156231880187988,0.36409568786621094,-0.268007755279541
1772458193965568800,6.43756884765625,1.389066457748413,0.43422821164131165,-0.3114178478717804
1772458193975637000,6.447636962890625,1.3616704940795898,0.4813150465488434,-0.3634842336177826
1772458193985705700,6.457705810546875,1.3331490755081177,0.5120137929916382,-0.4045272469520569
1772458193995773700,6.467773681640625,1.3023784160614014,0.5389244556427002,-0.4236477017402649
1772458194005843000,6.477843017578125,1.2840898036956787,0.5655418634414673,-0.419202595949173
1772458194015911000,6.487910888671875,1.276741862297058,0.5865755081176758,-0.39498141407966614
1772458194025979000,6.497978759765625,1.280622959136963,0.5872131586074829,-0.367188423871994
1772458194036048000,6.5080478515625,1.2946839332580566,0.5672194957733154,-0.34023165702819824
1772458194046115800,6.51811572265625,1.3155553340911865,0.5304866433143616,-0.31857773661613464
1772458194056184800,6.528184814453125,1.33845853805542,0.48747628927230835,-0.2975022792816162
1772458194066253000,6.538253173828125,1.3704196214675903,0.4416646957397461,-0.27334797382354736
1772458194076321800,6.54832177734375,1.406157374382019,0.4146783649921417,-0.24700157344341278
1772458194086389800,6.5583896484375,1.435002088546753,0.4022882878780365,-0.217087060213089
1772458194096459000,6.568458984375,1.46135675907135,0.3834778368473053,-0.20063990354537964
1772458194106527000,6.57852685546875,1.4915522336959839,0.358063280582428,-0.18566657602787018
1772458194116595700,6.588595703125,1.520012617111206,0.34357115626335144,-0.1765979826450348
1772458194126664000,6.598663818359375,1.5422824621200562,0.3412676751613617,-0.16550856828689575
1772458194136732000,6.60873193359375,1.5631123781204224,0.3350183069705963,-0.16535517573356628
1772458194146800600,6.618800537109375,1.5751677751541138,0.3069922924041748,-0.1802147626876831
1772458194156868900,6.628868896484375,1.5885767936706543,0.2405182272195816,-0.2062772512435913
1772458194166937900,6.638937744140625,1.5909138917922974,0.16430574655532837,-0.23093600571155548
1772458194177005800,6.649005859375,1.5792548656463623,0.13342398405075073,-0.24552160501480103
1772458194187074800,6.65907470703125,1.5557588338851929,0.1693369597196579,-0.24339938163757324
1772458194197142800,6.669142822265625,1.5335805416107178,0.24177893996238708,-0.22717221081256866
1772458194207211800,6.679211669921875,1.5090219974517822,0.33241909742355347,-0.19201204180717468
1772458194217280000,6.689280029296875,1.491093635559082,0.4373529851436615,-0.13163551688194275
1772458194227348700,6.6993486328125,1.482767105102539,0.5226365923881531,-0.06053129583597183
1772458194237416700,6.709416748046875,1.4904465675354004,0.5666000843048096,0.012646778486669064
1772458194247485000,6.71948486328125,1.50380277633667,0.5520888566970825,0.07678072899580002
1772458194257554000,6.729553955078125,1.5061954259872437,0.5027857422828674,0.1147179901599884
1772458194267621600,6.73962158203125,1.4944238662719727,0.42784106731414795,0.1370147317647934
1772458194277691000,6.74969091796875,1.4741127490997314,0.3664700984954834,0.14815154671669006
1772458194287758800,6.7597587890625,1.4487537145614624,0.33880615234375,0.16177606582641602
1772458194297827800,6.769827880859375,1.4197272062301636,0.35258346796035767,0.17652705311775208
1772458194307895800,6.779895751953125,1.3909051418304443,0.37481653690338135,0.19040164351463318
1772458194317964800,6.78996484375,1.3757855892181396,0.3805404603481293,0.1972353160381317
1772458194328032800,6.80003271484375,1.3524930477142334,0.36917048692703247,0.19086366891860962
1772458194338101000,6.81010107421875,1.3177069425582886,0.3623463809490204,0.1808113008737564
1772458194348169700,6.820169677734375,1.2880758047103882,0.3454687297344208,0.16643232107162476
1772458194358237700,6.83023779296875,1.2618706226348877,0.30474740266799927,0.15873631834983826
1772458194368307000,6.840306884765625,1.223080039024353,0.24510447680950165,0.16133399307727814
1772458194378375000,6.850375,1.173462152481079,0.1581602543592453,0.16082985699176788
1772458194388444000,6.86044384765625,1.118914008140564,0.053699515759944916,0.16300511360168457
1772458194398511900,6.870511962890625,1.0674161911010742,-0.036442626267671585,0.16548611223697662
1772458194408580900,6.880580810546875,1.012725591659546,-0.09660634398460388,0.17106018960475922
1772458194418648800,6.89064892578125,0.9609004855155945,-0.12190903723239899,0.1818009912967682
1772458194428717800,6.9007177734375,0.9187415242195129,-0.1048608347773552,0.19202877581119537
1772458194438785800,6.910785888671875,0.8912507891654968,-0.0626920759677887,0.19656813144683838
1772458194448853800,6.920853759765625,0.8819770216941833,0.017237748950719833,0.19576413929462433
1772458194458922800,6.9309228515625,0.8935268521308899,0.12625610828399658,0.18406620621681213
1772458194468990700,6.94099072265625,0.9100348353385925,0.24764738976955414,0.14895956218242645
1772458194479060000,6.95106005859375,0.9356411099433899,0.36408212780952454,0.0967610701918602
1772458194489128000,6.9611279296875,0.9746065139770508,0.4768527150154114,0.028096500784158707
1772458194499196700,6.97119677734375,1.0218786001205444,0.58702552318573,-0.04890906810760498
1772458194509265000,6.981264892578125,1.0780302286148071,0.6663562059402466,-0.10892385989427567
1772458194519334000,6.991333984375,1.1313467025756836,0.6809934973716736,-0.1585974097251892
1772458194529401900,7.00140185546875,1.166391134262085,0.6445325613021851,-0.20344287157058716
1772458194539469600,7.011469482421875,1.1927872896194458,0.6082429885864258,-0.24184805154800415
1772458194549538300,7.021538330078125,1.2173079252243042,0.5554919838905334,-0.28300219774246216
1772458194559606500,7.0316064453125,1.2417112588882446,0.4705522954463959,-0.33025652170181274
1772458194569675500,7.041675537109375,1.246933102607727,0.3652125298976898,-0.3637893795967102
1772458194579743500,7.051743408203125,1.2393929958343506,0.25333526730537415,-0.3843521773815155
1772458194589812500,7.0618125,1.2168649435043335,0.12845535576343536,-0.39745527505874634
1772458194599880400,7.07188037109375,1.190961480140686,0.02400590479373932,-0.4130065143108368
1772458194609949400,7.081949462890625,1.1714478731155396,-0.04746999964118004,-0.4408567547798157
1772458194620017400,7.092017333984375,1.1639251708984375,-0.06421755999326706,-0.4691410958766937
1772458194630086400,7.10208642578125,1.1691187620162964,-0.03217688202857971,-0.5065117478370667
1772458194640154400,7.112154296875,1.1877765655517578,0.05563180148601532,-0.5296974778175354
1772458194650222600,7.12222265625,1.2149453163146973,0.184166818857193,-0.5298739671707153
1772458194660291300,7.132291259765625,1.2503925561904907,0.3146587610244751,-0.5151674747467041
1772458194670359300,7.142359375,1.2973779439926147,0.415659099817276,-0.48514941334724426
1772458194680428500,7.152428466796875,1.3363884687423706,0.46823203563690186,-0.44524726271629333
1772458194690496500,7.16249658203125,1.3726646900177002,0.47101029753685,-0.400441974401474
1772458194700565500,7.1725654296875,1.4076082706451416,0.4458969533443451,-0.3434703052043915
1772458194710633500,7.182633544921875,1.447818636894226,0.42462027072906494,-0.2812700569629669
1772458194720702500,7.192702392578125,1.4842267036437988,0.4024859368801117,-0.21775129437446594
1772458194730770400,7.2027705078125,1.5138221979141235,0.36719414591789246,-0.15948697924613953
1772458194740839400,7.21283935546875,1.5335876941680908,0.33329927921295166,-0.10050488263368607
1772458194750907400,7.222907470703125,1.5467760562896729,0.3042660057544708,-0.054159991443157196
1772458194760975400,7.232975341796875,1.5468065738677979,0.2805795967578888,-0.008568537421524525
1772458194771044600,7.243044677734375,1.545057773590088,0.2756477892398834,0.0330980122089386
1772458194781112300,7.2531123046875,1.536386251449585,0.28571638464927673,0.06509509682655334
1772458194791181600,7.263181640625,1.5280077457427979,0.2918480634689331,0.09023290872573853
1772458194801249500,7.27324951171875,1.5135477781295776,0.2838228940963745,0.1070379912853241
1772458194811318300,7.283318359375,1.4960986375808716,0.25742214918136597,0.12269096821546555
1772458194821386500,7.293386474609375,1.4739984273910522,0.23450510203838348,0.1369956135749817
1772458194831455500,7.30345556640625,1.4361035823822021,0.22694550454616547,0.15254129469394684
1772458194841523500,7.3135234375,1.3812347650527954,0.24060484766960144,0.16542033851146698
1772458194851591400,7.32359130859375,1.3133126497268677,0.2584741413593292,0.17210720479488373
1772458194861660400,7.333660400390625,1.2378530502319336,0.2597058415412903,0.1665414720773697
1772458194871728400,7.343728271484375,1.158834457397461,0.2401042878627777,0.15598472952842712
1772458194881797600,7.353797607421875,1.0792754888534546,0.21668338775634766,0.14163748919963837
1772458194891865600,7.363865478515625,0.9989057183265686,0.19535690546035767,0.11683333665132523
1772458194901934300,7.373934326171875,0.9232022166252136,0.2049141824245453,0.09279192239046097
1772458194912002600,7.38400244140625,0.8508118391036987,0.2502073347568512,0.0674164742231369
1772458194922071600,7.394071533203125,0.7756374478340149,0.27092406153678894,0.02739236317574978
1772458194932139500,7.404139404296875,0.6947938203811646,0.2501767873764038,-0.03835918381810188
1772458194942208500,7.41420849609375,0.6181246042251587,0.2395220249891281,-0.10634808987379074
1772458194952276500,7.4242763671875,0.5488304495811462,0.25527510046958923,-0.16574834287166595
1772458194962344400,7.434344482421875,0.4911615550518036,0.2863379716873169,-0.20996959507465363
1772458194972413400,7.444413330078125,0.4411558508872986,0.34740257263183594,-0.2340775579214096
1772458194982481400,7.4544814453125,0.40160098671913147,0.4137296676635742,-0.24500690400600433
1772458194992550400,7.46455029296875,0.3885151445865631,0.47525572776794434,-0.24453182518482208
1772458195002618600,7.47461865234375,0.39027148485183716,0.49756768345832825,-0.24445059895515442
1772458195012687400,7.484687255859375,0.39707231521606445,0.4991825520992279,-0.24307449162006378
1772458195022755300,7.49475537109375,0.4012971520423889,0.47798752784729004,-0.25520920753479004
1772458195032824600,7.504824462890625,0.40344998240470886,0.4257631003856659,-0.27002382278442383
1772458195042892500,7.514892578125,0.4104812443256378,0.3796651065349579,-0.2799036204814911
1772458195052960500,7.52496044921875,0.43679478764533997,0.3325587511062622,-0.2771131992340088
1772458195063029500,7.535029541015625,0.4784599542617798,0.28450122475624084,-0.26850640773773193
1772458195073097500,7.545097412109375,0.5293535590171814,0.24467480182647705,-0.2464556246995926
1772458195083166500,7.55516650390625,0.5867790579795837,0.21044066548347473,-0.21586044132709503
1772458195093234400,7.565234375,0.6365085244178772,0.156526580452919,-0.18156003952026367
1772458195103303400,7.575303466796875,0.6735852956771851,0.08761090040206909,-0.13523516058921814
1772458195113371400,7.585371337890625,0.699134886264801,0.013575820252299309,-0.094993457198143
1772458195123440400,7.5954404296875,0.7159375548362732,-0.06908950209617615,-0.047526340931653976
1772458195133508400,7.60550830078125,0.7189256548881531,-0.16584882140159607,-0.007978606037795544
1772458195143576300,7.615576416015625,0.7085161209106445,-0.2603452205657959,0.0225145872682333
1772458195153645600,7.6256455078125,0.6897014379501343,-0.3212463855743408,0.05685865134000778
1772458195163713500,7.635713623046875,0.6667129993438721,-0.3316151201725006,0.08620749413967133
1772458195173782300,7.6457822265625,0.6455056071281433,-0.30178284645080566,0.12350428849458694
1772458195183850500,7.6558505859375,0.6174300312995911,-0.24365241825580597,0.15449976921081543
1772458195193919500,7.66591943359375,0.5853523015975952,-0.18143558502197266,0.17354720830917358
1772458195203987500,7.675987548828125,0.5421648621559143,-0.09512148052453995,0.18334418535232544
1772458195214056400,7.686056396484375,0.48542898893356323,0.003942078910768032,0.19425171613693237
1772458195224124400,7.69612451171875,0.4233642816543579,0.09441737830638885,0.1897325962781906
1772458195234193700,7.706193603515625,0.3669268786907196,0.16998381912708282,0.17334236204624176
1772458195244261400,7.716261474609375,0.3232283890247345,0.2175944745540619,0.14394132792949677
1772458195254329300,7.726329345703125,0.2946521043777466,0.22075749933719635,0.10050470381975174
1772458195264398600,7.736398681640625,0.2718866169452667,0.1883295178413391,0.04801325872540474
1772458195274466600,7.746466552734375,0.24948878586292267,0.14242076873779297,-0.01866241544485092
1772458195284535300,7.756535400390625,0.2198541909456253,0.10161793231964111,-0.08471360057592392
1772458195294603300,7.766603271484375,0.19324208796024323,0.09743337333202362,-0.14873896539211273
1772458195304672500,7.776672607421875,0.1760774850845337,0.12273367494344711,-0.19876298308372498
1772458195314740500,7.786740478515625,0.16511115431785583,0.13811719417572021,-0.24474717676639557
1772458195324809500,7.7968095703125,0.1638520061969757,0.14321553707122803,-0.28929147124290466
1772458195334877400,7.80687744140625,0.1770225167274475,0.13934102654457092,-0.32816779613494873
1772458195344945400,7.8169453125,0.20166155695915222,0.1331225484609604,-0.35256367921829224
1772458195355014700,7.8270146484375,0.23655106127262115,0.12089353054761887,-0.3605979382991791
1772458195365082600,7.83708251953125,0.271287202835083,0.11225610226392746,-0.35296639800071716
1772458195375151400,7.8471513671875,0.30567094683647156,0.09768296778202057,-0.32488152384757996
1772458195385219600,7.857219482421875,0.33977192640304565,0.06675994396209717,-0.2810512185096741
1772458195395288600,7.86728857421875,0.3758445084095001,0.01826702430844307,-0.2262212336063385
1772458195405356300,7.877356201171875,0.40538081526756287,-0.028736434876918793,-0.1678180992603302
1772458195415425500,7.887425537109375,0.4297328293323517,-0.06926223635673523,-0.11379510909318924
1772458195425493500,7.897493408203125,0.4428539574146271,-0.10075677931308746,-0.07945045083761215
1772458195435561500,7.9075615234375,0.4422251284122467,-0.12614314258098602,-0.06949903070926666
1772458195445630500,7.91763037109375,0.43158552050590515,-0.13893721997737885,-0.0818164125084877
1772458195455698400,7.927698486328125,0.4118618369102478,-0.13567067682743073,-0.10812117904424667
1772458195465767400,7.937767333984375,0.385170578956604,-0.10643476247787476,-0.1424996703863144
1772458195475835600,7.947835693359375,0.3608005940914154,-0.06871630251407623,-0.17796233296394348
1772458195485904400,7.957904296875,0.33937013149261475,-0.030987560749053955,-0.21395495533943176
1772458195495972400,7.967972412109375,0.31348317861557007,0.024223508313298225,-0.24548734724521637
1772458195506040600,7.97804052734375,0.2824765145778656,0.07595807313919067,-0.2675609886646271
1772458195516108500,7.988108642578125,0.2543558180332184,0.10974627733230591,-0.2807747423648834
1772458195526176500,7.998176513671875,0.2360372692346573,0.13506390154361725,-0.2824959456920624
1772458195536245500,8.00824560546875,0.2273693084716797,0.13592977821826935,-0.27347898483276367
1772458195546314000,8.01831396484375,0.23055630922317505,0.14061561226844788,-0.2544501721858978
1772458195556383200,8.02838330078125,0.24352380633354187,0.14659364521503448,-0.23282724618911743
1772458195566451200,8.038451171875,0.2665018141269684,0.14338773488998413,-0.21775268018245697
1772458195576520200,8.048520263671875,0.29104891419410706,0.13608552515506744,-0.1987895667552948
1772458195586588200,8.058588134765625,0.323482483625412,0.1372770220041275,-0.19047944247722626
1772458195596656000,8.06865625,0.3572239875793457,0.13731491565704346,-0.17717647552490234
1772458195606724900,8.078724853515626,0.3938741683959961,0.13354520499706268,-0.14517486095428467
1772458195616793000,8.08879296875,0.4251556098461151,0.1366429626941681,-0.09959091246128082
1772458195626862000,8.098862060546875,0.4560032784938812,0.13846856355667114,-0.04065489396452904
1772458195636930000,8.108929931640626,0.48457375168800354,0.14410629868507385,0.020234856754541397
1772458195646999000,8.1189990234375,0.5043277144432068,0.15413203835487366,0.08358613401651382
1772458195657067000,8.12906689453125,0.520859956741333,0.1920504868030548,0.13863126933574677
1772458195667136300,8.13913623046875,0.5314769148826599,0.22218282520771027,0.1753549426794052
1772458195677204200,8.149204345703126,0.5320910215377808,0.22952140867710114,0.1852249652147293
1772458195687273000,8.15927294921875,0.5287434458732605,0.21865703165531158,0.17546235024929047
1772458195697341200,8.169341064453125,0.5236327052116394,0.1926775425672531,0.14896519482135773
1772458195707409200,8.1794091796875,0.5180723071098328,0.17083536088466644,0.1179276555776596
1772458195717478100,8.18947802734375,0.503338634967804,0.16376519203186035,0.0908379778265953
1772458195727545900,8.1995458984375,0.4818612039089203,0.1802665889263153,0.07330339401960373
1772458195737615000,8.209614990234375,0.4563048779964447,0.21251125633716583,0.06769527494907379
1772458195747683000,8.21968310546875,0.4356622099876404,0.25910457968711853,0.06346271187067032
1772458195757752000,8.229751953125,0.430586576461792,0.3064309060573578,0.06645723432302475
1772458195767820000,8.239820068359375,0.43624764680862427,0.2928794026374817,0.06128564476966858
1772458195777889000,8.249888916015625,0.4399743676185608,0.2032676637172699,0.05575372278690338
1772458195787957200,8.259957275390626,0.4307664930820465,0.0959707647562027,0.0651663988828659
1772458195798025200,8.270025146484375,0.4144762456417084,0.022104039788246155,0.08407382667064667
1772458195808094000,8.280093994140625,0.3782218396663666,-0.014460364356637001,0.10240569710731506
1772458195818162200,8.290162109375,0.33696290850639343,-0.0022829552181065083,0.12126526981592178
1772458195828231200,8.300231201171876,0.29646581411361694,0.03040228597819805,0.11860504001379013
1772458195838299100,8.310299072265625,0.2592543959617615,0.061251141130924225,0.09629182517528534
1772458195848368000,8.3203681640625,0.2291388362646103,0.07132161408662796,0.05972182750701904
1772458195858438000,8.33043798828125,0.19769196212291718,0.031231708824634552,0.007489016279578209
1772458195868506000,8.340506103515626,0.17400367558002472,-0.052799809724092484,-0.03777593374252319
1772458195878575000,8.3505751953125,0.1542806178331375,-0.16728265583515167,-0.06086605787277222
1772458195888643000,8.36064306640625,0.13977810740470886,-0.29341158270835876,-0.05984606593847275
1772458195898712000,8.370712158203125,0.13470707833766937,-0.40726369619369507,-0.03688056766986847
1772458195908780000,8.380780029296876,0.13714946806430817,-0.4987421929836273,0.01402229443192482
1772458195918848000,8.390847900390625,0.1462140679359436,-0.5654881596565247,0.0754302591085434
1772458195928917200,8.400917236328125,0.14993369579315186,-0.6107667088508606,0.12920880317687988
1772458195938985200,8.410985107421874,0.15506727993488312,-0.6253246068954468,0.16321200132369995
1772458195949054000,8.421053955078126,0.15561242401599884,-0.6002373695373535,0.181662917137146
1772458195959122200,8.4311220703125,0.15963193774223328,-0.5380208492279053,0.1905115395784378
1772458195969191200,8.441191162109375,0.16634203493595123,-0.43508511781692505,0.1869969666004181
1772458195979259100,8.451259033203126,0.17700642347335815,-0.29126161336898804,0.17490851879119873
1772458195989328100,8.461328125,0.1990262269973755,-0.13645844161510468,0.15533268451690674
1772458195999396000,8.47139599609375,0.2327916920185089,0.014149199239909649,0.13070997595787048
1772458196009464000,8.481464111328124,0.27137476205825806,0.17673039436340332,0.11292804777622223
1772458196019533000,8.491532958984376,0.31597796082496643,0.34815067052841187,0.11235305666923523
1772458196029601000,8.50160107421875,0.35771316289901733,0.4997183680534363,0.11290566623210907
1772458196039670000,8.511669921875,0.40001893043518066,0.5870158076286316,0.12606914341449738
1772458196049738200,8.52173828125,0.42501401901245117,0.5966050624847412,0.14831985533237457
1772458196059807000,8.531806884765626,0.42596903443336487,0.5577556490898132,0.16579924523830414
1772458196069875000,8.541875,0.41890794038772583,0.5402892827987671,0.16563333570957184
1772458196079944200,8.551944091796875,0.41705024242401123,0.5409398078918457,0.15474213659763336
1772458196090012200,8.56201220703125,0.4229704439640045,0.5449926257133484,0.12702715396881104
1772458196100080000,8.572080078125,0.432245671749115,0.5280402302742004,0.08730580657720566
1772458196110149000,8.582149169921875,0.43870729207992554,0.48073872923851013,0.030805246904492378
1772458196120217000,8.592217041015624,0.44383540749549866,0.3948456346988678,-0.03811365365982056
1772458196130286000,8.6022861328125,0.44438961148262024,0.2792985141277313,-0.10484714061021805
1772458196140354000,8.61235400390625,0.43143296241760254,0.13164474070072174,-0.17910225689411163
1772458196150423000,8.622423095703125,0.39848965406417847,-0.05357997864484787,-0.24827013909816742
1772458196160491000,8.632490966796874,0.3381720781326294,-0.24069809913635254,-0.29628875851631165
1772458196170560000,8.64256005859375,0.26200592517852783,-0.378921777009964,-0.3258330821990967
1772458196180628000,8.6526279296875,0.17881205677986145,-0.4191417992115021,-0.3363204598426819
1772458196190697200,8.662697265625,0.11923953145742416,-0.3982461094856262,-0.3141466975212097
1772458196200765200,8.67276513671875,0.09615857154130936,-0.34078750014305115,-0.245278000831604
1772458196210833200,8.682833251953125,0.09171508997678757,-0.2708646059036255,-0.15293395519256592
1772458196220902100,8.692902099609375,0.11022766679525375,-0.18606886267662048,-0.0726177841424942
1772458196230970000,8.70297021484375,0.161958247423172,-0.10879086703062057,-0.016917239874601364
1772458196241039000,8.7130390625,0.24162684381008148,-0.02896220237016678,0.01612504944205284
1772458196251107000,8.723107177734375,0.322010338306427,0.06465749442577362,0.005611954256892204
1772458196261176000,8.733176025390625,0.3847849667072296,0.1374882012605667,-0.045825038105249405
1772458196271244000,8.743244140625,0.42880675196647644,0.18287992477416992,-0.10897737741470337
1772458196281312000,8.75331201171875,0.45436304807662964,0.2097291648387909,-0.17714712023735046
1772458196291381200,8.76338134765625,0.4667435586452484,0.19246815145015717,-0.2347789853811264
1772458196301449000,8.773448974609375,0.46197375655174255,0.13673025369644165,-0.2770751416683197
1772458196311518200,8.783518310546874,0.4539611041545868,0.0547722689807415,-0.3062785863876343
1772458196321586200,8.793586181640626,0.4375520348548889,-0.011779313907027245,-0.3059811294078827
1772458196331655000,8.803655029296875,0.4168797731399536,-0.07853703945875168,-0.28775763511657715
1772458196341723100,8.81372314453125,0.40399250388145447,-0.13773295283317566,-0.2638740539550781
1772458196351792000,8.823792236328124,0.3969170153141022,-0.17573226988315582,-0.23684696853160858
1772458196361860000,8.833860107421875,0.384897381067276,-0.19859205186367035,-0.20323814451694489
1772458196371929000,8.84392919921875,0.3678363859653473,-0.2017151415348053,-0.16351523995399475
1772458196381997000,8.8539970703125,0.3413267433643341,-0.1953459084033966,-0.12969127297401428
1772458196392065000,8.86406494140625,0.3064768612384796,-0.17927134037017822,-0.10227242112159729
1772458196402134300,8.87413427734375,0.25403860211372375,-0.1630874127149582,-0.07893595099449158
1772458196412202200,8.8842021484375,0.19842274487018585,-0.1399695724248886,-0.05387027561664581
1772458196422271000,8.89427099609375,0.13455645740032196,-0.10936156660318375,-0.0337069034576416
1772458196432339200,8.904339111328126,0.06312301754951477,-0.08036187291145325,-0.002937803976237774
1772458196442408200,8.914408203125,-0.0011433593463152647,-0.08215714246034622,0.03039134107530117
1772458196452476000,8.924475830078125,-0.0570116862654686,-0.11012006551027298,0.05914682149887085
1772458196462545200,8.934545166015624,-0.1031309962272644,-0.1330440491437912,0.07282141596078873
1772458196472613000,8.944613037109375,-0.13195279240608215,-0.1266511231660843,0.08683843165636063
1772458196482681000,8.95468115234375,-0.1472286880016327,-0.11431644856929779,0.09755288809537888
1772458196492750000,8.96475,-0.1542876660823822,-0.12404470890760422,0.10860101133584976
1772458196502818000,8.974818115234376,-0.17111967504024506,-0.15344762802124023,0.12291225790977478
1772458196512887000,8.984886962890625,-0.19537414610385895,-0.2065899521112442,0.12852753698825836
1772458196522955300,8.994955322265625,-0.22217810153961182,-0.2742217481136322,0.1368887573480606
1772458196533024000,9.00502392578125,-0.26140356063842773,-0.331953763961792,0.1405514031648636
1772458196543092000,9.015092041015626,-0.3009262681007385,-0.38214409351348877,0.14797574281692505
1772458196553161200,9.0251611328125,-0.3449520766735077,-0.40769046545028687,0.15953919291496277
1772458196563229200,9.035229248046875,-0.3875817656517029,-0.3746137022972107,0.17789961397647858
1772458196573297000,9.045296875,-0.4120383858680725,-0.2924621105194092,0.1963454633951187
1772458196583366100,9.0553662109375,-0.4222240149974823,-0.28385403752326965,0.17333248257637024
1772458196593434000,9.06543408203125,-0.42998287081718445,-0.2957676947116852,0.10621363669633865
1772458196603503000,9.075503173828125,-0.4418809711933136,-0.32946401834487915,0.023135298863053322
1772458196613571000,9.085571044921876,-0.4685160517692566,-0.3731398582458496,-0.0755595862865448
1772458196623640000,9.09564013671875,-0.5050995349884033,-0.3786146938800812,-0.1758512705564499
1772458196633708000,9.1057080078125,-0.5452661514282227,-0.35190001130104065,-0.26147136092185974
1772458196643777000,9.115777099609375,-0.5721858739852905,-0.30862492322921753,-0.3328472375869751
1772458196653845000,9.125844970703126,-0.5923185348510742,-0.24499322474002838,-0.38402360677719116
1772458196663913000,9.135912841796875,-0.5954532027244568,-0.17903482913970947,-0.39688143134117126
1772458196673982200,9.145982177734375,-0.5897375345230103,-0.1130899041891098,-0.37324002385139465
1772458196684050200,9.15605029296875,-0.5765106081962585,-0.02840827777981758,-0.3161543309688568
1772458196694119000,9.166118896484376,-0.5547845363616943,0.08490362763404846,-0.2184128612279892
1772458196704187100,9.176187255859375,-0.5136705636978149,0.21527960896492004,-0.10031367838382721
1772458196714256100,9.186256103515625,-0.4489626884460449,0.32823118567466736,0.03747028857469559
1772458196724324000,9.196323974609374,-0.3727100193500519,0.4106527864933014,0.1683676391839981
1772458196734393000,9.20639306640625,-0.29632362723350525,0.4755151569843292,0.28094905614852905
1772458196744461000,9.2164609375,-0.23832988739013672,0.5231305956840515,0.38810160756111145
1772458196754529000,9.226529052734374,-0.19407187402248383,0.5440422296524048,0.47641363739967346
1772458196764598000,9.236597900390626,-0.15961699187755585,0.5252013802528381,0.553827166557312
1772458196774666000,9.246666015625,-0.12406353652477264,0.46286875009536743,0.6070456504821777
1772458196784735000,9.25673486328125,-0.09030729532241821,0.3708023726940155,0.6095948815345764
1772458196794803200,9.26680322265625,-0.057748813182115555,0.2601754665374756,0.5670604705810547
1772458196804872000,9.276871826171876,-0.018678361549973488,0.13611052930355072,0.5017179250717163
1772458196814940000,9.28693994140625,0.014433784410357475,-0.017692886292934418,0.40999406576156616
1772458196825009200,9.297009033203125,0.03752546384930611,-0.18703056871891022,0.3094499111175537
1772458196835077000,9.3070771484375,0.05456197261810303,-0.32851606607437134,0.18915385007858276
1772458196845145000,9.31714501953125,0.05438493564724922,-0.44858407974243164,0.049833737313747406
1772458196855214000,9.327214111328125,0.03781767934560776,-0.5606613755226135,-0.11061239242553711
1772458196865282000,9.337281982421874,-0.0096853356808424,-0.6340369582176208,-0.2511412799358368
1772458196875351000,9.34735107421875,-0.11009875684976578,-0.6217342019081116,-0.3519669771194458
1772458196885419000,9.3574189453125,-0.24079403281211853,-0.543343722820282,-0.402142196893692
1772458196895488000,9.367488037109375,-0.3583843410015106,-0.3959571421146393,-0.41215622425079346
1772458196905556000,9.377555908203124,-0.4328450858592987,-0.20714551210403442,-0.39246830344200134
1772458196915625200,9.387625244140626,-0.4431784152984619,0.0040183840319514275,-0.37552687525749207
1772458196925693000,9.39769287109375,-0.39616936445236206,0.22524502873420715,-0.3540002405643463
1772458196935761000,9.407760986328125,-0.31326571106910706,0.42309871315956116,-0.33826813101768494
1772458196945830100,9.417830078125,-0.20624329149723053,0.533778965473175,-0.3021351099014282
1772458196955898000,9.427898193359376,-0.09647443890571594,0.5649520754814148,-0.2588387727737427
1772458196965966800,9.437966796875,0.007076915353536606,0.5342944860458374,-0.205123171210289
1772458196976035000,9.44803515625,0.09689148515462875,0.48120757937431335,-0.14097774028778076
1772458196986104000,9.45810400390625,0.18162111937999725,0.39852234721183777,-0.07602851837873459
1772458196996172000,9.468172119140625,0.24558597803115845,0.27861538529396057,-0.013819201849400997
1772458197006241000,9.478240966796875,0.2935497462749481,0.13858290016651154,0.05355073884129524
1772458197016309000,9.48830908203125,0.3038548529148102,-0.005252566654235125,0.12133564054965973
1772458197026377000,9.498376953125,0.290224552154541,-0.13124454021453857,0.18443100154399872
1772458197036446200,9.5084462890625,0.26084083318710327,-0.2172396034002304,0.22322340309619904
1772458197046514000,9.518513916015625,0.23736977577209473,-0.2642069458961487,0.23646248877048492
1772458197056583200,9.528583251953124,0.23374707996845245,-0.2671276330947876,0.21924035251140594
1772458197066651100,9.538651123046876,0.23383353650569916,-0.2601960599422455,0.1801687777042389
1772458197076719900,9.548719970703125,0.22869762778282166,-0.26172950863838196,0.10970153659582138
1772458197086787800,9.558787841796875,0.2084932029247284,-0.2608446180820465,0.025452304631471634
1772458197096857000,9.568857177734374,0.18273724615573883,-0.24029938876628876,-0.06296864151954651
1772458197106925000,9.578925048828125,0.15515153110027313,-0.19186623394489288,-0.1316337287425995
1772458197116993000,9.588992919921875,0.1332656741142273,-0.11153491586446762,-0.18178825080394745
1772458197127062000,9.59906201171875,0.12446928769350052,-0.004869150463491678,-0.22236268222332
1772458197137130000,9.6091298828125,0.12405196577310562,0.088380366563797,-0.24403254687786102
1772458197147199200,9.61919921875,0.1388520449399948,0.15043796598911285,-0.252807080745697
1772458197157267200,9.62926708984375,0.1727873682975769,0.17347057163715363,-0.23572741448879242
1772458197167336000,9.6393359375,0.2029513418674469,0.16680598258972168,-0.1902180314064026
1772458197177404200,9.649404052734376,0.2320152223110199,0.15026135742664337,-0.12732934951782227
1772458197187473200,9.65947314453125,0.2534814178943634,0.13741883635520935,-0.051495522260665894
1772458197197541000,9.669541015625,0.27321943640708923,0.13095080852508545,0.03246515989303589
1772458197207608800,9.67960888671875,0.29275599122047424,0.12884679436683655,0.115191750228405
1772458197217678000,9.689677978515626,0.31263676285743713,0.12207118421792984,0.18809978663921356
1772458197227746000,9.69974609375,0.3418773114681244,0.10939280688762665,0.2528238594532013
1772458197237815000,9.70981494140625,0.371829092502594,0.10732166469097137,0.314861923456192
1772458197247883000,9.719883056640626,0.39427509903907776,0.0965183675289154,0.37740710377693176
1772458197257952000,9.729951904296875,0.40546146035194397,0.09443604946136475,0.4360552430152893
1772458197268020200,9.740020263671875,0.4122678339481354,0.11754415929317474,0.4853399097919464
1772458197278089000,9.7500888671875,0.4106193482875824,0.16690079867839813,0.537406861782074
1772458197288157000,9.760156982421876,0.4152468740940094,0.2244269847869873,0.5806589722633362
1772458197298225200,9.77022509765625,0.4236893653869629,0.20800858736038208,0.6055275797843933
1772458197308294100,9.780294189453125,0.4207817316055298,0.14331400394439697,0.6209094524383545
1772458197318362000,9.790362060546874,0.41536858677864075,0.09273125231266022,0.6201395392417908
1772458197328431000,9.80043115234375,0.39897143840789795,0.05232492834329605,0.6125498414039612
1772458197338499000,9.8104990234375,0.36452823877334595,0.018947798758745193,0.5759902000427246
1772458197348568000,9.820568115234375,0.3099881112575531,-0.028822608292102814,0.5119728446006775
1772458197358636000,9.830635986328126,0.22351020574569702,-0.07121028006076813,0.4155409038066864
1772458197368704000,9.8407041015625,0.11718077957630157,-0.07174056768417358,0.31638583540916443
1772458197378773000,9.85077294921875,0.027201881632208824,-0.033597446978092194,0.22852176427841187
1772458197388841200,9.86084130859375,-0.028008583933115005,0.022032318636775017,0.17078335583209991
1772458197398910000,9.870909912109376,-0.04655776917934418,0.0984027162194252,0.13371507823467255
1772458197408978000,9.88097802734375,-0.04189404100179672,0.1798190176486969,0.10045353323221207
1772458197419047200,9.891047119140625,-0.00947591383010149,0.2421942502260208,0.055495910346508026
1772458197429115100,9.901115234375,0.03796987980604172,0.23151175677776337,0.005286327097564936
1772458197439184000,9.911183837890626,0.0931234136223793,0.14802858233451843,-0.050389185547828674
1772458197449252000,9.921252197265625,0.14598888158798218,0.012688721530139446,-0.12034275382757187
1772458197459321000,9.931321044921875,0.20486284792423248,-0.1404893696308136,-0.18782247602939606
1772458197469389000,9.94138916015625,0.25884032249450684,-0.25200155377388,-0.21206305921077728
1772458197479457000,9.95145703125,0.2893446981906891,-0.2968563735485077,-0.18693853914737701
1772458197489526000,9.961526123046875,0.2986719012260437,-0.25666528940200806,-0.11851739138364792
1772458197499594000,9.971593994140624,0.301229864358902,-0.1722840666770935,-0.02026406303048134
1772458197509663200,9.981663330078124,0.30662670731544495,-0.08749894797801971,0.09559600055217743
1772458197519731000,9.99173095703125,0.30700141191482544,0.0031923409551382065,0.19911786913871765
1772458197529800000,10.001800048828125,0.29442813992500305,0.11584864556789398,0.2893374562263489
1772458197539868000,10.011867919921874,0.27967822551727295,0.23051291704177856,0.33915215730667114
1772458197549937000,10.02193701171875,0.2800212502479553,0.30561086535453796,0.3481067419052124
1772458197560004600,10.032004638671875,0.2956601083278656,0.33463454246520996,0.3275575339794159
1772458197570072800,10.04207275390625,0.30916404724121094,0.31572914123535156,0.2843284606933594
1772458197580141800,10.052141845703124,0.3237728178501129,0.28534936904907227,0.2208823710680008
1772458197590209800,10.062209716796875,0.33023926615715027,0.26817598938941956,0.14835742115974426
1772458197600278800,10.07227880859375,0.3309881389141083,0.26907211542129517,0.05712311342358589
1772458197610346800,10.0823466796875,0.3328321874141693,0.25109565258026123,-0.055606625974178314
1772458197620415700,10.092415771484376,0.3179033100605011,0.20176512002944946,-0.1780579686164856
1772458197630484000,10.10248388671875,0.28833991289138794,0.14695040881633759,-0.2860444486141205
1772458197640551700,10.1125517578125,0.2494170069694519,0.07586771994829178,-0.37449413537979126
1772458197650620700,10.12262060546875,0.1963287889957428,-0.03550700098276138,-0.4455399811267853
1772458197660689000,10.13268896484375,0.13444358110427856,-0.18656842410564423,-0.5021372437477112
1772458197670758000,10.1427578125,0.062318798154592514,-0.35129639506340027,-0.5435310006141663
1772458197680825600,10.15282568359375,-0.013970376923680305,-0.4753592014312744,-0.5682238340377808
1772458197690894800,10.162894775390624,-0.08065467327833176,-0.5300309658050537,-0.5882543921470642
1772458197700962800,10.172962890625,-0.1280118077993393,-0.5145012736320496,-0.5832468271255493
1772458197711031800,10.18303173828125,-0.16384144127368927,-0.43818795680999756,-0.5220921635627747
1772458197721099800,10.193099853515625,-0.192289337515831,-0.308336466550827,-0.4333151578903198
1772458197731168800,10.203168701171874,-0.2100241482257843,-0.14686930179595947,-0.3291305601596832
1772458197741236700,10.21323681640625,-0.20299872756004333,0.026700619608163834,-0.24045130610466003
1772458197751305000,10.223304931640625,-0.1794416606426239,0.18205592036247253,-0.18313667178153992
1772458197761373700,10.233373779296874,-0.1380060762166977,0.3209482729434967,-0.15134890377521515
1772458197771441700,10.243441650390626,-0.09055808931589127,0.43385225534439087,-0.15268206596374512
1772458197781511000,10.253510986328125,-0.04935285821557045,0.5011426210403442,-0.16590040922164917
1772458197791579000,10.263578857421875,-0.01967431977391243,0.5259079337120056,-0.17071250081062317
1772458197801647900,10.27364794921875,-0.005934006534516811,0.5100842118263245,-0.16824108362197876
1772458197811715800,10.2837158203125,0.001863187993876636,0.4643723666667938,-0.15391376614570618
1772458197821784800,10.293784912109375,-0.000999177573248744,0.40750986337661743,-0.1202668696641922
1772458197831852800,10.303852783203125,-0.01439625769853592,0.35812413692474365,-0.07291188836097717
1772458197841920800,10.313920654296876,-0.025637993589043617,0.3094862997531891,-0.01981777884066105
1772458197851989800,10.32398974609375,-0.03946572169661522,0.24491845071315765,0.030566340312361717
1772458197862057700,10.3340576171875,-0.043226372450590134,0.17769093811511993,0.059328749775886536
1772458197872126700,10.344126708984374,-0.04458308592438698,0.11241117119789124,0.07792050391435623
1772458197882194700,10.354194580078126,-0.0378950871527195,0.04245765134692192,0.07443629205226898
1772458197892264000,10.364263916015625,-0.03413056209683418,-0.01778371073305607,0.061823081225156784
1772458197902332000,10.374331787109375,-0.03905661031603813,-0.07730776071548462,0.03940112888813019
1772458197912400600,10.384400634765624,-0.051043856889009476,-0.1376020759344101,0.023647135123610497
1772458197922468900,10.39446875,-0.06060007959604263,-0.19185678660869598,0.02347749099135399
1772458197932536800,10.404536865234375,-0.07080761343240738,-0.24161626398563385,0.044489335268735886
1772458197942605800,10.414605712890625,-0.09212382137775421,-0.28135809302330017,0.07667790353298187
1772458197952673800,10.424673828125,-0.12831637263298035,-0.3114437162876129,0.11831581592559814
1772458197962742800,10.43474267578125,-0.17346201837062836,-0.33037588000297546,0.16181135177612305
1772458197972810800,10.444810791015625,-0.21910856664180756,-0.32586872577667236,0.20638568699359894
1772458197982880000,10.4548798828125,-0.2513999342918396,-0.293698787689209,0.24648037552833557
1772458197992947700,10.46494775390625,-0.2686944901943207,-0.22862236201763153,0.28262636065483093
1772458198003015700,10.475015625,-0.2575928568840027,-0.1669938862323761,0.3046022355556488
1772458198013085000,10.4850849609375,-0.23387837409973145,-0.19467173516750336,0.2917403280735016
1772458198023153000,10.49515283203125,-0.21800540387630463,-0.2889806628227234,0.22440843284130096
1772458198033221600,10.5052216796875,-0.2102878987789154,-0.38972413539886475,0.14103345572948456
1772458198043289900,10.515289794921875,-0.23048238456249237,-0.49843648076057434,0.025860264897346497
1772458198053358800,10.52535888671875,-0.2833557724952698,-0.5556950569152832,-0.08826658874750137
1772458198063426800,10.5354267578125,-0.36062633991241455,-0.5274045467376709,-0.18970587849617004
1772458198073495800,10.545495849609376,-0.4341970682144165,-0.4833173453807831,-0.2519548237323761
1772458198083563800,10.555563720703125,-0.4999494254589081,-0.42765915393829346,-0.27079108357429504
1772458198093632800,10.5656328125,-0.555175244808197,-0.3372547924518585,-0.2543866038322449
1772458198103701000,10.575700927734376,-0.5774179697036743,-0.22553543746471405,-0.22100600600242615
1772458198113768700,10.585768798828125,-0.5550512671470642,-0.11833245307207108,-0.1927647739648819
1772458198123837700,10.595837646484375,-0.49917763471603394,-0.02077500894665718,-0.17542441189289093
1772458198133906000,10.605906005859374,-0.43072593212127686,0.04879922792315483,-0.16915160417556763
1772458198143974700,10.615974609375,-0.3602299392223358,0.08473087102174759,-0.15872134268283844
1772458198154042600,10.626042724609375,-0.30324026942253113,0.10903050005435944,-0.128665953874588
1772458198164112000,10.63611181640625,-0.25582003593444824,0.13699555397033691,-0.06508830189704895
1772458198174179800,10.646179931640624,-0.22159703075885773,0.1523503065109253,0.020390458405017853
1772458198184247800,10.656247802734375,-0.20147232711315155,0.15424993634223938,0.11793378740549088
1772458198194316800,10.66631689453125,-0.19617430865764618,0.15520301461219788,0.21651406586170197
1772458198204384800,10.676384765625,-0.18545055389404297,0.14718475937843323,0.28247761726379395
1772458198214453800,10.686453857421874,-0.1628001481294632,0.11791259050369263,0.3198539614677429
1772458198224522000,10.69652197265625,-0.13897444307804108,0.081057108938694,0.33810460567474365
1772458198234590700,10.7065908203125,-0.12027288973331451,0.03215910494327545,0.3443806767463684
1772458198244658700,10.71665869140625,-0.12202710658311844,-0.01834162138402462,0.3487948775291443
1772458198254728000,10.72672802734375,-0.12360619008541107,-0.05690427124500275,0.3577345013618469
1772458198264796000,10.7367958984375,-0.135565385222435,-0.08292708545923233,0.3594051003456116
1772458198274863600,10.746863525390625,-0.14882659912109375,-0.09277253597974777,0.36352184414863586
1772458198284932900,10.756932861328124,-0.16631612181663513,-0.09697926789522171,0.354282021522522
1772458198295000800,10.767000732421875,-0.1938321441411972,-0.09006916731595993,0.33605894446372986
1772458198305069600,10.777069580078125,-0.22692085802555084,-0.0552496612071991,0.30903640389442444
1772458198315137800,10.7871376953125,-0.2624647915363312,0.0007874495349824429,0.2802911400794983
1772458198325206800,10.797206787109374,-0.2875240743160248,0.06500398367643356,0.2470056563615799
1772458198335274800,10.807274658203125,-0.3087226152420044,0.11655713617801666,0.2015683799982071
1772458198345343700,10.81734375,-0.3266094923019409,0.15046396851539612,0.13284258544445038
1772458198355411700,10.82741162109375,-0.3389146327972412,0.1594737023115158,0.055284980684518814
1772458198365479700,10.837479736328126,-0.34157994389533997,0.14410246908664703,-0.037200745195150375
1772458198375549000,10.847548828125,-0.3365844786167145,0.10320873558521271,-0.14182732999324799
1772458198385617000,10.857616943359375,-0.3333364725112915,0.08232636004686356,-0.24031874537467957
1772458198395686000,10.867685791015624,-0.3311200439929962,0.092221200466156,-0.32041648030281067
1772458198405753900,10.87775390625,-0.3318209946155548,0.11241835355758667,-0.3823826313018799
1772458198415822800,10.88782275390625,-0.31952428817749023,0.13663269579410553,-0.42424336075782776
1772458198425890600,10.897890625,-0.2924322187900543,0.16667290031909943,-0.4382494390010834
1772458198435959800,10.907959716796874,-0.2454589158296585,0.20285721123218536,-0.4312565326690674
1772458198446027800,10.91802783203125,-0.18498945236206055,0.2267971634864807,-0.4097040891647339
1772458198456095700,10.928095703125,-0.1156567633152008,0.22898541390895844,-0.3672753870487213
1772458198466164700,10.938164794921875,-0.053258370608091354,0.2226518839597702,-0.30761978030204773
1772458198476232700,10.948232666015626,-0.006009173113852739,0.1987006664276123,-0.23839031159877777
1772458198486302000,10.958302001953125,0.038567882031202316,0.1600683182477951,-0.16858859360218048
1772458198496370000,10.968369873046875,0.07970765978097916,0.10548797249794006,-0.10035817325115204
1772458198506438700,10.978438720703124,0.11630561947822571,0.0506388358771801,-0.05495660379528999
1772458198516507000,10.9885068359375,0.14381110668182373,-0.009681414812803268,-0.02943146973848343
1772458198526575900,10.998575927734375,0.16072963178157806,-0.05117319896817207,-0.027667656540870667
1772458198536643800,11.008643798828125,0.1779586523771286,-0.07148966193199158,-0.03681306168437004
1772458198546711800,11.0187119140625,0.19189071655273438,-0.07391074299812317,-0.051103319972753525
1772458198556780500,11.028780517578125,0.19336244463920593,-0.04899947717785835,-0.06476907432079315
1772458198566848500,11.0388486328125,0.18723849952220917,-0.004939608741551638,-0.07468828558921814
1772458198576917800,11.048917724609375,0.1777612566947937,0.033560771495103836,-0.0874980017542839
1772458198586985500,11.0589853515625,0.16855311393737793,0.06206405162811279,-0.10143512487411499
1772458198597054500,11.069054443359375,0.15896886587142944,0.08123449981212616,-0.12244798243045807
1772458198607122700,11.079122802734375,0.15082119405269623,0.09271778166294098,-0.1380024552345276
1772458198617191700,11.089191650390624,0.1424887627363205,0.1104276180267334,-0.14514406025409698
1772458198627259400,11.09925927734375,0.13469155132770538,0.1324940323829651,-0.1405588984489441
1772458198637327600,11.10932763671875,0.13738693296909332,0.1465400606393814,-0.1297149658203125
1772458198647396600,11.119396728515625,0.15154190361499786,0.1450825035572052,-0.11449606716632843
1772458198657464600,11.129464599609374,0.1636255979537964,0.13523907959461212,-0.08307923376560211
1772458198667533600,11.139533447265626,0.1857444792985916,0.12828342616558075,-0.04484689235687256
1772458198677601500,11.1496015625,0.2188757210969925,0.11429349333047867,-0.010078059509396553
1772458198687670800,11.1596708984375,0.2511090338230133,0.0852634385228157,0.028348959982395172
1772458198697738800,11.16973876953125,0.27697324752807617,0.050145283341407776,0.0573156513273716
1772458198707806500,11.179806396484375,0.2980457842350006,0.020460357889533043,0.08596221357584
1772458198717875500,11.18987548828125,0.31680747866630554,0.0004133903421461582,0.10906306654214859
1772458198727943700,11.199943603515624,0.3277895748615265,-0.008108459413051605,0.14166148006916046
1772458198738012700,11.2100126953125,0.33723244071006775,-0.00038062548264861107,0.1690288484096527
1772458198748080400,11.220080322265625,0.3539528250694275,0.031101666390895844,0.20922313630580902
1772458198758149600,11.230149658203125,0.37806177139282227,0.06859380006790161,0.2453705072402954
1772458198768217600,11.240217529296874,0.4108370542526245,0.08568783104419708,0.2872319221496582
1772458198778286600,11.25028662109375,0.43352988362312317,0.04729362949728966,0.31816428899765015
1772458198788354600,11.2603544921875,0.4404469132423401,0.004834052175283432,0.35028865933418274
1772458198798422500,11.270422607421875,0.4317256510257721,-0.022871043533086777,0.3834975063800812
1772458198808491800,11.28049169921875,0.4149269461631775,-0.03588857501745224,0.4174616038799286
1772458198818559700,11.290559814453125,0.3793313205242157,-0.026106879115104675,0.45037931203842163
1772458198828628500,11.30062841796875,0.3260992467403412,-0.009538287296891212,0.4669753313064575
1772458198838696400,11.310696533203124,0.2695121169090271,-0.0016638985835015774,0.46976685523986816
1772458198848765700,11.320765625,0.21542996168136597,0.01448844000697136,0.4598652124404907
1772458198858833700,11.330833740234375,0.15968647599220276,0.04620610922574997,0.44882985949516296
1772458198868902700,11.340902587890625,0.11042173951864243,0.079246886074543,0.4330365061759949
1772458198878970600,11.350970703125,0.06593864411115646,0.0935184508562088,0.4212788939476013
1772458198889038600,11.36103857421875,0.032854724675416946,0.08523469418287277,0.39027729630470276
1772458198899107600,11.371107666015625,0.020453087985515594,0.07238857448101044,0.3612714409828186
1772458198909175600,11.381175537109375,0.017196040600538254,0.11289578676223755,0.29819580912590027
1772458198919244500,11.39124462890625,0.01378787960857153,0.17423519492149353,0.20961084961891174
1772458198929312800,11.401312744140625,0.028314359486103058,0.21227872371673584,0.09933627396821976
1772458198939381500,11.411381591796875,0.029813699424266815,0.22620995342731476,-0.006657477468252182
1772458198949449500,11.421449462890624,0.019606605172157288,0.21074019372463226,-0.1116749718785286
1772458198959518700,11.431518798828124,-0.009737436659634113,0.17756065726280212,-0.18878653645515442
1772458198969586700,11.441586669921875,-0.05432168021798134,0.1384848952293396,-0.23221683502197266
1772458198979654700,11.451654541015625,-0.1079409196972847,0.09507355093955994,-0.2233966886997223
1772458198989723600,11.4617236328125,-0.15370440483093262,0.04113655164837837,-0.1951538771390915
1772458198999791600,11.47179150390625,-0.16742512583732605,0.030682208016514778,-0.14138837158679962
1772458199009860600,11.481860595703125,-0.15678605437278748,0.07323072850704193,-0.07589220255613327
1772458199019928600,11.491928466796875,-0.1161719486117363,0.127664253115654,-0.0032089317683130503
1772458199029997600,11.50199755859375,-0.04723469540476799,0.22629256546497345,0.07682385295629501
1772458199040065500,11.5120654296875,0.04761631786823273,0.35423922538757324,0.13837870955467224
1772458199050134800,11.522134765625,0.1329442709684372,0.4642264246940613,0.185061514377594
1772458199060202500,11.532202392578125,0.20007647573947906,0.5271289944648743,0.22507880628108978
1772458199070270500,11.5422705078125,0.23791146278381348,0.5616507530212402,0.25523295998573303
1772458199080339700,11.552339599609375,0.2602977156639099,0.5794172286987305,0.2890141010284424
1772458199090407700,11.56240771484375,0.28282034397125244,0.587147057056427,0.3132302165031433
1772458199100476400,11.572476318359374,0.3108903765678406,0.6014922261238098,0.3204127550125122
1772458199110544600,11.582544677734376,0.34183499217033386,0.6306114792823792,0.2949681282043457
1772458199120613600,11.592613525390625,0.39382612705230713,0.6752507090568542,0.253590852022171
1772458199130681600,11.602681640625,0.45693400502204895,0.7029910087585449,0.21602723002433777
1772458199140750600,11.61275048828125,0.5472184419631958,0.7197517156600952,0.18747363984584808
1772458199150818600,11.622818603515626,0.6514159440994263,0.7457523941993713,0.14858455955982208
1772458199160886500,11.632886474609375,0.7591531276702881,0.7316678166389465,0.1118985116481781
1772458199170955800,11.642955810546875,0.8552253246307373,0.698686420917511,0.08055789768695831
1772458199181023500,11.6530234375,0.920377790927887,0.6296960115432739,0.04571282118558884
1772458199191092500,11.663092529296875,0.9321891665458679,0.498308390378952,-0.008190888911485672
1772458199201160700,11.67316064453125,0.8873620629310608,0.3001021146774292,-0.07490682601928711
1772458199211229400,11.6832294921875,0.7752863764762878,0.020398840308189392,-0.1028849333524704
1772458199221297400,11.69329736328125,0.5916763544082642,-0.3255026042461395,-0.1281866580247879
1772458199231366700,11.70336669921875,0.4029690623283386,-0.5593228340148926,-0.17691051959991455
1772458199241434600,11.7134345703125,0.240597203373909,-0.7143011689186096,-0.21399205923080444
1772458199251502600,11.723502685546874,0.06314119696617126,-0.7033212184906006,-0.2214079052209854
1772458199261571600,11.733571533203126,-0.1049884632229805,-0.6285849809646606,-0.23576238751411438
