time,seconds_elapsed,z,y,x
1772458087302715400,0.05671533203125,-0.04147873446345329,0.19470983743667603,-0.09146706759929657
1772458087312784100,0.0667841796875,0.01918727718293667,0.1555938571691513,-0.10176178067922592
1772458087322852400,0.076852294921875,0.06214273348450661,0.16924920678138733,-0.09080234169960022
1772458087332920300,0.08692041015625,0.08478173613548279,0.1685490608215332,-0.06353796273469925
1772458087342989300,0.0969892578125,0.0992613360285759,0.11706802994012833,-0.030487336218357086
1772458087353057300,0.107057373046875,0.12050830572843552,0.06445702165365219,0.009445167146623135
1772458087363125200,0.117125244140625,0.1479356735944748,0.02166960947215557,0.055748749524354935
1772458087373194200,0.1271943359375,0.17592549324035645,-0.0012985573848709464,0.09532838314771652
1772458087383262500,0.137262451171875,0.1890985518693924,-0.01631399244070053,0.129689559340477
1772458087393330400,0.147330322265625,0.19196970760822296,-0.020295418798923492,0.15200896561145782
1772458087403399200,0.157399169921875,0.17771300673484802,-0.01221378892660141,0.16643238067626953
1772458087413467400,0.16746728515625,0.15920910239219666,-0.019718045368790627,0.15709428489208221
1772458087423536400,0.177536376953125,0.14127030968666077,-0.051903676241636276,0.12194481492042542
1772458087433604400,0.187604248046875,0.11856260150671005,-0.07759039849042892,0.06787598878145218
1772458087443672000,0.197672119140625,0.1030651330947876,-0.07303399592638016,0.00256355875171721
1772458087453741300,0.2077412109375,0.0951819121837616,-0.05718152970075607,-0.05905000492930412
1772458087463809300,0.217809326171875,0.09624424576759338,-0.05055292323231697,-0.11280537396669388
1772458087473877200,0.227877197265625,0.10294662415981293,-0.04584578424692154,-0.15381112694740295
1772458087483946200,0.2379462890625,0.11340512335300446,-0.05688032507896423,-0.1877046525478363
1772458087494014200,0.24801416015625,0.11650211364030838,-0.07751183211803436,-0.20269133150577545
1772458087504083200,0.258083251953125,0.11592260748147964,-0.06417419016361237,-0.18863914906978607
1772458087514151400,0.2681513671875,0.12326094508171082,-0.028020448982715607,-0.14641819894313812
1772458087524219400,0.278219482421875,0.12914040684700012,-0.004668787587434053,-0.09731829911470413
1772458087534288100,0.2882880859375,0.13469789922237396,0.00273693073540926,-0.037100762128829956
1772458087544356400,0.2983564453125,0.15408943593502045,-0.00276169809512794,0.015313176438212395
1772458087554424300,0.30842431640625,0.17326205968856812,-0.045889727771282196,0.048291899263858795
1772458087564493000,0.3184931640625,0.20241010189056396,-0.1198292002081871,0.06482453644275665
1772458087574561300,0.328561279296875,0.21967457234859467,-0.16993577778339386,0.06721339374780655
1772458087584630300,0.33863037109375,0.22709333896636963,-0.18761517107486725,0.07362069189548492
1772458087594698200,0.3486982421875,0.221444234251976,-0.1860566884279251,0.0708499401807785
1772458087604766500,0.358766357421875,0.21555332839488983,-0.1812629997730255,0.05646301060914993
1772458087614835200,0.368835205078125,0.20555022358894348,-0.17035256326198578,0.04196156561374664
1772458087624903200,0.378903076171875,0.18777230381965637,-0.1576428860425949,0.02948891557753086
1772458087634971400,0.388971435546875,0.17148759961128235,-0.13689394295215607,0.017377391457557678
1772458087645040400,0.399040283203125,0.1639881432056427,-0.11644112318754196,0.007188937161117792
1772458087655108000,0.409108154296875,0.16303952038288116,-0.10357699543237686,-0.007327687460929155
1772458087665176000,0.419176025390625,0.16752268373966217,-0.09356776624917984,-0.022481607273221016
1772458087675245300,0.429245361328125,0.16393780708312988,-0.05943696200847626,-0.032081238925457
1772458087685313300,0.439313232421875,0.1479918658733368,-0.002540922025218606,-0.03206446021795273
1772458087695382300,0.44938232421875,0.12536165118217468,0.03804618492722511,-0.03441336750984192
1772458087705450200,0.4594501953125,0.09992712736129761,0.04544977471232414,-0.043345607817173004
1772458087715518200,0.469518310546875,0.07451977580785751,0.046110767871141434,-0.04679626598954201
1772458087725587500,0.47958740234375,0.06103086471557617,0.038053374737501144,-0.06174565479159355
1772458087735655400,0.489655517578125,0.04572887346148491,0.01799577847123146,-0.07057243585586548
1772458087745723100,0.49972314453125,0.026810841634869576,-0.003790477057918906,-0.0889064371585846
1772458087755792400,0.50979248046875,0.027590349316596985,-0.020606208592653275,-0.11369860172271729
1772458087765860400,0.5198603515625,0.0462668314576149,-0.0295520331710577,-0.14412042498588562
1772458087775928300,0.52992822265625,0.08377905189990997,-0.02990729920566082,-0.1779518872499466
1772458087785997000,0.5399970703125,0.12443753331899643,-0.007066165097057819,-0.20671376585960388
1772458087796065300,0.550065185546875,0.15542981028556824,0.03615081310272217,-0.20473343133926392
1772458087806134300,0.56013427734375,0.15310806035995483,0.0897487923502922,-0.1840934008359909
1772458087816202200,0.5702021484375,0.1158195436000824,0.18870307505130768,-0.12514619529247284
1772458087826270500,0.5802705078125,0.04938832297921181,0.27713412046432495,-0.059847086668014526
1772458087836339200,0.590339111328125,-0.017473265528678894,0.34441542625427246,-0.007948470301926136
1772458087846407200,0.6004072265625,-0.07387502491474152,0.4073624312877655,0.017910024151206017
1772458087856475400,0.610475341796875,-0.1136045902967453,0.4523610770702362,0.03680754825472832
1772458087866544000,0.620544189453125,-0.14176645874977112,0.47325944900512695,0.03146577998995781
1772458087876612000,0.630612060546875,-0.1521597057580948,0.47942811250686646,-0.006447513122111559
1772458087886680300,0.640680419921875,-0.15313096344470978,0.45508256554603577,-0.06835242360830307
1772458087896749300,0.650749267578125,-0.14148256182670593,0.40381139516830444,-0.1504715234041214
1772458087906817300,0.6608173828125,-0.12200260162353516,0.3337361514568329,-0.22561848163604736
1772458087916886300,0.67088623046875,-0.09268572926521301,0.2782649099826813,-0.2970404624938965
1772458087926954200,0.680954345703125,-0.05272712558507919,0.2588036060333252,-0.33849629759788513
1772458087937022200,0.691022216796875,-0.013282516039907932,0.25603416562080383,-0.34999796748161316
1772458087947091500,0.701091552734375,0.019757991656661034,0.24606649577617645,-0.3527287542819977
1772458087957159200,0.7111591796875,0.053219277411699295,0.22717270255088806,-0.33569011092185974
1772458087967227100,0.72122705078125,0.08457853645086288,0.1785159409046173,-0.3291909396648407
1772458087977296400,0.73129638671875,0.12173096090555191,0.11675484478473663,-0.3281078338623047
1772458087987364400,0.7413642578125,0.1567738950252533,0.06295286864042282,-0.3274116814136505
1772458087997432300,0.751432373046875,0.18133783340454102,0.001210673013702035,-0.32391974329948425
1772458088007501300,0.761501220703125,0.18876059353351593,-0.040761012583971024,-0.31553027033805847
1772458088017569300,0.7715693359375,0.18727615475654602,-0.057848650962114334,-0.29955342411994934
1772458088027638300,0.78163818359375,0.19425922632217407,-0.06749062985181808,-0.29142677783966064
1772458088037706500,0.79170654296875,0.19854025542736053,-0.05067968741059303,-0.28515157103538513
1772458088047774200,0.801774169921875,0.21196125447750092,-0.005003813188523054,-0.2685835361480713
1772458088057843200,0.81184326171875,0.22687548398971558,0.049364086240530014,-0.233979731798172
1772458088067911200,0.8219111328125,0.23015516996383667,0.1326161026954651,-0.17981690168380737
1772458088077979400,0.8319794921875,0.22260244190692902,0.23932524025440216,-0.10917655378580093
1772458088088048000,0.842048095703125,0.2144222855567932,0.3221900165081024,-0.050026681274175644
1772458088098116000,0.8521162109375,0.20653532445430756,0.3365069031715393,-0.00854235514998436
1772458088108184300,0.862184326171875,0.19202269613742828,0.300290048122406,0.0249069482088089
1772458088118253300,0.87225341796875,0.1725560575723648,0.24244646728038788,0.041849181056022644
1772458088128321300,0.8823212890625,0.14921317994594574,0.18252906203269958,0.05140113830566406
1772458088138390300,0.892390380859375,0.12671613693237305,0.11846539378166199,0.050575025379657745
1772458088148458200,0.902458251953125,0.10634587705135345,0.06805121898651123,0.03903794661164284
1772458088158526200,0.912526123046875,0.09350624680519104,0.031032217666506767,0.024085095152258873
1772458088168595200,0.92259521484375,0.0833798423409462,0.004837365821003914,-0.001365668955259025
1772458088178663200,0.9326630859375,0.07755311578512192,-0.01942562870681286,-0.022278407588601112
1772458088188731100,0.942731201171875,0.07552032172679901,-0.032048214226961136,-0.05004559084773064
1772458088198800400,0.95280029296875,0.08303443342447281,-0.055814795196056366,-0.064836785197258
1772458088208868400,0.962868408203125,0.091658815741539,-0.10012420266866684,-0.08720893412828445
1772458088218936300,0.972936279296875,0.09608844667673111,-0.12752653658390045,-0.10076842457056046
1772458088229005300,0.98300537109375,0.09107451885938644,-0.13903671503067017,-0.10355648398399353
1772458088239073300,0.9930732421875,0.08231085538864136,-0.15406014025211334,-0.09824561327695847
1772458088249142300,1.003142333984375,0.06406740099191666,-0.1717536449432373,-0.08376786857843399
1772458088259210200,1.013210205078125,0.03839106485247612,-0.18200495839118958,-0.06173100695014
1772458088269278200,1.0232783203125,0.008172442205250263,-0.19435350596904755,-0.042991675436496735
1772458088279347200,1.03334716796875,-0.023542344570159912,-0.23658351600170135,-0.04313255846500397
1772458088289415400,1.04341552734375,-0.05807502195239067,-0.3083634376525879,-0.07370777428150177
1772458088299483400,1.0534833984375,-0.08764729648828506,-0.3888995349407196,-0.1279481053352356
1772458088309552000,1.06355224609375,-0.11591541767120361,-0.4790123999118805,-0.20139063894748688
1772458088319620400,1.073620361328125,-0.14995674788951874,-0.5973339676856995,-0.30796846747398376
1772458088329688300,1.083688232421875,-0.1963689774274826,-0.6548433303833008,-0.4159282445907593
1772458088339757300,1.09375732421875,-0.24648381769657135,-0.5930388569831848,-0.5000241994857788
1772458088349825300,1.1038251953125,-0.2987467646598816,-0.4628608524799347,-0.5565098524093628
1772458088359894300,1.113894287109375,-0.3385186791419983,-0.29606494307518005,-0.5638529658317566
1772458088369962200,1.123962158203125,-0.380088746547699,-0.11907365918159485,-0.5201654434204102
1772458088380030200,1.1340302734375,-0.4089110791683197,0.04488704726099968,-0.4445497691631317
1772458088390099200,1.14409912109375,-0.40109017491340637,0.17446421086788177,-0.3511399030685425
1772458088400167200,1.154167236328125,-0.35040247440338135,0.2478920966386795,-0.23999182879924774
1772458088410235100,1.164235107421875,-0.2818090319633484,0.25817084312438965,-0.12395496666431427
1772458088420304400,1.174304443359375,-0.21455144882202148,0.2237531989812851,-0.02250131405889988
1772458088430372600,1.18437255859375,-0.14849600195884705,0.17633189260959625,0.0652351975440979
1772458088440440800,1.19444091796875,-0.07511153072118759,0.1076074168086052,0.12931111454963684
1772458088450509800,1.204509765625,-0.0028391960076987743,0.03476330637931824,0.18404173851013184
1772458088460577800,1.214577880859375,0.05024612694978714,-0.05619562789797783,0.21988415718078613
1772458088470646800,1.224646728515625,0.07718320190906525,-0.14186525344848633,0.2550663948059082
1772458088480714800,1.23471484375,0.08359848707914352,-0.2082464098930359,0.29197168350219727
1772458088490782700,1.24478271484375,0.08520038425922394,-0.27994802594184875,0.3303683400154114
1772458088500852000,1.25485205078125,0.08787871897220612,-0.3403210937976837,0.3595390021800995
1772458088510920000,1.264919921875,0.09730950742959976,-0.4077523350715637,0.3849721848964691
1772458088520987600,1.274987548828125,0.11089163273572922,-0.4952094852924347,0.38600975275039673
1772458088531057000,1.285056884765625,0.13023284077644348,-0.579732358455658,0.3728625178337097
1772458088541124900,1.295124755859375,0.1502227932214737,-0.6270503401756287,0.3429988920688629
1772458088551192800,1.30519287109375,0.15681251883506775,-0.6351093053817749,0.3045966625213623
1772458088561261800,1.31526171875,0.14850904047489166,-0.6019284725189209,0.26779788732528687
1772458088571329800,1.325329833984375,0.11397556960582733,-0.5117069482803345,0.23517203330993652
1772458088581397800,1.335397705078125,0.0686861202120781,-0.4032244384288788,0.20912578701972961
1772458088591467000,1.345467041015625,0.016398947685956955,-0.27881699800491333,0.20862510800361633
1772458088601534700,1.35553466796875,-0.03791728988289833,-0.13780739903450012,0.23360928893089294
1772458088611603700,1.365603759765625,-0.0881170779466629,-0.00857404712587595,0.2767349183559418
1772458088621672000,1.375671875,-0.12202391028404236,0.11620330810546875,0.3462897539138794
1772458088631740000,1.385739990234375,-0.13203872740268707,0.19400356709957123,0.41930484771728516
1772458088641808600,1.39580859375,-0.130213662981987,0.18900081515312195,0.4784422218799591
1772458088651876900,1.405876953125,-0.11313081532716751,0.1142200455069542,0.5138686299324036
1772458088661944800,1.41594482421875,-0.09534116834402084,0.015397598035633564,0.5312836170196533
1772458088672013800,1.426013916015625,-0.08138087391853333,-0.08654181659221649,0.534763514995575
1772458088682081800,1.436081787109375,-0.07043901085853577,-0.1913830041885376,0.517423152923584
1772458088692149800,1.446149658203125,-0.07466305047273636,-0.2695334851741791,0.48567721247673035
1772458088702218800,1.45621875,-0.08810695260763168,-0.3218699097633362,0.44388291239738464
1772458088712286700,1.46628662109375,-0.11436066031455994,-0.36725977063179016,0.3940735459327698
1772458088722356000,1.47635595703125,-0.14663152396678925,-0.4050058126449585,0.34098687767982483
1772458088732423700,1.486423583984375,-0.19389836490154266,-0.41668590903282166,0.280714213848114
1772458088742491600,1.49649169921875,-0.23155279457569122,-0.41073718667030334,0.22202268242835999
1772458088752561000,1.506560791015625,-0.2674404978752136,-0.3654211163520813,0.1706250011920929
1772458088762628900,1.51662890625,-0.29262813925743103,-0.2958766520023346,0.11855993419885635
1772458088772696800,1.52669677734375,-0.314598947763443,-0.2125498205423355,0.06541682034730911
1772458088782765800,1.536765869140625,-0.3308298587799072,-0.11130788177251816,0.004117513541132212
1772458088792833800,1.546833740234375,-0.3378049433231354,0.0005456816870719194,-0.05031909793615341
1772458088802901800,1.55690185546875,-0.3279499113559723,0.11809094995260239,-0.09210462868213654
1772458088812970800,1.566970703125,-0.3081740736961365,0.21696506440639496,-0.1171889379620552
1772458088823038700,1.577038818359375,-0.28793591260910034,0.2605900466442108,-0.13193939626216888
1772458088833106700,1.587106689453125,-0.2649499177932739,0.24465608596801758,-0.1329609751701355
1772458088843176000,1.597176025390625,-0.23870311677455902,0.18052077293395996,-0.13270850479602814
1772458088853244000,1.607243896484375,-0.216942697763443,0.09346070885658264,-0.13395246863365173
1772458088863312600,1.617312744140625,-0.19234547019004822,0.002552906284108758,-0.13734880089759827
1772458088873380900,1.627380859375,-0.17350654304027557,-0.08566323667764664,-0.14058613777160645
1772458088883448800,1.63744873046875,-0.1471889168024063,-0.16382329165935516,-0.15348117053508759
1772458088893517800,1.647517822265625,-0.1262436956167221,-0.22410686314105988,-0.16370877623558044
1772458088903585800,1.657585693359375,-0.11200855672359467,-0.2644071578979492,-0.17670366168022156
1772458088913653800,1.66765380859375,-0.10334822535514832,-0.2820950746536255,-0.19275826215744019
1772458088923722800,1.67772265625,-0.09468096494674683,-0.2723364531993866,-0.21061396598815918
1772458088933791000,1.687791015625,-0.08987769484519958,-0.23515339195728302,-0.23770949244499207
1772458088943859000,1.69785888671875,-0.08794503659009933,-0.21491044759750366,-0.2752712666988373
1772458088953927700,1.707927734375,-0.08135424554347992,-0.23438693583011627,-0.3401791453361511
1772458088963995600,1.71799560546875,-0.07638265192508698,-0.2768116295337677,-0.41003599762916565
1772458088974063900,1.72806396484375,-0.06817132979631424,-0.3187636137008667,-0.47886937856674194
1772458088984132900,1.7381328125,-0.05224429443478584,-0.3521724343299866,-0.5380847454071045
1772458088994200800,1.748200927734375,-0.047753408551216125,-0.3823194205760956,-0.5836711525917053
1772458089004269800,1.758269775390625,-0.0571620874106884,-0.39369723200798035,-0.5908393263816833
1772458089014337800,1.768337890625,-0.08145837485790253,-0.3678706884384155,-0.5621221661567688
1772458089024405800,1.77840576171875,-0.1095387414097786,-0.3160671591758728,-0.4948102533817291
1772458089034474800,1.788474853515625,-0.13759781420230865,-0.2429673820734024,-0.4003969430923462
1772458089044542700,1.798542724609375,-0.16655436158180237,-0.12293577939271927,-0.291845440864563
1772458089054610700,1.808610595703125,-0.19795356690883636,0.04459010437130928,-0.18431711196899414
1772458089064680000,1.818679931640625,-0.2122235745191574,0.20996415615081787,-0.1109483540058136
1772458089074748000,1.828747802734375,-0.20008622109889984,0.3510674834251404,-0.06458378583192825
1772458089084815600,1.838815673828125,-0.17002765834331512,0.48341673612594604,-0.04024249315261841
1772458089094884900,1.848884765625,-0.12251073867082596,0.5761762261390686,-0.03430178016424179
1772458089104952800,1.858952880859375,-0.05748086795210838,0.6120223999023438,-0.03393533080816269
1772458089115021800,1.869021728515625,-0.002743588527664542,0.6154578328132629,-0.02520868368446827
1772458089125089800,1.87908984375,0.0463738888502121,0.6063336133956909,0.00535588338971138
1772458089135157800,1.88915771484375,0.08791840076446533,0.5967217087745667,0.07947325706481934
1772458089145226800,1.899226806640625,0.1187564805150032,0.6272172927856445,0.193558007478714
1772458089155295000,1.909294921875,0.1372673064470291,0.6404098272323608,0.32776668667793274
1772458089165363000,1.919363037109375,0.1447417438030243,0.5917080640792847,0.44504430890083313
1772458089175431700,1.929431640625,0.13440947234630585,0.5609099268913269,0.556337833404541
1772458089185500000,1.9395,0.11517932265996933,0.5411191582679749,0.6479870080947876
1772458089195567900,1.94956787109375,0.09083376824855804,0.5393902659416199,0.7119905352592468
1772458089205636900,1.959636962890625,0.0709463432431221,0.5346620678901672,0.7431694865226746
1772458089215704800,1.969704833984375,0.04598187282681465,0.4660619795322418,0.7193437814712524
1772458089225772800,1.979772705078125,0.02316177822649479,0.3552377223968506,0.6587539315223694
1772458089235841800,1.989841796875,-0.017471933737397194,0.23643650114536285,0.5702419281005859
1772458089245909800,1.99990966796875,-0.07817070186138153,0.12065903842449188,0.4611116945743561
1772458089255978800,2.009978759765625,-0.1521378755569458,0.024706412106752396,0.3612609803676605
1772458089266046700,2.020046630859375,-0.21994248032569885,-0.00717642018571496,0.28410017490386963
1772458089276114700,2.03011474609375,-0.26498398184776306,0.011894476599991322,0.22889842092990875
1772458089286184000,2.040183837890625,-0.2864573299884796,0.05173030495643616,0.18290190398693085
1772458089296251600,2.050251708984375,-0.28631749749183655,0.11334040760993958,0.15166835486888885
1772458089306319600,2.060319580078125,-0.27442169189453125,0.18911400437355042,0.13092473149299622
1772458089316388900,2.070388916015625,-0.24714693427085876,0.25232067704200745,0.1276295930147171
1772458089326456800,2.080456787109375,-0.2042119950056076,0.3038714826107025,0.1361200213432312
1772458089336524800,2.09052490234375,-0.14329618215560913,0.3475949764251709,0.17247696220874786
1772458089346593800,2.10059375,-0.07163610309362411,0.3671945035457611,0.2163272351026535
1772458089356661800,2.110661865234375,0.012911804020404816,0.33472391963005066,0.2631267011165619
1772458089366729700,2.120729736328125,0.07863675802946091,0.26550358533859253,0.3132103681564331
1772458089376799000,2.130799072265625,0.12763439118862152,0.20511479675769806,0.37568122148513794
1772458089386866700,2.14086669921875,0.16296760737895966,0.17691698670387268,0.43356022238731384
1772458089396935700,2.150935791015625,0.1852649301290512,0.1905321329832077,0.4951452910900116
1772458089407004000,2.16100390625,0.1989426612854004,0.22529543936252594,0.5546342134475708
1772458089417071900,2.17107177734375,0.19691678881645203,0.25702008605003357,0.5787685513496399
1772458089427140600,2.181140625,0.1923087239265442,0.28045934438705444,0.5799664258956909
1772458089437208300,2.191208251953125,0.19214759767055511,0.3134519159793854,0.5495318174362183
1772458089447276300,2.2012763671875,0.2065020352602005,0.3375125229358673,0.4906134009361267
1772458089457345500,2.211345458984375,0.2295495718717575,0.3421243131160736,0.40681836009025574
1772458089467413500,2.22141357421875,0.25632551312446594,0.3125363290309906,0.31481361389160156
1772458089477481500,2.2314814453125,0.2812308669090271,0.26567161083221436,0.2116081267595291
1772458089487550500,2.241550537109375,0.3044983744621277,0.1869155615568161,0.10934007167816162
1772458089497618400,2.251618408203125,0.3215615153312683,0.08748697489500046,0.002858637133613229
1772458089507687400,2.2616875,0.3299318253993988,-0.01606179028749466,-0.09924323111772537
1772458089517755400,2.27175537109375,0.31164389848709106,-0.1258159875869751,-0.1897246539592743
1772458089527823400,2.2818232421875,0.26694780588150024,-0.22379368543624878,-0.28107401728630066
1772458089537892400,2.291892333984375,0.20018821954727173,-0.2896004021167755,-0.36774471402168274
1772458089547960300,2.301960205078125,0.12562184035778046,-0.32894858717918396,-0.4523395001888275
1772458089558028500,2.312028564453125,0.06372598558664322,-0.32770755887031555,-0.532666027545929
1772458089568097300,2.32209716796875,0.02930222824215889,-0.2558179199695587,-0.5805728435516357
1772458089578165200,2.332165283203125,0.012201538309454918,-0.15900163352489471,-0.5862725377082825
1772458089588233500,2.3422333984375,0.010319748893380165,-0.056116264313459396,-0.5471704006195068
1772458089598302500,2.352302490234375,0.010776747949421406,0.052087701857089996,-0.47357288002967834
1772458089608370400,2.362370361328125,0.027039606124162674,0.15404069423675537,-0.37386414408683777
1772458089618438400,2.3724384765625,0.050748132169246674,0.24181821942329407,-0.2677086591720581
1772458089628507400,2.38250732421875,0.0786263719201088,0.29010799527168274,-0.16742467880249023
1772458089638575400,2.392575439453125,0.1096644476056099,0.2959267199039459,-0.08911948651075363
1772458089648644400,2.402644287109375,0.13715332746505737,0.2722238004207611,-0.024688301607966423
1772458089658712300,2.41271240234375,0.15809829533100128,0.23988023400306702,0.023262977600097656
1772458089668780300,2.4227802734375,0.1665003001689911,0.2144363969564438,0.05375004559755325
1772458089678849500,2.432849609375,0.16532717645168304,0.18274638056755066,0.06791673600673676
1772458089688917500,2.44291748046875,0.15060149133205414,0.1555672287940979,0.07319112122058868
1772458089698985200,2.452985107421875,0.13353195786476135,0.13820022344589233,0.08821135014295578
1772458089709054500,2.463054443359375,0.12520664930343628,0.12135039269924164,0.10274848341941833
1772458089719122400,2.473122314453125,0.11782862991094589,0.10550405830144882,0.11771172285079956
1772458089729190400,2.4831904296875,0.11169031262397766,0.08965984731912613,0.12311048060655594
1772458089739259400,2.49325927734375,0.1054004579782486,0.0700611099600792,0.12550652027130127
1772458089749327400,2.503327392578125,0.08897514641284943,0.04205397516489029,0.12644235789775848
1772458089759396400,2.513396240234375,0.06542374938726425,-0.0011523497523739934,0.12876756489276886
1772458089769464600,2.523464599609375,0.03826749324798584,-0.06235259026288986,0.14288951456546783
1772458089779532500,2.533532470703125,0.010906177572906017,-0.1369546502828598,0.15970976650714874
1772458089789601300,2.543601318359375,-0.02225443907082081,-0.23901045322418213,0.18064939975738525
1772458089799669500,2.55366943359375,-0.051065847277641296,-0.3406699597835541,0.20052537322044373
1772458089809737500,2.563737548828125,-0.09124575555324554,-0.4310741722583771,0.22527946531772614
1772458089819806500,2.573806396484375,-0.12891483306884766,-0.4895675778388977,0.2445271909236908
1772458089829874200,2.583874267578125,-0.16874374449253082,-0.5302289724349976,0.24071167409420013
1772458089839942400,2.5939423828125,-0.20479123294353485,-0.5672908425331116,0.20600935816764832
1772458089850011400,2.604011474609375,-0.2490079551935196,-0.6378443837165833,0.13751950860023499
1772458089860079400,2.614079345703125,-0.31602028012275696,-0.7125194072723389,0.020134562626481056
1772458089870147600,2.624147705078125,-0.4067014455795288,-0.7497549653053284,-0.13935868442058563
1772458089880216300,2.63421630859375,-0.5131522417068481,-0.7228530049324036,-0.290056049823761
1772458089890284300,2.6442841796875,-0.6292597055435181,-0.6382667422294617,-0.39045774936676025
1772458089900353500,2.654353515625,-0.7411622405052185,-0.4934232831001282,-0.45357441902160645
1772458089910421200,2.664421142578125,-0.8326604962348938,-0.3147134780883789,-0.46491122245788574
1772458089920489200,2.6744892578125,-0.8863735198974609,-0.10539273172616959,-0.4446246027946472
1772458089930558500,2.684558349609375,-0.9005652070045471,0.12710362672805786,-0.39904138445854187
1772458089940626400,2.69462646484375,-0.8711700439453125,0.3261200487613678,-0.3592524528503418
1772458089950694400,2.7046943359375,-0.8014010787010193,0.44385918974876404,-0.3129645586013794
1772458089960763400,2.714763427734375,-0.7102205753326416,0.4751787781715393,-0.2672961354255676
1772458089970831400,2.724831298828125,-0.6189021468162537,0.46433916687965393,-0.24496501684188843
1772458089980899300,2.7348994140625,-0.5336421132087708,0.42118769884109497,-0.22518278658390045
1772458089990968600,2.744968505859375,-0.44913890957832336,0.35600072145462036,-0.20230357348918915
1772458090001036300,2.755036376953125,-0.3808421492576599,0.2672428786754608,-0.16221314668655396
1772458090011104300,2.765104248046875,-0.3314626216888428,0.1544143408536911,-0.10019823908805847
1772458090021173500,2.775173583984375,-0.3120220899581909,0.04651130735874176,-0.0186019130051136
1772458090031241500,2.785241455078125,-0.3031236529350281,-0.06729062646627426,0.07019506394863129
1772458090041310200,2.795310302734375,-0.30137768387794495,-0.19640733301639557,0.14999455213546753
1772458090051378400,2.80537841796875,-0.28908294439315796,-0.34680190682411194,0.1966952234506607
1772458090061446400,2.8154462890625,-0.26935556530952454,-0.5201310515403748,0.2219499796628952
1772458090071515400,2.825515380859375,-0.24515649676322937,-0.700930655002594,0.22587653994560242
1772458090081583600,2.83558349609375,-0.22409647703170776,-0.8478026986122131,0.21423426270484924
1772458090091651300,2.8456513671875,-0.2184939831495285,-0.9440644979476929,0.1854044795036316
1772458090101720300,2.85572021484375,-0.22495988011360168,-0.999868631362915,0.14720755815505981
1772458090111788300,2.865788330078125,-0.23966026306152344,-1.0171235799789429,0.1203160211443901
1772458090121856500,2.8758564453125,-0.27159395813941956,-1.014005184173584,0.1282021701335907
1772458090131925200,2.88592529296875,-0.3299131989479065,-0.9614320397377014,0.1862870454788208
1772458090141993200,2.8959931640625,-0.39471563696861267,-0.8472716212272644,0.2783871591091156
1772458090152062500,2.9060625,-0.4605356454849243,-0.6771838068962097,0.39725521206855774
1772458090162130400,2.91613037109375,-0.5197800397872925,-0.47717028856277466,0.5096927881240845
1772458090172198400,2.926198486328125,-0.5604878067970276,-0.28527992963790894,0.5928736925125122
1772458090182267400,2.936267333984375,-0.5880150198936462,-0.13030794262886047,0.6202360987663269
1772458090192335400,2.94633544921875,-0.6002985835075378,-0.02828729711472988,0.5945571064949036
1772458090202403300,2.9564033203125,-0.6065391898155212,0.015686817467212677,0.5316314101219177
1772458090212472300,2.966472412109375,-0.6129925847053528,0.002286856295540929,0.4380282163619995
1772458090222540300,2.976540283203125,-0.6356949210166931,-0.047626376152038574,0.3344930410385132
1772458090232608300,2.986608154296875,-0.6703253388404846,-0.10988974571228027,0.2213614135980606
1772458090242677500,2.996677490234375,-0.7205514907836914,-0.17010089755058289,0.12148914486169815
1772458090252745500,3.006745361328125,-0.778040885925293,-0.21378019452095032,0.023980965837836266
1772458090262813400,3.0168134765625,-0.8473507165908813,-0.24445155262947083,-0.06432199478149414
1772458090272882400,3.02688232421875,-0.9106394052505493,-0.24779275059700012,-0.14144155383110046
1772458090282950400,3.036950439453125,-0.9721233248710632,-0.2371198683977127,-0.20491932332515717
1772458090293018400,3.047018310546875,-1.0150665044784546,-0.21154367923736572,-0.25988510251045227
1772458090303087400,3.05708740234375,-1.0527771711349487,-0.18137139081954956,-0.3126143515110016
1772458090313155300,3.0671552734375,-1.072653889656067,-0.15053598582744598,-0.35232076048851013
1772458090323224300,3.077224365234375,-1.0779166221618652,-0.10519113391637802,-0.3875639736652374
1772458090333292500,3.08729248046875,-1.066062092781067,-0.07676934450864792,-0.416252076625824
1772458090343360500,3.097360595703125,-1.0378059148788452,-0.0705958753824234,-0.43968284130096436
1772458090353429200,3.10742919921875,-0.9983493089675903,-0.06923846155405045,-0.4463527202606201
1772458090363497500,3.11749755859375,-0.9447212219238281,-0.053709834814071655,-0.4501573145389557
1772458090373565400,3.1275654296875,-0.880920946598053,-0.03219175711274147,-0.43419167399406433
1772458090383634400,3.137634521484375,-0.8142178058624268,-0.028198348358273506,-0.4189722239971161
1772458090393702400,3.147702392578125,-0.7492167353630066,-0.03725815564393997,-0.40299805998802185
1772458090403770400,3.157770263671875,-0.6781747937202454,-0.06733909249305725,-0.37599945068359375
1772458090413839400,3.16783935546875,-0.6069903373718262,-0.1235634833574295,-0.34517309069633484
1772458090423907300,3.1779072265625,-0.536842942237854,-0.20436565577983856,-0.30358225107192993
1772458090433976300,3.187976318359375,-0.4733651578426361,-0.28719767928123474,-0.25867870450019836
1772458090444044300,3.198044189453125,-0.4233717620372772,-0.3568212389945984,-0.22076193988323212
1772458090454112300,3.2081123046875,-0.37889084219932556,-0.41191351413726807,-0.1877182275056839
1772458090464181500,3.218181396484375,-0.3386582136154175,-0.45476990938186646,-0.1641569882631302
1772458090474249500,3.22824951171875,-0.29556748270988464,-0.473969966173172,-0.14700515568256378
1772458090484317200,3.238317138671875,-0.25388818979263306,-0.46161583065986633,-0.1219320297241211
1772458090494386400,3.248386474609375,-0.21064645051956177,-0.4720277190208435,-0.10468833148479462
1772458090504454400,3.258454345703125,-0.17642350494861603,-0.4948699176311493,-0.08744516223669052
1772458090514522400,3.2685224609375,-0.1597696840763092,-0.503974199295044,-0.07219590246677399
1772458090524591400,3.27859130859375,-0.15577174723148346,-0.48411446809768677,-0.05096358060836792
1772458090534659300,3.288659423828125,-0.149361252784729,-0.4382191598415375,-0.027662521228194237
1772458090544727300,3.298727294921875,-0.1343548744916916,-0.3706425130367279,-0.01209953986108303
1772458090554796500,3.308796630859375,-0.11624511331319809,-0.2892078459262848,-0.007921572774648666
1772458090564864500,3.318864501953125,-0.09748527407646179,-0.19504618644714355,-0.016880180686712265
1772458090574933200,3.328933349609375,-0.07344039529561996,-0.10438366234302521,-0.023454725742340088
1772458090585001500,3.33900146484375,-0.04990710690617561,-0.015515309758484364,-0.027288611978292465
1772458090595069400,3.3490693359375,-0.03380776569247246,0.040655817836523056,-0.034458909183740616
1772458090605138200,3.35913818359375,-0.018457837402820587,0.08486269414424896,-0.02785293571650982
1772458090615206400,3.369206298828125,0.001975266495719552,0.13869290053844452,0.002225870033726096
1772458090625274400,3.3792744140625,0.02215483784675598,0.19549280405044556,0.04585350677371025
1772458090635343400,3.38934326171875,0.045817021280527115,0.23323804140090942,0.09265536814928055
1772458090645411600,3.39941162109375,0.07072503864765167,0.2111375331878662,0.11717616021633148
1772458090655479600,3.4094794921875,0.08611784130334854,0.15517893433570862,0.11835247278213501
1772458090665548300,3.41954833984375,0.09435286372900009,0.1039237380027771,0.11332469433546066
1772458090675616500,3.429616455078125,0.10020755976438522,0.0764995664358139,0.11881054192781448
1772458090685684500,3.4396845703125,0.102634496986866,0.08369889110326767,0.14659982919692993
1772458090695753200,3.449753173828125,0.09983018785715103,0.10933367908000946,0.1904812604188919
1772458090705821200,3.4598212890625,0.09930607676506042,0.13615012168884277,0.24564944207668304
1772458090715890400,3.469890380859375,0.10127335786819458,0.17838358879089355,0.31052377820014954
1772458090725958400,3.47995849609375,0.11190523207187653,0.21313783526420593,0.3804115056991577
1772458090736026400,3.4900263671875,0.11020373553037643,0.2266152948141098,0.4227997362613678
1772458090746095400,3.500095458984375,0.09840593487024307,0.23246599733829498,0.44864171743392944
1772458090756163300,3.510163330078125,0.08941669762134552,0.23343804478645325,0.44820573925971985
1772458090766231300,3.520231201171875,0.07882717251777649,0.22309619188308716,0.4236692488193512
1772458090776300500,3.530300537109375,0.07196687161922455,0.21937257051467896,0.3873101770877838
1772458090786368300,3.5403681640625,0.0774678960442543,0.21472029387950897,0.3396041691303253
1772458090796436200,3.550436279296875,0.07765032351016998,0.21140199899673462,0.2918052077293396
1772458090806505500,3.56050537109375,0.07865459471940994,0.205116406083107,0.2472875565290451
1772458090816573400,3.570573486328125,0.08529066294431686,0.20083776116371155,0.19759030640125275
1772458090826641400,3.580641357421875,0.0993843749165535,0.1861421763896942,0.14589622616767883
1772458090836710400,3.59071044921875,0.1149633377790451,0.1631401926279068,0.08228795230388641
1772458090846778400,3.6007783203125,0.13900315761566162,0.1469401717185974,0.011203385889530182
1772458090856847400,3.610847412109375,0.16461238265037537,0.15665219724178314,-0.042868904769420624
1772458090866915600,3.62091552734375,0.19686485826969147,0.18823754787445068,-0.07469794154167175
1772458090876983300,3.6309833984375,0.2296462506055832,0.22971361875534058,-0.07193970680236816
1772458090887052300,3.64105224609375,0.26471713185310364,0.2631722390651703,-0.039750874042510986
1772458090897120500,3.65112060546875,0.30653730034828186,0.3048882782459259,0.03443440794944763
1772458090907188500,3.6611884765625,0.3482282757759094,0.34326228499412537,0.13741591572761536
1772458090917257200,3.67125732421875,0.38134443759918213,0.3731916844844818,0.2599186599254608
1772458090927325400,3.681325439453125,0.40680956840515137,0.3805771768093109,0.37221431732177734
1772458090937393400,3.691393310546875,0.4229874610900879,0.3406031131744385,0.4679219126701355
1772458090947462400,3.70146240234375,0.4401558041572571,0.2552559971809387,0.5314905047416687
1772458090957530600,3.711530517578125,0.45435631275177,0.14675135910511017,0.5594443678855896
1772458090967599400,3.721599365234375,0.46403345465660095,0.03913222253322601,0.5476583242416382
1772458090977667300,3.731667236328125,0.4733033776283264,-0.04579545184969902,0.5063151121139526
1772458090987735300,3.7417353515625,0.48842480778694153,-0.10748331993818283,0.43984395265579224
1772458090997804300,3.75180419921875,0.508672833442688,-0.1482616364955902,0.35349521040916443
1772458091007872300,3.761872314453125,0.5210373401641846,-0.19239607453346252,0.25402161478996277
1772458091017940200,3.771940185546875,0.5293591618537903,-0.21832726895809174,0.14692020416259766
1772458091028009500,3.782009521484375,0.519585132598877,-0.23240980505943298,0.030294256284832954
1772458091038077400,3.792077392578125,0.4874285161495209,-0.25864434242248535,-0.11208978295326233
1772458091048145400,3.8021455078125,0.4290967583656311,-0.2772260010242462,-0.2788931429386139
1772458091058214400,3.81221435546875,0.35146722197532654,-0.26959553360939026,-0.4462704360485077
1772458091068282400,3.822282470703125,0.26165157556533813,-0.20609857141971588,-0.594985842704773
1772458091078350300,3.832350341796875,0.16104614734649658,-0.07596107572317123,-0.7051627039909363
1772458091088419300,3.84241943359375,0.06321731954813004,0.09703414142131805,-0.7525440454483032
1772458091098487300,3.8524873046875,-0.02149091102182865,0.2991020083427429,-0.7476217746734619
1772458091108556500,3.862556640625,-0.07037696242332458,0.4965660870075226,-0.7015738487243652
1772458091118624500,3.87262451171875,-0.09006810933351517,0.6303797960281372,-0.6333298087120056
1772458091128692500,3.8826923828125,-0.07095912843942642,0.6917190551757812,-0.5488796234130859
1772458091138761200,3.89276123046875,-0.0335283987224102,0.6894401907920837,-0.4643538296222687
1772458091148829400,3.902829345703125,0.02100488357245922,0.6578476428985596,-0.3945862054824829
1772458091158897400,3.9128974609375,0.09330837428569794,0.5909746289253235,-0.3397890031337738
1772458091168966400,3.92296630859375,0.16759459674358368,0.49710431694984436,-0.2927165627479553
1772458091179034400,3.933034423828125,0.23733212053775787,0.366859495639801,-0.2541166841983795
1772458091189102300,3.943102294921875,0.2886326014995575,0.2497887909412384,-0.20450574159622192
1772458091199171300,3.95317138671875,0.3189050257205963,0.15425588190555573,-0.1564926654100418
1772458091209239600,3.963239501953125,0.3385370373725891,0.10458286851644516,-0.10293463617563248
1772458091219307500,3.9733076171875,0.3537841737270355,0.09497205168008804,-0.05658285319805145
1772458091229374500,3.98337451171875,0.37144091725349426,0.09887571632862091,-0.02208399772644043
1772458091239443200,3.993443115234375,0.3776136040687561,0.09285031259059906,0.00028282770654186606
1772458091249511400,4.003511474609375,0.3844060003757477,0.07498343288898468,0.01769297756254673
1772458091259579400,4.013579345703125,0.3836486041545868,0.0345342755317688,0.020198745653033257
1772458091269648400,4.0236484375,0.38494449853897095,-0.021521536633372307,0.011322695761919022
1772458091279716600,4.033716552734375,0.3884771764278412,-0.08606857061386108,-0.0006993460701778531
1772458091289784300,4.043784423828125,0.39172062277793884,-0.14132703840732574,-0.017536915838718414
1772458091299853300,4.053853271484375,0.38714346289634705,-0.19568854570388794,-0.02044934779405594
1772458091309921500,4.063921630859375,0.376650333404541,-0.2500268816947937,-0.021466942504048347
1772458091319989500,4.073989501953125,0.35104191303253174,-0.3062579333782196,-0.005625927820801735
1772458091330058200,4.084058349609375,0.3057154417037964,-0.3634392023086548,0.021994248032569885
1772458091340126200,4.094126220703125,0.2456611692905426,-0.40573978424072266,0.05043361335992813
1772458091350195500,4.104195556640625,0.18042543530464172,-0.43660154938697815,0.07201320677995682
1772458091360263400,4.114263427734375,0.10114739090204239,-0.4421140253543854,0.08353963494300842
1772458091370331400,4.124331298828125,0.02159637212753296,-0.4207152724266052,0.08255932480096817
1772458091380400400,4.134400390625,-0.05163949355483055,-0.36465704441070557,0.07026404142379761
1772458091390468400,4.14446826171875,-0.11428822576999664,-0.29242414236068726,0.04711531475186348
1772458091400536300,4.154536376953125,-0.14987364411354065,-0.20552119612693787,0.0036751623265445232
1772458091410605300,4.164605224609375,-0.1725131869316101,-0.11408849060535431,-0.05360490456223488
1772458091420673300,4.17467333984375,-0.1830129623413086,-0.024439029395580292,-0.1177884191274643
1772458091430741200,4.1847412109375,-0.19236890971660614,0.039077360183000565,-0.17522108554840088
1772458091440810500,4.194810546875,-0.20519337058067322,0.09509775042533875,-0.22163225710391998
1772458091450878700,4.204878662109375,-0.21531470119953156,0.135855033993721,-0.2364836484193802
1772458091460946400,4.214946533203125,-0.21739144623279572,0.14769437909126282,-0.2409854531288147
1772458091471015400,4.225015380859375,-0.21754111349582672,0.1352377086877823,-0.24524171650409698
1772458091481083600,4.235083740234375,-0.21533627808094025,0.09967172890901566,-0.25447675585746765
1772458091491152600,4.245152587890625,-0.2184005081653595,0.04893611744046211,-0.2731071710586548
1772458091501220400,4.255220458984375,-0.21862821280956268,0.015106515027582645,-0.2896565794944763
1772458091511288300,4.265288330078125,-0.21896244585514069,-0.018027735874056816,-0.31892338395118713
1772458091521357600,4.275357666015625,-0.21126431226730347,-0.06900916248559952,-0.3640141785144806
1772458091531425500,4.285425537109375,-0.19814477860927582,-0.10366008430719376,-0.4164443612098694
1772458091541493500,4.295493408203125,-0.18360018730163574,-0.12652705609798431,-0.47955435514450073
1772458091551562500,4.3055625,-0.17142102122306824,-0.12798592448234558,-0.5364192128181458
1772458091561630500,4.31563037109375,-0.15554751455783844,-0.10571204870939255,-0.573910117149353
1772458091571698400,4.325698486328125,-0.14067909121513367,-0.08572155982255936,-0.596246600151062
1772458091581768400,4.3357685546875,-0.12483567744493484,-0.069646455347538,-0.6027556657791138
1772458091591837400,4.34583740234375,-0.10941889882087708,-0.05712347477674484,-0.5828535556793213
1772458091601905700,4.35590576171875,-0.08012758940458298,-0.03098880872130394,-0.5384213924407959
1772458091611974400,4.365974365234375,-0.03949068486690521,0.022059762850403786,-0.4691789448261261
1772458091622042400,4.37604248046875,0.014019944705069065,0.03919587284326553,-0.425180047750473
1772458091632110600,4.386110595703125,0.06971223652362823,0.04169018939137459,-0.4162371754646301
1772458091642179600,4.3961796875,0.13306191563606262,0.04226037114858627,-0.4482848346233368
1772458091652247600,4.40624755859375,0.19130390882492065,-0.028379177674651146,-0.5202533006668091
1772458091662315500,4.4163154296875,0.2289748638868332,-0.14424052834510803,-0.6254529356956482
1772458091672384500,4.426384521484375,0.23890365660190582,-0.28548526763916016,-0.7397438287734985
1772458091682452500,4.436452392578125,0.21644814312458038,-0.44903984665870667,-0.8364176750183105
1772458091692520700,4.446520751953125,0.1582956314086914,-0.6031441688537598,-0.8790314197540283
1772458091702589400,4.45658935546875,0.090567447245121,-0.7008579969406128,-0.8753288388252258
1772458091712657400,4.466657470703125,0.03304050862789154,-0.6955654621124268,-0.814198911190033
1772458091722725600,4.4767255859375,-0.0014820491196587682,-0.5816274285316467,-0.7040697336196899
1772458091732794600,4.486794677734375,-0.01918780989944935,-0.40101611614227295,-0.5470671057701111
1772458091742862300,4.4968623046875,-0.01173575222492218,-0.2382458597421646,-0.3843388855457306
1772458091752931600,4.506931640625,0.032405611127614975,-0.1438828706741333,-0.2445833832025528
1772458091762999600,4.51699951171875,0.09474728256464005,-0.097262904047966,-0.11406105756759644
1772458091773067500,4.527067626953125,0.16962817311286926,-0.09606900811195374,-0.025247300043702126
1772458091783136500,4.537136474609375,0.24376925826072693,-0.12617258727550507,0.049737729132175446
1772458091793204500,4.54720458984375,0.3164708912372589,-0.17848744988441467,0.1271081566810608
1772458091803272400,4.5572724609375,0.39207136631011963,-0.24018889665603638,0.2060471773147583
1772458091813341700,4.567341796875,0.460410475730896,-0.29202598333358765,0.3067561984062195
1772458091823409700,4.57740966796875,0.5261365175247192,-0.30985400080680847,0.4069605767726898
1772458091833477400,4.587477294921875,0.5802247524261475,-0.2923908531665802,0.5090030431747437
1772458091843546600,4.597546630859375,0.6173226237297058,-0.2533140182495117,0.6139401197433472
1772458091853614600,4.607614501953125,0.6271696090698242,-0.19585712254047394,0.712438702583313
1772458091863683600,4.61768359375,0.6194813847541809,-0.12475258111953735,0.8064213991165161
1772458091873751300,4.627751220703125,0.6053434610366821,-0.050672497600317,0.8721982836723328
1772458091883819500,4.637819580078125,0.5804186463356018,0.003964914008975029,0.9015055894851685
1772458091893888500,4.647888427734375,0.5554115772247314,0.03529753535985947,0.8982935547828674
1772458091903956500,4.65795654296875,0.5250909328460693,0.034089259803295135,0.8575117588043213
1772458091914024700,4.668024658203125,0.49827665090560913,0.006842193193733692,0.7843563556671143
1772458091924093400,4.678093505859375,0.4743475914001465,0.003397660795599222,0.6939718127250671
1772458091934161400,4.688161376953125,0.4535121023654938,0.026547187939286232,0.5992748737335205
1772458091944229600,4.698229736328125,0.43679144978523254,0.057313356548547745,0.5078821182250977
1772458091954298600,4.708298583984375,0.42645278573036194,0.07881572097539902,0.4276549220085144
1772458091964366300,4.718366455078125,0.41535699367523193,0.12121697515249252,0.35355672240257263
1772458091974435600,4.728435546875,0.40840160846710205,0.1955801546573639,0.30600598454475403
1772458091984503600,4.738503662109375,0.4105427861213684,0.27836132049560547,0.27092045545578003
1772458091994571500,4.748571533203125,0.42367109656333923,0.34993189573287964,0.25461551547050476
1772458092004640500,4.758640625,0.4506257474422455,0.3980046212673187,0.2518032193183899
1772458092014708500,4.76870849609375,0.48357093334198,0.4117846190929413,0.27348533272743225
1772458092024776400,4.7787763671875,0.5121147036552429,0.4028569161891937,0.3129264712333679
1772458092034845700,4.788845703125,0.5349805951118469,0.3681444525718689,0.36473774909973145
1772458092044913400,4.798913330078125,0.5414219498634338,0.31938543915748596,0.4234364926815033
1772458092054981400,4.8089814453125,0.5406648516654968,0.27230608463287354,0.4727132320404053
1772458092065050600,4.819050537109375,0.5357382297515869,0.21561750769615173,0.4951740503311157
1772458092075118600,4.82911865234375,0.5384507179260254,0.14790184795856476,0.4886823296546936
1772458092085187300,4.839187255859375,0.5382277965545654,0.09332302212715149,0.45363831520080566
1772458092095255600,4.849255615234375,0.5263953804969788,0.08105330914258957,0.40902239084243774
1772458092105323500,4.859323486328125,0.521832287311554,0.11130974441766739,0.3705804646015167
1772458092115392500,4.869392578125,0.5140122175216675,0.16292127966880798,0.3209974467754364
1772458092125460700,4.879460693359375,0.5046722292900085,0.21245527267456055,0.26323002576828003
1772458092135528400,4.889528564453125,0.497164249420166,0.25790902972221375,0.20061326026916504
1772458092145597400,4.899597412109375,0.4895172417163849,0.29215356707572937,0.12616592645645142
1772458092155665400,4.90966552734375,0.4792981445789337,0.3265030086040497,0.05427762120962143
1772458092165733600,4.919733642578125,0.4698401987552643,0.373028963804245,-0.008700280450284481
1772458092175802400,4.92980224609375,0.4565712809562683,0.42366817593574524,-0.06064417213201523
1772458092185870300,4.939870361328125,0.45101699233055115,0.4701049327850342,-0.09513051062822342
1772458092195939600,4.949939697265625,0.45632147789001465,0.5166383385658264,-0.12659363448619843
1772458092206007600,4.960007568359375,0.4793301224708557,0.5557377934455872,-0.14822275936603546
1772458092216075500,4.970075439453125,0.5171283483505249,0.5687252283096313,-0.18034234642982483
1772458092226144500,4.98014453125,0.5652793645858765,0.5564429759979248,-0.22440753877162933
1772458092236212500,4.99021240234375,0.6244266033172607,0.560076892375946,-0.26203134655952454
1772458092246280400,5.000280517578125,0.6922184228897095,0.5657222270965576,-0.30178728699684143
1772458092256349400,5.010349365234375,0.7676572203636169,0.561505913734436,-0.33960336446762085
1772458092266417400,5.02041748046875,0.8542525768280029,0.5481142401695251,-0.37737366557121277
1772458092276485400,5.0304853515625,0.937929630279541,0.5592446327209473,-0.42049768567085266
1772458092286554600,5.0405546875,1.027671456336975,0.6107128858566284,-0.46257030963897705
1772458092296622600,5.05062255859375,1.1209324598312378,0.7163882255554199,-0.5107207894325256
1772458092306691300,5.06069140625,1.2164459228515625,0.8512986302375793,-0.5605677366256714
1772458092316759600,5.070759521484375,1.3034048080444336,0.9487926959991455,-0.6130508780479431
1772458092326827500,5.08082763671875,1.3663007020950317,0.9866295456886292,-0.6544345617294312
1772458092336896500,5.090896484375,1.4077399969100952,0.9581813812255859,-0.6699488162994385
1772458092346964500,5.100964599609375,1.440176010131836,0.9029165506362915,-0.6586316823959351
1772458092357032400,5.111032470703125,1.4622151851654053,0.8161140084266663,-0.6249293684959412
1772458092367101400,5.121101318359375,1.4903770685195923,0.6889714598655701,-0.5897945761680603
1772458092377169700,5.131169677734375,1.5293083190917969,0.5096832513809204,-0.560600221157074
1772458092387237600,5.141237548828125,1.5734373331069946,0.3182397484779358,-0.5259162783622742
1772458092397306400,5.151306396484375,1.6186943054199219,0.16622759401798248,-0.45809540152549744
1772458092407374600,5.16137451171875,1.6764318943023682,0.08245333284139633,-0.3517417907714844
1772458092417443600,5.171443603515625,1.7535663843154907,-0.0021371867042034864,-0.23180393874645233
1772458092427511600,5.181511474609375,1.8325152397155762,-0.12392088025808334,-0.125599205493927
1772458092437579300,5.191579345703125,1.908577799797058,-0.2161829024553299,-0.02141847275197506
1772458092447648300,5.201648193359375,1.9804680347442627,-0.2624143064022064,0.1000155434012413
1772458092457716200,5.21171630859375,2.055790662765503,-0.2584685683250427,0.25269004702568054
1772458092467784200,5.2217841796875,2.123562812805176,-0.23111391067504883,0.4229576587677002
1772458092477853200,5.231853271484375,2.1621663570404053,-0.26270192861557007,0.5469328761100769
1772458092487921200,5.241921142578125,2.1741724014282227,-0.31912365555763245,0.6253259181976318
1772458092497990400,5.251990478515625,2.1654210090637207,-0.3530430197715759,0.6660576462745667
1772458092508058400,5.262058349609375,2.1518919467926025,-0.37386760115623474,0.6829780340194702
1772458092518126300,5.272126220703125,2.128699779510498,-0.38996535539627075,0.6774836778640747
1772458092528195300,5.2821953125,2.10532808303833,-0.37575843930244446,0.6673407554626465
1772458092538263300,5.29226318359375,2.086109161376953,-0.34931138157844543,0.646977424621582
1772458092548331300,5.302331298828125,2.0732228755950928,-0.3045029044151306,0.6171494722366333
1772458092558400300,5.312400146484375,2.0764923095703125,-0.2418174147605896,0.5835611820220947
1772458092568468200,5.32246826171875,2.09761381149292,-0.1885771006345749,0.5506117343902588
1772458092578536200,5.3325361328125,2.125339984893799,-0.13599218428134918,0.5133935213088989
1772458092588605200,5.342605224609375,2.1535286903381348,-0.08039630204439163,0.48528599739074707
1772458092598673400,5.35267333984375,2.1700057983398438,-0.01835157722234726,0.4729001820087433
1772458092608742100,5.3627421875,2.1693811416625977,0.049916159361600876,0.4700034558773041
1772458092618810000,5.37281005859375,2.16589617729187,0.14687733352184296,0.46881407499313354
1772458092628878300,5.38287841796875,2.162342071533203,0.26678135991096497,0.46885403990745544
1772458092638947300,5.392947265625,2.1617658138275146,0.3918306231498718,0.45386257767677307
1772458092649015300,5.403015380859375,2.1686904430389404,0.4939439296722412,0.4277375042438507
1772458092659083300,5.413083251953125,2.1791627407073975,0.5759583711624146,0.38438335061073303
1772458092669152300,5.42315234375,2.18906831741333,0.6391810178756714,0.33357903361320496
1772458092679220200,5.43322021484375,2.1970715522766113,0.6984102725982666,0.2727031707763672
1772458092689288400,5.443288330078125,2.19921612739563,0.7584075331687927,0.20250996947288513
1772458092699357200,5.453357177734375,2.20727801322937,0.8150500655174255,0.14571645855903625
1772458092709425200,5.463425048828125,2.2138826847076416,0.8460263609886169,0.10215140134096146
1772458092719494400,5.473494384765625,2.223438262939453,0.8554933667182922,0.0730435848236084
1772458092729562400,5.483562255859375,2.2256438732147217,0.862917959690094,0.07364518940448761
1772458092739630300,5.49363037109375,2.219550609588623,0.8788501024246216,0.07774592936038971
1772458092749699300,5.50369921875,2.20627498626709,0.9114083051681519,0.08344428986310959
1772458092759767300,5.513767333984375,2.1888070106506348,0.9464799761772156,0.07790891081094742
1772458092769835300,5.523835205078125,2.168463945388794,0.9602397680282593,0.06671671569347382
1772458092779904300,5.533904296875,2.1403496265411377,0.9269030690193176,0.047273773699998856
1772458092789972200,5.54397216796875,2.0971920490264893,0.8375905156135559,0.019089272245764732
1772458092800041200,5.554041259765625,2.0380806922912598,0.7021466493606567,-0.011323228478431702
1772458092810109400,5.564109375,1.9647486209869385,0.540202796459198,-0.04024568945169449
1772458092820177400,5.574177490234375,1.867720365524292,0.39828479290008545,-0.05335003882646561
1772458092830246100,5.58424609375,1.7634365558624268,0.29323986172676086,-0.05187278613448143
1772458092840314000,5.594314208984375,1.6639320850372314,0.223012313246727,-0.03311427682638168
1772458092850382300,5.60438232421875,1.5760570764541626,0.23214589059352875,-0.004022172186523676
1772458092860451300,5.614451416015625,1.5061235427856445,0.28139200806617737,0.04031360149383545
1772458092870519000,5.62451904296875,1.453181505203247,0.36564216017723083,0.08785315603017807
1772458092880588300,5.63458837890625,1.4220569133758545,0.4699837565422058,0.14319710433483124
1772458092890656300,5.64465625,1.4084014892578125,0.5543742775917053,0.19718684256076813
1772458092900724200,5.65472412109375,1.4114407300949097,0.6299116015434265,0.2548767626285553
1772458092910793200,5.664793212890625,1.4198001623153687,0.6958293914794922,0.31198346614837646
1772458092920861200,5.674861083984375,1.4240833520889282,0.7483091354370117,0.3640192449092865
1772458092930929200,5.68492919921875,1.4257490634918213,0.7741276621818542,0.40347662568092346
1772458092940998400,5.694998291015625,1.4270111322402954,0.7677299380302429,0.44127193093299866
1772458092951066400,5.70506640625,1.4217032194137573,0.7556549310684204,0.48550331592559814
1772458092961134000,5.715134033203125,1.4073681831359863,0.7630206942558289,0.5471834540367126
1772458092971203300,5.725203369140625,1.3902299404144287,0.7947293519973755,0.6089666485786438
1772458092981271300,5.735271240234375,1.3669949769973755,0.8457315564155579,0.6647228598594666
1772458092991340300,5.74534033203125,1.340127944946289,0.8873533010482788,0.7021962404251099
1772458093001408300,5.755408203125,1.3103671073913574,0.9157804250717163,0.7025389671325684
1772458093011476200,5.765476318359375,1.2829464673995972,0.9317260980606079,0.6726910471916199
1772458093021545200,5.775545166015625,1.2692612409591675,0.962501585483551,0.5998876690864563
1772458093031613400,5.785613525390625,1.26883864402771,0.9812784194946289,0.4901702404022217
1772458093041681400,5.795681396484375,1.279557228088379,0.9157785177230835,0.3402366638183594
1772458093051750100,5.805750244140625,1.270851731300354,0.7470523715019226,0.17073020339012146
1772458093061818400,5.815818359375,1.2291721105575562,0.5536035299301147,0.026145050302147865
1772458093071887400,5.825887451171875,1.1534531116485596,0.4343295991420746,-0.09035466611385345
1772458093081955000,5.835955078125,1.0630133152008057,0.4168614149093628,-0.1565411388874054
1772458093092023300,5.846023193359375,0.9832310676574707,0.47774288058280945,-0.1728559285402298
1772458093102092300,5.85609228515625,0.915063738822937,0.5860334038734436,-0.15277276933193207
1772458093112160300,5.86616015625,0.8743733167648315,0.7147258520126343,-0.13486167788505554
1772458093122228500,5.876228515625,0.8751091361045837,0.8308092951774597,-0.1364571750164032
1772458093132297200,5.886297119140625,0.9133313298225403,0.8972490429878235,-0.16434207558631897
1772458093142365200,5.896365234375,0.9605912566184998,0.9194046854972839,-0.19766300916671753
1772458093152434400,5.906434326171875,1.0098432302474976,0.9133481383323669,-0.22505734860897064
1772458093162502400,5.91650244140625,1.0594289302825928,0.9294764995574951,-0.24545450508594513
1772458093172570000,5.926570068359375,1.128907322883606,0.9540385603904724,-0.2665446102619171
1772458093182639400,5.936639404296875,1.1934854984283447,0.981111466884613,-0.2855052351951599
1772458093192707300,5.946707275390625,1.25593101978302,1.0077571868896484,-0.31039807200431824
1772458093202775300,5.956775390625,1.295654535293579,1.0084704160690308,-0.33056673407554626
1772458093212844300,5.96684423828125,1.3260321617126465,0.9954813718795776,-0.3406190872192383
1772458093222912300,5.976912353515625,1.3471051454544067,0.964078426361084,-0.34635740518569946
1772458093232981200,5.986981201171875,1.3589016199111938,0.9014411568641663,-0.3469736576080322
1772458093243049500,5.997049560546875,1.3592190742492676,0.8005959987640381,-0.3402758240699768
1772458093253117400,6.007117431640625,1.3730342388153076,0.6837348937988281,-0.3096199035644531
1772458093263186200,6.017186279296875,1.3969483375549316,0.5593264102935791,-0.24843457341194153
1772458093273254100,6.027254150390625,1.4208736419677734,0.43493202328681946,-0.17757105827331543
1772458093283322400,6.037322265625,1.4397588968276978,0.3336746394634247,-0.10243396461009979
1772458093293391000,6.04739111328125,1.4473800659179688,0.25412416458129883,-0.038178808987140656
1772458093303459000,6.057458984375,1.4413679838180542,0.19217343628406525,0.016980314627289772
1772458093313528300,6.0675283203125,1.4271568059921265,0.13625557720661163,0.06198986619710922
1772458093323596300,6.07759619140625,1.3852101564407349,0.10597729682922363,0.10213062912225723
1772458093333664300,6.087664306640625,1.3348687887191772,0.11749440431594849,0.12521837651729584
1772458093343733200,6.097733154296875,1.2887699604034424,0.15029975771903992,0.14030250906944275
1772458093353801200,6.10780126953125,1.245710849761963,0.2128709852695465,0.14286048710346222
1772458093363869200,6.117869140625,1.2062824964523315,0.29394373297691345,0.1396162211894989
1772458093373938400,6.1279384765625,1.1679787635803223,0.36846989393234253,0.13219372928142548
1772458093384006100,6.138006103515625,1.1255016326904297,0.4404181241989136,0.12225081026554108
1772458093394075100,6.1480751953125,1.086106300354004,0.5084230303764343,0.11007989943027496
1772458093404143400,6.158143310546875,1.0505224466323853,0.5498538017272949,0.0960245355963707
1772458093414211300,6.16821142578125,1.02483069896698,0.5438329577445984,0.08353643864393234
1772458093424280000,6.178280029296875,1.0058573484420776,0.49958932399749756,0.052139099687337875
1772458093434348300,6.188348388671875,0.981028139591217,0.4287188649177551,0.016161926090717316
1772458093444416500,6.19841650390625,0.9507783055305481,0.34159940481185913,-0.026065422222018242
1772458093454485500,6.208485595703125,0.9110974669456482,0.26665353775024414,-0.07614030689001083
1772458093464553500,6.218553466796875,0.8698051571846008,0.20420479774475098,-0.1379821002483368
1772458093474622500,6.22862255859375,0.8300607204437256,0.17054830491542816,-0.21511310338974
1772458093484690400,6.2386904296875,0.7969376444816589,0.16578230261802673,-0.2948657274246216
1772458093494758400,6.24875830078125,0.7727476358413696,0.15621677041053772,-0.37556642293930054
1772458093504827400,6.258827392578125,0.7597702741622925,0.1145436242222786,-0.4635609984397888
1772458093514895400,6.268895263671875,0.7523036003112793,0.06075442582368851,-0.529078483581543
1772458093524963300,6.27896337890625,0.751809298992157,0.02652694843709469,-0.5718035697937012
1772458093535032600,6.289032470703125,0.7620095014572144,0.020846692845225334,-0.5943363308906555
1772458093545100500,6.2991005859375,0.7816798686981201,0.023481357842683792,-0.6011092662811279
1772458093555169300,6.309169189453125,0.8058634996414185,0.04225850850343704,-0.5903559923171997
1772458093565237500,6.319237548828125,0.8261319994926453,0.08705899864435196,-0.5615450739860535
1772458093575305500,6.329305419921875,0.8520025014877319,0.14393293857574463,-0.5082547068595886
1772458093585374500,6.33937451171875,0.8847375512123108,0.1849605292081833,-0.4484100043773651
1772458093595442400,6.3494423828125,0.9095398187637329,0.19876183569431305,-0.38261207938194275
1772458093605510400,6.359510498046875,0.9272157549858093,0.19073985517024994,-0.32281213998794556
1772458093615579400,6.369579345703125,0.9453180432319641,0.1544814556837082,-0.2707630395889282
1772458093625647600,6.379647705078125,0.9674803614616394,0.11645417660474777,-0.23808793723583221
1772458093635716400,6.38971630859375,0.9853946566581726,0.08105596899986267,-0.22889043390750885
1772458093645784300,6.399784423828125,1.0025196075439453,0.06240478903055191,-0.2341933250427246
1772458093655852300,6.409852294921875,1.0148351192474365,0.06895749270915985,-0.257925808429718
1772458093665921500,6.419921630859375,1.0276672840118408,0.09012137353420258,-0.2866511940956116
1772458093675989500,6.429989501953125,1.0395883321762085,0.12494726479053497,-0.3128950595855713
1772458093686057200,6.44005712890625,1.0526742935180664,0.16410771012306213,-0.3344986140727997
1772458093696126500,6.45012646484375,1.064061164855957,0.19673942029476166,-0.34944161772727966
1772458093706194400,6.4601943359375,1.0731700658798218,0.22684726119041443,-0.35377058386802673
1772458093716263400,6.470263427734375,1.072329044342041,0.25868454575538635,-0.3366589844226837
1772458093726331400,6.480331298828125,1.0742064714431763,0.29479676485061646,-0.3125046491622925
1772458093736399400,6.4903994140625,1.0763940811157227,0.326700896024704,-0.27597832679748535
1772458093746468600,6.500468505859375,1.097293496131897,0.33920735120773315,-0.23783306777477264
1772458093756536600,6.51053662109375,1.1247059106826782,0.33612021803855896,-0.20566554367542267
1772458093766605300,6.520605224609375,1.160267949104309,0.34115704894065857,-0.16874267160892487
1772458093776673300,6.53067333984375,1.188217282295227,0.35722336173057556,-0.13388243317604065
1772458093786741500,6.540741455078125,1.2100058794021606,0.3743318021297455,-0.10610992461442947
1772458093796810500,6.550810546875,1.233590006828308,0.38835227489471436,-0.08631358295679092
1772458093806878200,6.560878173828125,1.2586463689804077,0.3979244530200958,-0.06436194479465485
1772458093816946400,6.570946533203125,1.2867659330368042,0.39427754282951355,-0.05273165553808212
1772458093827015400,6.581015380859375,1.3038312196731567,0.3706536889076233,-0.04789615422487259
1772458093837083400,6.59108349609375,1.306267499923706,0.3345249891281128,-0.05571865662932396
1772458093847152400,6.60115234375,1.305914044380188,0.2514929473400116,-0.06756439805030823
1772458093857220400,6.611220458984375,1.29082453250885,0.15321750938892365,-0.0718640685081482
1772458093867288300,6.621288330078125,1.2717758417129517,0.09562985599040985,-0.06153633072972298
1772458093877357600,6.631357666015625,1.258225917816162,0.09709246456623077,-0.031098531559109688
1772458093887425500,6.641425537109375,1.2535693645477295,0.14054326713085175,0.017009610310196877
1772458093897493200,6.6514931640625,1.2510806322097778,0.20150195062160492,0.08255932480096817
1772458093907562500,6.6615625,1.2516881227493286,0.24371252954006195,0.15689480304718018
1772458093917630500,6.67163037109375,1.2494031190872192,0.26237356662750244,0.24014735221862793
1772458093927699200,6.68169921875,1.2447471618652344,0.2533755302429199,0.32003313302993774
1772458093937767400,6.691767333984375,1.2238191366195679,0.22984251379966736,0.39009183645248413
1772458093947835400,6.70183544921875,1.1965174674987793,0.1737869679927826,0.44849178194999695
1772458093957904400,6.711904296875,1.165088176727295,0.10452161729335785,0.4872191846370697
1772458093967972600,6.72197265625,1.1273137331008911,0.04942534118890762,0.5191265344619751
1772458093978041300,6.732041259765625,1.0882587432861328,0.017288176342844963,0.5335648655891418
1772458093988109300,6.742109375,1.0561516284942627,-0.0054885088466107845,0.5312721133232117
1772458093998177500,6.752177490234375,1.0280799865722656,-0.012410330586135387,0.5161139369010925
1772458094008246500,6.76224658203125,1.004642128944397,-0.002794188680127263,0.500006914138794
1772458094018314200,6.772314208984375,0.9856822490692139,0.03479925915598869,0.46989479660987854
1772458094028382500,6.782382568359375,0.9715134501457214,0.1028563380241394,0.43460312485694885
1772458094038451500,6.792451416015625,0.9603606462478638,0.19404511153697968,0.39627569913864136
1772458094048519400,6.80251953125,0.9564380645751953,0.2923860549926758,0.34731534123420715
1772458094058588400,6.81258837890625,0.9586202502250671,0.4013575613498688,0.306787371635437
1772458094068656400,6.822656494140625,0.9705719947814941,0.5144585371017456,0.26281458139419556
1772458094078724400,6.832724365234375,0.9807929396629333,0.6165372133255005,0.22147326171398163
1772458094088793600,6.842793701171875,0.9993256330490112,0.6876369714736938,0.18399646878242493
1772458094098861600,6.852861572265625,1.019445776939392,0.7058979868888855,0.15729641914367676
1772458094108929300,6.86292919921875,1.0426890850067139,0.6823878884315491,0.13801459968090057
1772458094118998500,6.87299853515625,1.0570147037506104,0.6374529004096985,0.13264380395412445
1772458094129066500,6.88306640625,1.0675184726715088,0.601631760597229,0.13393409550189972
1772458094139135500,6.893135498046875,1.0885000228881836,0.5601072311401367,0.1433963030576706
1772458094149203500,6.903203369140625,1.1018991470336914,0.5152335166931152,0.1505386382341385
1772458094159271400,6.913271484375,1.1099762916564941,0.48878565430641174,0.15808764100074768
1772458094169340400,6.92334033203125,1.1173510551452637,0.49086132645606995,0.15820348262786865
1772458094179408600,6.93340869140625,1.1247661113739014,0.48803144693374634,0.12205613404512405
1772458094189477400,6.943477294921875,1.1336445808410645,0.4806459844112396,0.061096109449863434
1772458094199545300,6.95354541015625,1.1355232000350952,0.4516068696975708,-0.02310585230588913
1772458094209613300,6.96361328125,1.1237826347351074,0.39532122015953064,-0.11405439674854279
1772458094219682600,6.9736826171875,1.0917346477508545,0.31879982352256775,-0.21008452773094177
1772458094229750300,6.983750244140625,1.037152647972107,0.2263878583908081,-0.30786648392677307
1772458094239818200,6.993818359375,0.9682729244232178,0.13399001955986023,-0.3986363410949707
1772458094249887500,7.003887451171875,0.889216423034668,0.060259077697992325,-0.4900951385498047
1772458094259955500,7.01395556640625,0.8155451416969299,0.04493365436792374,-0.5597996711730957
1772458094270024400,7.0240244140625,0.7556647658348083,0.10775203257799149,-0.6133086681365967
1772458094280092400,7.034092529296875,0.7114227414131165,0.21777786314487457,-0.6528822183609009
1772458094290160400,7.044160400390625,0.686953604221344,0.3436223566532135,-0.6691152453422546
1772458094300229600,7.054229736328125,0.6843242645263672,0.46042993664741516,-0.6618852615356445
1772458094310297600,7.064297607421875,0.7034279108047485,0.5429519414901733,-0.6253911852836609
1772458094320366300,7.074366455078125,0.724981963634491,0.5676106810569763,-0.5759802460670471
1772458094330434300,7.084434326171875,0.7490550875663757,0.5642591118812561,-0.5158119797706604
1772458094340502500,7.09450244140625,0.7770091891288757,0.5737277269363403,-0.4588943421840668
1772458094350571500,7.104571533203125,0.8140569925308228,0.5726209282875061,-0.41604089736938477
1772458094360639200,7.11463916015625,0.8493438363075256,0.5439493060112,-0.38476020097732544
1772458094370707500,7.12470751953125,0.8660264015197754,0.49043789505958557,-0.3543391823768616
1772458094380776400,7.1347763671875,0.8642980456352234,0.42196109890937805,-0.32185205817222595
1772458094390844400,7.144844482421875,0.8549056053161621,0.3479451835155487,-0.2748243808746338
1772458094400913400,7.154913330078125,0.8376520276069641,0.2660740315914154,-0.22145143151283264
1772458094410981400,7.1649814453125,0.8187036514282227,0.19413511455059052,-0.15818165242671967
1772458094421049300,7.17504931640625,0.8068155646324158,0.14462588727474213,-0.10037906467914581
1772458094431118600,7.18511865234375,0.7966172695159912,0.11376118659973145,-0.04825834184885025
1772458094441186800,7.195186767578125,0.7920776605606079,0.09780485928058624,-0.01116050872951746
1772458094451255800,7.205255859375,0.7848330140113831,0.09298000484704971,0.016513729467988014
1772458094461324000,7.215323974609375,0.7714908719062805,0.10046961903572083,0.03798173740506172
1772458094471392000,7.22539208984375,0.7496276497840881,0.09468735754489899,0.05750856548547745
1772458094481460700,7.235460693359375,0.7260554432868958,0.09659844636917114,0.07820771634578705
1772458094491529000,7.245529052734375,0.6974523067474365,0.10255619883537292,0.10810116678476334
1772458094501597000,7.255596923828125,0.6618868708610535,0.11108125001192093,0.14158375561237335
1772458094511666000,7.265666015625,0.6119528412818909,0.11870694160461426,0.17279787361621857
1772458094521734000,7.27573388671875,0.5553185939788818,0.10923807322978973,0.19194893538951874
1772458094531803000,7.285802978515625,0.500310480594635,0.09272647649049759,0.19756820797920227
1772458094541870800,7.295870849609375,0.4511392116546631,0.082347072660923,0.20505169034004211
1772458094551938800,7.305938720703125,0.4160395562648773,0.06378563493490219,0.20571720600128174
1772458094562007800,7.3160078125,0.4041389524936676,0.04701225087046623,0.19926036894321442
1772458094572075800,7.32607568359375,0.39767172932624817,0.028957881033420563,0.19727684557437897
1772458094582145000,7.33614501953125,0.3870236277580261,0.012136823497712612,0.1971045434474945
1772458094592213000,7.346212890625,0.3627561032772064,-0.02286749891936779,0.18870040774345398
1772458094602281000,7.356281005859375,0.32698556780815125,-0.07243078947067261,0.18328966200351715
1772458094612350000,7.366349853515625,0.2863614559173584,-0.0972336083650589,0.18284811079502106
1772458094622418000,7.37641796875,0.24131302535533905,-0.09045186638832092,0.1923673152923584
1772458094632486000,7.38648583984375,0.20168012380599976,-0.052744437009096146,0.1930898278951645
1772458094642555000,7.396554931640625,0.17160743474960327,0.008208128623664379,0.20362529158592224
1772458094652622800,7.406622802734375,0.1567848175764084,0.015148326754570007,0.20142792165279388
1772458094662691800,7.41669189453125,0.14126898348331451,-0.058465972542762756,0.16468454897403717
1772458094672760000,7.426760009765625,0.11921747028827667,-0.13310426473617554,0.11098750680685043
1772458094682828000,7.436828125,0.08898979425430298,-0.1429757922887802,0.06455289572477341
1772458094692896800,7.446896728515625,0.060319799929857254,-0.07592938840389252,0.022412898018956184
1772458094702964700,7.45696484375,0.03297632560133934,0.01950525864958763,-0.024981249123811722
1772458094713034000,7.467033935546875,0.0006490123341791332,0.09564103931188583,-0.07180547714233398
1772458094723102000,7.47710205078125,-0.026441194117069244,0.16664303839206696,-0.11179390549659729
1772458094733170000,7.487169921875,-0.03795244172215462,0.23263616859912872,-0.12965333461761475
1772458094743239000,7.497239013671875,-0.026192987337708473,0.2924310564994812,-0.12046676129102707
1772458094753307000,7.507306884765625,0.0031438616570085287,0.3236132264137268,-0.09496406465768814
1772458094763374800,7.517374755859375,0.03345569595694542,0.2986266314983368,-0.06052646040916443
1772458094773443800,7.52744384765625,0.06586556881666183,0.22934290766716003,-0.032884180545806885
1772458094783511800,7.53751171875,0.08488453179597855,0.18187472224235535,-0.026255305856466293
1772458094793581000,7.5475810546875,0.10994887351989746,0.13572773337364197,-0.0310407392680645
1772458094803649000,7.55764892578125,0.13508164882659912,0.05717860162258148,-0.056062471121549606
1772458094813717000,7.567717041015625,0.14684723317623138,-0.03446663171052933,-0.08139126002788544
1772458094823785700,7.57778564453125,0.13995550572872162,-0.12005956470966339,-0.10167549550533295
1772458094833854000,7.58785400390625,0.12650814652442932,-0.19467201828956604,-0.1051567792892456
1772458094843923000,7.5979228515625,0.12309742718935013,-0.265541136264801,-0.0937829539179802
1772458094853991000,7.607990966796875,0.1225442886352539,-0.29805564880371094,-0.07220042496919632
1772458094864059000,7.618058837890625,0.1260700523853302,-0.2872821092605591,-0.04132027551531792
1772458094874128000,7.6281279296875,0.14165647327899933,-0.2361467480659485,0.004715392831712961
1772458094884195800,7.63819580078125,0.16238091886043549,-0.128515362739563,0.07902397960424423
1772458094894264800,7.648264892578125,0.18856218457221985,-0.01350568886846304,0.17463412880897522
1772458094904332800,7.658332763671875,0.21285368502140045,0.050985950976610184,0.26859578490257263
1772458094914400800,7.66840087890625,0.2307724952697754,0.040216393768787384,0.3438878655433655
1772458094924470000,7.678469970703125,0.2326183319091797,-0.017311345785856247,0.4036097824573517
1772458094934538000,7.6885380859375,0.2232610434293747,-0.06252942234277725,0.4444248676300049
1772458094944606000,7.69860595703125,0.20052431523799896,-0.08267996460199356,0.4680532217025757
1772458094954675000,7.708675048828125,0.16603131592273712,-0.05650481954216957,0.468293696641922
1772458094964743000,7.718742919921875,0.13291969895362854,-0.014546185731887817,0.45318904519081116
1772458094974812000,7.72881201171875,0.09674332290887833,-0.003117496380582452,0.4110615849494934
1772458094984879900,7.7388798828125,0.060026850551366806,-0.013538711704313755,0.3544193208217621
1772458094994947800,7.74894775390625,0.02341398037970066,-0.01503833755850792,0.2943514585494995
1772458095005016800,7.759016845703125,-0.007374825421720743,-0.011095261201262474,0.22772210836410522
1772458095015085000,7.7690849609375,-0.02201928198337555,0.01595419831573963,0.16204829514026642
1772458095025153800,7.77915380859375,-0.017607489600777626,0.05578257143497467,0.09809567034244537
1772458095035221800,7.7892216796875,-0.006806507240980864,0.11004767566919327,0.040413469076156616
1772458095045290000,7.7992900390625,0.007742075715214014,0.17567196488380432,-0.0037915424909442663
1772458095055359000,7.80935888671875,0.03199867904186249,0.24929317831993103,-0.033849574625492096
1772458095065427000,7.819427001953125,0.0618620365858078,0.3134351372718811,-0.04643700644373894
1772458095075496000,7.829495849609375,0.1037687361240387,0.3271368443965912,-0.05422781780362129
1772458095085564000,7.83956396484375,0.13586010038852692,0.2848072350025177,-0.05988916754722595
1772458095095632000,7.8496318359375,0.15963201224803925,0.21013006567955017,-0.05955227464437485
1772458095105700900,7.859700927734375,0.18080812692642212,0.10861755907535553,-0.06837532669305801
1772458095115768800,7.869768798828125,0.19088312983512878,0.0070882695727050304,-0.0833558738231659
1772458095125837800,7.879837890625,0.2087920904159546,-0.05536365509033203,-0.09169530123472214
1772458095135906000,7.889906005859375,0.23342740535736084,-0.05595807358622551,-0.09479495137929916
1772458095145974000,7.89997412109375,0.25767070055007935,-0.044016726315021515,-0.09232673794031143
1772458095156042800,7.910042724609375,0.2736704349517822,-0.04047951474785805,-0.10771341621875763
1772458095166111000,7.920111083984375,0.2942236363887787,-0.03630314767360687,-0.12525831162929535
1772458095176179000,7.930178955078125,0.30588749051094055,-0.034318823367357254,-0.14149747788906097
1772458095186248000,7.940248046875,0.31475022435188293,-0.0383460558950901,-0.16501052677631378
1772458095196316000,7.95031591796875,0.3163635730743408,-0.05275748670101166,-0.1949620395898819
1772458095206385000,7.960385009765625,0.3149539530277252,-0.06756040453910828,-0.22729814052581787
1772458095216452900,7.970452880859375,0.30764704942703247,-0.08691838383674622,-0.2631528079509735
1772458095226520800,7.980520751953125,0.291395366191864,-0.09812203794717789,-0.2963680028915405
1772458095236588000,7.990588134765625,0.2764566242694855,-0.08537082374095917,-0.3338506817817688
1772458095246656800,8.00065673828125,0.2641085982322693,-0.04716191813349724,-0.3565405309200287
1772458095256724700,8.010724853515624,0.25332653522491455,0.002222407842054963,-0.3846334218978882
1772458095266792700,8.020792724609375,0.2394309639930725,0.0599815770983696,-0.40010106563568115
1772458095276862000,8.030862060546875,0.23067742586135864,0.10077375173568726,-0.4094173312187195
1772458095286930000,8.040929931640624,0.2261361926794052,0.12439066171646118,-0.407699853181839
1772458095296999000,8.0509990234375,0.23123109340667725,0.14175847172737122,-0.391664981842041
1772458095307067000,8.06106689453125,0.2452254742383957,0.13734853267669678,-0.36624109745025635
1772458095317134800,8.071134765625,0.26826366782188416,0.12714916467666626,-0.3277142345905304
1772458095327204000,8.0812041015625,0.30249089002609253,0.12305987626314163,-0.2659291625022888
1772458095337271800,8.091271728515625,0.3360624313354492,0.11522778868675232,-0.20328573882579803
1772458095347340800,8.1013408203125,0.36479926109313965,0.09091445803642273,-0.14434093236923218
1772458095357409000,8.111408935546875,0.38513943552970886,0.06784669309854507,-0.07939362525939941
1772458095367477000,8.12147705078125,0.3974807858467102,0.04743462800979614,-0.01810443587601185
1772458095377545700,8.131545654296875,0.40100201964378357,0.03117789328098297,0.0253349170088768
1772458095387613700,8.14161376953125,0.39448419213294983,0.03140772506594658,0.05790191516280174
1772458095397682000,8.151681884765624,0.3774591386318207,0.04049203172326088,0.0794074758887291
1772458095407751000,8.1617509765625,0.35331597924232483,0.060862816870212555,0.0985952839255333
1772458095417819000,8.17181884765625,0.33401739597320557,0.07913636416196823,0.11432924121618271
1772458095427887900,8.181887939453125,0.32357221841812134,0.09297521412372589,0.12426123023033142
1772458095437955800,8.191955810546874,0.31967493891716003,0.08473512530326843,0.1366814225912094
1772458095448023000,8.20202294921875,0.31980064511299133,0.08710906654596329,0.1521887332201004
1772458095458092000,8.212092041015625,0.31842750310897827,0.10466675460338593,0.1893635392189026
1772458095468160000,8.222159912109374,0.3158748745918274,0.14819613099098206,0.2341965138912201
1772458095478229000,8.23222900390625,0.31588098406791687,0.17343810200691223,0.28152915835380554
1772458095488297000,8.242296875,0.3113730549812317,0.09232141077518463,0.2903463542461395
1772458095498365000,8.252364990234375,0.286877304315567,-0.027121366932988167,0.26679468154907227
1772458095508434200,8.26243408203125,0.2514868378639221,-0.08396973460912704,0.24987082183361053
1772458095518502000,8.272501953125,0.20773747563362122,-0.07072823494672775,0.24938559532165527
1772458095528571100,8.282571044921875,0.17071421444416046,-0.009236641228199005,0.2526189386844635
1772458095538639000,8.29263916015625,0.14062529802322388,0.05078967660665512,0.2584802806377411
1772458095548707000,8.30270703125,0.114457868039608,0.0942617878317833,0.2595530152320862
1772458095558775800,8.31277587890625,0.09152086079120636,0.13744626939296722,0.26096686720848083
1772458095568844000,8.322843994140625,0.08668535947799683,0.16922417283058167,0.2583388686180115
1772458095578913000,8.3329130859375,0.09392756223678589,0.1874479204416275,0.24328935146331787
1772458095588981000,8.34298095703125,0.10112501680850983,0.17322105169296265,0.2114723026752472
1772458095599050000,8.353050048828125,0.10672617703676224,0.13123126327991486,0.15919923782348633
1772458095609119000,8.363118896484375,0.11062904447317123,0.09404394030570984,0.10469178855419159
1772458095619187200,8.373187255859374,0.11842864006757736,0.08978687971830368,0.07523376494646072
1772458095629256000,8.383255859375,0.12814518809318542,0.11255930364131927,0.05615941062569618
1772458095639324000,8.393323974609375,0.1336589902639389,0.12580479681491852,0.061107296496629715
1772458095649392000,8.40339208984375,0.13544650375843048,0.1281161606311798,0.07811184227466583
1772458095659461000,8.413461181640624,0.13458524644374847,0.11954530328512192,0.11491646617650986
1772458095669529000,8.423529052734375,0.1393056958913803,0.1264684647321701,0.18256714940071106
1772458095679598000,8.43359814453125,0.1470176726579666,0.15466813743114471,0.272756963968277
1772458095689666000,8.443666015625,0.15991376340389252,0.1907300055027008,0.36635881662368774
1772458095699734000,8.453734130859376,0.17448392510414124,0.23674383759498596,0.44107353687286377
1772458095709803000,8.463802978515625,0.20112831890583038,0.2845640778541565,0.48837608098983765
1772458095719871000,8.47387109375,0.22036752104759216,0.32453733682632446,0.4963008463382721
1772458095729940000,8.48393994140625,0.2514183819293976,0.37834757566452026,0.4825943410396576
1772458095740008200,8.49400830078125,0.2794305682182312,0.4112730324268341,0.45055413246154785
1772458095750076200,8.504076171875,0.2982980012893677,0.3884265720844269,0.39707306027412415
1772458095760145000,8.514144775390625,0.3017883598804474,0.33626535534858704,0.33959272503852844
1772458095770213000,8.524213134765626,0.29793235659599304,0.306977242231369,0.2868672013282776
1772458095780282000,8.5342822265625,0.30144771933555603,0.3074773848056793,0.2193043828010559
1772458095790350000,8.54435009765625,0.3130612373352051,0.30598175525665283,0.127843976020813
1772458095800417800,8.554417724609374,0.3150298595428467,0.2781847417354584,0.007951133884489536
1772458095810487000,8.564487060546876,0.29955795407295227,0.1992393285036087,-0.15113119781017303
1772458095820555000,8.574554931640625,0.24263633787631989,0.06209692731499672,-0.35970625281333923
1772458095830624000,8.5846240234375,0.1658177226781845,-0.12249848246574402,-0.5802487134933472
1772458095840692000,8.59469189453125,0.07969722896814346,-0.30728936195373535,-0.7862575650215149
1772458095850760000,8.604760009765625,-0.007014233618974686,-0.4385906755924225,-0.9332768321037292
1772458095860829200,8.6148291015625,-0.0819486603140831,-0.5025225281715393,-1.0037763118743896
1772458095870897200,8.624897216796874,-0.15160150825977325,-0.43320921063423157,-0.9736807346343994
1772458095880966000,8.6349658203125,-0.19949845969676971,-0.2384842038154602,-0.8421311974525452
1772458095891034000,8.6450341796875,-0.20142818987369537,0.011440940201282501,-0.6500483155250549
1772458095901102000,8.65510205078125,-0.1521724909543991,0.20739074051380157,-0.44133585691452026
1772458095911171000,8.665171142578124,-0.0836019515991211,0.26492834091186523,-0.2697760760784149
1772458095921238800,8.67523876953125,-0.016713999211788177,0.22190363705158234,-0.16599856317043304
1772458095931308000,8.68530810546875,0.041977811604738235,0.1502518206834793,-0.11843609809875488
1772458095941376000,8.6953759765625,0.10666093230247498,0.0845806673169136,-0.10882288962602615
1772458095951444000,8.70544384765625,0.15470995008945465,0.033543046563863754,-0.10317405313253403
1772458095961513000,8.715512939453125,0.16237133741378784,0.008279235102236271,-0.09190995246171951
1772458095971581000,8.725580810546875,0.13500654697418213,-0.00148125016130507,-0.0734608992934227
1772458095981650200,8.735650146484375,0.10080303996801376,0.001796834752894938,-0.04325559362769127
1772458095991718100,8.74571826171875,0.07494428008794785,0.02069143019616604,-0.011845207773149014
1772458096001786000,8.7557861328125,0.05577564612030983,0.04578400030732155,0.01654542051255703
1772458096011855000,8.765855224609375,0.04123851656913757,0.039809998124837875,0.033010415732860565
1772458096021923000,8.775923095703124,0.038899727165699005,0.017001353204250336,0.03761608526110649
1772458096031992000,8.785991943359376,0.046309974044561386,-0.0377817340195179,0.021317273378372192
1772458096042059800,8.796059814453125,0.049666356295347214,-0.08228182047605515,0.002828276949003339
1772458096052128000,8.8061279296875,0.051117513328790665,-0.12256346642971039,-0.003769438248127699
1772458096062197000,8.816197021484374,0.04806765913963318,-0.1702955663204193,-0.010959440842270851
1772458096072265000,8.826264892578125,0.035346005111932755,-0.21621565520763397,-0.009889115579426289
1772458096082334000,8.836333984375,0.005660815164446831,-0.2565188705921173,0.002972087822854519
1772458096092402000,8.84640185546875,-0.02883164770901203,-0.2893764078617096,0.02099582925438881
1772458096102470000,8.856469970703126,-0.061469484120607376,-0.3155513107776642,0.043179694563150406
1772458096112539100,8.8665390625,-0.09554489701986313,-0.3393879234790802,0.059777580201625824
1772458096122607000,8.876607177734375,-0.13179132342338562,-0.37376558780670166,0.06245192512869835
1772458096132676000,8.886676025390624,-0.16104747354984283,-0.4092969596385956,0.05560813471674919
1772458096142744000,8.896744140625,-0.18634670972824097,-0.43754032254219055,0.041495777666568756
1772458096152812000,8.90681201171875,-0.20196880400180817,-0.43045738339424133,0.014650847762823105
1772458096162881000,8.916881103515625,-0.21321479976177216,-0.38650670647621155,-0.010976484976708889
1772458096172949000,8.926948974609376,-0.21682631969451904,-0.3675551116466522,-0.05354205518960953
1772458096183018000,8.93701806640625,-0.22845155000686646,-0.398542582988739,-0.11157126724720001
1772458096193086000,8.9470859375,-0.25759825110435486,-0.4190412163734436,-0.18267260491847992
1772458096203154200,8.957154296875,-0.2992974817752838,-0.39444053173065186,-0.24586276710033417
1772458096213223000,8.967222900390626,-0.35511496663093567,-0.2754989564418793,-0.29178765416145325
1772458096223291000,8.977290771484375,-0.40914037823677063,-0.11189004778862,-0.3100590705871582
1772458096233360100,8.987360107421875,-0.44858765602111816,0.003091131104156375,-0.3313467800617218
1772458096243428000,8.997427978515624,-0.4695690870285034,0.024661671370267868,-0.35555410385131836
1772458096253495800,9.007495849609375,-0.46070581674575806,-0.020775586366653442,-0.38759085536003113
1772458096263565000,9.01756494140625,-0.4357285797595978,-0.05856664106249809,-0.43422868847846985
1772458096273633000,9.027633056640624,-0.3921286165714264,-0.06089983507990837,-0.49565714597702026
1772458096283702000,9.037701904296876,-0.3303307890892029,-0.053099438548088074,-0.5521734356880188
1772458096293770000,9.04777001953125,-0.27856239676475525,-0.07419326901435852,-0.5970162749290466
1772458096303838000,9.057837890625,-0.2545071244239807,-0.11343894153833389,-0.6098005175590515
1772458096313907000,9.067906982421874,-0.2495403289794922,-0.15575763583183289,-0.5902635455131531
1772458096323975200,9.07797509765625,-0.24738343060016632,-0.19735807180404663,-0.5227529406547546
1772458096334044000,9.0880439453125,-0.23802348971366882,-0.2357424795627594,-0.41691333055496216
1772458096344111900,9.09811181640625,-0.23184095323085785,-0.25583043694496155,-0.2940864861011505
1772458096354180000,9.10818017578125,-0.22119124233722687,-0.2483285814523697,-0.16016490757465363
1772458096364249000,9.1182490234375,-0.20303140580654144,-0.21515890955924988,-0.02574877254664898
1772458096374317000,9.128317138671875,-0.17286072671413422,-0.16411995887756348,0.1053067147731781
1772458096384386000,9.138385986328124,-0.13521134853363037,-0.10493680089712143,0.2324095368385315
1772458096394454000,9.1484541015625,-0.08594100922346115,-0.05206293612718582,0.34864747524261475
1772458096404522000,9.15852197265625,-0.031012510880827904,-0.012429239228367805,0.45103269815444946
1772458096414591000,9.168591064453125,0.023781228810548782,-0.007339139468967915,0.52668696641922
1772458096424659000,9.178658935546874,0.05354525148868561,-0.025675801560282707,0.5816769599914551
1772458096434728000,9.18872802734375,0.052810750901699066,-0.0645265281200409,0.6057074666023254
1772458096444796400,9.19879638671875,0.03695988282561302,-0.11276835948228836,0.6098939776420593
1772458096454864400,9.208864501953125,0.012684369459748268,-0.176314577460289,0.5882179737091064
1772458096464933000,9.21893310546875,-0.01750176213681698,-0.2542743682861328,0.5456628203392029
1772458096475001300,9.22900146484375,-0.06496994197368622,-0.32662153244018555,0.4942997395992279
1772458096485070300,9.2390703125,-0.11714047193527222,-0.3922988176345825,0.43434959650039673
1772458096495138000,9.249137939453124,-0.17052219808101654,-0.4439936876296997,0.36664697527885437
1772458096505207300,9.259207275390626,-0.2197858840227127,-0.4784475266933441,0.2780148386955261
1772458096515275300,9.269275146484375,-0.2698993980884552,-0.47923770546913147,0.1774914264678955
1772458096525343200,9.27934326171875,-0.31301116943359375,-0.44073373079299927,0.0740814208984375
1772458096535412200,9.289412109375,-0.3431815803050995,-0.3651478886604309,-0.014929947443306446
1772458096545480200,9.299480224609376,-0.3619387745857239,-0.2673928141593933,-0.09387669712305069
1772458096555549400,9.309549560546875,-0.36107563972473145,-0.14295049011707306,-0.15714621543884277
1772458096565617400,9.319617431640625,-0.3364853262901306,-0.009594570845365524,-0.20859315991401672
1772458096575685400,9.329685302734376,-0.28283995389938354,0.13285045325756073,-0.24665692448616028
1772458096585754000,9.339754150390625,-0.2099873274564743,0.27687153220176697,-0.2625005841255188
1772458096595822300,9.349822265625,-0.12675021588802338,0.37625032663345337,-0.25854021310806274
1772458096605891300,9.359891357421875,-0.05874853581190109,0.40429607033729553,-0.2317804992198944
1772458096615959000,9.369958984375,-0.0026293389964848757,0.3670629560947418,-0.1856236606836319
1772458096626027300,9.38002734375,0.03437954559922218,0.2720773220062256,-0.13203446567058563
1772458096636096300,9.39009619140625,0.05971366539597511,0.15887780487537384,-0.08363151550292969
1772458096646164200,9.400164306640624,0.08582888543605804,0.04838670790195465,-0.05681934207677841
1772458096656233200,9.410233154296876,0.107144296169281,-0.051483429968357086,-0.02971874736249447
1772458096666301200,9.42030126953125,0.12509746849536896,-0.12464259564876556,-0.02287096157670021
1772458096676369200,9.430369140625,0.1370507925748825,-0.1469351202249527,-0.028357338160276413
1772458096686438400,9.4404384765625,0.15073971450328827,-0.12983788549900055,-0.04403616860508919
1772458096696506400,9.45050634765625,0.1763385534286499,-0.0981830283999443,-0.07105500251054764
1772458096706575000,9.4605751953125,0.1969468891620636,-0.07589689642190933,-0.11184850335121155
1772458096716643300,9.470643310546874,0.21273143589496613,-0.05161179602146149,-0.15367771685123444
1772458096726711300,9.480711181640626,0.21633656322956085,-0.04029868543148041,-0.19072361290454865
1772458096736780300,9.4907802734375,0.20856386423110962,-0.036851756274700165,-0.22607627511024475
1772458096746848300,9.50084814453125,0.19924838840961456,-0.02099449746310711,-0.24976402521133423
1772458096756917200,9.510917236328124,0.17305593192577362,0.0036967338528484106,-0.2626979351043701
1772458096766985200,9.520985107421875,0.13812990486621857,0.030066821724176407,-0.2619839310646057
1772458096777053400,9.531053466796875,0.10592669993638992,0.059356000274419785,-0.2605684697628021
1772458096787122200,9.5411220703125,0.08348876982927322,0.08468905836343765,-0.2501733601093292
1772458096797190100,9.551190185546876,0.07769612967967987,0.10880637168884277,-0.23994095623493195
1772458096807259400,9.56125927734375,0.08775888383388519,0.14964382350444794,-0.21637597680091858
1772458096817327400,9.571327392578125,0.10551124811172485,0.19750908017158508,-0.17998574674129486
1772458096827396000,9.58139599609375,0.13114656507968903,0.23761096596717834,-0.14398327469825745
1772458096837464300,9.59146435546875,0.1554231494665146,0.28718090057373047,-0.11240483820438385
1772458096847532300,9.6015322265625,0.17885230481624603,0.3462218642234802,-0.09831138700246811
1772458096857601300,9.611601318359375,0.20363381505012512,0.3890681266784668,-0.0968482494354248
1772458096867669200,9.621669189453126,0.22929151356220245,0.40375760197639465,-0.10500897467136383
1772458096877738200,9.63173828125,0.2505054473876953,0.3919065296649933,-0.10211438685655594
1772458096887806200,9.64180615234375,0.26429396867752075,0.38215428590774536,-0.07465799152851105
1772458096897874400,9.65187451171875,0.2727910578250885,0.3908923864364624,-0.008599880151450634
1772458096907943200,9.661943115234376,0.27975842356681824,0.41162458062171936,0.08431354910135269
1772458096918011100,9.67201123046875,0.27921727299690247,0.39023324847221375,0.175808846950531
1772458096928080400,9.682080322265625,0.27050286531448364,0.31010380387306213,0.23579947650432587
1772458096938148400,9.6921484375,0.25127270817756653,0.21916857361793518,0.28725841641426086
1772458096948216300,9.70221630859375,0.22909577190876007,0.1301683932542801,0.34592705965042114
1772458096958285300,9.712285400390625,0.18863889575004578,0.0850704163312912,0.40144410729408264
1772458096968353300,9.722353271484375,0.14591938257217407,0.08590851724147797,0.4561164081096649
1772458096978422300,9.73242236328125,0.10948947817087173,0.11352762579917908,0.5061444044113159
1772458096988490200,9.742490234375,0.07939868420362473,0.13494503498077393,0.5292324423789978
1772458096998558200,9.75255810546875,0.057131730020046234,0.14443440735340118,0.5261873602867126
1772458097008627200,9.762627197265624,0.04206196591258049,0.1600237488746643,0.49481692910194397
1772458097018695400,9.7726953125,0.04128805175423622,0.1767289638519287,0.45982617139816284
1772458097028764200,9.78276416015625,0.04174744710326195,0.17102846503257751,0.40806126594543457
1772458097038832000,9.79283203125,0.03696760535240173,0.13691496849060059,0.35585424304008484
1772458097048900400,9.802900390625,0.03339603915810585,0.0718076080083847,0.2939607799053192
1772458097058969300,9.81296923828125,0.018439194187521935,0.005381982307881117,0.21699222922325134
1772458097069037300,9.823037353515625,-0.012330436147749424,-0.06258055567741394,0.14175580441951752
1772458097079106300,9.833106201171875,-0.05252872034907341,-0.11424614489078522,0.05940766632556915
1772458097089174300,9.84317431640625,-0.09187426418066025,-0.11500248312950134,-0.01372460089623928
1772458097099243300,9.8532431640625,-0.11953278630971909,-0.09030646085739136,-0.06474011391401291
1772458097109311200,9.863311279296875,-0.1318693459033966,-0.05338120087981224,-0.08869738131761551
1772458097119379200,9.873379150390624,-0.13981382548809052,-0.028247084468603134,-0.09333846718072891
1772458097129448200,9.8834482421875,-0.1369410753250122,-0.0022807312197983265,-0.06233181804418564
1772458097139516400,9.893516357421875,-0.13646729290485382,0.06053072214126587,-0.00004207794336252846
1772458097149585200,9.903585205078125,-0.1231275200843811,0.1260697841644287,0.07857363671064377
1772458097159653000,9.913653076171874,-0.09329932183027267,0.18649743497371674,0.14956551790237427
1772458097169721300,9.923721435546875,-0.049007222056388855,0.22889523208141327,0.2016444355249405
1772458097179790300,9.933790283203125,-0.00869016069918871,0.24224965274333954,0.22979244589805603
1772458097189858300,9.9438583984375,0.02468297630548477,0.24077320098876953,0.24106347560882568
1772458097199927300,9.95392724609375,0.04773076996207237,0.22603952884674072,0.2418094277381897
1772458097209995300,9.963995361328125,0.07021956890821457,0.19787420332431793,0.24258014559745789
1772458097220064300,9.974064208984375,0.087913878262043,0.144073024392128,0.23617684841156006
1772458097230132200,9.98413232421875,0.08973361551761627,0.07796084135770798,0.22219684720039368
1772458097240200200,9.9942001953125,0.08759802579879761,0.017672203481197357,0.1985679566860199
1772458097250269200,10.004269287109375,0.08367066085338593,-0.009752762503921986,0.1592077612876892
1772458097260337400,10.01433740234375,0.0866352915763855,-0.039503999054431915,0.10028932243585587
1772458097270405400,10.0244052734375,0.08674368262290955,-0.08910111337900162,0.035540685057640076
1772458097280474000,10.03447412109375,0.07637226581573486,-0.1823570281267166,-0.053169745951890945
1772458097290542300,10.044542236328125,0.04132560268044472,-0.3255021870136261,-0.16580840945243835
1772458097300611300,10.054611328125,-0.02377483807504177,-0.47700968384742737,-0.29598426818847656
1772458097310679300,10.06467919921875,-0.10258442908525467,-0.5927618741989136,-0.4312669634819031
1772458097320748300,10.074748291015625,-0.18813635408878326,-0.6226601004600525,-0.5650327801704407
1772458097330816300,10.084816162109375,-0.2706456184387207,-0.5483286380767822,-0.6821362376213074
1772458097340884200,10.09488427734375,-0.351398766040802,-0.3872838020324707,-0.7427473664283752
1772458097350953200,10.104953125,-0.43179720640182495,-0.16694824397563934,-0.7432451248168945
1772458097361021200,10.115021240234375,-0.5066370964050293,0.07789479941129684,-0.7057294249534607
1772458097371090200,10.125090087890625,-0.5565457940101624,0.318114310503006,-0.6362595558166504
1772458097381158400,10.135158447265624,-0.5717548727989197,0.5132933855056763,-0.5548147559165955
1772458097391226400,10.145226318359375,-0.5554624199867249,0.630319356918335,-0.46463772654533386
1772458097401295000,10.155295166015625,-0.5227801203727722,0.6718052625656128,-0.37507694959640503
1772458097411363300,10.16536328125,-0.4874817728996277,0.6632615923881531,-0.2924230694770813
1772458097421432300,10.175432373046876,-0.44237956404685974,0.6082351207733154,-0.22788402438163757
1772458097431500300,10.185500244140625,-0.39813750982284546,0.5005451440811157,-0.17630046606063843
1772458097441569800,10.19556982421875,-0.3579655885696411,0.37434324622154236,-0.12688124179840088
1772458097451637800,10.2056376953125,-0.3282068967819214,0.24731099605560303,-0.08470716327428818
1772458097461705700,10.215705810546876,-0.3074542284011841,0.13692402839660645,-0.04561062902212143
1772458097471774700,10.225774658203125,-0.29293546080589294,0.05303525552153587,-0.013824203051626682
1772458097481842700,10.2358427734375,-0.2811131477355957,0.0067844027653336525,0.005164668429642916
1772458097491911700,10.24591162109375,-0.2735220789909363,-0.020622987300157547,0.01019537914544344
1772458097501980000,10.25597998046875,-0.2685803174972534,-0.04372644051909447,0.011319499462842941
1772458097512047900,10.2660478515625,-0.2599916458129883,-0.06443225592374802,0.0035148400347679853
1772458097522116600,10.27611669921875,-0.24651311337947845,-0.0952378362417221,-0.01152855809777975
1772458097532184800,10.286184814453126,-0.23727460205554962,-0.13018304109573364,-0.02515621855854988
1772458097542253800,10.29625390625,-0.22241869568824768,-0.1621423065662384,-0.03389272093772888
1772458097552321800,10.30632177734375,-0.21148347854614258,-0.1998625099658966,-0.03603256866335869
1772458097562389800,10.3163896484375,-0.20344366133213043,-0.24071940779685974,-0.0310995951294899
1772458097572458800,10.326458740234376,-0.19981643557548523,-0.27209222316741943,-0.026558905839920044
1772458097582526700,10.336526611328125,-0.2021632194519043,-0.31835508346557617,-0.0002924150903709233
1772458097592595700,10.346595703125,-0.20781098306179047,-0.35983142256736755,0.015210377983748913
1772458097602663700,10.35666357421875,-0.21398206055164337,-0.406428724527359,0.02815414033830166
1772458097612732700,10.366732666015626,-0.23153628408908844,-0.439670592546463,0.026223348453640938
1772458097622801000,10.37680078125,-0.260539174079895,-0.43306222558021545,0.018694858998060226
1772458097632868900,10.386868896484375,-0.2909703254699707,-0.3987495005130768,0.012820989824831486
1772458097642937600,10.3969375,-0.3109908998012543,-0.33861294388771057,0.004116980824619532
1772458097653005800,10.407005859375,-0.31928664445877075,-0.26809296011924744,0.0004117247008252889
1772458097663074800,10.41707470703125,-0.3145022690296173,-0.20240716636180878,-0.0039012646302580833
1772458097673142800,10.427142822265624,-0.2988831102848053,-0.12984400987625122,-0.007837150245904922
1772458097683210800,10.437210693359376,-0.2869843542575836,-0.08961989730596542,-0.0036735644098371267
1772458097693279700,10.44727978515625,-0.27189648151397705,-0.07512324303388596,-0.0054123420268297195
1772458097703347700,10.45734765625,-0.2577891945838928,-0.0650506392121315,-0.005631786771118641
1772458097713416700,10.467416748046874,-0.2438075989484787,-0.06520643085241318,-0.005346562247723341
1772458097723484700,10.477484619140625,-0.23249661922454834,-0.056766342371702194,0.0013395700370892882
1772458097733553700,10.4875537109375,-0.2190985232591629,-0.03479020297527313,0.015984825789928436
1772458097743622000,10.497621826171875,-0.20333793759346008,-0.05413514003157616,0.02889263443648815
1772458097753689900,10.50768994140625,-0.18368354439735413,-0.13496261835098267,0.028502214699983597
1772458097763758600,10.517758544921875,-0.16250768303871155,-0.21015030145645142,0.0013707289472222328
1772458097773826800,10.527826904296875,-0.1471971720457077,-0.23769111931324005,-0.028807412832975388
1772458097783895800,10.537895751953124,-0.13508884608745575,-0.18048562109470367,-0.05505845695734024
1772458097793963800,10.5479638671875,-0.12791375815868378,-0.09517604857683182,-0.07634297758340836
1772458097804031700,10.55803173828125,-0.11773089319467545,-0.014815697446465492,-0.09550122171640396
1772458097814100700,10.568100830078125,-0.0939725711941719,0.031491346657276154,-0.11433243751525879
1772458097824168700,10.578168701171874,-0.056360211223363876,0.08156010508537292,-0.1326746940612793
1772458097834237700,10.58823779296875,-0.013711018487811089,0.12966158986091614,-0.1663317233324051
1772458097844305700,10.5983056640625,0.028260933235287666,0.15314188599586487,-0.20882990956306458
1772458097854373600,10.60837353515625,0.06626930087804794,0.14467835426330566,-0.24726732075214386
1772458097864443000,10.61844287109375,0.09318426996469498,0.10071063041687012,-0.27214550971984863
1772458097874510800,10.6285107421875,0.11639585345983505,0.033665020018815994,-0.2823067903518677
1772458097884579600,10.63857958984375,0.13834695518016815,-0.03322985768318176,-0.26612091064453125
1772458097894647800,10.648647705078124,0.14353986084461212,-0.10719037055969238,-0.2387039214372635
1772458097904716800,10.658716796875,0.13766491413116455,-0.17769542336463928,-0.20401650667190552
1772458097914784800,10.66878466796875,0.12907463312149048,-0.23439651727676392,-0.1554066389799118
1772458097924852700,10.678852783203125,0.12360502779483795,-0.2757444977760315,-0.09301169961690903
1772458097934921700,10.688921630859374,0.11538118869066238,-0.32195407152175903,-0.03142822906374931
1772458097944989700,10.69898974609375,0.10416848212480545,-0.36419394612312317,0.024353809654712677
1772458097955058700,10.70905859375,0.09412223845720291,-0.3873799443244934,0.06327351182699203
1772458097965126700,10.719126708984374,0.08919326215982437,-0.3839854896068573,0.09565435349941254
1772458097975194600,10.729194580078126,0.08883346617221832,-0.35515570640563965,0.118874192237854
1772458097985263900,10.739263916015625,0.08755994588136673,-0.30804863572120667,0.138787180185318
1772458097995331800,10.749331787109375,0.08992908895015717,-0.25893035531044006,0.16076092422008514
1772458098005400600,10.759400634765624,0.08163387328386307,-0.19721001386642456,0.1875070482492447
1772458098015468800,10.76946875,0.0700368732213974,-0.11990643292665482,0.22912771999835968
1772458098025536800,10.779536865234375,0.06540989875793457,-0.023076822981238365,0.2940675914287567
1772458098035605800,10.789605712890625,0.056106146425008774,0.06363437324762344,0.3818533420562744
1772458098045673700,10.799673828125,0.0485994927585125,0.13288508355617523,0.470491886138916
1772458098055742700,10.80974267578125,0.036197420209646225,0.1773311048746109,0.54746013879776
1772458098065810700,10.819810791015625,0.02490774728357792,0.1833391934633255,0.6041458249092102
1772458098075880000,10.8298798828125,0.018792595714330673,0.15699733793735504,0.6245411038398743
1772458098085947600,10.83994775390625,0.007268299348652363,0.11162000149488449,0.6127238273620605
1772458098096015600,10.850015625,0.00034674355993047357,0.06922461092472076,0.5811989307403564
1772458098106084900,10.8600849609375,-0.0067838700488209724,0.04411712661385536,0.5393484234809875
1772458098116152800,10.87015283203125,-0.016862602904438972,0.037401966750621796,0.48382312059402466
1772458098126221600,10.8802216796875,-0.032106004655361176,0.04047925025224686,0.4249851107597351
1772458098136289800,10.890289794921875,-0.04968925938010216,0.04994359239935875,0.3459691107273102
1772458098146357800,10.900357666015625,-0.06150969862937927,0.05080006271600723,0.24767984449863434
1772458098156426800,10.9104267578125,-0.08456095308065414,0.044607147574424744,0.1417965441942215
1772458098166494700,10.92049462890625,-0.11711570620536804,0.04357943683862686,0.03999987989664078
1772458098176563700,10.930563720703125,-0.15411660075187683,0.05792881175875664,-0.05754372105002403
1772458098186631700,10.940631591796874,-0.18712355196475983,0.08016300946474075,-0.14431776106357574
1772458098196701000,10.950700927734376,-0.228522390127182,0.09683892875909805,-0.22345200181007385
1772458098206768600,10.9607685546875,-0.24447739124298096,0.12016821652650833,-0.2721675932407379
1772458098216836600,10.970836669921875,-0.24401159584522247,0.168877974152565,-0.29499542713165283
1772458098226905900,10.98090576171875,-0.2253982275724411,0.2203313112258911,-0.2840314507484436
1772458098236973800,10.990973876953126,-0.19048365950584412,0.2537291944026947,-0.25318166613578796
1772458098247042600,11.00104248046875,-0.14435717463493347,0.2600017488002777,-0.20287135243415833
1772458098257110800,11.01111083984375,-0.08861162513494492,0.26131176948547363,-0.1512768715620041
1772458098267178800,11.0211787109375,-0.020300211384892464,0.2697393298149109,-0.10638795793056488
1772458098277247700,11.031247802734375,0.05235961079597473,0.2685970962047577,-0.07895153760910034
1772458098287316000,11.04131591796875,0.1242428570985794,0.2600020170211792,-0.07617439329624176
1772458098297384700,11.051384765625,0.19047194719314575,0.22776073217391968,-0.07386410236358643
1772458098307452700,11.06145263671875,0.24637675285339355,0.16901777684688568,-0.06346872448921204
1772458098317522000,11.07152197265625,0.2900230288505554,0.11349966377019882,-0.04062279313802719
1772458098327589600,11.081589599609375,0.3239820599555969,0.08047433942556381,-0.012338425032794476
1772458098337657600,11.09165771484375,0.36461764574050903,0.07140680402517319,0.0014543522847816348
1772458098347726800,11.101726806640626,0.41272738575935364,0.07575201988220215,0.004186222795397043
1772458098357794800,11.111794921875,0.4665794372558594,0.08720973879098892,-0.007841411046683788
1772458098367863600,11.121863525390625,0.5147903561592102,0.10240546613931656,-0.021458420902490616
1772458098377931800,11.131931884765624,0.5596864819526672,0.11156754195690155,-0.04421300068497658
1772458098387999700,11.141999755859375,0.608194887638092,0.12571664154529572,-0.06695426255464554
1772458098398068700,11.15206884765625,0.6508611440658569,0.13572826981544495,-0.08716366440057755
1772458098408137000,11.162136962890624,0.6849668622016907,0.1592879295349121,-0.10323211550712585
1772458098418205700,11.172205810546876,0.7083350419998169,0.1922307014465332,-0.11379527300596237
1772458098428273700,11.182273681640625,0.7275806665420532,0.21013832092285156,-0.12724396586418152
1772458098438343000,11.192343017578125,0.7421497702598572,0.20580855011940002,-0.14388340711593628
1772458098448410600,11.20241064453125,0.7527973651885986,0.20435872673988342,-0.1550806611776352
1772458098458478600,11.212478515625,0.7690356969833374,0.20668047666549683,-0.16596953570842743
1772458098468547600,11.222547607421875,0.7919759154319763,0.22638946771621704,-0.166898712515831
1772458098478615800,11.23261572265625,0.8216110467910767,0.25727441906929016,-0.16015665233135223
1772458098488684500,11.2426845703125,0.866951048374176,0.2932435870170593,-0.15834783017635345
1772458098498752500,11.25275244140625,0.9198569059371948,0.33865928649902344,-0.15970630943775177
1772458098508820700,11.26282080078125,0.97453773021698,0.35527101159095764,-0.17875537276268005
1772458098518889700,11.2728896484375,1.0394285917282104,0.3670696020126343,-0.2149253487586975
1772458098528957700,11.282957763671876,1.1017073392868042,0.37219247221946716,-0.2372245341539383
1772458098539026700,11.293026611328125,1.1351559162139893,0.3356565535068512,-0.2458992451429367
1772458098549094700,11.3030947265625,1.1568902730941772,0.2986319661140442,-0.24097798764705658
1772458098559162600,11.31316259765625,1.1571061611175537,0.2975744307041168,-0.2072538584470749
1772458098569232000,11.32323193359375,1.146540641784668,0.314523309469223,-0.12292592227458954
1772458098579299600,11.333299560546875,1.1156266927719116,0.3289027810096741,-0.004500475712120533
1772458098589368600,11.34336865234375,1.0788414478302002,0.32043126225471497,0.12595206499099731
1772458098599436800,11.353436767578126,1.0501528978347778,0.29368141293525696,0.23345908522605896
1772458098609505500,11.363505615234375,1.0244922637939453,0.26114609837532043,0.34339144825935364
1772458098619573500,11.373573486328125,0.9949012994766235,0.14745044708251953,0.420807421207428
1772458098629641700,11.383641845703124,0.9964060187339783,0.049612559378147125,0.4542766809463501
1772458098639710700,11.393710693359376,1.033260464668274,-0.01949513889849186,0.4617694914340973
1772458098649778700,11.40377880859375,1.0508157014846802,-0.08581317216157913,0.45297786593437195
1772458098659847700,11.41384765625,1.02953040599823,-0.1398303359746933,0.40513232350349426
1772458098669915600,11.42391552734375,0.9605430960655212,-0.1567922830581665,0.3566302955150604
1772458098679983600,11.433983642578125,0.8750550746917725,-0.12734118103981018,0.3202938437461853
1772458098690052900,11.444052978515625,0.8115195035934448,-0.0951363667845726,0.27436259388923645
