time,seconds_elapsed,z,y,x
1772696894466752800,0.062752685546875,-0.9015655517578125,-0.309234619140625,0.0565948486328125
1772696894476722700,0.07272265625,-0.895172119140625,-0.2859039306640625,0.0850372314453125
1772696894486693600,0.082693603515625,-0.8921051025390625,-0.2594146728515625,0.099761962890625
1772696894496664800,0.092664794921875,-0.9149017333984375,-0.1875457763671875,0.09197998046875
1772696894506635800,0.1026357421875,-0.9761505126953125,-0.1354522705078125,0.063751220703125
1772696894516606500,0.1126064453125,-1.0080718994140625,-0.1533660888671875,0.10986328125
1772696894526576600,0.12257666015625,-1.0026397705078125,-0.247833251953125,0.106292724609375
1772696894536547600,0.132547607421875,-1.0509796142578125,-0.3008880615234375,0.0700531005859375
1772696894546518500,0.1425185546875,-1.1018218994140625,-0.33135986328125,0.0479888916015625
1772696894556489700,0.15248974609375,-1.0675048828125,-0.332763671875,0.0576629638671875
1772696894566460700,0.162460693359375,-1.001983642578125,-0.3105621337890625,0.0818023681640625
1772696894576430600,0.1724306640625,-0.93328857421875,-0.2874298095703125,0.108245849609375
1772696894586401800,0.18240185546875,-0.88153076171875,-0.2847137451171875,0.1283111572265625
1772696894596372500,0.19237255859375,-0.8375244140625,-0.313140869140625,0.1416015625
1772696894606343700,0.20234375,-0.8215484619140625,-0.370391845703125,0.12481689453125
1772696894616313600,0.212313720703125,-0.8765716552734375,-0.3227386474609375,0.0550537109375
1772696894626284500,0.222284423828125,-0.9623260498046875,-0.28216552734375,0.0097808837890625
1772696894636255700,0.232255859375,-0.961273193359375,-0.3861236572265625,-0.0073394775390625
1772696894646226700,0.242226806640625,-0.9276885986328125,-0.413818359375,-0.0390625
1772696894656198000,0.252197998046875,-0.9232330322265625,-0.4223175048828125,-0.0521697998046875
1772696894666167800,0.262167724609375,-0.970062255859375,-0.40484619140625,-0.0335693359375
1772696894676138800,0.272138671875,-1.0028533935546875,-0.3330535888671875,-0.0093994140625
1772696894686109700,0.282109619140625,-1.0020599365234375,-0.278411865234375,-0.0267486572265625
1772696894696080600,0.29208056640625,-0.9812774658203125,-0.2149505615234375,-0.0596771240234375
1772696894706051600,0.302051513671875,-0.9298858642578125,-0.2878570556640625,-0.0588531494140625
1772696894716021800,0.312021728515625,-0.9727935791015625,-0.2982940673828125,-0.074432373046875
1772696894725992700,0.32199267578125,-0.9751434326171875,-0.2528533935546875,-0.080963134765625
1772696894735963600,0.331963623046875,-0.9586181640625,-0.2272491455078125,-0.0941619873046875
1772696894745934800,0.341934814453125,-0.9820709228515625,-0.2320098876953125,-0.10479736328125
1772696894755905500,0.351905517578125,-0.9905242919921875,-0.20831298828125,-0.1070709228515625
1772696894765875500,0.36187548828125,-0.9864349365234375,-0.1772613525390625,-0.0949859619140625
1772696894775846700,0.3718466796875,-0.974365234375,-0.164764404296875,-0.0928802490234375
1772696894785817600,0.381817626953125,-0.92431640625,-0.1631622314453125,-0.090789794921875
1772696894795788800,0.391788818359375,-0.853515625,-0.1756439208984375,-0.0519561767578125
1772696894805759700,0.401759765625,-0.8348846435546875,-0.226593017578125,0.02655029296875
1772696894815729700,0.411729736328125,-0.8874664306640625,-0.3202362060546875,0.13067626953125
1772696894825700900,0.421700927734375,-0.9396820068359375,-0.4071807861328125,0.207611083984375
1772696894835671600,0.431671630859375,-0.9813690185546875,-0.4290008544921875,0.2283477783203125
1772696894845642500,0.441642578125,-0.989227294921875,-0.4388580322265625,0.096923828125
1772696894855613700,0.45161376953125,-1.00701904296875,-0.4210968017578125,0.0600738525390625
1772696894865583600,0.46158349609375,-1.004058837890625,-0.3609619140625,0.0954742431640625
1772696894875554600,0.471554443359375,-1.0047607421875,-0.3182830810546875,0.1421966552734375
1772696894885525800,0.48152587890625,-1.013763427734375,-0.34222412109375,0.15777587890625
1772696894895496700,0.49149658203125,-1.0709228515625,-0.348052978515625,0.00836181640625
1772696894905466600,0.501466552734375,-1.0819854736328125,-0.21990966796875,-0.1408233642578125
1772696894915437800,0.511437744140625,-1.109954833984375,-0.2664031982421875,-0.18572998046875
1772696894925408500,0.521408447265625,-1.09246826171875,-0.31719970703125,-0.2190399169921875
1772696894935379700,0.531379638671875,-1.039154052734375,-0.2692718505859375,-0.16400146484375
1772696894945350700,0.5413505859375,-1.0835418701171875,-0.3204498291015625,-0.0742645263671875
1772696894955320600,0.551320556640625,-1.0854034423828125,-0.375518798828125,0.002349853515625
1772696894965291800,0.561291748046875,-1.0830230712890625,-0.397064208984375,0.0296783447265625
1772696894975262700,0.5712626953125,-1.0682525634765625,-0.4238739013671875,0.009185791015625
1772696894985233700,0.581233642578125,-1.023162841796875,-0.4115142822265625,-0.040252685546875
1772696894995204600,0.59120458984375,-0.91973876953125,-0.3715667724609375,-0.0564117431640625
1772696895005174500,0.601174560546875,-0.8441925048828125,-0.3286285400390625,0.0490264892578125
1772696895015145700,0.611145751953125,-0.8735809326171875,-0.3108978271484375,0.285003662109375
1772696895025116700,0.62111669921875,-0.9138946533203125,-0.373809814453125,0.4249267578125
1772696895035087600,0.631087646484375,-0.894012451171875,-0.42950439453125,0.3015594482421875
1772696895045058800,0.641058837890625,-0.814300537109375,-0.416015625,0.0944976806640625
1772696895055028700,0.65102880859375,-0.777374267578125,-0.4178009033203125,-0.0185394287109375
1772696895064999700,0.660999755859375,-0.811126708984375,-0.4193572998046875,-0.028472900390625
1772696895074970600,0.670970703125,-0.8865814208984375,-0.2953033447265625,-0.0019378662109375
1772696895084941600,0.680941650390625,-0.8008575439453125,-0.2356719970703125,-0.0607757568359375
1772696895094912800,0.690912841796875,-0.722747802734375,-0.296844482421875,-0.131683349609375
1772696895104882700,0.700882568359375,-0.6974639892578125,-0.2744598388671875,-0.1477508544921875
1772696895114853600,0.710853515625,-0.6199188232421875,-0.2561492919921875,-0.2971954345703125
1772696895124824800,0.720824951171875,-0.6981048583984375,-0.2520904541015625,-0.2915191650390625
1772696895134795800,0.730795654296875,-0.839569091796875,-0.20281982421875,-0.1210784912109375
1772696895144766500,0.740766357421875,-0.7186431884765625,-0.23486328125,-0.1566314697265625
1772696895154736600,0.750736572265625,-0.6186065673828125,-0.2678375244140625,-0.2747802734375
1772696895164707600,0.76070751953125,-0.66796875,-0.2527923583984375,-0.2922210693359375
1772696895174678500,0.770678466796875,-0.6883392333984375,-0.186431884765625,-0.293426513671875
1772696895184649700,0.780649658203125,-0.6258697509765625,-0.139007568359375,-0.267303466796875
1772696895194620700,0.79062060546875,-0.659637451171875,-0.083740234375,-0.307647705078125
1772696895204590600,0.800590576171875,-0.6986541748046875,-0.10186767578125,-0.3235626220703125
1772696895214561800,0.810561767578125,-0.599853515625,-0.12994384765625,-0.20416259765625
1772696895224532500,0.820532470703125,-0.535858154296875,-0.095611572265625,-0.095062255859375
1772696895234503700,0.830503662109375,-0.542205810546875,-0.086700439453125,-0.0599822998046875
1772696895244474600,0.840474609375,-0.6086273193359375,-0.141845703125,-0.1052703857421875
1772696895254444500,0.850444580078125,-0.6486358642578125,-0.170074462890625,-0.144012451171875
1772696895264415700,0.860415771484375,-0.6400909423828125,-0.2147064208984375,-0.1655120849609375
1772696895274386700,0.87038671875,-0.792327880859375,-0.253143310546875,-0.16717529296875
1772696895284357600,0.880357666015625,-1.0145721435546875,-0.332366943359375,-0.126617431640625
1772696895294328600,0.89032861328125,-1.3243255615234375,-0.404266357421875,-0.170379638671875
1772696895304298800,0.900298828125,-1.5735931396484375,-0.4644012451171875,-0.09210205078125
1772696895314269400,0.91026953125,-1.97271728515625,-0.5707550048828125,0.052459716796875
1772696895324240400,0.920240478515625,-2.3228607177734375,-0.618011474609375,-0.021453857421875
1772696895334211600,0.930211669921875,-2.529388427734375,-0.678802490234375,-0.0767669677734375
1772696895344181500,0.940181396484375,-2.6537933349609375,-0.7366180419921875,-0.1500244140625
1772696895354152400,0.95015234375,-2.627532958984375,-0.7607574462890625,-0.24212646484375
1772696895364123600,0.96012353515625,-2.499664306640625,-0.7987213134765625,-0.3470916748046875
1772696895374094600,0.970094482421875,-2.313385009765625,-0.8725128173828125,-0.394195556640625
1772696895384065500,0.9800654296875,-2.0969390869140625,-0.9570159912109375,-0.3822784423828125
1772696895394035500,0.990035400390625,-1.8745574951171875,-1.032318115234375,-0.316253662109375
1772696895404006400,1.00000634765625,-1.64886474609375,-1.0886383056640625,-0.203704833984375
1772696895413977600,1.0099775390625,-1.4290924072265625,-1.1190032958984375,-0.080474853515625
1772696895423948500,1.019948486328125,-1.224884033203125,-1.1217193603515625,0.0333251953125
1772696895433919500,1.02991943359375,-1.04571533203125,-1.0972900390625,0.1082916259765625
1772696895443889700,1.0398896484375,-0.8869476318359375,-1.054168701171875,0.1414794921875
1772696895453860600,1.049860595703125,-0.757293701171875,-0.99090576171875,0.1670989990234375
1772696895463831600,1.05983154296875,-0.652130126953125,-0.9137420654296875,0.159637451171875
1772696895473802500,1.069802490234375,-0.5689849853515625,-0.793975830078125,0.1285400390625
1772696895483773400,1.0797734375,-0.483001708984375,-0.6358489990234375,0.06512451171875
1772696895493744600,1.08974462890625,-0.3968963623046875,-0.44451904296875,0.0188751220703125
1772696895503714600,1.099714599609375,-0.3263702392578125,-0.264984130859375,0.0052032470703125
1772696895513685500,1.109685546875,-0.2755126953125,-0.1049346923828125,-0.008392333984375
1772696895523656700,1.11965673828125,-0.279083251953125,-0.0155181884765625,-0.037139892578125
1772696895533627400,1.12962744140625,-0.1528472900390625,0.058837890625,0.0162200927734375
1772696895543597600,1.13959765625,-0.179718017578125,0.10284423828125,0.008636474609375
1772696895553568500,1.149568603515625,-0.11065673828125,0.103515625,0.0906829833984375
1772696895563539500,1.15953955078125,-0.03125,0.0919647216796875,0.13311767578125
1772696895573510700,1.1695107421875,0.05267333984375,0.095428466796875,0.1567535400390625
1772696895583481600,1.179481689453125,0.121002197265625,0.0923614501953125,0.1645355224609375
1772696895593451500,1.189451416015625,0.1578826904296875,0.0899658203125,0.17181396484375
1772696895603422700,1.199422607421875,0.1836700439453125,0.0986785888671875,0.152557373046875
1772696895613393700,1.2093935546875,0.1869659423828125,0.077301025390625,0.15203857421875
1772696895623364400,1.2193642578125,0.157806396484375,0.04144287109375,0.1445159912109375
1772696895633335600,1.22933544921875,0.1581878662109375,0.0835418701171875,0.1187896728515625
1772696895643305500,1.239305419921875,0.1292877197265625,0.09197998046875,0.112457275390625
1772696895653276400,1.2492763671875,0.0925445556640625,0.10369873046875,0.1214752197265625
1772696895663247600,1.25924755859375,0.0558624267578125,0.14337158203125,0.123199462890625
1772696895673218600,1.269218505859375,0.0254364013671875,0.150115966796875,0.1050567626953125
1772696895683189500,1.279189453125,-0.02532958984375,0.1598663330078125,0.0843963623046875
1772696895693159700,1.28915966796875,-0.06231689453125,0.14764404296875,0.0477752685546875
1772696895703130400,1.29913037109375,-0.079681396484375,0.10443115234375,0.0211944580078125
1772696895713101600,1.3091015625,-0.118499755859375,0.0414276123046875,0.034576416015625
1772696895723072500,1.319072509765625,-0.1463470458984375,-0.0424346923828125,0.054168701171875
1772696895733043500,1.32904345703125,-0.209136962890625,-0.141845703125,0.08343505859375
1772696895743013600,1.339013671875,-0.2991790771484375,-0.248077392578125,0.11456298828125
1772696895752984600,1.348984619140625,-0.422882080078125,-0.3642730712890625,0.1117401123046875
1772696895762955500,1.35895556640625,-0.595245361328125,-0.4476470947265625,0.074249267578125
1772696895772926500,1.368926513671875,-0.8059844970703125,-0.5312957763671875,0.0287322998046875
1772696895782897400,1.3788974609375,-1.0140533447265625,-0.6108551025390625,-0.0302581787109375
1772696895792867600,1.38886767578125,-1.192901611328125,-0.7021484375,-0.074462890625
1772696895802838500,1.398838623046875,-1.40655517578125,-0.7862396240234375,-0.1027679443359375
1772696895812809500,1.4088095703125,-1.635986328125,-0.892181396484375,-0.096038818359375
1772696895822780700,1.41878076171875,-1.86663818359375,-1.0105133056640625,-0.0602264404296875
1772696895832751600,1.428751708984375,-2.0666656494140625,-1.1060638427734375,-0.031341552734375
1772696895842721500,1.438721435546875,-2.2417449951171875,-1.1715240478515625,-0.037689208984375
1772696895852692500,1.4486923828125,-2.4102020263671875,-1.192230224609375,-0.0660247802734375
1772696895862663400,1.458663330078125,-2.4962158203125,-1.2136993408203125,-0.08648681640625
1772696895872634600,1.468634521484375,-2.52655029296875,-1.24090576171875,-0.09857177734375
1772696895882605600,1.47860546875,-2.5394439697265625,-1.2800140380859375,-0.08184814453125
1772696895892575500,1.488575439453125,-2.5318450927734375,-1.3216094970703125,-0.0425872802734375
1772696895902546700,1.498546630859375,-2.4868621826171875,-1.2779693603515625,-0.0223388671875
1772696895912517600,1.508517578125,-2.41522216796875,-1.21856689453125,-0.0218658447265625
1772696895922488600,1.518488525390625,-2.3017120361328125,-1.1556549072265625,-0.034332275390625
1772696895932459500,1.52845947265625,-2.1468658447265625,-1.096160888671875,-0.0693359375
1772696895942429400,1.538429443359375,-1.972259521484375,-1.05194091796875,-0.0758514404296875
1772696895952400400,1.548400390625,-1.8052215576171875,-1.0153656005859375,-0.0392303466796875
1772696895962371600,1.55837158203125,-1.633636474609375,-0.9672393798828125,0.0288238525390625
1772696895972342500,1.568342529296875,-1.466217041015625,-0.89739990234375,0.1094512939453125
1772696895982313700,1.578313720703125,-1.296905517578125,-0.8276214599609375,0.1609344482421875
1772696895992283600,1.58828369140625,-1.10467529296875,-0.7440338134765625,0.166290283203125
1772696896002254600,1.598254638671875,-0.9177703857421875,-0.665313720703125,0.1335906982421875
1772696896012225500,1.6082255859375,-0.7539520263671875,-0.5732879638671875,0.06719970703125
1772696896022196500,1.618196533203125,-0.6132965087890625,-0.481903076171875,-0.0090789794921875
1772696896032167400,1.62816748046875,-0.4959259033203125,-0.3662872314453125,-0.07452392578125
1772696896042137600,1.6381376953125,-0.393157958984375,-0.241119384765625,-0.1276397705078125
1772696896052108500,1.648108642578125,-0.3166961669921875,-0.1372528076171875,-0.1130218505859375
1772696896062079500,1.65807958984375,-0.2518463134765625,-0.0389251708984375,-0.087615966796875
1772696896072050700,1.66805078125,-0.149505615234375,0.0158538818359375,-0.041748046875
1772696896082021400,1.678021484375,-0.0943450927734375,0.089874267578125,-0.020965576171875
1772696896091991600,1.687991455078125,0.0006103515625,0.1171112060546875,0.0385894775390625
1772696896101962500,1.69796240234375,0.0098419189453125,0.12591552734375,0.0505828857421875
1772696896111933400,1.707933349609375,0.0702362060546875,0.1353912353515625,0.07354736328125
1772696896121904600,1.717904541015625,0.0751495361328125,0.128875732421875,0.0838623046875
1772696896131874600,1.72787451171875,0.114593505859375,0.1233673095703125,0.0936126708984375
1772696896141845500,1.737845458984375,0.1318359375,0.1053924560546875,0.1202239990234375
1772696896151816700,1.747816650390625,0.131988525390625,0.0707244873046875,0.1510009765625
1772696896161787400,1.757787353515625,0.1208648681640625,0.051513671875,0.1371917724609375
1772696896171758600,1.767758544921875,0.1165008544921875,0.0458221435546875,0.0972900390625
1772696896181728500,1.777728515625,0.1039276123046875,0.0482940673828125,0.06341552734375
1772696896191699500,1.787699462890625,0.0697174072265625,0.0462799072265625,0.0186920166015625
1772696896201670700,1.797670654296875,0.0190887451171875,0.0542449951171875,-0.011383056640625
1772696896211641600,1.8076416015625,-0.0136871337890625,0.052337646484375,-0.0373687744140625
1772696896221612500,1.817612548828125,-0.0385589599609375,0.030853271484375,-0.05047607421875
1772696896231582700,1.827582763671875,-0.06951904296875,-0.00750732421875,-0.0418853759765625
1772696896241553700,1.8375537109375,-0.1002349853515625,-0.042449951171875,-0.0196685791015625
1772696896251524400,1.8475244140625,-0.1363677978515625,-0.0817718505859375,0.017578125
1772696896261495600,1.85749560546875,-0.1888580322265625,-0.1514739990234375,0.0546875
1772696896271466500,1.867466552734375,-0.2728424072265625,-0.2284088134765625,0.0780029296875
1772696896281432300,1.877432373046875,-0.39385986328125,-0.2836761474609375,0.0862884521484375
1772696896291403300,1.8874033203125,-0.519683837890625,-0.3171234130859375,0.03759765625
1772696896301374500,1.89737451171875,-0.666961669921875,-0.3526611328125,-0.013458251953125
1772696896311345400,1.907345458984375,-0.8611907958984375,-0.400299072265625,-0.0569915771484375
1772696896321316600,1.917316650390625,-1.061737060546875,-0.4644775390625,-0.06591796875
1772696896331286500,1.92728662109375,-1.24578857421875,-0.5294036865234375,-0.0642852783203125
1772696896341257200,1.93725732421875,-1.4576568603515625,-0.56170654296875,-0.064727783203125
1772696896351228400,1.947228515625,-1.6927337646484375,-0.584869384765625,-0.0592498779296875
1772696896361199400,1.957199462890625,-1.8929595947265625,-0.6188812255859375,-0.02850341796875
1772696896371170300,1.96717041015625,-2.0589447021484375,-0.6673431396484375,0.001617431640625
1772696896381140500,1.977140380859375,-2.1913604736328125,-0.7294158935546875,-0.014862060546875
1772696896391111400,1.987111328125,-2.32415771484375,-0.8025054931640625,-0.0426788330078125
1772696896401082400,1.997082275390625,-2.4247589111328125,-0.89569091796875,-0.0684967041015625
1772696896411053300,2.00705322265625,-2.4806365966796875,-0.9663238525390625,-0.080291748046875
1772696896421024300,2.017024169921875,-2.508697509765625,-1.0118255615234375,-0.0883026123046875
1772696896430994200,2.026994140625,-2.504364013671875,-1.0173492431640625,-0.100189208984375
1772696896440965400,2.03696533203125,-2.4456634521484375,-0.9740142822265625,-0.10546875
1772696896450936300,2.046936279296875,-2.34661865234375,-0.8977203369140625,-0.0830230712890625
1772696896460907500,2.056907470703125,-2.205413818359375,-0.829376220703125,-0.0413970947265625
1772696896470878500,2.06687841796875,-2.0211944580078125,-0.7730712890625,-0.014556884765625
1772696896480848400,2.076848388671875,-1.8128662109375,-0.735748291015625,0.0001220703125
1772696896490819300,2.0868193359375,-1.6019287109375,-0.6984405517578125,-0.003662109375
1772696896500790300,2.096790283203125,-1.411346435546875,-0.6628875732421875,-0.0200958251953125
1772696896510761200,2.10676123046875,-1.25408935546875,-0.594879150390625,-0.041748046875
1772696896520732400,2.116732421875,-1.13995361328125,-0.4933013916015625,-0.0607452392578125
1772696896530702300,2.126702392578125,-1.01763916015625,-0.3827056884765625,-0.0915374755859375
1772696896540673500,2.136673583984375,-0.91015625,-0.303436279296875,-0.0927886962890625
1772696896550644500,2.14664453125,-0.81768798828125,-0.2351226806640625,-0.086212158203125
1772696896560615400,2.156615478515625,-0.7214202880859375,-0.1534881591796875,-0.1067657470703125
1772696896570585600,2.166585693359375,-0.628204345703125,-0.083892822265625,-0.1237945556640625
1772696896580556300,2.176556396484375,-0.5254669189453125,-0.038238525390625,-0.1334381103515625
1772696896590527200,2.18652734375,-0.428253173828125,-0.009765625,-0.1190948486328125
1772696896600498400,2.19649853515625,-0.3313140869140625,0.011138916015625,-0.1003875732421875
1772696896610469400,2.206469482421875,-0.2272186279296875,0.0219268798828125,-0.073516845703125
1772696896620439300,2.216439208984375,-0.1397247314453125,0.0355377197265625,-0.0409698486328125
1772696896630410500,2.226410400390625,-0.074554443359375,0.0450897216796875,0.0041656494140625
1772696896640381400,2.23638134765625,-0.0246124267578125,0.0544586181640625,0.05560302734375
1772696896650352400,2.246352294921875,0.0125885009765625,0.0615692138671875,0.105621337890625
1772696896660323300,2.2563232421875,0.0455322265625,0.065185546875,0.13104248046875
1772696896670293200,2.266293212890625,0.0656585693359375,0.060516357421875,0.1447601318359375
1772696896680264400,2.276264404296875,0.07086181640625,0.050048828125,0.162445068359375
1772696896690235400,2.2862353515625,0.0617523193359375,0.0424346923828125,0.1635589599609375
1772696896700206300,2.296206298828125,0.04095458984375,0.0443878173828125,0.147857666015625
1772696896710177500,2.306177490234375,0.0133819580078125,0.045501708984375,0.1227264404296875
1772696896720147500,2.3161474609375,-0.0360870361328125,0.050018310546875,0.0836639404296875
1772696896730118400,2.326118408203125,-0.0755767822265625,0.051025390625,0.0423126220703125
1772696896740089300,2.33608935546875,-0.11572265625,0.0414276123046875,-0.012725830078125
1772696896750060300,2.346060302734375,-0.1534881591796875,0.0101318359375,-0.0513763427734375
1772696896760031500,2.356031494140625,-0.18414306640625,-0.0338592529296875,-0.080657958984375
1772696896770001400,2.36600146484375,-0.2092437744140625,-0.08062744140625,-0.0890350341796875
1772696896779972400,2.375972412109375,-0.2482452392578125,-0.1185302734375,-0.082489013671875
1772696896789943600,2.385943603515625,-0.312408447265625,-0.1610107421875,-0.0677032470703125
1772696896799914200,2.395914306640625,-0.384674072265625,-0.2589111328125,-0.0176849365234375
1772696896809885200,2.40588525390625,-0.4891204833984375,-0.359771728515625,0.040252685546875
1772696896819855400,2.41585546875,-0.622955322265625,-0.4199371337890625,0.0377960205078125
1772696896829826300,2.425826416015625,-0.7856292724609375,-0.4615020751953125,-0.0101318359375
1772696896839797200,2.43579736328125,-0.984344482421875,-0.504119873046875,-0.0262451171875
1772696896849768400,2.4457685546875,-1.1653900146484375,-0.540740966796875,-0.0357818603515625
1772696896859739400,2.455739501953125,-1.332122802734375,-0.53509521484375,-0.0662384033203125
1772696896869709600,2.46570947265625,-1.5213165283203125,-0.527374267578125,-0.0514678955078125
1772696896879680500,2.475680419921875,-1.6939849853515625,-0.550628662109375,0.003143310546875
1772696896889651200,2.485651123046875,-1.863433837890625,-0.57293701171875,0.03387451171875
1772696896899622400,2.495622314453125,-2.036285400390625,-0.615447998046875,0.0600128173828125
1772696896909592300,2.50559228515625,-2.18731689453125,-0.66522216796875,0.0566253662109375
1772696896919563300,2.515563232421875,-2.298248291015625,-0.72552490234375,0.0124969482421875
1772696896929534500,2.525534423828125,-2.3896636962890625,-0.7893829345703125,-0.0045013427734375
1772696896939505400,2.53550537109375,-2.4209747314453125,-0.8515777587890625,-0.0078125
1772696896949476600,2.5454765625,-2.439208984375,-0.9048919677734375,0.0246429443359375
1772696896959446500,2.555446533203125,-2.4759368896484375,-0.9496612548828125,0.0453033447265625
1772696896969417200,2.565417236328125,-2.48114013671875,-0.980987548828125,0.0308380126953125
1772696896979388400,2.575388427734375,-2.44805908203125,-0.9921722412109375,0.0142364501953125
1772696896989359400,2.585359375,-2.3713836669921875,-0.9702911376953125,-0.0095672607421875
1772696896999330300,2.595330322265625,-2.2456512451171875,-0.9380035400390625,-0.032501220703125
1772696897009300500,2.605300537109375,-2.09356689453125,-0.9095916748046875,-0.051788330078125
1772696897019271400,2.615271484375,-1.9276123046875,-0.871734619140625,-0.06451416015625
1772696897029242400,2.625242431640625,-1.749359130859375,-0.8119049072265625,-0.0712127685546875
1772696897039213300,2.63521337890625,-1.548095703125,-0.742431640625,-0.06207275390625
1772696897049184300,2.645184326171875,-1.334259033203125,-0.682647705078125,-0.0496368408203125
1772696897059154200,2.655154296875,-1.1436309814453125,-0.6263885498046875,-0.0355072021484375
1772696897069125400,2.66512548828125,-0.9525909423828125,-0.549652099609375,-0.04541015625
1772696897079096300,2.675096435546875,-0.770477294921875,-0.4586029052734375,-0.0618438720703125
1772696897089067500,2.685067626953125,-0.59173583984375,-0.3701019287109375,-0.0689239501953125
1772696897099038500,2.69503857421875,-0.44427490234375,-0.279052734375,-0.0755767822265625
1772696897109008400,2.70500830078125,-0.3437042236328125,-0.1846160888671875,-0.0806732177734375
1772696897118979300,2.714979248046875,-0.250823974609375,-0.0909881591796875,-0.0884246826171875
1772696897128950300,2.7249501953125,-0.16943359375,-0.009185791015625,-0.083740234375
1772696897138921200,2.734921142578125,-0.1016845703125,0.0524444580078125,-0.0433502197265625
1772696897148892400,2.744892333984375,-0.0290374755859375,0.0949249267578125,0.01971435546875
1772696897158862300,2.7548623046875,0.0382232666015625,0.1374664306640625,0.088653564453125
1772696897168833500,2.76483349609375,0.09149169921875,0.167510986328125,0.147369384765625
1772696897178804500,2.774804443359375,0.1292266845703125,0.178131103515625,0.1959381103515625
1772696897188775400,2.784775390625,0.160888671875,0.173309326171875,0.22222900390625
1772696897198745600,2.79474560546875,0.187469482421875,0.1579437255859375,0.2379913330078125
1772696897208716300,2.80471630859375,0.18878173828125,0.136444091796875,0.25067138671875
1772696897218687200,2.814687255859375,0.1834716796875,0.1031646728515625,0.2691650390625
1772696897228658400,2.824658447265625,0.174163818359375,0.089263916015625,0.2574920654296875
1772696897238629400,2.83462939453125,0.1530303955078125,0.098419189453125,0.23480224609375
1772696897248599300,2.844599365234375,0.118927001953125,0.1118316650390625,0.201263427734375
1772696897258570500,2.854570556640625,0.080535888671875,0.1203460693359375,0.1515655517578125
1772696897268541400,2.86454150390625,0.025543212890625,0.1257476806640625,0.1198883056640625
1772696897278512000,2.87451220703125,-0.036285400390625,0.127227783203125,0.1017608642578125
1772696897288483000,2.884483154296875,-0.0850830078125,0.118927001953125,0.078521728515625
1772696897298453200,2.894453369140625,-0.14300537109375,0.1054229736328125,0.0566558837890625
1772696897308424200,2.904424072265625,-0.1898193359375,0.0768890380859375,0.0207672119140625
1772696897318395100,2.91439501953125,-0.2572174072265625,0.0273284912109375,-0.0105133056640625
1772696897328366300,2.924366455078125,-0.3344879150390625,-0.0573272705078125,-0.02337646484375
1772696897338337300,2.934337158203125,-0.4167633056640625,-0.194305419921875,0.0102691650390625
1772696897348307200,2.94430712890625,-0.4942474365234375,-0.3559112548828125,0.0611419677734375
1772696897358278400,2.9542783203125,-0.5953521728515625,-0.5055999755859375,0.1097412109375
1772696897368249000,2.9642490234375,-0.73388671875,-0.6426849365234375,0.120758056640625
1772696897378220300,2.97422021484375,-0.9203643798828125,-0.753387451171875,0.09307861328125
1772696897388191200,2.984191162109375,-1.1363067626953125,-0.8354644775390625,0.0789794921875
1772696897398161200,2.9941611328125,-1.32659912109375,-0.9465484619140625,0.077117919921875
1772696897408132400,3.00413232421875,-1.5587615966796875,-1.00372314453125,0.05621337890625
1772696897418103300,3.014103271484375,-1.798431396484375,-1.01971435546875,0.0480194091796875
1772696897428074200,3.02407421875,-1.99456787109375,-1.026641845703125,0.04559326171875
1772696897438045200,3.034045166015625,-2.15948486328125,-1.0425872802734375,0.0287933349609375
1772696897448015000,3.04401513671875,-2.348114013671875,-1.0855712890625,0.0243988037109375
1772696897457986300,3.053986328125,-2.468353271484375,-1.1027069091796875,0.0390777587890625
1772696897467957200,3.063957275390625,-2.4963531494140625,-1.1509552001953125,0.0397186279296875
1772696897477928200,3.07392822265625,-2.4777679443359375,-1.2065887451171875,0.067657470703125
1772696897487898400,3.0838984375,-2.475616455078125,-1.2396392822265625,0.1252899169921875
1772696897497869300,3.093869384765625,-2.4564666748046875,-1.2352752685546875,0.1350250244140625
1772696897507840300,3.10384033203125,-2.4098358154296875,-1.187774658203125,0.1075592041015625
1772696897517811200,3.113811279296875,-2.3095550537109375,-1.10931396484375,0.0634613037109375
1772696897527782100,3.1237822265625,-2.1709136962890625,-1.0223541259765625,0.056732177734375
1772696897537752000,3.133751953125,-1.9896240234375,-0.9454193115234375,0.0781707763671875
1772696897547723300,3.14372314453125,-1.76715087890625,-0.8831939697265625,0.120574951171875
1772696897557694200,3.153694091796875,-1.5274200439453125,-0.830902099609375,0.157989501953125
1772696897567665400,3.16366552734375,-1.271697998046875,-0.79010009765625,0.176361083984375
1772696897577636400,3.17363623046875,-1.01702880859375,-0.7525482177734375,0.1832275390625
1772696897587606300,3.183606201171875,-0.781585693359375,-0.69195556640625,0.1774139404296875
1772696897597577200,3.1935771484375,-0.583251953125,-0.5965728759765625,0.1484222412109375
1772696897607548200,3.203548095703125,-0.4082183837890625,-0.455535888671875,0.085052490234375
1772696897617519000,3.21351904296875,-0.285369873046875,-0.2912750244140625,-0.0029144287109375
1772696897627490300,3.223490234375,-0.212799072265625,-0.141021728515625,-0.0820770263671875
1772696897637460200,3.233460205078125,-0.1619873046875,-0.01983642578125,-0.1373138427734375
1772696897647431200,3.24343115234375,-0.1255950927734375,0.0678558349609375,-0.1428070068359375
1772696897657402400,3.25340234375,-0.0851898193359375,0.12750244140625,-0.096343994140625
1772696897667373000,3.263373046875,-0.0321197509765625,0.158294677734375,-0.0220184326171875
1772696897677344300,3.27334423828125,0.02117919921875,0.177001953125,0.0544586181640625
1772696897687314200,3.283314208984375,0.0506591796875,0.19207763671875,0.111328125
1772696897697285000,3.29328515625,0.0775604248046875,0.1796417236328125,0.1524200439453125
1772696897707256300,3.30325634765625,0.103729248046875,0.1639862060546875,0.174957275390625
1772696897717227300,3.313227294921875,0.110107421875,0.138397216796875,0.1885223388671875
1772696897727197200,3.323197265625,0.10516357421875,0.115386962890625,0.1999053955078125
1772696897737168400,3.33316845703125,0.095367431640625,0.1002197265625,0.19476318359375
1772696897747139300,3.343139404296875,0.061279296875,0.1118316650390625,0.1717071533203125
1772696897757110300,3.3531103515625,0.030364990234375,0.1378021240234375,0.143310546875
1772696897767081200,3.363081298828125,0.0000457763671875,0.1573944091796875,0.1049346923828125
1772696897777051100,3.373051025390625,-0.022491455078125,0.16693115234375,0.066650390625
1772696897787022300,3.383022216796875,-0.0534210205078125,0.169952392578125,0.0305633544921875
1772696897796993300,3.3929931640625,-0.0793609619140625,0.15985107421875,-0.0041351318359375
1772696897806964200,3.402964111328125,-0.1083831787109375,0.12786865234375,-0.04345703125
1772696897816935400,3.412935302734375,-0.1508636474609375,0.073974609375,-0.0530548095703125
1772696897826905300,3.4229052734375,-0.181488037109375,-0.013397216796875,-0.0418548583984375
1772696897836876000,3.4328759765625,-0.2386322021484375,-0.107177734375,-0.0023956298828125
1772696897846847200,3.44284716796875,-0.3233184814453125,-0.1916046142578125,0.0315093994140625
1772696897856818200,3.452818115234375,-0.4121246337890625,-0.2915191650390625,0.0738525390625
1772696897866789400,3.462789306640625,-0.552032470703125,-0.3880615234375,0.0972137451171875
1772696897876759300,3.47275927734375,-0.7350311279296875,-0.4906768798828125,0.100738525390625
1772696897886730200,3.482730224609375,-0.9763336181640625,-0.5864410400390625,0.10400390625
1772696897896701400,3.492701416015625,-1.2076416015625,-0.69873046875,0.13043212890625
1772696897906672000,3.502672119140625,-1.396942138671875,-0.8092498779296875,0.14306640625
1772696897916643000,3.51264306640625,-1.608306884765625,-0.88409423828125,0.1273956298828125
1772696897926613200,3.52261328125,-1.828765869140625,-0.9405517578125,0.091583251953125
1772696897936584200,3.532584228515625,-2.048248291015625,-0.9838409423828125,0.03173828125
1772696897946555100,3.54255517578125,-2.2522735595703125,-1.0267791748046875,0.0020294189453125
1772696897956526300,3.5525263671875,-2.441131591796875,-1.059722900390625,-0.00775146484375
1772696897966496300,3.562496337890625,-2.54522705078125,-1.05377197265625,-0.040008544921875
1772696897976467200,3.57246728515625,-2.571319580078125,-1.0575103759765625,-0.0709686279296875
1772696897986438400,3.5824384765625,-2.563690185546875,-1.0888671875,-0.010406494140625
1772696897996409000,3.5924091796875,-2.540191650390625,-1.117584228515625,0.097686767578125
1772696898006380300,3.60238037109375,-2.52532958984375,-1.134246826171875,0.1985015869140625
1772696898016350200,3.61235009765625,-2.4723358154296875,-1.117584228515625,0.243499755859375
1772696898026321200,3.622321044921875,-2.3686370849609375,-1.0556488037109375,0.2238311767578125
1772696898036292400,3.632292236328125,-2.218048095703125,-0.984771728515625,0.1805572509765625
1772696898046263300,3.64226318359375,-2.039825439453125,-0.931732177734375,0.1569366455078125
1772696898056234200,3.652234130859375,-1.8209381103515625,-0.905181884765625,0.1646575927734375
1772696898066204400,3.662204345703125,-1.5756378173828125,-0.884918212890625,0.19244384765625
1772696898076175000,3.672175048828125,-1.32452392578125,-0.8486328125,0.213623046875
1772696898086146300,3.682146240234375,-1.08465576171875,-0.8034515380859375,0.2177734375
1772696898096117200,3.6921171875,-0.8705902099609375,-0.7455596923828125,0.19866943359375
1772696898106088200,3.702088134765625,-0.6893157958984375,-0.6602783203125,0.145263671875
1772696898116058400,3.712058349609375,-0.547149658203125,-0.5419464111328125,0.057464599609375
1772696898126029300,3.722029296875,-0.4421539306640625,-0.389251708984375,-0.0396728515625
1772696898136000300,3.732000244140625,-0.3633575439453125,-0.237060546875,-0.12518310546875
1772696898145971200,3.74197119140625,-0.2774505615234375,-0.1219482421875,-0.1640472412109375
1772696898155941000,3.751941162109375,-0.211395263671875,-0.0266571044921875,-0.1688385009765625
1772696898165912000,3.761912109375,-0.1602783203125,0.0505218505859375,-0.157745361328125
1772696898175883300,3.77188330078125,-0.100341796875,0.1060028076171875,-0.122528076171875
1772696898185854200,3.781854248046875,-0.056640625,0.1438751220703125,-0.07904052734375
1772696898195825400,3.791825439453125,-0.030914306640625,0.1691436767578125,-0.0228729248046875
1772696898205795300,3.80179541015625,0.0123748779296875,0.1796417236328125,0.025634765625
1772696898215766300,3.811766357421875,0.0425872802734375,0.1818695068359375,0.0555419921875
1772696898225737200,3.8217373046875,0.067352294921875,0.165771484375,0.100341796875
1772696898235708200,3.831708251953125,0.0877838134765625,0.1348114013671875,0.1284027099609375
1772696898245679000,3.84167919921875,0.10516357421875,0.1051483154296875,0.1343536376953125
1772696898255649300,3.851649169921875,0.12066650390625,0.0819854736328125,0.109893798828125
1772696898265620200,3.8616201171875,0.132598876953125,0.0684661865234375,0.0792236328125
1772696898275591200,3.871591064453125,0.136444091796875,0.062530517578125,0.0472259521484375
1772696898285563000,3.88156298828125,0.1255645751953125,0.0504302978515625,0.01708984375
1772696898295533600,3.891533447265625,0.1234283447265625,0.061004638671875,-0.0153961181640625
1772696898305503700,3.901503662109375,0.0870208740234375,0.0770721435546875,-0.0352020263671875
1772696898315474700,3.911474609375,0.0238800048828125,0.0848846435546875,-0.0571136474609375
1772696898325445600,3.921445556640625,-0.05438232421875,0.10107421875,-0.0596160888671875
1772696898335416800,3.931416748046875,-0.12286376953125,0.090972900390625,-0.0571441650390625
1772696898345387800,3.9413876953125,-0.192413330078125,0.072235107421875,-0.0682220458984375
1772696898355357700,3.951357666015625,-0.246612548828125,0.0378265380859375,-0.0768890380859375
1772696898365329000,3.961328857421875,-0.3249053955078125,-0.032623291015625,-0.0499114990234375
1772696898375299600,3.971299560546875,-0.45147705078125,-0.1209869384765625,-0.0135650634765625
1772696898385270800,3.981270751953125,-0.5702362060546875,-0.2427978515625,0.020233154296875
1772696898395240700,3.99124072265625,-0.7092132568359375,-0.3854827880859375,0.0616455078125
1772696898405211600,4.001211669921875,-0.8912811279296875,-0.533416748046875,0.08416748046875
1772696898415182800,4.011182861328125,-1.1290130615234375,-0.6608123779296875,0.0869293212890625
1772696898425153800,4.02115380859375,-1.3883819580078125,-0.7583770751953125,0.0494537353515625
1772696898435124700,4.031124755859375,-1.626312255859375,-0.831512451171875,-0.000213623046875
1772696898445095000,4.041094970703125,-1.848052978515625,-0.878570556640625,-0.0344085693359375
1772696898455065600,4.051065673828125,-2.07275390625,-0.90423583984375,-0.0664215087890625
1772696898465036800,4.061036865234375,-2.282318115234375,-0.9468841552734375,-0.0616607666015625
1772696898475007700,4.0710078125,-2.4025115966796875,-1.011993408203125,-0.03680419921875
1772696898484978700,4.080978759765625,-2.494720458984375,-1.0570526123046875,0.0021514892578125
1772696898494948900,4.090948974609375,-2.5792999267578125,-1.129058837890625,0.0362396240234375
1772696898504919800,4.100919921875,-2.5665283203125,-1.237030029296875,0.0416412353515625
1772696898514890800,4.110890869140625,-2.4996185302734375,-1.3377227783203125,0.07366943359375
1772696898524861700,4.12086181640625,-2.425811767578125,-1.4176788330078125,0.1104278564453125
1772696898534832600,4.13083251953125,-2.3383636474609375,-1.4576416015625,0.15191650390625
1772696898544802600,4.140802490234375,-2.2133026123046875,-1.451812744140625,0.17828369140625
1772696898554773800,4.150773681640625,-2.0712890625,-1.3973846435546875,0.1923980712890625
1772696898564744700,4.16074462890625,-1.9033203125,-1.3047332763671875,0.18731689453125
1772696898574716000,4.1707158203125,-1.7234344482421875,-1.2125701904296875,0.1830902099609375
1772696898584686800,4.180686767578125,-1.5400238037109375,-1.1329193115234375,0.1969451904296875
1772696898594656800,4.19065673828125,-1.366119384765625,-1.048370361328125,0.2111053466796875
1772696898604628000,4.2006279296875,-1.20111083984375,-0.9461669921875,0.2117767333984375
1772696898614598700,4.2105986328125,-1.035369873046875,-0.846221923828125,0.2086181640625
1772696898624569600,4.220569580078125,-0.8851776123046875,-0.7444305419921875,0.1873321533203125
1772696898634539800,4.230539794921875,-0.7446136474609375,-0.6319580078125,0.1631927490234375
1772696898644510700,4.2405107421875,-0.62451171875,-0.5210113525390625,0.1327972412109375
1772696898654481700,4.250481689453125,-0.567413330078125,-0.3673858642578125,0.0830841064453125
1772696898664452900,4.260452880859375,-0.512542724609375,-0.2103729248046875,-0.0152130126953125
1772696898674423800,4.270423828125,-0.45343017578125,-0.087615966796875,-0.0703125
1772696898684393700,4.280393798828125,-0.3687286376953125,-0.0320281982421875,-0.069183349609375
1772696898694364700,4.29036474609375,-0.2961883544921875,0.043914794921875,-0.1065673828125
1772696898704335600,4.300335693359375,-0.20379638671875,0.0921173095703125,-0.089630126953125
1772696898714306800,4.310306884765625,-0.119903564453125,0.104095458984375,-0.04351806640625
1772696898724277800,4.32027783203125,-0.0443115234375,0.10467529296875,-0.02032470703125
1772696898734247700,4.33024755859375,0.0381011962890625,0.1115875244140625,0.0068511962890625
1772696898744219000,4.340218994140625,0.076446533203125,0.1209869384765625,0.0099639892578125
1772696898754189800,4.35018994140625,0.10223388671875,0.1333160400390625,0.023529052734375
1772696898764160500,4.360160400390625,0.15118408203125,0.1027069091796875,0.052001953125
1772696898774131700,4.370131591796875,0.2023468017578125,0.052734375,0.0975799560546875
1772696898784101600,4.3801015625,0.1220550537109375,0.071746826171875,0.06524658203125
1772696898794072800,4.39007275390625,0.126007080078125,0.1047821044921875,0.060211181640625
1772696898804043800,4.400043701171875,0.0230255126953125,0.1460723876953125,-0.0237274169921875
1772696898814014700,4.4100146484375,-0.106842041015625,0.261871337890625,-0.110748291015625
1772696898823985000,4.41998486328125,0.063140869140625,0.16790771484375,-0.031280517578125
1772696898833955800,4.429955810546875,0.089935302734375,0.13720703125,-0.08721923828125
1772696898843926800,4.4399267578125,0.0755767822265625,0.1360626220703125,-0.0878448486328125
1772696898853897700,4.449897705078125,0.1010284423828125,0.1171417236328125,-0.0653533935546875
1772696898863868700,4.45986865234375,0.2037506103515625,0.104339599609375,-0.0315093994140625
1772696898873838600,4.469838623046875,0.206298828125,0.0780181884765625,-0.0187530517578125
1772696898883809800,4.479809814453125,0.1486358642578125,0.020172119140625,-0.009674072265625
1772696898893780700,4.48978076171875,0.1126708984375,-0.0884552001953125,0.05169677734375
1772696898903752000,4.499751953125,0.122222900390625,-0.2032318115234375,0.082489013671875
1772696898913723000,4.509722900390625,0.0759735107421875,-0.3416290283203125,0.171722412109375
1772696898923692800,4.51969287109375,-0.17449951171875,-0.4841766357421875,0.39556884765625
1772696898933663700,4.529663818359375,-0.4531707763671875,-0.565338134765625,0.4231719970703125
1772696898943634700,4.539634765625,-0.6905975341796875,-0.6039276123046875,0.3312530517578125
1772696898953605600,4.549605712890625,-0.896636962890625,-0.6431427001953125,0.27606201171875
1772696898963575800,4.559575927734375,-1.267333984375,-0.7038421630859375,0.1755828857421875
1772696898973546800,4.569546630859375,-1.7371063232421875,-0.6541290283203125,-0.0140228271484375
1772696898983517700,4.579517578125,-2.159576416015625,-0.512939453125,-0.2444305419921875
1772696898993489000,4.589489013671875,-2.409515380859375,-0.3662261962890625,-0.42706298828125
1772696899003459600,4.59945947265625,-2.641448974609375,-0.235504150390625,-0.49737548828125
1772696899013429800,4.6094296875,-2.893707275390625,-0.1190185546875,-0.4969329833984375
1772696899023400700,4.619400634765625,-3.160430908203125,-0.018341064453125,-0.4352569580078125
1772696899033371600,4.62937158203125,-3.3082427978515625,0.032867431640625,-0.428955078125
1772696899043342800,4.6393427734375,-3.2804718017578125,0.064727783203125,-0.4215545654296875
1772696899053313800,4.649313720703125,-3.1839141845703125,0.0930023193359375,-0.35992431640625
1772696899063283700,4.65928369140625,-3.0988616943359375,0.07635498046875,-0.2139434814453125
1772696899073255000,4.6692548828125,-2.947021484375,0.08428955078125,-0.09075927734375
1772696899083225600,4.6792255859375,-2.7556304931640625,0.0487060546875,0.000701904296875
1772696899093196800,4.68919677734375,-2.5294647216796875,0.0294647216796875,0.08050537109375
1772696899103167700,4.699167724609375,-2.2562255859375,-0.014739990234375,0.150726318359375
1772696899113137700,4.7091376953125,-1.9282989501953125,-0.074127197265625,0.163970947265625
1772696899123108900,4.71910888671875,-1.6024627685546875,-0.123992919921875,0.1396331787109375
1772696899133079800,4.729079833984375,-1.31427001953125,-0.17510986328125,0.12030029296875
1772696899143050800,4.73905078125,-1.0699310302734375,-0.206787109375,0.1006622314453125
1772696899153021000,4.74902099609375,-0.867919921875,-0.1880035400390625,0.0904541015625
1772696899162991900,4.758991943359375,-0.7212371826171875,-0.0906982421875,0.0798187255859375
1772696899172962600,4.768962646484375,-0.560150146484375,0.0391693115234375,0.0325469970703125
1772696899182933800,4.778933837890625,-0.430999755859375,0.1343231201171875,-0.02618408203125
1772696899192904700,4.78890478515625,-0.3594970703125,0.2060089111328125,-0.03936767578125
1772696899202874600,4.79887451171875,-0.2255859375,0.2371063232421875,-0.050933837890625
1772696899212845800,4.808845703125,-0.1063079833984375,0.2067108154296875,-0.04156494140625
1772696899222816800,4.818816650390625,-0.0419158935546875,0.1615753173828125,-0.007568359375
1772696899232788000,4.8287880859375,0.0051727294921875,0.134521484375,0.0325927734375
1772696899242758700,4.838758544921875,0.060211181640625,0.10089111328125,0.0545196533203125
1772696899252728600,4.848728515625,0.0830841064453125,0.1103057861328125,0.0437164306640625
1772696899262699800,4.85869970703125,0.097991943359375,0.0908660888671875,0.050750732421875
1772696899272670700,4.868670654296875,0.1478424072265625,0.05474853515625,0.080810546875
1772696899282642400,4.878642333984375,0.1985626220703125,0.017669677734375,0.1047821044921875
1772696899292612400,4.8886123046875,0.161041259765625,-0.0206451416015625,0.1197052001953125
1772696899302583600,4.89858349609375,0.1732635498046875,-0.05230712890625,0.119964599609375
1772696899312554200,4.90855419921875,0.2044830322265625,-0.0749053955078125,0.112274169921875
1772696899322525400,4.918525390625,0.161163330078125,-0.0763702392578125,0.1082916259765625
1772696899332496400,4.928496337890625,0.1258697509765625,-0.0701904296875,0.094879150390625
1772696899342466300,4.93846630859375,0.10894775390625,-0.0537567138671875,0.0646514892578125
1772696899352437500,4.9484375,0.0854949951171875,-0.057525634765625,0.036376953125
1772696899362408400,4.958408447265625,0.0647735595703125,-0.0655517578125,-0.00543212890625
1772696899372379400,4.96837939453125,0.0409698486328125,-0.0521087646484375,-0.076202392578125
1772696899382350300,4.978350341796875,0.00390625,-0.0550384521484375,-0.1378936767578125
1772696899392320500,4.988320556640625,-0.0407257080078125,-0.07073974609375,-0.1554718017578125
1772696899402291500,4.99829150390625,-0.1263275146484375,-0.0607147216796875,-0.1242523193359375
1772696899412262400,5.008262451171875,-0.239410400390625,-0.0773468017578125,-0.0700225830078125
1772696899422233300,5.0182333984375,-0.30267333984375,-0.132293701171875,-0.035888671875
1772696899432204500,5.02820458984375,-0.4033203125,-0.1635894775390625,-0.0210418701171875
1772696899442174500,5.038174560546875,-0.6132049560546875,-0.1774444580078125,0.0427703857421875
1772696899452145400,5.0481455078125,-0.8761444091796875,-0.2155609130859375,0.11370849609375
1772696899462116400,5.058116455078125,-1.14007568359375,-0.2620849609375,0.1890106201171875
1772696899472087300,5.06808740234375,-1.44293212890625,-0.328399658203125,0.2593994140625
1772696899482057200,5.07805712890625,-1.7786712646484375,-0.3607635498046875,0.2242431640625
1772696899492028400,5.0880283203125,-2.17633056640625,-0.2794952392578125,0.0879058837890625
1772696899501999400,5.097999267578125,-2.6396331787109375,-0.107025146484375,-0.120758056640625
1772696899511970600,5.107970458984375,-3.0319976806640625,0.10614013671875,-0.371307373046875
1772696899521941500,5.11794140625,-3.3354949951171875,0.33575439453125,-0.605499267578125
1772696899531911400,5.127911376953125,-3.597625732421875,0.5201416015625,-0.75030517578125
1772696899541882600,5.137882568359375,-3.7454986572265625,0.6446685791015625,-0.76947021484375
1772696899551853300,5.147853271484375,-3.7021026611328125,0.698883056640625,-0.7218017578125
1772696899561824300,5.15782421875,-3.50286865234375,0.620758056640625,-0.63555908203125
1772696899571795500,5.16779541015625,-3.2718505859375,0.4876556396484375,-0.4447479248046875
1772696899581765400,5.177765380859375,-3.06561279296875,0.3224945068359375,-0.2236785888671875
1772696899591736300,5.187736328125,-2.796234130859375,0.167449951171875,-0.0994873046875
1772696899601707500,5.19770751953125,-2.45599365234375,0.0033111572265625,-0.07086181640625
1772696899611678500,5.207678466796875,-2.1039581298828125,-0.1734619140625,-0.0971527099609375
1772696899621649400,5.2176494140625,-1.7870941162109375,-0.2928466796875,-0.119842529296875
1772696899631619300,5.227619384765625,-1.4940032958984375,-0.3623199462890625,-0.06732177734375
1772696899641590300,5.23759033203125,-1.24932861328125,-0.389678955078125,0.0254058837890625
1772696899651561500,5.2475615234375,-1.114532470703125,-0.3299102783203125,0.0354156494140625
1772696899661532400,5.257532470703125,-0.8994293212890625,-0.2515411376953125,0.1004486083984375
1772696899671502300,5.26750244140625,-0.7264404296875,-0.1637420654296875,0.034912109375
1772696899681473500,5.2774736328125,-0.5634613037109375,-0.04913330078125,-0.0671539306640625
1772696899691444500,5.287444580078125,-0.4417724609375,0.024688720703125,-0.090972900390625
1772696899701415400,5.29741552734375,-0.3657989501953125,0.0816192626953125,-0.070465087890625
1772696899711386400,5.307386474609375,-0.30450439453125,0.1148223876953125,-0.039642333984375
1772696899721356300,5.317356201171875,-0.19970703125,0.1443328857421875,0.037261962890625
1772696899731326500,5.327326416015625,-0.074066162109375,0.1241455078125,0.1021728515625
1772696899741297400,5.33729736328125,0.01983642578125,0.09466552734375,0.07464599609375
1772696899751268400,5.347268310546875,0.1262664794921875,0.11468505859375,-0.00628662109375
1772696899761239600,5.357239501953125,0.1981658935546875,0.103973388671875,-0.069183349609375
1772696899771209500,5.36720947265625,0.2200164794921875,0.104217529296875,-0.0950775146484375
1772696899781180400,5.377180419921875,0.291748046875,0.1179656982421875,-0.030609130859375
1772696899791151600,5.387151611328125,0.312347412109375,0.1006011962890625,0.0603179931640625
1772696899801122300,5.397122314453125,0.21514892578125,0.0532684326171875,0.12890625
1772696899811092500,5.407092529296875,0.09417724609375,0.0445709228515625,0.1536712646484375
1772696899821063400,5.4170634765625,0.118133544921875,0.0522918701171875,0.1590728759765625
1772696899831034400,5.427034423828125,0.2382659912109375,0.0359649658203125,0.1450958251953125
1772696899841005300,5.43700537109375,0.3541107177734375,-0.00006103515625,0.1726531982421875
1772696899850976500,5.4469765625,0.3543243408203125,-0.044403076171875,0.173065185546875
1772696899860946400,5.456946533203125,0.4080047607421875,-0.06671142578125,0.2229766845703125
1772696899870917400,5.46691748046875,0.466583251953125,-0.1300048828125,0.2493896484375
1772696899880888600,5.476888671875,0.43585205078125,-0.1616668701171875,0.216217041015625
1772696899890859300,5.486859375,0.3162689208984375,-0.1051177978515625,0.14227294921875
1772696899900830500,5.49683056640625,0.225341796875,-0.042724609375,0.0788726806640625
1772696899910800400,5.50680029296875,0.1707763671875,-0.0307159423828125,0.0402984619140625
1772696899920771300,5.516771240234375,0.0821990966796875,-0.0416259765625,0.016265869140625
1772696899930742500,5.526742431640625,-0.069183349609375,-0.0380096435546875,0.041473388671875
1772696899940713500,5.53671337890625,-0.2344818115234375,-0.0280914306640625,0.0899810791015625
1772696899950684400,5.546684326171875,-0.3834228515625,-0.0530242919921875,0.123321533203125
1772696899960654600,5.556654541015625,-0.5463409423828125,-0.1395721435546875,0.137542724609375
1772696899970625300,5.566625244140625,-0.7538604736328125,-0.2458343505859375,0.1232757568359375
1772696899980596200,5.57659619140625,-1.044952392578125,-0.262847900390625,0.0600433349609375
1772696899990567400,5.5865673828125,-1.446533203125,-0.1847686767578125,0.00830078125
1772696900000537300,5.596537353515625,-1.84912109375,-0.1223602294921875,-0.0854339599609375
1772696900010508300,5.60650830078125,-2.1616668701171875,-0.0275115966796875,-0.2929229736328125
1772696900020479500,5.6164794921875,-2.447174072265625,0.1091766357421875,-0.6069183349609375
1772696900030450400,5.626450439453125,-2.7805938720703125,0.2025299072265625,-0.959625244140625
1772696900040421400,5.63642138671875,-3.123809814453125,0.2311859130859375,-1.148590087890625
1772696900050391600,5.6463916015625,-3.49566650390625,0.2662506103515625,-1.08966064453125
1772696900060362200,5.6563623046875,-3.8988037109375,0.4238433837890625,-0.9367218017578125
1772696900070333400,5.66633349609375,-4.0351409912109375,0.6165313720703125,-0.869537353515625
1772696900080304400,5.676304443359375,-3.765380859375,0.5682525634765625,-0.759307861328125
1772696900090275600,5.686275634765625,-3.4467926025390625,0.3702239990234375,-0.5117034912109375
1772696900100245500,5.69624560546875,-3.1255035400390625,0.19586181640625,-0.288299560546875
1772696900110216400,5.706216552734375,-2.7646942138671875,0.06671142578125,-0.1605072021484375
1772696900120187600,5.716187744140625,-2.3475799560546875,-0.024444580078125,-0.1634674072265625
1772696900130158300,5.726158447265625,-1.9172515869140625,-0.0404052734375,-0.268218994140625
1772696900140129300,5.73612939453125,-1.5565185546875,-0.03802490234375,-0.27520751953125
1772696900150099500,5.746099365234375,-1.2697296142578125,-0.0558013916015625,-0.2035980224609375
1772696900160070400,5.7560703125,-1.0272979736328125,-0.03045654296875,-0.161163330078125
1772696900170041300,5.766041259765625,-0.8290557861328125,0.0121307373046875,-0.124114990234375
1772696900180012500,5.776012451171875,-0.712738037109375,0.0318756103515625,-0.1279144287109375
1772696900189983500,5.7859833984375,-0.5749359130859375,0.074310302734375,-0.156768798828125
1772696900199953400,5.795953369140625,-0.431182861328125,0.149261474609375,-0.1103973388671875
1772696900209924400,5.80592431640625,-0.28948974609375,0.201019287109375,-0.0132904052734375
1772696900219895300,5.815895263671875,-0.0278167724609375,0.1962432861328125,0.0232696533203125
1772696900229866500,5.825866455078125,0.0634307861328125,0.1492462158203125,0.047119140625
1772696900239836400,5.83583642578125,0.109039306640625,0.0909576416015625,0.089202880859375
1772696900249807400,5.845807373046875,0.1775054931640625,0.072967529296875,0.1110382080078125
1772696900259778600,5.855778564453125,0.1636199951171875,0.0796661376953125,0.061004638671875
1772696900269749500,5.86574951171875,0.16107177734375,0.08056640625,0.0516815185546875
1772696900279720200,5.87572021484375,0.201446533203125,0.065643310546875,0.116607666015625
1772696900289689600,5.885689697265625,0.2207794189453125,0.048553466796875,0.1660003662109375
1772696900299660800,5.895660888671875,0.2220611572265625,0.0286407470703125,0.170928955078125
1772696900309631500,5.905631591796875,0.2567138671875,-0.009918212890625,0.1340179443359375
1772696900319602700,5.915602783203125,0.261199951171875,-0.0351104736328125,0.08538818359375
1772696900329573600,5.92557373046875,0.1678009033203125,-0.015594482421875,0.0760498046875
1772696900339543600,5.93554345703125,0.0454559326171875,0.0287017822265625,0.089019775390625
1772696900349514800,5.9455146484375,0.0319671630859375,0.077972412109375,0.0637664794921875
1772696900359485700,5.955485595703125,0.0858001708984375,0.10577392578125,0.0248565673828125
1772696900369456600,5.96545654296875,0.10955810546875,0.118377685546875,-0.034271240234375
1772696900379427600,5.975427490234375,0.068450927734375,0.13037109375,-0.083251953125
1772696900389398500,5.9853984375,0.018157958984375,0.149932861328125,-0.1341400146484375
1772696900399369700,5.99536962890625,-0.047149658203125,0.1497344970703125,-0.1746368408203125
1772696900409340700,6.005340576171875,-0.136962890625,0.12322998046875,-0.1942596435546875
1772696900419311600,6.0153115234375,-0.273406982421875,0.082427978515625,-0.2660980224609375
1772696900429281800,6.02528173828125,-0.4764556884765625,0.013946533203125,-0.335296630859375
1772696900439252700,6.035252685546875,-0.6902313232421875,-0.1073760986328125,-0.31549072265625
1772696900449223400,6.045223388671875,-0.6738433837890625,-0.273651123046875,-0.2454986572265625
1772696900459194600,6.055194580078125,-0.6849365234375,-0.436248779296875,-0.20977783203125
1772696900469164500,6.06516455078125,-0.88824462890625,-0.54345703125,-0.18292236328125
1772696900479135500,6.075135498046875,-1.1045074462890625,-0.617156982421875,-0.155120849609375
1772696900489106700,6.085106689453125,-1.31854248046875,-0.640960693359375,-0.1722412109375
1772696900499077600,6.09507763671875,-1.57244873046875,-0.6107025146484375,-0.2914886474609375
1772696900509048600,6.105048583984375,-1.959869384765625,-0.561859130859375,-0.4395751953125
1772696900519018800,6.115018798828125,-2.158111572265625,-0.581573486328125,-0.492828369140625
1772696900528989400,6.124989501953125,-2.34515380859375,-0.5481719970703125,-0.5429534912109375
1772696900538960600,6.134960693359375,-2.6351470947265625,-0.3899383544921875,-0.5939178466796875
1772696900548931600,6.144931640625,-2.88677978515625,-0.31439208984375,-0.548370361328125
1772696900558902800,6.15490283203125,-2.9746856689453125,-0.416778564453125,-0.449493408203125
1772696900568872700,6.164872802734375,-3.0160675048828125,-0.4214935302734375,-0.4002227783203125
1772696900578843600,6.17484375,-2.9509124755859375,-0.460906982421875,-0.4196929931640625
1772696900588814800,6.18481494140625,-2.8421783447265625,-0.5078582763671875,-0.4568939208984375
1772696900598785500,6.19478564453125,-2.6853790283203125,-0.536407470703125,-0.48809814453125
1772696900608756500,6.204756591796875,-2.5312347412109375,-0.5558319091796875,-0.5095062255859375
1772696900618726700,6.2147265625,-2.3484954833984375,-0.5378265380859375,-0.469146728515625
1772696900628697600,6.224697509765625,-2.1143951416015625,-0.50738525390625,-0.4127197265625
1772696900638668500,6.23466845703125,-1.8717803955078125,-0.4532318115234375,-0.307525634765625
1772696900648639700,6.2446396484375,-1.605743408203125,-0.4224700927734375,-0.2585296630859375
1772696900658610700,6.254610595703125,-1.361724853515625,-0.4388885498046875,-0.232696533203125
1772696900668580600,6.26458056640625,-1.1158905029296875,-0.410308837890625,-0.1707611083984375
1772696900678551600,6.274551513671875,-0.895233154296875,-0.3955078125,-0.124481201171875
1772696900688522500,6.2845224609375,-0.721282958984375,-0.3669891357421875,-0.0641326904296875
1772696900698493700,6.29449365234375,-0.5917816162109375,-0.30804443359375,-0.016845703125
1772696900708464600,6.304464599609375,-0.4996795654296875,-0.200439453125,-0.0473175048828125
1772696900718434600,6.3144345703125,-0.42120361328125,-0.0984649658203125,-0.0800323486328125
1772696900728405800,6.32440576171875,-0.362518310546875,-0.031402587890625,-0.0847015380859375
1772696900738376700,6.334376708984375,-0.29022216796875,0.0042724609375,-0.09967041015625
1772696900748347600,6.34434765625,-0.1965484619140625,0.010101318359375,-0.0822601318359375
1772696900758318600,6.354318603515625,-0.11016845703125,0.040130615234375,-0.0297698974609375
1772696900768288500,6.36428857421875,-0.0189971923828125,0.0388031005859375,0.0241851806640625
1772696900778259500,6.374259521484375,0.071258544921875,-0.0248870849609375,0.08868408203125
1772696900788230700,6.384230712890625,0.1360931396484375,-0.058685302734375,0.095611572265625
1772696900798201600,6.39420166015625,0.1862335205078125,-0.0778350830078125,0.095977783203125
1772696900808172800,6.4041728515625,0.21209716796875,-0.1146240234375,0.1186370849609375
1772696900818142700,6.414142822265625,0.1978912353515625,-0.1275634765625,0.1222686767578125
1772696900828113700,6.42411376953125,0.174224853515625,-0.1396026611328125,0.1118316650390625
1772696900838084600,6.434084716796875,0.133209228515625,-0.1164398193359375,0.0817413330078125
1772696900848055600,6.4440556640625,0.094940185546875,-0.1007080078125,0.0353240966796875
1772696900858025500,6.454025390625,0.0824127197265625,-0.0850372314453125,-0.021881103515625
1772696900867996700,6.46399658203125,0.063751220703125,-0.0765380859375,-0.0696868896484375
1772696900877967600,6.473967529296875,0.041351318359375,-0.0795440673828125,-0.1305999755859375
1772696900887938800,6.483938720703125,0.00811767578125,-0.0364227294921875,-0.1823883056640625
1772696900897909800,6.49390966796875,-0.0438690185546875,0.000457763671875,-0.193359375
1772696900907879700,6.503879638671875,-0.124053955078125,0.0229034423828125,-0.1904296875
1772696900917850600,6.5138505859375,-0.1933441162109375,0.0757904052734375,-0.1542205810546875
1772696900927821600,6.523821533203125,-0.25048828125,0.1183624267578125,-0.116363525390625
1772696900937792500,6.53379248046875,-0.326629638671875,0.084930419921875,-0.053192138671875
1772696900947763700,6.543763671875,-0.4288787841796875,0.014801025390625,0.0068359375
1772696900957733600,6.553733642578125,-0.5685272216796875,-0.04693603515625,0.0100860595703125
1772696900967704600,6.56370458984375,-0.7254638671875,-0.150543212890625,0.01171875
1772696900977675800,6.57367578125,-0.91717529296875,-0.328155517578125,0.016082763671875
1772696900987646500,6.583646484375,-1.1058807373046875,-0.4502716064453125,-0.0555877685546875
1772696900997617700,6.59361767578125,-1.25738525390625,-0.5087127685546875,-0.1689910888671875
1772696901007587600,6.603587646484375,-1.4312286376953125,-0.500213623046875,-0.273651123046875
1772696901017558500,6.61355859375,-1.5828857421875,-0.4866943359375,-0.2900390625
1772696901027529700,6.62352978515625,-1.740020751953125,-0.4868927001953125,-0.2729339599609375
1772696901037500700,6.633500732421875,-1.937835693359375,-0.52520751953125,-0.221588134765625
1772696901047471600,6.6434716796875,-2.1331634521484375,-0.593170166015625,-0.1845245361328125
1772696901057441800,6.65344189453125,-2.3203277587890625,-0.6320343017578125,-0.2189178466796875
1772696901067412700,6.663412841796875,-2.5099334716796875,-0.662384033203125,-0.2599029541015625
1772696901077383400,6.673383544921875,-2.685821533203125,-0.6361236572265625,-0.30926513671875
1772696901087354600,6.683354736328125,-2.82452392578125,-0.5484771728515625,-0.3569488525390625
1772696901097325600,6.69332568359375,-2.9187774658203125,-0.4365081787109375,-0.3872528076171875
1772696901107295500,6.70329541015625,-2.97564697265625,-0.391845703125,-0.357757568359375
1772696901117266700,6.7132666015625,-2.962921142578125,-0.412750244140625,-0.2471160888671875
1772696901127237600,6.723237548828125,-2.8424530029296875,-0.422119140625,-0.14959716796875
1772696901137208600,6.73320849609375,-2.6183319091796875,-0.4435577392578125,-0.0809783935546875
1772696901147179500,6.743179443359375,-2.318756103515625,-0.4703369140625,-0.0594940185546875
1772696901157149400,6.7531494140625,-1.9603118896484375,-0.51806640625,-0.0721282958984375
1772696901167120600,6.76312060546875,-1.6206207275390625,-0.555511474609375,-0.09649658203125
1772696901177091600,6.773091552734375,-1.330352783203125,-0.5487060546875,-0.1047515869140625
1772696901187062800,6.783062744140625,-1.080322265625,-0.4740142822265625,-0.0979766845703125
1772696901197033700,6.79303369140625,-0.8739471435546875,-0.40313720703125,-0.0788421630859375
1772696901207003600,6.803003662109375,-0.69842529296875,-0.349029541015625,-0.06060791015625
1772696901216974800,6.812974853515625,-0.5323028564453125,-0.2872314453125,-0.058258056640625
1772696901226945500,6.822945556640625,-0.3785400390625,-0.23590087890625,-0.06927490234375
1772696901236916500,6.83291650390625,-0.2524871826171875,-0.189453125,-0.0813751220703125
1772696901246887700,6.8428876953125,-0.1489715576171875,-0.147125244140625,-0.0797882080078125
1772696901256857600,6.852857666015625,-0.050994873046875,-0.105072021484375,-0.0512237548828125
1772696901266828500,6.86282861328125,0.0150146484375,-0.037567138671875,-0.006744384765625
1772696901276799700,6.8727998046875,0.0659027099609375,0.0262298583984375,0.053955078125
1772696901286771500,6.882771484375,0.064666748046875,0.0834808349609375,0.1118011474609375
1772696901296742400,6.892742431640625,0.055572509765625,0.1426239013671875,0.1531219482421875
1772696901306712300,6.90271240234375,0.0572662353515625,0.192047119140625,0.181182861328125
1772696901316683500,6.91268359375,0.065399169921875,0.1793670654296875,0.1995849609375
1772696901326654500,6.922654541015625,0.07952880859375,0.1464691162109375,0.183135986328125
1772696901336625700,6.932625732421875,0.092926025390625,0.122528076171875,0.1413726806640625
1772696901346596400,6.942596435546875,0.090911865234375,0.100341796875,0.0751190185546875
1772696901356566500,6.95256640625,0.101806640625,0.067108154296875,-0.00537109375
1772696901366537500,6.962537353515625,0.108551025390625,0.035858154296875,-0.09466552734375
1772696901376508400,6.97250830078125,0.1254425048828125,0.0106201171875,-0.1629180908203125
1772696901386479600,6.982479736328125,0.119384765625,-0.0044403076171875,-0.175262451171875
1772696901396450600,6.992450439453125,0.0928192138671875,-0.0081787109375,-0.1534271240234375
1772696901406420500,7.00242041015625,0.0589141845703125,-0.001373291015625,-0.1128692626953125
1772696901416391700,7.0123916015625,0.0251617431640625,0.00567626953125,-0.0671539306640625
1772696901426362600,7.022362548828125,-0.0041961669921875,-0.0030975341796875,-0.0357208251953125
1772696901436333300,7.032333251953125,-0.0399322509765625,-0.029266357421875,0.000518798828125
1772696901446304500,7.042304443359375,-0.0767974853515625,-0.0686798095703125,0.044189453125
1772696901456274400,7.0522744140625,-0.121246337890625,-0.138580322265625,0.103607177734375
1772696901466245400,7.062245361328125,-0.187286376953125,-0.235382080078125,0.167572021484375
1772696901476216600,7.072216552734375,-0.298675537109375,-0.3151397705078125,0.1707611083984375
1772696901486187500,7.0821875,-0.455963134765625,-0.4037933349609375,0.09716796875
1772696901496157400,7.092157470703125,-0.61810302734375,-0.5368499755859375,-0.0692138671875
1772696901506128600,7.102128662109375,-0.8096923828125,-0.7078399658203125,-0.2490386962890625
1772696901516099300,7.112099365234375,-1.028045654296875,-0.902435302734375,-0.3553314208984375
1772696901526070500,7.122070556640625,-1.2503662109375,-1.009307861328125,-0.5119476318359375
1772696901536041500,7.13204150390625,-1.5231170654296875,-1.042022705078125,-0.7076873779296875
1772696901546011400,7.142011474609375,-1.81866455078125,-0.981781005859375,-0.8544769287109375
1772696901555982600,7.151982666015625,-2.18597412109375,-0.823638916015625,-0.9100799560546875
1772696901565953500,7.16195361328125,-2.5625152587890625,-0.68731689453125,-0.8496856689453125
1772696901575924500,7.171924560546875,-2.85357666015625,-0.587890625,-0.7470550537109375
1772696901585895400,7.1818955078125,-3.036773681640625,-0.5368804931640625,-0.6206207275390625
1772696901595865600,7.191865478515625,-3.1401214599609375,-0.5570220947265625,-0.49951171875
1772696901605836300,7.201836181640625,-3.2118988037109375,-0.612884521484375,-0.4008026123046875
1772696901615807500,7.211807373046875,-3.18505859375,-0.714569091796875,-0.3458251953125
1772696901625778400,7.2217783203125,-3.05267333984375,-0.7987213134765625,-0.3421173095703125
1772696901635749600,7.23174951171875,-2.7927703857421875,-0.8858489990234375,-0.394378662109375
1772696901645719600,7.241719482421875,-2.47052001953125,-0.9305267333984375,-0.4517974853515625
1772696901655690500,7.2516904296875,-2.1246337890625,-0.922760009765625,-0.4541473388671875
1772696901665661700,7.26166162109375,-1.8040008544921875,-0.88092041015625,-0.44573974609375
1772696901675632400,7.27163232421875,-1.5271759033203125,-0.8163909912109375,-0.3870086669921875
1772696901685603600,7.281603515625,-1.287322998046875,-0.7475433349609375,-0.317047119140625
1772696901695573500,7.291573486328125,-1.0916900634765625,-0.692779541015625,-0.2408599853515625
1772696901705544400,7.30154443359375,-0.916961669921875,-0.5959014892578125,-0.175628662109375
1772696901715515600,7.311515625,-0.7694854736328125,-0.4871978759765625,-0.129608154296875
1772696901725486600,7.321486572265625,-0.6192169189453125,-0.3853607177734375,-0.0898895263671875
1772696901735457500,7.33145751953125,-0.46783447265625,-0.2698822021484375,-0.0618743896484375
1772696901745427700,7.341427734375,-0.3096160888671875,-0.167938232421875,-0.0076141357421875
1772696901755398400,7.3513984375,-0.188568115234375,-0.078216552734375,0.0439605712890625
1772696901765369300,7.361369384765625,-0.0968017578125,0.0101318359375,0.097900390625
1772696901775340500,7.371340576171875,-0.0103607177734375,0.0920257568359375,0.143096923828125
1772696901785311500,7.3813115234375,0.0711517333984375,0.1384735107421875,0.1602630615234375
1772696901795281400,7.391281494140625,0.1313323974609375,0.125762939453125,0.156646728515625
1772696901805252600,7.401252685546875,0.1646270751953125,0.0888519287109375,0.1477203369140625
1772696901815223600,7.4112236328125,0.21630859375,0.0725250244140625,0.139068603515625
1772696901825194500,7.421194580078125,0.251678466796875,0.0520477294921875,0.145263671875
1772696901835165400,7.43116552734375,0.26617431640625,0.0167083740234375,0.1510467529296875
1772696901845135400,7.44113525390625,0.289764404296875,-0.004364013671875,0.1301422119140625
1772696901855106600,7.4511064453125,0.3013763427734375,-0.006744384765625,0.0858306884765625
1772696901865077500,7.461077392578125,0.307098388671875,0.0053253173828125,0.0351104736328125
1772696901875048400,7.47104833984375,0.30401611328125,0.0237274169921875,-0.006103515625
1772696901885019600,7.48101953125,0.286773681640625,0.0478668212890625,-0.02117919921875
1772696901894989600,7.490989501953125,0.2611236572265625,0.08929443359375,-0.0263671875
1772696901904960500,7.50096044921875,0.23345947265625,0.1200714111328125,-0.021026611328125
1772696901914931500,7.510931396484375,0.18353271484375,0.144683837890625,-0.0118865966796875
1772696901924902400,7.52090234375,0.11932373046875,0.170623779296875,-0.0182952880859375
1772696901934873600,7.53087353515625,0.0430145263671875,0.1717376708984375,-0.037017822265625
1772696901944843500,7.540843505859375,-0.0402374267578125,0.1422271728515625,-0.0567779541015625
1772696901954814500,7.550814453125,-0.1053314208984375,0.0734405517578125,-0.061004638671875
1772696901964785700,7.56078564453125,-0.1706695556640625,-0.033966064453125,-0.033111572265625
1772696901974756400,7.57075634765625,-0.2513580322265625,-0.174835205078125,0.0405120849609375
1772696901984726500,7.5807265625,-0.37530517578125,-0.3061065673828125,0.1299285888671875
1772696901994697500,7.590697509765625,-0.549896240234375,-0.3772125244140625,0.1708984375
1772696902004668400,7.60066845703125,-0.7388458251953125,-0.448638916015625,0.12744140625
1772696902014639600,7.6106396484375,-0.93902587890625,-0.47967529296875,-0.05609130859375
1772696902024610600,7.620610595703125,-1.2086029052734375,-0.491943359375,-0.2909088134765625
1772696902034581500,7.63058154296875,-1.4747314453125,-0.6227874755859375,-0.4442901611328125
1772696902044551700,7.6405517578125,-1.7584228515625,-0.77752685546875,-0.5717010498046875
1772696902054522600,7.650522705078125,-2.05889892578125,-0.800872802734375,-0.708892822265625
1772696902064493300,7.660493408203125,-2.33209228515625,-0.7738037109375,-0.8066253662109375
1772696902074464500,7.670464599609375,-2.57843017578125,-0.7323760986328125,-0.8585357666015625
1772696902084434400,7.680434326171875,-2.763458251953125,-0.640869140625,-0.879241943359375
1772696902094405400,7.6904052734375,-2.89544677734375,-0.5575714111328125,-0.8673248291015625
1772696902104376600,7.70037646484375,-2.9783935546875,-0.5186767578125,-0.8015289306640625
1772696902114347500,7.710347412109375,-3.0074005126953125,-0.4917755126953125,-0.6889190673828125
1772696902124318700,7.720318603515625,-2.982696533203125,-0.5464019775390625,-0.5664825439453125
1772696902134289400,7.730289306640625,-2.9022369384765625,-0.6538848876953125,-0.4467926025390625
1772696902144259300,7.74025927734375,-2.7392730712890625,-0.753143310546875,-0.3681793212890625
1772696902154230500,7.75023046875,-2.490570068359375,-0.8303680419921875,-0.3276214599609375
1772696902164201500,7.760201416015625,-2.21551513671875,-0.8586273193359375,-0.3261566162109375
1772696902174172400,7.77017236328125,-1.9491424560546875,-0.83013916015625,-0.3428802490234375
1772696902184143600,7.7801435546875,-1.7004547119140625,-0.7799835205078125,-0.3523101806640625
1772696902194113500,7.790113525390625,-1.483917236328125,-0.7279510498046875,-0.361053466796875
1772696902204084500,7.80008447265625,-1.3085784912109375,-0.690582275390625,-0.3713226318359375
1772696902214055400,7.810055419921875,-1.1556549072265625,-0.6459808349609375,-0.362274169921875
1772696902224026400,7.8200263671875,-1.0232086181640625,-0.5965118408203125,-0.3336181640625
1772696902233996300,7.829996337890625,-0.9066162109375,-0.516510009765625,-0.2871246337890625
1772696902243967500,7.839967529296875,-0.7842254638671875,-0.4213714599609375,-0.249176025390625
1772696902253938400,7.8499384765625,-0.6722869873046875,-0.3027496337890625,-0.22039794921875
1772696902263909600,7.85990966796875,-0.5679473876953125,-0.1887969970703125,-0.190673828125
1772696902273880600,7.869880615234375,-0.4726715087890625,-0.0855865478515625,-0.1553802490234375
1772696902283849700,7.879849609375,-0.40728759765625,0.03717041015625,-0.1234283447265625
1772696902293820700,7.889820556640625,-0.3317108154296875,0.14654541015625,-0.10040283203125
1772696902303791600,7.89979150390625,-0.240631103515625,0.22296142578125,-0.053314208984375
1772696902313762600,7.909762451171875,-0.1285247802734375,0.2290496826171875,0.010589599609375
1772696902323733500,7.9197333984375,-0.0067291259765625,0.19769287109375,0.075958251953125
1772696902333703400,7.929703369140625,0.116851806640625,0.1521148681640625,0.1307830810546875
1772696902343674600,7.939674560546875,0.214447021484375,0.10369873046875,0.172119140625
1772696902353645600,7.9496455078125,0.281646728515625,0.066070556640625,0.182861328125
1772696902363616800,7.95961669921875,0.3111114501953125,0.035552978515625,0.183074951171875
1772696902373587700,7.969587646484375,0.3087158203125,-0.004119873046875,0.176513671875
1772696902383557600,7.9795576171875,0.2918853759765625,-0.036865234375,0.16058349609375
1772696902393528600,7.989528564453125,0.26312255859375,-0.0649871826171875,0.119720458984375
1772696902403499500,7.99949951171875,0.2405242919921875,-0.090850830078125,0.067138671875
1772696902413470500,8.009470458984374,0.2082366943359375,-0.10504150390625,0.0227813720703125
1772696902423441700,8.019441650390625,0.161346435546875,-0.1245269775390625,-0.0106964111328125
1772696902433411600,8.02941162109375,0.0820465087890625,-0.106597900390625,-0.0416717529296875
1772696902443382800,8.0393828125,-0.0129852294921875,-0.0805511474609375,-0.04486083984375
1772696902453353700,8.049353759765625,-0.1122283935546875,-0.07916259765625,-0.0267181396484375
1772696902463324700,8.05932470703125,-0.2516937255859375,-0.1066741943359375,0.004302978515625
1772696902473295600,8.069295654296875,-0.4011383056640625,-0.1953887939453125,0.0262908935546875
1772696902483265500,8.079265625,-0.5556793212890625,-0.3197784423828125,0.0154571533203125
1772696902493236500,8.089236572265625,-0.71673583984375,-0.4257965087890625,-0.0251312255859375
1772696902503207700,8.099207763671876,-0.9085235595703125,-0.50885009765625,-0.113739013671875
1772696902513178600,8.1091787109375,-1.1093597412109375,-0.5336761474609375,-0.27947998046875
1772696902523149800,8.11914990234375,-1.2871856689453125,-0.5381011962890625,-0.4254913330078125
1772696902533119700,8.12911962890625,-1.4300079345703125,-0.578887939453125,-0.460296630859375
1772696902543090700,8.139090576171874,-1.5437469482421875,-0.6437530517578125,-0.427093505859375
1772696902553061600,8.1490615234375,-1.640350341796875,-0.6790008544921875,-0.3915863037109375
1772696902563032600,8.159032470703124,-1.7293853759765625,-0.6821136474609375,-0.41046142578125
1772696902573003500,8.16900341796875,-1.7917327880859375,-0.6479034423828125,-0.4725799560546875
1772696902582973700,8.1789736328125,-1.8421630859375,-0.59014892578125,-0.502960205078125
1772696902592944600,8.188944580078125,-1.875885009765625,-0.5040283203125,-0.5240478515625
1772696902602915600,8.19891552734375,-1.8891448974609375,-0.4190673828125,-0.51483154296875
1772696902612886800,8.20888671875,-1.8779144287109375,-0.346435546875,-0.4783172607421875
1772696902622857500,8.218857421875,-1.850341796875,-0.3118133544921875,-0.4503021240234375
1772696902632827600,8.22882763671875,-1.7902679443359375,-0.3226776123046875,-0.40472412109375
1772696902642798600,8.238798583984375,-1.6777191162109375,-0.3929901123046875,-0.368988037109375
1772696902652769500,8.24876953125,-1.5268707275390625,-0.4747161865234375,-0.329010009765625
1772696902662740700,8.25874072265625,-1.349853515625,-0.5497589111328125,-0.3002166748046875
1772696902672711700,8.268711669921874,-1.167877197265625,-0.5973358154296875,-0.286590576171875
1772696902682681600,8.278681640625,-0.9928741455078125,-0.6236724853515625,-0.2845458984375
1772696902692652800,8.28865283203125,-0.837066650390625,-0.6149139404296875,-0.276824951171875
1772696902702623500,8.29862353515625,-0.722747802734375,-0.59405517578125,-0.25018310546875
1772696902712594400,8.308594482421874,-0.65863037109375,-0.5665283203125,-0.2179412841796875
1772696902722565600,8.318565673828125,-0.6198272705078125,-0.527862548828125,-0.1803436279296875
1772696902732535600,8.32853564453125,-0.60406494140625,-0.4711761474609375,-0.139923095703125
1772696902742506800,8.3385068359375,-0.607147216796875,-0.4172515869140625,-0.1131134033203125
1772696902752477700,8.348477783203125,-0.62200927734375,-0.3785858154296875,-0.1052703857421875
1772696902762448600,8.35844873046875,-0.653564453125,-0.34521484375,-0.1168212890625
1772696902772418800,8.368418701171874,-0.694580078125,-0.3126373291015625,-0.143798828125
1772696902782389800,8.3783896484375,-0.7426300048828125,-0.2717437744140625,-0.1667938232421875
1772696902792360400,8.3883603515625,-0.79583740234375,-0.2375335693359375,-0.1772918701171875
1772696902802331600,8.39833154296875,-0.8398895263671875,-0.216461181640625,-0.1871185302734375
1772696902812302600,8.408302490234375,-0.8689422607421875,-0.196014404296875,-0.1959991455078125
1772696902822272500,8.4182724609375,-0.8920440673828125,-0.1741943359375,-0.2138824462890625
1772696902832243700,8.42824365234375,-0.9064788818359375,-0.159515380859375,-0.2330780029296875
1772696902842214700,8.438214599609376,-0.9043731689453125,-0.1486053466796875,-0.245758056640625
1772696902852185600,8.448185546875,-0.8927764892578125,-0.1394500732421875,-0.24481201171875
1772696902862156500,8.458156494140624,-0.809173583984375,-0.1478729248046875,-0.2568206787109375
1772696902872126500,8.46812646484375,-0.782684326171875,-0.1806793212890625,-0.2891387939453125
1772696902882097700,8.47809765625,-0.758209228515625,-0.206878662109375,-0.326080322265625
1772696902892068600,8.488068603515625,-0.7529449462890625,-0.2458648681640625,-0.33148193359375
1772696902902039600,8.49803955078125,-0.773834228515625,-0.278900146484375,-0.30340576171875
1772696902912010800,8.5080107421875,-0.804931640625,-0.288604736328125,-0.2623748779296875
1772696902921980700,8.517980712890624,-0.8251953125,-0.286712646484375,-0.2276611328125
1772696902931951600,8.52795166015625,-0.8344573974609375,-0.297027587890625,-0.20843505859375
1772696902941922600,8.537922607421875,-0.837249755859375,-0.3249969482421875,-0.2118682861328125
1772696902951893500,8.5478935546875,-0.8363800048828125,-0.36163330078125,-0.2265472412109375
1772696902961864700,8.55786474609375,-0.841094970703125,-0.3954315185546875,-0.2552642822265625
1772696902971834600,8.567834716796876,-0.8500823974609375,-0.4167327880859375,-0.2875823974609375
1772696902981805600,8.5778056640625,-0.8589630126953125,-0.433135986328125,-0.309173583984375
1772696902991776800,8.58777685546875,-0.86212158203125,-0.43072509765625,-0.30792236328125
1772696903001747700,8.597747802734375,-0.8896331787109375,-0.440185546875,-0.3063507080078125
