time,seconds_elapsed,z,y,x
1772713795424590000,0.062590087890625,-0.849945068359375,-0.5076446533203125,-0.1233062744140625
1772713795434565000,0.072565185546875,-0.833404541015625,-0.5175018310546875,-0.1046295166015625
1772713795444539100,0.0825390625,-0.8182373046875,-0.4720001220703125,-0.01708984375
1772713795454513200,0.09251318359375,-0.8265838623046875,-0.5034942626953125,-0.067352294921875
1772713795464487200,0.102487060546875,-0.814910888671875,-0.5247955322265625,-0.1056365966796875
1772713795474461200,0.112461181640625,-0.7870330810546875,-0.5132598876953125,-0.1016387939453125
1772713795484436000,0.12243603515625,-0.79266357421875,-0.505523681640625,-0.0948333740234375
1772713795494409700,0.13240966796875,-0.81494140625,-0.5009002685546875,-0.095611572265625
1772713795504383700,0.1423837890625,-0.82421875,-0.499420166015625,-0.098907470703125
1772713795514357800,0.152357666015625,-0.8238525390625,-0.5020751953125,-0.1057891845703125
1772713795524331800,0.162331787109375,-0.8127899169921875,-0.5042572021484375,-0.1099395751953125
1772713795534305800,0.172305908203125,-0.8093109130859375,-0.5040740966796875,-0.1151275634765625
1772713795544280800,0.18228076171875,-0.83270263671875,-0.4948577880859375,-0.1179351806640625
1772713795554254800,0.1922548828125,-0.8645172119140625,-0.4864654541015625,-0.116424560546875
1772713795564228900,0.202228759765625,-0.8619232177734375,-0.4895477294921875,-0.1104583740234375
1772713795574203000,0.212202880859375,-0.8569793701171875,-0.4875946044921875,-0.1084442138671875
1772713795584177000,0.222177001953125,-0.863983154296875,-0.476165771484375,-0.10369873046875
1772713795594151700,0.232151611328125,-0.878448486328125,-0.466156005859375,-0.0903778076171875
1772713795604125700,0.242125732421875,-0.9029998779296875,-0.463287353515625,-0.0811004638671875
1772713795614099700,0.252099609375,-0.92425537109375,-0.4606170654296875,-0.0822296142578125
1772713795624073700,0.26207373046875,-0.9300994873046875,-0.4585723876953125,-0.089813232421875
1772713795634047700,0.2720478515625,-0.927001953125,-0.447235107421875,-0.0938720703125
1772713795644023000,0.28202294921875,-0.9274139404296875,-0.4384918212890625,-0.0942535400390625
1772713795653997000,0.2919970703125,-0.94097900390625,-0.445343017578125,-0.091766357421875
1772713795663970800,0.301970703125,-0.9396514892578125,-0.450958251953125,-0.082122802734375
1772713795673944800,0.31194482421875,-0.9412994384765625,-0.4461669921875,-0.0688323974609375
1772713795683918600,0.321918701171875,-0.9350433349609375,-0.4445037841796875,-0.0611114501953125
1772713795693892600,0.331892578125,-0.9194183349609375,-0.421875,-0.0526275634765625
1772713795703868000,0.341867919921875,-0.9178009033203125,-0.41827392578125,-0.030792236328125
1772713795713842000,0.351842041015625,-0.9285430908203125,-0.4554901123046875,-0.0233001708984375
1772713795723816000,0.36181591796875,-0.9502410888671875,-0.44549560546875,-0.0244293212890625
1772713795733790000,0.3717900390625,-0.94195556640625,-0.4433746337890625,-0.0266876220703125
1772713795743764000,0.381763916015625,-0.9334564208984375,-0.4531402587890625,-0.028564453125
1772713795753739000,0.391739013671875,-0.9344024658203125,-0.457244873046875,-0.022003173828125
1772713795763712800,0.401712646484375,-0.9383697509765625,-0.4601898193359375,-0.007720947265625
1772713795773686800,0.411686767578125,-0.94464111328125,-0.47186279296875,0.0067901611328125
1772713795783660800,0.421660888671875,-0.9425506591796875,-0.4853057861328125,0.0129547119140625
1772713795793634800,0.431634765625,-0.9311370849609375,-0.4871826171875,0.0139312744140625
1772713795803608800,0.44160888671875,-0.9117889404296875,-0.4808807373046875,0.014923095703125
1772713795813584000,0.451583984375,-0.90045166015625,-0.475738525390625,0.0206756591796875
1772713795823558000,0.461557861328125,-0.9045867919921875,-0.477630615234375,0.026519775390625
1772713795833532000,0.471531982421875,-0.9035491943359375,-0.4804229736328125,0.0311126708984375
1772713795843506000,0.481505859375,-0.8929595947265625,-0.478363037109375,0.0306243896484375
1772713795853480000,0.49147998046875,-0.889007568359375,-0.4764404296875,0.0331268310546875
1772713795863454700,0.501454833984375,-0.892181396484375,-0.4781036376953125,0.0419769287109375
1772713795873428700,0.5114287109375,-0.8936004638671875,-0.4774627685546875,0.0492095947265625
1772713795883402800,0.52140283203125,-0.88385009765625,-0.4740753173828125,0.0538177490234375
1772713795893376800,0.531376708984375,-0.876556396484375,-0.4686737060546875,0.0589599609375
1772713795903350800,0.541350830078125,-0.8697509765625,-0.4674530029296875,0.06695556640625
1772713795913324800,0.55132470703125,-0.8668975830078125,-0.4678802490234375,0.0722503662109375
1772713795923299800,0.5612998046875,-0.8757781982421875,-0.472442626953125,0.0787353515625
1772713795933273900,0.57127392578125,-0.89129638671875,-0.4867401123046875,0.0806732177734375
1772713795943248000,0.581247802734375,-0.9038238525390625,-0.4971466064453125,0.0778961181640625
1772713795953222000,0.591221923828125,-0.89898681640625,-0.4930572509765625,0.0756683349609375
1772713795963196000,0.60119580078125,-0.8878326416015625,-0.4823150634765625,0.0743865966796875
1772713795973170000,0.611169921875,-0.8889007568359375,-0.4752349853515625,0.0727386474609375
1772713795983144700,0.621144775390625,-0.89892578125,-0.4631195068359375,0.073699951171875
1772713795993118700,0.63111865234375,-0.8957366943359375,-0.4526519775390625,0.0757904052734375
1772713796003092700,0.6410927734375,-0.892059326171875,-0.4464874267578125,0.0794677734375
1772713796013066800,0.651066650390625,-0.8854522705078125,-0.4355621337890625,0.0850982666015625
1772713796023040800,0.661040771484375,-0.877655029296875,-0.4227447509765625,0.088531494140625
1772713796033015800,0.671015869140625,-0.87176513671875,-0.4168701171875,0.0922393798828125
1772713796042989800,0.68098974609375,-0.858642578125,-0.417083740234375,0.10260009765625
1772713796052963800,0.6909638671875,-0.847808837890625,-0.4196929931640625,0.1161956787109375
1772713796062937900,0.700937744140625,-0.8458099365234375,-0.4321441650390625,0.1284637451171875
1772713796072911600,0.71091162109375,-0.8504638671875,-0.44647216796875,0.1155853271484375
1772713796082885600,0.7208857421875,-0.8655242919921875,-0.476470947265625,0.0481109619140625
1772713796092861000,0.73086083984375,-0.8000335693359375,-0.433349609375,0.2212677001953125
1772713796102835000,0.7408349609375,-0.8469390869140625,-0.38739013671875,0.2221832275390625
1772713796112809000,0.75080908203125,-0.923004150390625,-0.4653472900390625,0.1180877685546875
1772713796122783000,0.760782958984375,-0.8501129150390625,-0.4882049560546875,0.1292572021484375
1772713796132756700,0.7707568359375,-0.8058929443359375,-0.43792724609375,0.185272216796875
1772713796142732000,0.78073193359375,-0.8573455810546875,-0.423919677734375,0.171051025390625
1772713796152705800,0.790705810546875,-0.8899993896484375,-0.4443206787109375,0.1631011962890625
1772713796162679800,0.8006796875,-0.8779449462890625,-0.46234130859375,0.157562255859375
1772713796172653800,0.81065380859375,-0.8715972900390625,-0.4620208740234375,0.15228271484375
1772713796182627800,0.8206279296875,-0.8778076171875,-0.459869384765625,0.14666748046875
1772713796192601900,0.830601806640625,-0.8785400390625,-0.462615966796875,0.144500732421875
1772713796202577000,0.840576904296875,-0.873748779296875,-0.468170166015625,0.146240234375
1772713796212551000,0.850551025390625,-0.866851806640625,-0.471405029296875,0.15081787109375
1772713796222525000,0.86052490234375,-0.866180419921875,-0.4791717529296875,0.1558380126953125
1772713796232499000,0.8704990234375,-0.867156982421875,-0.482330322265625,0.15869140625
1772713796242473000,0.880472900390625,-0.86767578125,-0.47760009765625,0.15472412109375
1772713796252447700,0.89044775390625,-0.861907958984375,-0.4798583984375,0.1444549560546875
1772713796262421800,0.900421875,-0.8558349609375,-0.4847259521484375,0.137054443359375
1772713796272395800,0.910395751953125,-0.858795166015625,-0.48199462890625,0.1328277587890625
1772713796282369800,0.920369873046875,-0.8629608154296875,-0.4771575927734375,0.12677001953125
1772713796292343800,0.93034375,-0.860321044921875,-0.4671173095703125,0.11865234375
1772713796302317800,0.94031787109375,-0.8590087890625,-0.4561920166015625,0.1118927001953125
1772713796312292900,0.95029296875,-0.8523406982421875,-0.4483795166015625,0.1089324951171875
1772713796322267000,0.960266845703125,-0.840545654296875,-0.4373779296875,0.114013671875
1772713796332241000,0.970240966796875,-0.8372802734375,-0.429534912109375,0.12164306640625
1772713796342215000,0.98021484375,-0.8408203125,-0.4326324462890625,0.1363677978515625
1772713796352189000,0.99018896484375,-0.842193603515625,-0.4270477294921875,0.1522369384765625
1772713796362163000,1.000162841796875,-0.8502197265625,-0.424102783203125,0.1688690185546875
1772713796372137700,1.0101376953125,-0.861358642578125,-0.432464599609375,0.1820526123046875
1772713796382111700,1.02011181640625,-0.85052490234375,-0.433441162109375,0.1822967529296875
1772713796392085800,1.030085693359375,-0.8266143798828125,-0.42401123046875,0.1838226318359375
1772713796402059800,1.040059814453125,-0.8163604736328125,-0.427642822265625,0.190643310546875
1772713796412033800,1.05003369140625,-0.8191070556640625,-0.4468536376953125,0.2009735107421875
1772713796422008800,1.0600087890625,-0.8090667724609375,-0.4638671875,0.20849609375
1772713796431982800,1.06998291015625,-0.7929534912109375,-0.4700469970703125,0.2235565185546875
1772713796441956900,1.079956787109375,-0.7906036376953125,-0.485076904296875,0.2454071044921875
1772713796451931000,1.089930908203125,-0.8012847900390625,-0.5145263671875,0.2707366943359375
1772713796461904600,1.099904541015625,-0.8089141845703125,-0.540374755859375,0.303192138671875
1772713796471878700,1.109878662109375,-0.8248291015625,-0.5554351806640625,0.31903076171875
1772713796481853700,1.119853759765625,-0.8710174560546875,-0.529052734375,0.3174591064453125
1772713796491827700,1.12982763671875,-0.902374267578125,-0.5233001708984375,0.334564208984375
1772713796501802000,1.139802001953125,-0.8530120849609375,-0.6252288818359375,0.3403167724609375
1772713796511776000,1.14977587890625,-0.88726806640625,-0.63568115234375,0.297760009765625
1772713796521750000,1.15975,-0.935943603515625,-0.5631103515625,0.25128173828125
1772713796531724000,1.16972412109375,-0.9289398193359375,-0.5275115966796875,0.2093658447265625
1772713796541698800,1.17969873046875,-0.908477783203125,-0.5135650634765625,0.207489013671875
1772713796551672800,1.1896728515625,-0.936126708984375,-0.515625,0.2452392578125
1772713796561646800,1.199646728515625,-1.044097900390625,-0.5306854248046875,0.2734222412109375
1772713796571620900,1.209620849609375,-1.0641021728515625,-0.5547943115234375,0.2898712158203125
1772713796581595000,1.219594970703125,-1.010284423828125,-0.56719970703125,0.280731201171875
1772713796591569000,1.22956884765625,-0.9750518798828125,-0.6179962158203125,0.17999267578125
1772713796601544000,1.2395439453125,-0.945587158203125,-0.6176300048828125,0.3220977783203125
1772713796611518000,1.24951806640625,-0.9880523681640625,-0.5876922607421875,0.3300628662109375
1772713796621492000,1.259491943359375,-1.0146026611328125,-0.5602569580078125,0.3054656982421875
1772713796631466000,1.269466064453125,-1.0875244140625,-0.5276947021484375,0.3183135986328125
1772713796641440000,1.27943994140625,-1.1134033203125,-0.492279052734375,0.3101654052734375
1772713796651414800,1.289414794921875,-1.0676422119140625,-0.4906768798828125,0.29278564453125
1772713796661388800,1.299388916015625,-0.98638916015625,-0.51544189453125,0.375762939453125
1772713796671362800,1.30936279296875,-0.9687042236328125,-0.534149169921875,0.45989990234375
1772713796681336800,1.3193369140625,-0.957305908203125,-0.5434722900390625,0.4228515625
1772713796691310800,1.329310791015625,-0.8970947265625,-0.51898193359375,0.34033203125
1772713796701284900,1.339284912109375,-0.81439208984375,-0.478424072265625,0.295989990234375
1772713796711260000,1.349260009765625,-0.7437286376953125,-0.455902099609375,0.2883453369140625
1772713796721234000,1.35923388671875,-0.700775146484375,-0.450897216796875,0.2850341796875
1772713796731208000,1.3692080078125,-0.6952056884765625,-0.469451904296875,0.2765350341796875
1772713796741182000,1.379181884765625,-0.6930694580078125,-0.4929046630859375,0.2561798095703125
1772713796751156000,1.389156005859375,-0.6736602783203125,-0.5029754638671875,0.233184814453125
1772713796761131000,1.399131103515625,-0.66192626953125,-0.5098876953125,0.23480224609375
1772713796771105000,1.40910498046875,-0.696624755859375,-0.4997406005859375,0.274993896484375
1772713796781079000,1.4190791015625,-0.78985595703125,-0.4636077880859375,0.3845367431640625
1772713796791053000,1.429052978515625,-0.957763671875,-0.3999786376953125,0.57373046875
1772713796801027000,1.439027099609375,-1.104278564453125,-0.3983154296875,0.682159423828125
1772713796811001000,1.4490009765625,-1.050628662109375,-0.4934844970703125,0.615936279296875
1772713796820976000,1.45897607421875,-0.907928466796875,-0.523101806640625,0.5139617919921875
1772713796830950100,1.4689501953125,-0.880218505859375,-0.486541748046875,0.379791259765625
1772713796840924000,1.478923828125,-0.842437744140625,-0.4522552490234375,0.247650146484375
1772713796850898000,1.48889794921875,-0.852935791015625,-0.4176177978515625,0.1633758544921875
1772713796860872000,1.498871826171875,-0.8463134765625,-0.3714599609375,0.1461944580078125
1772713796870846000,1.508845947265625,-0.7488250732421875,-0.3201751708984375,0.199737548828125
1772713796880821000,1.518821044921875,-0.6872711181640625,-0.301788330078125,0.210540771484375
1772713796890795000,1.528794921875,-0.7161865234375,-0.3350372314453125,0.27593994140625
1772713796900769000,1.53876904296875,-0.7295989990234375,-0.35565185546875,0.282073974609375
1772713796910743000,1.548742919921875,-0.69415283203125,-0.3618011474609375,0.2847747802734375
1772713796920717000,1.558717041015625,-0.6757965087890625,-0.3691864013671875,0.2875823974609375
1772713796930691000,1.568691162109375,-0.687896728515625,-0.38720703125,0.321624755859375
1772713796940665900,1.578665771484375,-0.709930419921875,-0.4211578369140625,0.3500518798828125
1772713796950639900,1.588639892578125,-0.7134552001953125,-0.4161834716796875,0.3506927490234375
1772713796960614000,1.59861376953125,-0.7228240966796875,-0.42047119140625,0.3460693359375
1772713796970588000,1.608587890625,-0.75250244140625,-0.4420318603515625,0.3726043701171875
1772713796980562000,1.61856201171875,-0.8243408203125,-0.4427032470703125,0.36529541015625
1772713796990537000,1.628536865234375,-0.8522796630859375,-0.44586181640625,0.3329620361328125
1772713797000511000,1.638510986328125,-0.8722991943359375,-0.449981689453125,0.2967681884765625
1772713797010485000,1.648485107421875,-0.894622802734375,-0.4347381591796875,0.2757568359375
1772713797020459000,1.658458984375,-0.8774261474609375,-0.4173431396484375,0.27899169921875
1772713797030433000,1.66843310546875,-0.8553619384765625,-0.3885040283203125,0.281585693359375
1772713797040407000,1.678406982421875,-0.839569091796875,-0.3582763671875,0.279510498046875
1772713797050381800,1.6883818359375,-0.83148193359375,-0.3457489013671875,0.2862548828125
1772713797060355800,1.69835595703125,-0.8277130126953125,-0.3629913330078125,0.270538330078125
1772713797070329900,1.708329833984375,-0.812347412109375,-0.3844146728515625,0.213531494140625
1772713797080303900,1.718303955078125,-0.801727294921875,-0.3866424560546875,0.136474609375
1772713797090278000,1.72827783203125,-0.715850830078125,-0.3663330078125,0.1161956787109375
1772713797100252000,1.738251953125,-0.623626708984375,-0.3408660888671875,0.1403350830078125
1772713797110227000,1.74822705078125,-0.5526123046875,-0.31109619140625,0.17919921875
1772713797120201000,1.758200927734375,-0.511505126953125,-0.2875213623046875,0.2306976318359375
1772713797130175000,1.768175048828125,-0.55987548828125,-0.28997802734375,0.3000335693359375
1772713797140149000,1.77814892578125,-0.7632598876953125,-0.37139892578125,0.277435302734375
1772713797150123000,1.788123046875,-0.85882568359375,-0.4485321044921875,0.213653564453125
1772713797160096800,1.7980966796875,-0.7886199951171875,-0.4373016357421875,0.1858367919921875
1772713797170071800,1.80807177734375,-0.7413177490234375,-0.3994293212890625,0.1623992919921875
1772713797180045800,1.8180458984375,-0.7473602294921875,-0.3875274658203125,0.14556884765625
1772713797190019800,1.828019775390625,-0.781707763671875,-0.3957366943359375,0.1508636474609375
1772713797199993900,1.837993896484375,-0.8386688232421875,-0.4135589599609375,0.149749755859375
1772713797209967900,1.8479677734375,-0.904022216796875,-0.437255859375,0.1421661376953125
1772713797219942000,1.85794189453125,-0.9571075439453125,-0.449005126953125,0.1274871826171875
1772713797229917000,1.8679169921875,-0.9960784912109375,-0.439727783203125,0.0904388427734375
1772713797239891000,1.877890869140625,-1.0292816162109375,-0.4270172119140625,0.02789306640625
1772713797249865000,1.887864990234375,-1.0727081298828125,-0.421630859375,-0.0464324951171875
1772713797259839000,1.8978388671875,-1.1089324951171875,-0.3957672119140625,-0.1199798583984375
1772713797269813000,1.90781298828125,-1.118133544921875,-0.3464813232421875,-0.1802978515625
1772713797279788000,1.9177880859375,-1.1281890869140625,-0.3109283447265625,-0.229156494140625
1772713797289762000,1.927761962890625,-1.1336669921875,-0.3014678955078125,-0.2631072998046875
1772713797299736000,1.937736083984375,-1.12200927734375,-0.28643798828125,-0.292877197265625
1772713797309710000,1.9477099609375,-1.126220703125,-0.2749481201171875,-0.229736328125
1772713797319684000,1.95768408203125,-1.1377410888671875,-0.298309326171875,-0.115386962890625
1772713797329658000,1.967658203125,-1.1675567626953125,-0.3023223876953125,-0.06085205078125
1772713797339633000,1.9776328125,-1.1638336181640625,-0.261566162109375,-0.0412445068359375
1772713797349607000,1.98760693359375,-1.08135986328125,-0.2558441162109375,-0.0449981689453125
1772713797359581000,1.997580810546875,-1.05133056640625,-0.21710205078125,-0.1040496826171875
1772713797369555000,2.007554931640625,-1.0909576416015625,-0.24212646484375,-0.0967254638671875
1772713797379529000,2.017529052734375,-1.1779632568359375,-0.2904815673828125,-0.0178985595703125
1772713797389503000,2.0275029296875,-1.1632843017578125,-0.286346435546875,0.031158447265625
1772713797399478000,2.03747802734375,-1.1075897216796875,-0.287139892578125,0.02349853515625
1772713797409452000,2.0474521484375,-1.0945281982421875,-0.2926483154296875,0.0046844482421875
1772713797419426000,2.057426025390625,-1.097015380859375,-0.28515625,0.0150604248046875
1772713797429400000,2.067400146484375,-1.0754547119140625,-0.2655181884765625,0.0352325439453125
1772713797439374000,2.0773740234375,-1.035186767578125,-0.2498626708984375,0.044464111328125
1772713797449348900,2.087348876953125,-1.0147705078125,-0.2470855712890625,0.04193115234375
1772713797459323000,2.097322998046875,-0.9804534912109375,-0.285369873046875,0.012481689453125
1772713797469297000,2.107296875,-0.9340972900390625,-0.3480987548828125,-0.009033203125
1772713797479271000,2.11727099609375,-0.9161834716796875,-0.4050140380859375,-0.009002685546875
1772713797489245000,2.127244873046875,-0.9120941162109375,-0.4304962158203125,0.0029144287109375
1772713797499218700,2.13721875,-0.8964385986328125,-0.406219482421875,-0.015869140625
1772713797509193700,2.14719384765625,-0.8709716796875,-0.3542327880859375,-0.045806884765625
1772713797519167700,2.157167724609375,-0.846893310546875,-0.319671630859375,-0.057525634765625
1772713797529141800,2.167141845703125,-0.824432373046875,-0.321502685546875,-0.0547332763671875
1772713797539115800,2.17711572265625,-0.8170623779296875,-0.353118896484375,-0.049560546875
1772713797549089800,2.18708984375,-0.800201416015625,-0.3873748779296875,-0.037200927734375
1772713797559063600,2.1970634765625,-0.7598724365234375,-0.4071502685546875,-0.019927978515625
1772713797569038600,2.20703857421875,-0.711334228515625,-0.4332275390625,0.01837158203125
1772713797579012600,2.2170126953125,-0.853179931640625,-0.4116058349609375,-0.0632781982421875
1772713797588986600,2.226986572265625,-0.81365966796875,-0.36883544921875,-0.105377197265625
1772713797598960600,2.236960693359375,-0.7312469482421875,-0.3671875,-0.0837554931640625
1772713797608934700,2.2469345703125,-0.76116943359375,-0.4179840087890625,-0.049407958984375
1772713797618908700,2.25690869140625,-0.81207275390625,-0.4468536376953125,-0.05401611328125
1772713797628883700,2.2668837890625,-0.7821044921875,-0.4141387939453125,-0.070343017578125
1772713797638857700,2.276857666015625,-0.761322021484375,-0.3810272216796875,-0.0912933349609375
1772713797648831500,2.28683154296875,-0.7681427001953125,-0.371795654296875,-0.0975341796875
1772713797658805500,2.296805419921875,-0.7713623046875,-0.4507293701171875,-0.0597991943359375
1772713797668779500,2.306779541015625,-0.719207763671875,-0.4717864990234375,-0.0588531494140625
1772713797678753500,2.31675341796875,-0.72320556640625,-0.46551513671875,-0.0482177734375
1772713797688728600,2.326728515625,-0.7339019775390625,-0.5235137939453125,-0.020843505859375
1772713797698702600,2.33670263671875,-0.7505645751953125,-0.5985565185546875,0.010498046875
1772713797708676600,2.346676513671875,-0.7626800537109375,-0.6665496826171875,0.045623779296875
1772713797718650600,2.356650634765625,-0.7868194580078125,-0.662994384765625,0.0423126220703125
1772713797728624600,2.366624755859375,-0.8166351318359375,-0.6253204345703125,0.027313232421875
1772713797738599400,2.376599365234375,-0.8194732666015625,-0.615478515625,0.00445556640625
1772713797748573400,2.386573486328125,-0.8477325439453125,-0.629302978515625,-0.00982666015625
1772713797758547500,2.39654736328125,-0.9169921875,-0.599456787109375,-0.0234527587890625
1772713797768521500,2.406521484375,-0.9541778564453125,-0.542449951171875,-0.0617218017578125
1772713797778495500,2.41649560546875,-0.9396209716796875,-0.509429931640625,-0.1171417236328125
1772713797788469500,2.426469482421875,-0.9466552734375,-0.4723358154296875,-0.160919189453125
1772713797798444500,2.436444580078125,-0.9412994384765625,-0.4264068603515625,-0.1846466064453125
1772713797808418600,2.44641845703125,-0.914947509765625,-0.3928375244140625,-0.191497802734375
1772713797818392600,2.456392578125,-0.8749237060546875,-0.37744140625,-0.1710968017578125
1772713797828366600,2.46636669921875,-0.848602294921875,-0.363677978515625,-0.1484832763671875
1772713797838340600,2.476340576171875,-0.8546295166015625,-0.35382080078125,-0.1440887451171875
1772713797848314600,2.486314697265625,-0.8839111328125,-0.3861846923828125,-0.119720458984375
1772713797858289700,2.49628955078125,-0.90301513671875,-0.414154052734375,-0.1021575927734375
1772713797868263700,2.506263671875,-0.8986358642578125,-0.420318603515625,-0.1077423095703125
1772713797878237700,2.51623779296875,-0.8899993896484375,-0.420257568359375,-0.1013641357421875
1772713797888211700,2.526211669921875,-0.8957061767578125,-0.4278106689453125,-0.073699951171875
1772713797898185700,2.536185791015625,-0.889984130859375,-0.4325408935546875,-0.0543670654296875
1772713797908159700,2.54615966796875,-0.8905487060546875,-0.42291259765625,-0.0526275634765625
1772713797918134800,2.556134765625,-0.8980865478515625,-0.4216766357421875,-0.048004150390625
1772713797928108800,2.56610888671875,-0.905059814453125,-0.431060791015625,-0.0429534912109375
1772713797938082800,2.576082763671875,-0.91009521484375,-0.442840576171875,-0.0475006103515625
1772713797948056600,2.586056640625,-0.9190826416015625,-0.465911865234375,-0.0411224365234375
1772713797958030600,2.596030517578125,-0.9082183837890625,-0.488067626953125,-0.0318756103515625
1772713797968004600,2.606004638671875,-0.89422607421875,-0.51470947265625,-0.0302276611328125
1772713797977979600,2.615979736328125,-0.881927490234375,-0.540771484375,-0.0324859619140625
1772713797987953700,2.62595361328125,-0.871673583984375,-0.5676116943359375,-0.0325927734375
1772713797997927700,2.635927734375,-0.8629608154296875,-0.5926055908203125,-0.036865234375
1772713798007901700,2.645901611328125,-0.8642120361328125,-0.6118927001953125,-0.0428314208984375
1772713798017875700,2.655875732421875,-0.871826171875,-0.6314239501953125,-0.0430450439453125
1772713798027849700,2.665849609375,-0.883544921875,-0.6443634033203125,-0.047943115234375
1772713798037824500,2.675824462890625,-0.9042205810546875,-0.64801025390625,-0.0595245361328125
1772713798047798500,2.685798583984375,-0.928924560546875,-0.6467742919921875,-0.0752105712890625
1772713798057772500,2.6957724609375,-0.9503631591796875,-0.6643829345703125,-0.0930633544921875
1772713798067746600,2.70574658203125,-0.943115234375,-0.656341552734375,-0.11907958984375
1772713798077720600,2.715720458984375,-0.939727783203125,-0.60882568359375,-0.15045166015625
1772713798087694600,2.725694580078125,-0.9571075439453125,-0.574493408203125,-0.1829986572265625
1772713798097669600,2.735669677734375,-0.9572906494140625,-0.56158447265625,-0.2122344970703125
1772713798107643600,2.7456435546875,-0.9485321044921875,-0.53814697265625,-0.22760009765625
1772713798117617700,2.75561767578125,-0.93218994140625,-0.5148162841796875,-0.2349090576171875
1772713798127591700,2.765591796875,-0.922760009765625,-0.4994659423828125,-0.24920654296875
1772713798137565700,2.775565673828125,-0.9288177490234375,-0.4918212890625,-0.2424774169921875
1772713798147540500,2.78554052734375,-0.90191650390625,-0.490081787109375,-0.22442626953125
1772713798157514500,2.795514404296875,-0.8668212890625,-0.4817657470703125,-0.199249267578125
1772713798167488500,2.805488525390625,-0.84967041015625,-0.47314453125,-0.1669158935546875
1772713798177462500,2.815462646484375,-0.8403167724609375,-0.475128173828125,-0.13092041015625
1772713798187436500,2.8254365234375,-0.8060455322265625,-0.4769744873046875,-0.10211181640625
1772713798197410600,2.83541064453125,-0.773223876953125,-0.47998046875,-0.076904296875
1772713798207384600,2.845384521484375,-0.763214111328125,-0.484466552734375,-0.041656494140625
1772713798217359600,2.855359619140625,-0.7505035400390625,-0.50335693359375,-0.00634765625
1772713798227333600,2.865333740234375,-0.7430267333984375,-0.520751953125,0.0226287841796875
1772713798237307600,2.8753076171875,-0.751251220703125,-0.54095458984375,0.0468902587890625
1772713798247281700,2.88528173828125,-0.74285888671875,-0.5878448486328125,0.078765869140625
1772713798257255700,2.895255615234375,-0.747314453125,-0.5960845947265625,0.1087188720703125
1772713798267230500,2.90523046875,-0.7733612060546875,-0.5830535888671875,0.122955322265625
1772713798277204500,2.91520458984375,-0.793304443359375,-0.5861053466796875,0.1405029296875
1772713798287178500,2.925178466796875,-0.820068359375,-0.578338623046875,0.1622314453125
1772713798297152500,2.935152587890625,-0.852630615234375,-0.566192626953125,0.1673126220703125
1772713798307126500,2.94512646484375,-0.88671875,-0.561279296875,0.1649627685546875
1772713798317100500,2.9551005859375,-0.90625,-0.5377044677734375,0.162994384765625
1772713798327075800,2.965075927734375,-0.903289794921875,-0.519195556640625,0.185821533203125
1772713798337049600,2.975049560546875,-0.9207763671875,-0.5131988525390625,0.18743896484375
1772713798347023600,2.985023681640625,-0.936431884765625,-0.4845428466796875,0.180908203125
1772713798356997600,2.99499755859375,-0.935089111328125,-0.455780029296875,0.182647705078125
1772713798366971600,3.0049716796875,-0.912109375,-0.4394989013671875,0.192626953125
1772713798376945700,3.014945556640625,-0.9429473876953125,-0.4214019775390625,0.165924072265625
1772713798386920700,3.024920654296875,-0.966796875,-0.3987579345703125,0.1453704833984375
1772713798396894700,3.034894775390625,-0.9519805908203125,-0.394927978515625,0.15289306640625
1772713798406868700,3.04486865234375,-0.9417724609375,-0.3880157470703125,0.1515960693359375
1772713798416842800,3.0548427734375,-0.929656982421875,-0.3752288818359375,0.142608642578125
1772713798426816800,3.064816650390625,-0.911834716796875,-0.372528076171875,0.14288330078125
1772713798436790800,3.074790771484375,-0.8875579833984375,-0.3748626708984375,0.1490936279296875
1772713798446765600,3.084765625,-0.876922607421875,-0.377105712890625,0.1507415771484375
1772713798456739600,3.094739501953125,-0.8718719482421875,-0.3785247802734375,0.1405029296875
1772713798466713600,3.104713623046875,-0.847564697265625,-0.367828369140625,0.143310546875
1772713798476687600,3.1146875,-0.822418212890625,-0.3642425537109375,0.1592559814453125
1772713798486661600,3.12466162109375,-0.8299407958984375,-0.3708953857421875,0.1471710205078125
1772713798496635600,3.1346357421875,-0.8372802734375,-0.3747711181640625,0.1493988037109375
1772713798506609700,3.144609619140625,-0.8062896728515625,-0.3724517822265625,0.1768646240234375
1772713798516584700,3.154584716796875,-0.8052825927734375,-0.3799285888671875,0.1802520751953125
1772713798526558700,3.164558837890625,-0.8707427978515625,-0.3939208984375,0.14019775390625
1772713798536532700,3.17453271484375,-0.8693084716796875,-0.4094696044921875,0.13946533203125
1772713798546506800,3.1845068359375,-0.8667755126953125,-0.4214019775390625,0.1423797607421875
1772713798556480800,3.194480712890625,-0.8947601318359375,-0.425079345703125,0.135009765625
1772713798566454500,3.20445458984375,-0.9628448486328125,-0.437103271484375,0.1170196533203125
1772713798576429600,3.2144296875,-0.9997406005859375,-0.4364166259765625,0.099212646484375
1772713798586403600,3.224403564453125,-1.038330078125,-0.4174346923828125,0.0716705322265625
1772713798596377600,3.234377685546875,-1.091705322265625,-0.370819091796875,0.0070037841796875
1772713798606351600,3.2443515625,-1.1253204345703125,-0.3858642578125,0.0456695556640625
1772713798616325600,3.25432568359375,-1.1263275146484375,-0.326324462890625,0.010833740234375
1772713798626299600,3.264299560546875,-1.14398193359375,-0.2402496337890625,-0.102081298828125
1772713798636274700,3.274274658203125,-1.1290740966796875,-0.2005157470703125,-0.1401824951171875
1772713798646248700,3.284248779296875,-1.1216583251953125,-0.170562744140625,-0.147369384765625
1772713798656222500,3.294222412109375,-1.1166839599609375,-0.14947509765625,-0.156463623046875
1772713798666196500,3.304196533203125,-1.1023712158203125,-0.1408538818359375,-0.178985595703125
1772713798676170500,3.31417041015625,-1.04876708984375,-0.1311492919921875,-0.1851348876953125
1772713798686144500,3.32414453125,-0.9778594970703125,-0.13409423828125,-0.1588134765625
1772713798696119600,3.33411962890625,-0.9795989990234375,-0.1414947509765625,-0.147918701171875
1772713798706093600,3.344093505859375,-0.9319305419921875,-0.1152191162109375,-0.1527099609375
1772713798716067600,3.354067626953125,-0.920806884765625,-0.194000244140625,-0.0909576416015625
1772713798726041600,3.36404150390625,-0.919403076171875,-0.227630615234375,-0.0442962646484375
1772713798736015600,3.374015625,-0.871307373046875,-0.17816162109375,-0.0498809814453125
1772713798745989600,3.38398974609375,-0.8763580322265625,-0.2133636474609375,-0.0986328125
1772713798755964400,3.39396435546875,-0.9162445068359375,-0.2372589111328125,-0.0940399169921875
1772713798765938400,3.4039384765625,-0.876129150390625,-0.2501678466796875,-0.0384368896484375
1772713798775912400,3.413912353515625,-0.8912200927734375,-0.2701568603515625,-0.0372467041015625
1772713798785886500,3.423886474609375,-0.961639404296875,-0.271148681640625,-0.0611572265625
1772713798795860500,3.433860595703125,-0.97216796875,-0.273956298828125,-0.0638580322265625
1772713798805834500,3.44383447265625,-0.99957275390625,-0.2631072998046875,-0.08038330078125
1772713798815809500,3.4538095703125,-1.0279083251953125,-0.2417144775390625,-0.09405517578125
1772713798825783600,3.463783447265625,-1.056243896484375,-0.2213897705078125,-0.1088409423828125
1772713798835757600,3.473757568359375,-1.093963623046875,-0.1961822509765625,-0.1270599365234375
1772713798845731600,3.483731689453125,-1.121917724609375,-0.1808624267578125,-0.1377716064453125
1772713798855705600,3.49370556640625,-1.132598876953125,-0.156097412109375,-0.143524169921875
1772713798865679600,3.5036796875,-1.1431121826171875,-0.1358795166015625,-0.1403045654296875
1772713798875654400,3.513654296875,-1.13482666015625,-0.133087158203125,-0.1289825439453125
1772713798885628400,3.52362841796875,-1.123077392578125,-0.1228179931640625,-0.1115875244140625
1772713798895602400,3.5336025390625,-1.10302734375,-0.1106719970703125,-0.09320068359375
1772713798905576400,3.543576416015625,-1.0835723876953125,-0.1042633056640625,-0.084869384765625
1772713798915550500,3.553550537109375,-1.0630645751953125,-0.1009979248046875,-0.084869384765625
1772713798925524500,3.5635244140625,-1.041961669921875,-0.1128997802734375,-0.0699310302734375
1772713798935499800,3.573499755859375,-1.0283966064453125,-0.1244049072265625,-0.063385009765625
1772713798945473800,3.583473876953125,-1.0168914794921875,-0.14202880859375,-0.06207275390625
1772713798955447600,3.593447509765625,-1.0044097900390625,-0.1592254638671875,-0.0529937744140625
1772713798965421600,3.603421630859375,-0.9938507080078125,-0.163909912109375,-0.0442962646484375
1772713798975395600,3.6133955078125,-0.9763946533203125,-0.1678924560546875,-0.0432586669921875
1772713798985369600,3.62336962890625,-0.9619903564453125,-0.165618896484375,-0.0443878173828125
1772713798995344600,3.6333447265625,-0.94635009765625,-0.1698760986328125,-0.0404510498046875
1772713799005318700,3.643318603515625,-0.9244384765625,-0.1651611328125,-0.0444488525390625
1772713799015292700,3.653292724609375,-0.8983917236328125,-0.15887451171875,-0.050079345703125
1772713799025266700,3.6632666015625,-0.8738555908203125,-0.1544647216796875,-0.0529937744140625
1772713799035240700,3.67324072265625,-0.853424072265625,-0.1501312255859375,-0.0540313720703125
1772713799045214700,3.683214599609375,-0.8274993896484375,-0.150238037109375,-0.0570220947265625
1772713799055189500,3.693189453125,-0.8029022216796875,-0.15582275390625,-0.0581817626953125
1772713799065163500,3.70316357421875,-0.779754638671875,-0.1684722900390625,-0.0580596923828125
1772713799075137500,3.713137451171875,-0.762359619140625,-0.1782073974609375,-0.059051513671875
1772713799085111600,3.723111572265625,-0.7490081787109375,-0.179901123046875,-0.0596466064453125
1772713799095085600,3.73308544921875,-0.735382080078125,-0.1911773681640625,-0.0643310546875
1772713799105059600,3.7430595703125,-0.7341156005859375,-0.2020721435546875,-0.070404052734375
1772713799115033600,3.75303369140625,-0.735107421875,-0.21240234375,-0.06976318359375
1772713799125008600,3.763008544921875,-0.7357635498046875,-0.2233428955078125,-0.07562255859375
1772713799134982700,3.772982666015625,-0.7377166748046875,-0.232452392578125,-0.0810394287109375
1772713799144956700,3.782956787109375,-0.7483367919921875,-0.24359130859375,-0.0853271484375
1772713799154930700,3.7929306640625,-0.757080078125,-0.2513427734375,-0.08837890625
1772713799164904700,3.80290478515625,-0.7672119140625,-0.2582855224609375,-0.0890960693359375
1772713799174878700,3.812878662109375,-0.779754638671875,-0.2698974609375,-0.0916900634765625
1772713799184853500,3.822853515625,-0.797515869140625,-0.2756500244140625,-0.0908660888671875
1772713799194827500,3.83282763671875,-0.8242950439453125,-0.2808380126953125,-0.097412109375
1772713799204801500,3.842801513671875,-0.8531036376953125,-0.2907867431640625,-0.105224609375
1772713799214775600,3.852775634765625,-0.8783416748046875,-0.298828125,-0.116851806640625
1772713799224749600,3.86274951171875,-0.9052734375,-0.29730224609375,-0.136505126953125
1772713799234723600,3.8727236328125,-0.9366607666015625,-0.3006744384765625,-0.15667724609375
1772713799244698600,3.88269873046875,-0.9662322998046875,-0.3041229248046875,-0.1806793212890625
1772713799254672600,3.892672607421875,-0.995086669921875,-0.287200927734375,-0.216278076171875
1772713799264646700,3.902646728515625,-1.029815673828125,-0.2698974609375,-0.2423248291015625
1772713799274620400,3.912620361328125,-1.0611419677734375,-0.2552032470703125,-0.2668914794921875
1772713799284594400,3.922594482421875,-1.078399658203125,-0.23077392578125,-0.2961578369140625
1772713799294568400,3.932568359375,-1.09051513671875,-0.2079925537109375,-0.3220672607421875
1772713799304543500,3.94254345703125,-1.117645263671875,-0.19366455078125,-0.3343353271484375
1772713799314517500,3.952517578125,-1.1290740966796875,-0.1909332275390625,-0.3434600830078125
1772713799324491500,3.962491455078125,-1.1173248291015625,-0.1927490234375,-0.34564208984375
1772713799334465500,3.972465576171875,-1.1085205078125,-0.2101593017578125,-0.3329925537109375
1772713799344439600,3.982439453125,-1.1123199462890625,-0.237884521484375,-0.3093109130859375
1772713799354413600,3.99241357421875,-1.1180267333984375,-0.2660675048828125,-0.28240966796875
1772713799364388400,4.002388427734375,-1.1136474609375,-0.2903594970703125,-0.25567626953125
1772713799374362400,4.0123623046875,-1.1110382080078125,-0.3123779296875,-0.227783203125
1772713799384336400,4.02233642578125,-1.1090087890625,-0.323822021484375,-0.20916748046875
1772713799394310400,4.032310302734375,-1.0962982177734375,-0.329345703125,-0.2064971923828125
1772713799404284400,4.042284423828125,-1.09332275390625,-0.33526611328125,-0.205780029296875
1772713799414258400,4.052258544921875,-1.0986480712890625,-0.3390045166015625,-0.2057647705078125
1772713799424233700,4.062233642578125,-1.10418701171875,-0.3384552001953125,-0.1997528076171875
1772713799434207700,4.072207763671875,-1.096954345703125,-0.3271636962890625,-0.1971893310546875
1772713799444181800,4.082181640625,-1.0789337158203125,-0.3165283203125,-0.1956634521484375
1772713799454155800,4.09215576171875,-1.07275390625,-0.3133087158203125,-0.1905670166015625
1772713799464129800,4.1021298828125,-1.0815887451171875,-0.3195648193359375,-0.17559814453125
1772713799474103800,4.112103759765625,-1.092987060546875,-0.3167266845703125,-0.163330078125
1772713799484077600,4.12207763671875,-1.09527587890625,-0.3009796142578125,-0.1628875732421875
1772713799494052600,4.132052490234375,-1.11126708984375,-0.2784423828125,-0.1621551513671875
1772713799504026000,4.142026123046875,-1.129150390625,-0.251983642578125,-0.16351318359375
1772713799514000100,4.152000244140625,-1.1353607177734375,-0.214996337890625,-0.1745758056640625
1772713799523974100,4.16197412109375,-1.1336212158203125,-0.1778106689453125,-0.1836395263671875
1772713799533948200,4.1719482421875,-1.13104248046875,-0.142852783203125,-0.18951416015625
1772713799543922200,4.181922119140625,-1.1216583251953125,-0.11346435546875,-0.1929473876953125
1772713799553897200,4.191897216796875,-1.1055450439453125,-0.0902557373046875,-0.1906890869140625
1772713799563871200,4.201871337890625,-1.08563232421875,-0.0707550048828125,-0.177825927734375
1772713799573845200,4.21184521484375,-1.066253662109375,-0.0607147216796875,-0.1512908935546875
1772713799583819300,4.2218193359375,-1.0465087890625,-0.06170654296875,-0.1253662109375
1772713799593793300,4.231793212890625,-1.0203857421875,-0.06414794921875,-0.09759521484375
1772713799603767000,4.24176708984375,-0.9980621337890625,-0.06903076171875,-0.0733795166015625
1772713799613742000,4.2517421875,-0.977508544921875,-0.076934814453125,-0.0579833984375
1772713799623716000,4.261716064453125,-0.96209716796875,-0.092041015625,-0.0428619384765625
1772713799633690000,4.271690185546875,-0.950714111328125,-0.106536865234375,-0.0304412841796875
1772713799643664100,4.2816640625,-0.93267822265625,-0.118621826171875,-0.0251312255859375
1772713799653638100,4.29163818359375,-0.925750732421875,-0.120758056640625,-0.01470947265625
1772713799663612200,4.301612060546875,-0.929443359375,-0.1309051513671875,-0.01177978515625
1772713799673587200,4.311587158203125,-0.9329986572265625,-0.1418609619140625,-0.008819580078125
1772713799683561000,4.32156103515625,-0.940704345703125,-0.15509033203125,-0.007476806640625
1772713799693535000,4.331534912109375,-0.9600830078125,-0.1688079833984375,-0.01959228515625
1772713799703509000,4.341509033203125,-0.958984375,-0.1681976318359375,-0.0203399658203125
1772713799713483000,4.35148291015625,-0.97821044921875,-0.17510986328125,-0.037811279296875
1772713799723457000,4.36145703125,-1.021514892578125,-0.1726837158203125,-0.0639801025390625
1772713799733431000,4.37143115234375,-1.0471343994140625,-0.159149169921875,-0.0803375244140625
1772713799743406300,4.38140625,-1.0739593505859375,-0.1521148681640625,-0.0994110107421875
1772713799753380400,4.39138037109375,-1.0889129638671875,-0.13861083984375,-0.124237060546875
1772713799763354400,4.401354248046875,-1.0810546875,-0.125274658203125,-0.147186279296875
1772713799773328400,4.411328369140625,-1.0792388916015625,-0.112213134765625,-0.159210205078125
1772713799783302400,4.421302490234375,-1.0626983642578125,-0.097930908203125,-0.15924072265625
1772713799793276400,4.4312763671875,-1.0348968505859375,-0.090423583984375,-0.152587890625
1772713799803251200,4.441251220703125,-1.0023345947265625,-0.09381103515625,-0.137451171875
1772713799813225200,4.45122509765625,-0.9640960693359375,-0.104766845703125,-0.1128082275390625
1772713799823199200,4.46119921875,-0.923736572265625,-0.1164398193359375,-0.0868682861328125
1772713799833173200,4.47117333984375,-0.889404296875,-0.131500244140625,-0.058929443359375
1772713799843147300,4.481147216796875,-0.8644256591796875,-0.1454010009765625,-0.0450286865234375
1772713799853121300,4.491121337890625,-0.8321990966796875,-0.159759521484375,-0.0349273681640625
1772713799863096300,4.501096435546875,-0.8004150390625,-0.1674346923828125,-0.026580810546875
1772713799873070300,4.5110703125,-0.7841644287109375,-0.1743011474609375,-0.0211181640625
1772713799883044400,4.52104443359375,-0.7713623046875,-0.1868133544921875,-0.01373291015625
1772713799893018400,4.531018310546875,-0.75970458984375,-0.19866943359375,-0.0098114013671875
1772713799902992100,4.5409921875,-0.7547149658203125,-0.2077178955078125,-0.0080413818359375
1772713799912966100,4.550966064453125,-0.7506561279296875,-0.219024658203125,-0.005950927734375
1772713799922941200,4.560941162109375,-0.755401611328125,-0.2285614013671875,-0.008941650390625
1772713799932915200,4.570915283203125,-0.7636871337890625,-0.238525390625,-0.010223388671875
1772713799942889200,4.58088916015625,-0.7677764892578125,-0.25347900390625,-0.0114288330078125
1772713799952863200,4.59086328125,-0.77423095703125,-0.2651519775390625,-0.014068603515625
1772713799962837200,4.600837158203125,-0.7863311767578125,-0.27398681640625,-0.0157470703125
1772713799972811300,4.610811279296875,-0.792999267578125,-0.28289794921875,-0.0185546875
1772713799982785300,4.620785400390625,-0.804443359375,-0.2857208251953125,-0.0323028564453125
1772713799992760000,4.630760009765625,-0.818023681640625,-0.28485107421875,-0.0401611328125
1772713800002734000,4.640734130859375,-0.8345489501953125,-0.2850494384765625,-0.048492431640625
1772713800012708000,4.6507080078125,-0.850830078125,-0.27716064453125,-0.0618896484375
1772713800022682000,4.66068212890625,-0.86322021484375,-0.2709197998046875,-0.0683746337890625
1772713800032656100,4.67065625,-0.882049560546875,-0.273468017578125,-0.0739898681640625
1772713800042630100,4.680630126953125,-0.9014434814453125,-0.273651123046875,-0.0877532958984375
1772713800052605200,4.690605224609375,-0.9250640869140625,-0.2758026123046875,-0.104461669921875
1772713800062579200,4.7005791015625,-0.9503631591796875,-0.2784423828125,-0.1276092529296875
1772713800072553200,4.71055322265625,-0.9714813232421875,-0.2811126708984375,-0.163360595703125
1772713800082527200,4.72052734375,-0.987152099609375,-0.29022216796875,-0.195068359375
1772713800092501200,4.730501220703125,-0.9975433349609375,-0.3032989501953125,-0.2177886962890625
1772713800102475300,4.740475341796875,-0.9985809326171875,-0.323394775390625,-0.23675537109375
1772713800112450000,4.750449951171875,-1.004302978515625,-0.3482666015625,-0.254852294921875
1772713800122424000,4.760424072265625,-1.003021240234375,-0.3715972900390625,-0.2708740234375
1772713800132398000,4.770398193359375,-1.0050811767578125,-0.3928680419921875,-0.28167724609375
1772713800142372000,4.7803720703125,-1.0105438232421875,-0.413665771484375,-0.2827911376953125
1772713800152346000,4.79034619140625,-1.009857177734375,-0.4329071044921875,-0.278961181640625
1772713800162320100,4.800320068359375,-1.012603759765625,-0.4455413818359375,-0.270782470703125
1772713800172294100,4.810294189453125,-1.00958251953125,-0.4525299072265625,-0.2603302001953125
1772713800182269200,4.820269287109375,-1.00531005859375,-0.4485626220703125,-0.2551422119140625
1772713800192243200,4.8302431640625,-1.0049285888671875,-0.438323974609375,-0.24566650390625
1772713800202217200,4.84021728515625,-1.004791259765625,-0.4293975830078125,-0.2349853515625
1772713800212191200,4.850191162109375,-0.9994964599609375,-0.4206695556640625,-0.213592529296875
1772713800222165000,4.8601650390625,-0.9958038330078125,-0.41241455078125,-0.18817138671875
1772713800232139000,4.870138916015625,-0.998687744140625,-0.4018707275390625,-0.16015625
1772713800242114300,4.8801142578125,-1.003662109375,-0.389007568359375,-0.1345367431640625
1772713800252088300,4.89008837890625,-1.01263427734375,-0.3743896484375,-0.1159515380859375
1772713800262062300,4.900062255859375,-1.01727294921875,-0.35797119140625,-0.1064605712890625
1772713800272036400,4.910036376953125,-1.020050048828125,-0.3449859619140625,-0.1069183349609375
1772713800282010400,4.92001025390625,-1.024444580078125,-0.346527099609375,-0.1026458740234375
1772713800291984400,4.929984375,-1.030487060546875,-0.361297607421875,-0.099334716796875
1772713800301959200,4.939959228515625,-1.0424652099609375,-0.3667449951171875,-0.112884521484375
1772713800311933200,4.94993310546875,-1.0513458251953125,-0.3663787841796875,-0.13946533203125
1772713800321907200,4.9599072265625,-1.0572967529296875,-0.3707733154296875,-0.16778564453125
1772713800331881200,4.969881103515625,-1.0797576904296875,-0.3654022216796875,-0.199005126953125
1772713800341855200,4.979855224609375,-1.102447509765625,-0.3489532470703125,-0.2330169677734375
1772713800351829200,4.989829345703125,-1.1124420166015625,-0.3309326171875,-0.26885986328125
1772713800361803300,4.99980322265625,-1.1179351806640625,-0.3044586181640625,-0.3013153076171875
1772713800371778300,5.0097783203125,-1.1275787353515625,-0.2775421142578125,-0.3156280517578125
1772713800381752300,5.01975244140625,-1.1282501220703125,-0.24114990234375,-0.322845458984375
1772713800391726300,5.029726318359375,-1.1171112060546875,-0.2047271728515625,-0.31317138671875
1772713800401700400,5.039700439453125,-1.0992889404296875,-0.16937255859375,-0.277374267578125
1772713800411674400,5.04967431640625,-1.0763702392578125,-0.144561767578125,-0.244049072265625
1772713800421648400,5.0596484375,-1.05731201171875,-0.1240386962890625,-0.208099365234375
1772713800431623200,5.069623046875,-1.0268096923828125,-0.1162261962890625,-0.1756134033203125
1772713800441597200,5.07959716796875,-0.9934234619140625,-0.1181640625,-0.1326446533203125
1772713800451571200,5.0895712890625,-0.9784698486328125,-0.129791259765625,-0.0965423583984375
1772713800461545200,5.099545166015625,-0.9698028564453125,-0.157135009765625,-0.0644073486328125
1772713800471519200,5.109519287109375,-0.950408935546875,-0.1812744140625,-0.025909423828125
1772713800481493200,5.1194931640625,-0.932464599609375,-0.20770263671875,0.0002288818359375
1772713800491467300,5.12946728515625,-0.930389404296875,-0.2276458740234375,0.0199432373046875
1772713800501442600,5.139442626953125,-0.9319915771484375,-0.242584228515625,0.032379150390625
1772713800511416300,5.149416259765625,-0.9410858154296875,-0.2518310546875,0.031646728515625
1772713800521390300,5.159390380859375,-0.9623260498046875,-0.2561798095703125,0.0313568115234375
1772713800531364400,5.1693642578125,-0.980377197265625,-0.247955322265625,0.013824462890625
1772713800541338400,5.17933837890625,-0.9907379150390625,-0.2319183349609375,-0.0182342529296875
1772713800551312400,5.1893125,-1.0141754150390625,-0.2269744873046875,-0.03436279296875
1772713800561287400,5.199287353515625,-1.036346435546875,-0.226837158203125,-0.0483856201171875
1772713800571261400,5.209261474609375,-1.0337066650390625,-0.2246551513671875,-0.065765380859375
1772713800581235500,5.2192353515625,-1.02764892578125,-0.227264404296875,-0.083984375
1772713800591209500,5.22920947265625,-1.01904296875,-0.2381591796875,-0.1009063720703125
1772713800601183500,5.23918359375,-1.0029754638671875,-0.2556304931640625,-0.115203857421875
1772713800611157500,5.249157470703125,-0.9774627685546875,-0.273193359375,-0.1314849853515625
1772713800621131500,5.259131591796875,-0.94427490234375,-0.293182373046875,-0.1421661376953125
1772713800631106300,5.269106201171875,-0.9245758056640625,-0.306884765625,-0.1488800048828125
1772713800641080300,5.279080322265625,-0.901641845703125,-0.314544677734375,-0.15338134765625
1772713800651054300,5.289054443359375,-0.8736114501953125,-0.3191375732421875,-0.15826416015625
1772713800661028400,5.2990283203125,-0.853118896484375,-0.3245697021484375,-0.1599578857421875
1772713800671002400,5.30900244140625,-0.8342742919921875,-0.34283447265625,-0.1490936279296875
1772713800680974600,5.318974609375,-0.8157501220703125,-0.3664703369140625,-0.1419525146484375
1772713800690948600,5.328948486328125,-0.8101654052734375,-0.3912506103515625,-0.13330078125
1772713800700922400,5.33892236328125,-0.8134002685546875,-0.41595458984375,-0.1351776123046875
1772713800710897400,5.3488974609375,-0.810821533203125,-0.441436767578125,-0.143341064453125
1772713800720871400,5.358871337890625,-0.8207550048828125,-0.4588165283203125,-0.152862548828125
1772713800730845400,5.368845458984375,-0.816436767578125,-0.4708251953125,-0.1668853759765625
1772713800740819500,5.3788193359375,-0.797454833984375,-0.4775543212890625,-0.1837615966796875
1772713800750793500,5.38879345703125,-0.7821807861328125,-0.4908905029296875,-0.1938323974609375
1772713800760767500,5.398767578125,-0.7759552001953125,-0.5035400390625,-0.19903564453125
1772713800770741500,5.408741455078125,-0.76519775390625,-0.5130462646484375,-0.2042236328125
1772713800780716500,5.418716552734375,-0.7565460205078125,-0.5261688232421875,-0.1985626220703125
1772713800790690300,5.428690185546875,-0.7579803466796875,-0.5322265625,-0.191192626953125
1772713800800664300,5.438664306640625,-0.7594757080078125,-0.5394134521484375,-0.18896484375
1772713800810638300,5.448638427734375,-0.7518463134765625,-0.547149658203125,-0.18359375
1772713800820612400,5.4586123046875,-0.74078369140625,-0.54669189453125,-0.1745147705078125
1772713800830586400,5.46858642578125,-0.72235107421875,-0.548980712890625,-0.1665802001953125
1772713800840561400,5.4785615234375,-0.7074127197265625,-0.5566864013671875,-0.1546783447265625
1772713800850535400,5.488535400390625,-0.717620849609375,-0.5630950927734375,-0.122314453125
1772713800860509400,5.498509521484375,-0.755279541015625,-0.5536346435546875,-0.0890960693359375
1772713800870483500,5.5084833984375,-0.7679290771484375,-0.5409698486328125,-0.089019775390625
1772713800880457500,5.51845751953125,-0.753387451171875,-0.5241241455078125,-0.0964202880859375
1772713800890431500,5.528431396484375,-0.7737579345703125,-0.5200347900390625,-0.0747222900390625
1772713800900405500,5.538405517578125,-0.7947998046875,-0.5303802490234375,-0.05499267578125
1772713800910380300,5.54838037109375,-0.78961181640625,-0.5434722900390625,-0.0438232421875
1772713800920354300,5.558354248046875,-0.790771484375,-0.5652313232421875,-0.023406982421875
1772713800930328300,5.568328369140625,-0.7896575927734375,-0.5877838134765625,-0.01171875
1772713800940302300,5.57830224609375,-0.7676544189453125,-0.591827392578125,-0.0113983154296875
1772713800950276400,5.5882763671875,-0.7510528564453125,-0.59710693359375,-0.0113372802734375
1772713800960250400,5.59825048828125,-0.747039794921875,-0.6039276123046875,-0.0106048583984375
1772713800970225400,5.608225341796875,-0.7440643310546875,-0.6010589599609375,-0.0155792236328125
1772713800980199400,5.618199462890625,-0.747528076171875,-0.588043212890625,-0.0267791748046875
1772713800990173400,5.62817333984375,-0.7705078125,-0.567169189453125,-0.0476531982421875
1772713801000147500,5.6381474609375,-0.7714996337890625,-0.54669189453125,-0.086212158203125
1772713801010121500,5.64812158203125,-0.7713623046875,-0.5457000732421875,-0.106353759765625
1772713801020095200,5.65809521484375,-0.79248046875,-0.555999755859375,-0.12164306640625
1772713801030069200,5.6680693359375,-0.79034423828125,-0.56793212890625,-0.1427764892578125
1772713801040044500,5.67804443359375,-0.7816314697265625,-0.5839080810546875,-0.1667633056640625
1772713801050018600,5.6880185546875,-0.7785186767578125,-0.598388671875,-0.1839447021484375
1772713801059992600,5.69799267578125,-0.7755584716796875,-0.6121826171875,-0.1991729736328125
1772713801069966600,5.707966552734375,-0.76275634765625,-0.6204376220703125,-0.2161102294921875
1772713801079940600,5.717940673828125,-0.7676544189453125,-0.6244659423828125,-0.230194091796875
1772713801089914600,5.72791455078125,-0.7540283203125,-0.6451416015625,-0.24285888671875
1772713801099888600,5.737888671875,-0.738189697265625,-0.656524658203125,-0.261474609375
1772713801109863400,5.747863525390625,-0.7444915771484375,-0.6559295654296875,-0.27252197265625
1772713801119837400,5.75783740234375,-0.73663330078125,-0.662841796875,-0.2826385498046875
1772713801129811500,5.7678115234375,-0.7043914794921875,-0.6789703369140625,-0.29010009765625
1772713801139785500,5.777785400390625,-0.681732177734375,-0.6938018798828125,-0.291900634765625
1772713801149759500,5.787759521484375,-0.6931304931640625,-0.6927337646484375,-0.2896575927734375
1772713801159733500,5.7977333984375,-0.6981048583984375,-0.6764068603515625,-0.292572021484375
1772713801169708500,5.80770849609375,-0.696990966796875,-0.6584014892578125,-0.2923431396484375
1772713801179682600,5.8176826171875,-0.69720458984375,-0.6464080810546875,-0.2917938232421875
1772713801189656600,5.827656494140625,-0.6830902099609375,-0.636810302734375,-0.29443359375
1772713801199630600,5.837630615234375,-0.6772918701171875,-0.6250457763671875,-0.2952880859375
1772713801209604600,5.8476044921875,-0.6884765625,-0.6223297119140625,-0.2960662841796875
1772713801219578600,5.85757861328125,-0.680084228515625,-0.611083984375,-0.302520751953125
1772713801229552400,5.867552490234375,-0.66827392578125,-0.6016998291015625,-0.3083648681640625
1772713801239527400,5.87752734375,-0.66156005859375,-0.59722900390625,-0.31341552734375
1772713801249501400,5.88750146484375,-0.6465606689453125,-0.58367919921875,-0.3245697021484375
1772713801259475500,5.897475341796875,-0.6220855712890625,-0.5682220458984375,-0.3322296142578125
1772713801269449500,5.907449462890625,-0.606109619140625,-0.5577392578125,-0.3345794677734375
1772713801279423500,5.917423583984375,-0.590484619140625,-0.5618133544921875,-0.335784912109375
1772713801289397500,5.9273974609375,-0.572601318359375,-0.571014404296875,-0.334228515625
1772713801299371500,5.93737158203125,-0.56585693359375,-0.57183837890625,-0.3315582275390625
1772713801309346600,5.9473466796875,-0.5394744873046875,-0.534820556640625,-0.3323516845703125
1772713801319320300,5.9573203125,-0.584716796875,-0.6368408203125,-0.34002685546875
1772713801329296400,5.96729638671875,-0.603973388671875,-0.6729736328125,-0.3240814208984375
1772713801339270400,5.9772705078125,-0.55889892578125,-0.618560791015625,-0.323089599609375
1772713801349245400,5.987245361328125,-0.5592041015625,-0.6334686279296875,-0.3200225830078125
1772713801359219500,5.997219482421875,-0.5768890380859375,-0.688201904296875,-0.313232421875
1772713801369193500,6.007193359375,-0.58367919921875,-0.70587158203125,-0.3049468994140625
1772713801379167500,6.01716748046875,-0.59100341796875,-0.71868896484375,-0.2981109619140625
1772713801389141500,6.0271416015625,-0.6075439453125,-0.7433013916015625,-0.2969207763671875
1772713801399115500,6.037115478515625,-0.609100341796875,-0.7538299560546875,-0.293548583984375
1772713801409089500,6.047089599609375,-0.61260986328125,-0.761627197265625,-0.2829742431640625
1772713801419064600,6.057064697265625,-0.6178131103515625,-0.7719573974609375,-0.2778778076171875
1772713801429038600,6.06703857421875,-0.63714599609375,-0.772247314453125,-0.2719573974609375
1772713801439012600,6.0770126953125,-0.6517181396484375,-0.761566162109375,-0.2756805419921875
1772713801448986600,6.086986572265625,-0.651153564453125,-0.7461090087890625,-0.2852935791015625
1772713801458960600,6.096960693359375,-0.6634063720703125,-0.7272491455078125,-0.2957611083984375
1772713801468934700,6.1069345703125,-0.6712188720703125,-0.7123565673828125,-0.300445556640625
1772713801478909400,6.116909423828125,-0.6773529052734375,-0.6970062255859375,-0.299957275390625
1772713801488883500,6.126883544921875,-0.6848297119140625,-0.6853179931640625,-0.294952392578125
1772713801498857500,6.136857421875,-0.70947265625,-0.67083740234375,-0.285308837890625
1772713801508831500,6.14683154296875,-0.72247314453125,-0.6535797119140625,-0.2823486328125
1772713801518805500,6.156805419921875,-0.729400634765625,-0.6368865966796875,-0.2804412841796875
1772713801528779500,6.166779541015625,-0.7341461181640625,-0.6219482421875,-0.2785797119140625
1772713801538753500,6.17675341796875,-0.7354736328125,-0.61663818359375,-0.2692718505859375
1772713801548728600,6.186728515625,-0.7415924072265625,-0.618499755859375,-0.2610931396484375
1772713801558702600,6.19670263671875,-0.739898681640625,-0.6209716796875,-0.2581939697265625
1772713801568676400,6.20667626953125,-0.7403106689453125,-0.6239166259765625,-0.2570953369140625
1772713801578650400,6.216650390625,-0.751068115234375,-0.636688232421875,-0.247772216796875
1772713801588624400,6.226624267578125,-0.7398223876953125,-0.64581298828125,-0.2436981201171875
1772713801598598400,6.236598388671875,-0.73992919921875,-0.64581298828125,-0.2369537353515625
1772713801608572400,6.246572509765625,-0.746063232421875,-0.65704345703125,-0.227508544921875
1772713801618547500,6.25654736328125,-0.750885009765625,-0.667938232421875,-0.216888427734375
1772713801628521500,6.266521484375,-0.7679443359375,-0.6766510009765625,-0.2041015625
1772713801638495500,6.27649560546875,-0.7847747802734375,-0.68438720703125,-0.19219970703125
1772713801648469500,6.286469482421875,-0.7958526611328125,-0.6837310791015625,-0.181488037109375
1772713801658443500,6.296443603515625,-0.810302734375,-0.6793670654296875,-0.1721649169921875
1772713801668417500,6.30641748046875,-0.8231964111328125,-0.67059326171875,-0.1665496826171875
1772713801678392300,6.316392333984375,-0.8412933349609375,-0.6602935791015625,-0.1667022705078125
1772713801688366300,6.326366455078125,-0.8554840087890625,-0.648956298828125,-0.1678619384765625
1772713801698340400,6.33634033203125,-0.8687744140625,-0.6410369873046875,-0.1739349365234375
1772713801708314400,6.346314453125,-0.880462646484375,-0.635284423828125,-0.1812286376953125
1772713801718288400,6.356288330078125,-0.8919830322265625,-0.6285858154296875,-0.1889190673828125
1772713801728262400,6.366262451171875,-0.8972625732421875,-0.618865966796875,-0.203155517578125
1772713801738236400,6.376236328125,-0.897705078125,-0.6076202392578125,-0.2189788818359375
1772713801748211500,6.38621142578125,-0.9010009765625,-0.5955352783203125,-0.23687744140625
1772713801758185500,6.396185546875,-0.90289306640625,-0.58154296875,-0.2499847412109375
1772713801768159500,6.406159423828125,-0.9011077880859375,-0.571014404296875,-0.263763427734375
1772713801778133500,6.416133544921875,-0.895599365234375,-0.563018798828125,-0.2780303955078125
1772713801788107500,6.426107421875,-0.8935089111328125,-0.5554962158203125,-0.29290771484375
1772713801798081300,6.436081298828125,-0.8852081298828125,-0.541168212890625,-0.3092193603515625
1772713801808055300,6.44605517578125,-0.86480712890625,-0.52801513671875,-0.325439453125
1772713801818030300,6.4560302734375,-0.84967041015625,-0.526031494140625,-0.3344268798828125
1772713801828004400,6.46600439453125,-0.8426361083984375,-0.5307159423828125,-0.3371124267578125
1772713801837978400,6.475978271484375,-0.8302154541015625,-0.53680419921875,-0.3427276611328125
1772713801847952400,6.485952392578125,-0.8187255859375,-0.5406036376953125,-0.3438720703125
1772713801857926400,6.495926513671875,-0.82220458984375,-0.5476226806640625,-0.341461181640625
1772713801867900400,6.505900390625,-0.82818603515625,-0.5515899658203125,-0.3362884521484375
1772713801877874400,6.51587451171875,-0.8350067138671875,-0.5538482666015625,-0.3353271484375
1772713801887849500,6.525849365234375,-0.8449249267578125,-0.553070068359375,-0.3396759033203125
1772713801897823200,6.5358232421875,-0.8546905517578125,-0.549835205078125,-0.3507843017578125
1772713801907797200,6.54579736328125,-0.861236572265625,-0.5405731201171875,-0.3700714111328125
1772713801917771300,6.555771240234375,-0.854034423828125,-0.5225830078125,-0.3896331787109375
1772713801927745300,6.565745361328125,-0.8323516845703125,-0.49810791015625,-0.407928466796875
1772713801937719300,6.57571923828125,-0.8150177001953125,-0.4770660400390625,-0.4164886474609375
1772713801947694600,6.585694580078125,-0.7953033447265625,-0.4619903564453125,-0.4207000732421875
1772713801957668600,6.595668701171875,-0.769744873046875,-0.448822021484375,-0.4247283935546875
1772713801967642600,6.605642578125,-0.76837158203125,-0.442840576171875,-0.4230194091796875
1772713801977616600,6.61561669921875,-0.77093505859375,-0.43896484375,-0.417999267578125
1772713801987590700,6.625590576171875,-0.760284423828125,-0.4326324462890625,-0.4172210693359375
1772713801997564700,6.635564697265625,-0.7572784423828125,-0.437103271484375,-0.408599853515625
1772713802007538400,6.645538330078125,-0.760711669921875,-0.4551239013671875,-0.39410400390625
1772713802017513500,6.655513427734375,-0.75946044921875,-0.4706878662109375,-0.386993408203125
1772713802027487500,6.665487548828125,-0.7561798095703125,-0.47967529296875,-0.37811279296875
1772713802037461500,6.67546142578125,-0.766693115234375,-0.4857330322265625,-0.3704833984375
1772713802047435500,6.685435546875,-0.772430419921875,-0.4850311279296875,-0.37054443359375
1772713802057409500,6.695409423828125,-0.7781982421875,-0.477508544921875,-0.3670806884765625
1772713802067383600,6.705383544921875,-0.7904815673828125,-0.469390869140625,-0.3593292236328125
1772713802077357600,6.715357666015625,-0.7954864501953125,-0.46759033203125,-0.3502349853515625
1772713802087332600,6.72533251953125,-0.802215576171875,-0.4667205810546875,-0.3446807861328125
1772713802097306400,6.735306396484375,-0.806884765625,-0.4701995849609375,-0.337860107421875
1772713802107280400,6.7452802734375,-0.821563720703125,-0.472259521484375,-0.331695556640625
1772713802117254400,6.75525439453125,-0.835357666015625,-0.4651336669921875,-0.333221435546875
1772713802127228400,6.765228515625,-0.8402557373046875,-0.4520111083984375,-0.3358001708984375
1772713802137202400,6.775202392578125,-0.8481597900390625,-0.437347412109375,-0.338714599609375
1772713802147176400,6.785176513671875,-0.8497161865234375,-0.423248291015625,-0.3413848876953125
1772713802157151500,6.7951513671875,-0.8551483154296875,-0.4144439697265625,-0.3463134765625
1772713802167125500,6.80512548828125,-0.8574981689453125,-0.4064788818359375,-0.3524627685546875
1772713802177099500,6.815099609375,-0.8585662841796875,-0.3987274169921875,-0.356292724609375
1772713802187073500,6.825073486328125,-0.8574371337890625,-0.39080810546875,-0.3625030517578125
1772713802197047600,6.835047607421875,-0.8623046875,-0.3842620849609375,-0.3641357421875
1772713802207021600,6.845021484375,-0.8623199462890625,-0.3721160888671875,-0.370391845703125
1772713802216995600,6.85499560546875,-0.857330322265625,-0.3600616455078125,-0.3762054443359375
1772713802226970400,6.864970458984375,-0.8646087646484375,-0.3532562255859375,-0.376190185546875
1772713802236944400,6.8749443359375,-0.8611297607421875,-0.3484954833984375,-0.3748779296875
1772713802246918400,6.88491845703125,-0.8588104248046875,-0.3423614501953125,-0.3712158203125
1772713802256892400,6.894892333984375,-0.85711669921875,-0.339813232421875,-0.3629913330078125
1772713802266866400,6.904866455078125,-0.8496246337890625,-0.33868408203125,-0.3538360595703125
1772713802276840400,6.91484033203125,-0.8392333984375,-0.3359527587890625,-0.3478546142578125
1772713802286814500,6.924814453125,-0.8280181884765625,-0.3422393798828125,-0.3372344970703125
1772713802296789500,6.93478955078125,-0.8177642822265625,-0.3472900390625,-0.32855224609375
1772713802306763500,6.944763427734375,-0.8037109375,-0.353118896484375,-0.3216552734375
1772713802316737500,6.954737548828125,-0.800201416015625,-0.363128662109375,-0.3116912841796875
1772713802326711300,6.964711181640625,-0.79827880859375,-0.3694000244140625,-0.3061981201171875
1772713802336685300,6.974685302734375,-0.7915191650390625,-0.3732452392578125,-0.3075408935546875
1772713802346659300,6.984659423828125,-0.783538818359375,-0.3785858154296875,-0.305419921875
1772713802356633300,6.99463330078125,-0.7822265625,-0.389251708984375,-0.2996978759765625
1772713802366608400,7.0046083984375,-0.7725067138671875,-0.4004974365234375,-0.295135498046875
1772713802376582400,7.01458251953125,-0.7596893310546875,-0.4101104736328125,-0.2935943603515625
1772713802386556400,7.024556396484375,-0.7550811767578125,-0.4188995361328125,-0.29345703125
1772713802396530400,7.034530517578125,-0.7489013671875,-0.4232177734375,-0.2923736572265625
1772713802406504400,7.04450439453125,-0.740447998046875,-0.4248199462890625,-0.2904815673828125
1772713802416478500,7.054478515625,-0.737701416015625,-0.429412841796875,-0.283538818359375
1772713802426452500,7.064452392578125,-0.7414093017578125,-0.43701171875,-0.2773284912109375
1772713802436427300,7.07442724609375,-0.740936279296875,-0.4411773681640625,-0.2766876220703125
1772713802446401300,7.0844013671875,-0.7433929443359375,-0.4506988525390625,-0.2747650146484375
1772713802456375300,7.094375244140625,-0.74957275390625,-0.462738037109375,-0.2701416015625
1772713802466349300,7.104349365234375,-0.7576141357421875,-0.467498779296875,-0.26617431640625
1772713802476323300,7.1143232421875,-0.767303466796875,-0.4687347412109375,-0.2640228271484375
1772713802486297300,7.12429736328125,-0.777557373046875,-0.4700164794921875,-0.261444091796875
1772713802496271400,7.134271240234375,-0.791656494140625,-0.4698638916015625,-0.2610015869140625
1772713802506247200,7.1442470703125,-0.806610107421875,-0.4680938720703125,-0.2625885009765625
1772713802516221000,7.154220947265625,-0.816558837890625,-0.464630126953125,-0.2678375244140625
1772713802526195000,7.16419482421875,-0.8269195556640625,-0.46466064453125,-0.2734222412109375
1772713802536169000,7.1741689453125,-0.8410491943359375,-0.4673919677734375,-0.279632568359375
1772713802546143000,7.18414306640625,-0.8527069091796875,-0.46673583984375,-0.28887939453125
1772713802556117000,7.194116943359375,-0.8569488525390625,-0.4644775390625,-0.29608154296875
1772713802566091000,7.204091064453125,-0.86907958984375,-0.4622955322265625,-0.3039703369140625
1772713802576066000,7.214066162109375,-0.881683349609375,-0.460479736328125,-0.317138671875
1772713802586040000,7.2240400390625,-0.8852691650390625,-0.4629364013671875,-0.330841064453125
1772713802596014000,7.23401416015625,-0.887603759765625,-0.4630584716796875,-0.35113525390625
1772713802605988000,7.243988037109375,-0.8902740478515625,-0.46551513671875,-0.367645263671875
1772713802615962000,7.253962158203125,-0.891510009765625,-0.4659576416015625,-0.381256103515625
1772713802625936100,7.26393603515625,-0.888702392578125,-0.464752197265625,-0.3914642333984375
1772713802635910100,7.27391015625,-0.89312744140625,-0.467010498046875,-0.39422607421875
1772713802645885000,7.283885009765625,-0.89520263671875,-0.4629364013671875,-0.3946075439453125
1772713802655859000,7.29385888671875,-0.8872833251953125,-0.4553070068359375,-0.399383544921875
1772713802665833000,7.3038330078125,-0.8793182373046875,-0.449066162109375,-0.4002532958984375
1772713802675807000,7.313806884765625,-0.8735504150390625,-0.44659423828125,-0.3964691162109375
1772713802685781000,7.323781005859375,-0.8559417724609375,-0.44439697265625,-0.3996124267578125
1772713802695755000,7.333755126953125,-0.844818115234375,-0.442169189453125,-0.39923095703125
1772713802705729000,7.34372900390625,-0.833984375,-0.4440765380859375,-0.3957672119140625
1772713802715704000,7.3537041015625,-0.8210601806640625,-0.446075439453125,-0.388824462890625
1772713802725678000,7.363677978515625,-0.81292724609375,-0.4437713623046875,-0.379730224609375
1772713802735652000,7.373652099609375,-0.804718017578125,-0.4374847412109375,-0.3726043701171875
1772713802745625900,7.3836259765625,-0.795379638671875,-0.4285430908203125,-0.365753173828125
1772713802755600000,7.393599853515625,-0.7947845458984375,-0.4240264892578125,-0.3552093505859375
1772713802765574000,7.403573974609375,-0.7878265380859375,-0.43157958984375,-0.3423004150390625
1772713802775548000,7.4135478515625,-0.794097900390625,-0.4340667724609375,-0.3267364501953125
1772713802785523000,7.42352294921875,-0.8149566650390625,-0.4337310791015625,-0.3185272216796875
1772713802795497000,7.4334970703125,-0.83856201171875,-0.4277801513671875,-0.3205108642578125
1772713802805471000,7.443470947265625,-0.854736328125,-0.43499755859375,-0.31402587890625
1772713802815445000,7.453445068359375,-0.8640899658203125,-0.4558868408203125,-0.3054046630859375
1772713802825419000,7.4634189453125,-0.876190185546875,-0.4754791259765625,-0.296844482421875
1772713802835393000,7.47339306640625,-0.8978271484375,-0.4825897216796875,-0.2895050048828125
1772713802845367000,7.483366943359375,-0.9197845458984375,-0.482330322265625,-0.29010009765625
1772713802855341800,7.493341796875,-0.93560791015625,-0.48388671875,-0.292999267578125
1772713802865315800,7.50331591796875,-0.95361328125,-0.4764556884765625,-0.300445556640625
1772713802875289900,7.513289794921875,-0.9783782958984375,-0.459564208984375,-0.312255859375
1772713802885264000,7.523263916015625,-1.0082855224609375,-0.4306640625,-0.323944091796875
1772713802895238000,7.53323779296875,-1.0304412841796875,-0.391082763671875,-0.3477630615234375
1772713802905212000,7.5432119140625,-1.05377197265625,-0.3492584228515625,-0.3583526611328125
1772713802915186000,7.55318603515625,-1.073333740234375,-0.30615234375,-0.361663818359375
1772713802925161000,7.563160888671875,-1.077880859375,-0.263916015625,-0.3607635498046875
1772713802935135000,7.573135009765625,-1.0718994140625,-0.2319793701171875,-0.34503173828125
1772713802945109000,7.58310888671875,-1.0692596435546875,-0.21173095703125,-0.3198699951171875
1772713802955083000,7.5930830078125,-1.0615386962890625,-0.1999969482421875,-0.296783447265625
1772713802965057000,7.60305712890625,-1.05029296875,-0.1908111572265625,-0.2814483642578125
1772713802975030800,7.61303076171875,-1.03253173828125,-0.1922760009765625,-0.2653961181640625
1772713802985004800,7.6230048828125,-1.0124664306640625,-0.2016754150390625,-0.254486083984375
1772713802994979800,7.632979736328125,-0.990692138671875,-0.2150115966796875,-0.242889404296875
1772713803004953900,7.642953857421875,-0.9713592529296875,-0.23138427734375,-0.236541748046875
1772713803014928000,7.652927978515625,-0.9438629150390625,-0.2467193603515625,-0.237823486328125
1772713803024902000,7.66290185546875,-0.92327880859375,-0.265869140625,-0.2407989501953125
1772713803034876000,7.6728759765625,-0.909576416015625,-0.2904205322265625,-0.2422637939453125
1772713803044850000,7.682849853515625,-0.8998260498046875,-0.3086700439453125,-0.2437896728515625
1772713803054824000,7.692823974609375,-0.8929901123046875,-0.3195037841796875,-0.2535552978515625
1772713803064799000,7.702799072265625,-0.8956298828125,-0.3259735107421875,-0.263641357421875
1772713803074772700,7.712772705078125,-0.9044342041015625,-0.326751708984375,-0.2721710205078125
1772713803084746800,7.722746826171875,-0.9093780517578125,-0.322998046875,-0.28436279296875
1772713803094720800,7.732720703125,-0.9181365966796875,-0.3203582763671875,-0.2901611328125
1772713803104694800,7.74269482421875,-0.9257354736328125,-0.3127288818359375,-0.28955078125
1772713803114668800,7.752668701171875,-0.93182373046875,-0.29827880859375,-0.2890777587890625
1772713803124642800,7.762642822265625,-0.9323577880859375,-0.2858428955078125,-0.283294677734375
1772713803134618000,7.7726181640625,-0.93280029296875,-0.2755126953125,-0.273895263671875
1772713803144592100,7.782592041015625,-0.92877197265625,-0.2673797607421875,-0.2705841064453125
1772713803154566100,7.792566162109375,-0.924102783203125,-0.2626495361328125,-0.266326904296875
1772713803164540200,7.8025400390625,-0.9207305908203125,-0.2617034912109375,-0.2625885009765625
1772713803174514200,7.81251416015625,-0.923980712890625,-0.264434814453125,-0.255950927734375
1772713803184488000,7.822488037109375,-0.9166107177734375,-0.2718048095703125,-0.24725341796875
1772713803194462000,7.8324619140625,-0.9058380126953125,-0.2799530029296875,-0.22967529296875
1772713803204437000,7.84243701171875,-0.895782470703125,-0.2918548583984375,-0.2119903564453125
1772713803214411000,7.852410888671875,-0.8851776123046875,-0.2972564697265625,-0.19940185546875
1772713803224385000,7.862385009765625,-0.87725830078125,-0.29833984375,-0.19305419921875
1772713803234359000,7.872359130859375,-0.870025634765625,-0.2982940673828125,-0.185150146484375
1772713803244333000,7.8823330078125,-0.8614959716796875,-0.29766845703125,-0.17437744140625
1772713803254307000,7.89230712890625,-0.858184814453125,-0.2943115234375,-0.175262451171875
1772713803264281000,7.902281005859375,-0.854644775390625,-0.2954559326171875,-0.1709442138671875
1772713803274255000,7.912255126953125,-0.8583526611328125,-0.30120849609375,-0.1592254638671875
1772713803284230000,7.92222998046875,-0.8604736328125,-0.2931671142578125,-0.1626434326171875
1772713803294204000,7.932203857421875,-0.8761138916015625,-0.2962493896484375,-0.1692962646484375
1772713803304178000,7.942177978515625,-0.887603759765625,-0.2999267578125,-0.1524810791015625
1772713803314152000,7.95215185546875,-0.8901519775390625,-0.2922210693359375,-0.143524169921875
1772713803324126000,7.9621259765625,-0.8954315185546875,-0.2878875732421875,-0.1308441162109375
1772713803334100000,7.972099853515625,-0.8974609375,-0.2812042236328125,-0.103240966796875
1772713803344074000,7.982073974609375,-0.89801025390625,-0.2718353271484375,-0.1019287109375
1772713803354049000,7.992049072265625,-0.8997039794921875,-0.2648773193359375,-0.099365234375
1772713803364023000,8.00202294921875,-0.914459228515625,-0.2555084228515625,-0.081787109375
1772713803373997000,8.0119970703125,-0.93206787109375,-0.2423858642578125,-0.09442138671875
1772713803383971000,8.02197119140625,-0.9492950439453125,-0.226104736328125,-0.0968475341796875
1772713803393945000,8.031945068359375,-0.9913330078125,-0.20947265625,-0.1183013916015625
1772713803403919000,8.041919189453125,-1.0026397705078125,-0.20953369140625,-0.160491943359375
1772713803413892900,8.051892822265625,-0.9740753173828125,-0.2192535400390625,-0.1578216552734375
1772713803423868000,8.061867919921875,-0.992889404296875,-0.2160491943359375,-0.1448822021484375
1772713803433842000,8.071842041015625,-1.016387939453125,-0.202972412109375,-0.132568359375
1772713803443816000,8.08181591796875,-1.033721923828125,-0.201171875,-0.09051513671875
1772713803453790000,8.0917900390625,-1.0358123779296875,-0.21514892578125,-0.04266357421875
1772713803463764000,8.101763916015624,-1.0428009033203125,-0.1836090087890625,-0.052978515625
1772713803473738000,8.111738037109374,-1.0454254150390625,-0.189422607421875,-0.0468292236328125
1772713803483712000,8.1217119140625,-0.99957275390625,-0.199920654296875,-0.033599853515625
1772713803493686000,8.13168603515625,-0.9881439208984375,-0.1893157958984375,-0.0324249267578125
1772713803503664000,8.1416640625,-1.0095367431640625,-0.1968841552734375,-0.0194244384765625
1772713803513638100,8.15163818359375,-0.997283935546875,-0.2165985107421875,0.020599365234375
1772713803523612200,8.161612060546876,-0.9556732177734375,-0.224761962890625,0.041259765625
1772713803533586200,8.171586181640626,-1.0133056640625,-0.2550811767578125,0.02587890625
1772713803543560200,8.181560302734376,-0.9940338134765625,-0.267974853515625,0.0590667724609375
1772713803553534200,8.1915341796875,-0.9372711181640625,-0.28216552734375,0.04962158203125
1772713803563508200,8.20150830078125,-0.94464111328125,-0.2867431640625,0.0306243896484375
1772713803573483300,8.211483154296875,-0.9678955078125,-0.2863616943359375,0.0392913818359375
1772713803583457300,8.221457275390625,-0.9751434326171875,-0.284271240234375,0.0494384765625
1772713803593431300,8.231431396484375,-0.97271728515625,-0.256317138671875,0.0387725830078125
1772713803603405300,8.2414052734375,-0.971649169921875,-0.225372314453125,0.0186920166015625
1772713803613379300,8.25137939453125,-0.9802398681640625,-0.1942596435546875,0.0208740234375
1772713803623353300,8.261353271484374,-0.9675140380859375,-0.173614501953125,0.0224151611328125
1772713803633327400,8.271327392578126,-0.9570159912109375,-0.1537628173828125,0.020355224609375
1772713803643302100,8.28130224609375,-0.9403076171875,-0.1456298828125,0.031829833984375
1772713803653276200,8.291276123046876,-0.922943115234375,-0.1560211181640625,0.0356292724609375
1772713803663250200,8.301250244140626,-0.89935302734375,-0.169219970703125,0.0482025146484375
1772713803673224200,8.31122412109375,-0.8787078857421875,-0.1832733154296875,0.071746826171875
1772713803683198200,8.3211982421875,-0.868408203125,-0.199188232421875,0.086944580078125
1772713803693172200,8.331172119140625,-0.8498382568359375,-0.215057373046875,0.097320556640625
1772713803703146200,8.341146240234375,-0.838836669921875,-0.2187957763671875,0.1058349609375
1772713803713121300,8.351121337890625,-0.834197998046875,-0.23291015625,0.1078643798828125
1772713803723095300,8.36109521484375,-0.82037353515625,-0.2516021728515625,0.1154327392578125
1772713803733069000,8.371069091796874,-0.8314971923828125,-0.264068603515625,0.1161651611328125
1772713803743043000,8.38104296875,-0.8283233642578125,-0.2763519287109375,0.1251373291015625
1772713803753017000,8.39101708984375,-0.83856201171875,-0.287353515625,0.1327972412109375
1772713803762991000,8.4009912109375,-0.8524322509765625,-0.299468994140625,0.1346588134765625
1772713803772965000,8.410965087890625,-0.8596038818359375,-0.30377197265625,0.1410675048828125
1772713803782939100,8.420939208984375,-0.8814544677734375,-0.2943267822265625,0.1320648193359375
1772713803792914200,8.4309140625,-0.92010498046875,-0.2957611083984375,0.070068359375
1772713803802888200,8.44088818359375,-1.1435089111328125,-0.30126953125,0.0264434814453125
1772713803812862200,8.4508623046875,-1.0970611572265625,-0.283050537109375,-0.0321197509765625
1772713803822836200,8.460836181640625,-1.0950469970703125,-0.2793731689453125,-0.068450927734375
1772713803832810200,8.470810302734375,-1.1254730224609375,-0.2492523193359375,-0.06170654296875
1772713803842784300,8.4807841796875,-1.121307373046875,-0.22454833984375,-0.0756683349609375
1772713803852758300,8.49075830078125,-1.0459747314453125,-0.2339630126953125,-0.0846710205078125
1772713803862732300,8.500732177734376,-0.9990234375,-0.2525482177734375,-0.062591552734375
1772713803872707000,8.51070703125,-0.984283447265625,-0.2424774169921875,-0.0475311279296875
1772713803882681000,8.52068115234375,-0.9193878173828125,-0.2349395751953125,-0.1351776123046875
1772713803892655000,8.530655029296875,-0.872161865234375,-0.2397918701171875,-0.2194366455078125
1772713803902629000,8.540629150390625,-0.9524993896484375,-0.212066650390625,-0.2291107177734375
1772713803912603100,8.55060302734375,-0.95880126953125,-0.2210693359375,-0.1737213134765625
1772713803922577200,8.5605771484375,-0.957427978515625,-0.207550048828125,-0.137603759765625
1772713803932551200,8.57055126953125,-0.9333038330078125,-0.2285308837890625,-0.161712646484375
1772713803942526500,8.5805263671875,-0.94830322265625,-0.2317962646484375,-0.152557373046875
1772713803952500200,8.590500244140625,-0.973602294921875,-0.1968994140625,-0.109832763671875
1772713803962474200,8.60047412109375,-0.9897918701171875,-0.15673828125,-0.12115478515625
1772713803972448300,8.6104482421875,-1.00079345703125,-0.1186981201171875,-0.126068115234375
1772713803982422300,8.62042236328125,-1.0115814208984375,-0.0992889404296875,-0.127410888671875
1772713803992396300,8.630396240234376,-1.0198822021484375,-0.09881591796875,-0.1602020263671875
1772713804002370300,8.640370361328126,-1.017425537109375,-0.1017913818359375,-0.1717529296875
1772713804012344300,8.65034423828125,-1.0185089111328125,-0.109161376953125,-0.1837158203125
1772713804022319400,8.6603193359375,-1.007781982421875,-0.1285858154296875,-0.19873046875
1772713804032293400,8.67029345703125,-0.9935150146484375,-0.146270751953125,-0.2089385986328125
1772713804042267400,8.680267333984375,-0.9857940673828125,-0.16259765625,-0.2175750732421875
1772713804052241400,8.690241455078125,-0.9840545654296875,-0.181121826171875,-0.220550537109375
1772713804062215400,8.70021533203125,-0.996612548828125,-0.1897125244140625,-0.214019775390625
1772713804072189400,8.710189453125,-1.00384521484375,-0.1899871826171875,-0.1909332275390625
1772713804082163500,8.72016357421875,-1.0144195556640625,-0.2012786865234375,-0.1721038818359375
1772713804092138200,8.73013818359375,-1.0265045166015625,-0.205322265625,-0.1614990234375
1772713804102112300,8.7401123046875,-1.051849365234375,-0.21185302734375,-0.13958740234375
1772713804112086300,8.750086181640626,-1.05169677734375,-0.219207763671875,-0.1403656005859375
1772713804122060300,8.760060302734376,-1.0572052001953125,-0.216400146484375,-0.1567840576171875
1772713804132034300,8.770034423828125,-1.0263824462890625,-0.2125244140625,-0.1584930419921875
1772713804142008300,8.78000830078125,-1.0240478515625,-0.2166595458984375,-0.156097412109375
1772713804151982300,8.789982421875,-1.025787353515625,-0.2248992919921875,-0.157501220703125
1772713804161956400,8.799956298828125,-1.0009918212890625,-0.21710205078125,-0.158294677734375
1772713804171931400,8.809931396484375,-0.9754791259765625,-0.207427978515625,-0.1546478271484375
1772713804181905200,8.8199052734375,-0.959014892578125,-0.2059783935546875,-0.1520233154296875
1772713804191879200,8.829879150390624,-0.942901611328125,-0.20977783203125,-0.1533660888671875
1772713804201853200,8.839853271484374,-0.940185546875,-0.2106170654296875,-0.151031494140625
1772713804211827200,8.8498271484375,-0.937042236328125,-0.212066650390625,-0.1443023681640625
1772713804221801200,8.85980126953125,-0.93408203125,-0.2146148681640625,-0.1328277587890625
1772713804231775200,8.869775146484375,-0.9400482177734375,-0.2177886962890625,-0.1283111572265625
1772713804241749200,8.879749267578125,-0.95025634765625,-0.2166900634765625,-0.1364898681640625
1772713804251724300,8.889724365234375,-0.95025634765625,-0.20843505859375,-0.1476898193359375
1772713804261698300,8.8996982421875,-0.9064178466796875,-0.1912689208984375,-0.1480865478515625
1772713804271672300,8.90967236328125,-0.8950653076171875,-0.1810150146484375,-0.15411376953125
1772713804281646300,8.919646240234375,-0.9119873046875,-0.184478759765625,-0.16693115234375
1772713804291620400,8.929620361328125,-0.9318389892578125,-0.1909942626953125,-0.1790924072265625
1772713804301594400,8.939594482421874,-0.9521942138671875,-0.20086669921875,-0.19091796875
1772713804311568400,8.949568359375,-0.9640960693359375,-0.20843505859375,-0.19390869140625
1772713804321543200,8.959543212890624,-0.9795684814453125,-0.2151641845703125,-0.1945037841796875
1772713804331517200,8.96951708984375,-0.9830474853515625,-0.2255859375,-0.207427978515625
1772713804341491200,8.9794912109375,-0.971923828125,-0.245849609375,-0.2288818359375
1772713804351465200,8.98946533203125,-0.967315673828125,-0.256805419921875,-0.2459869384765625
1772713804361439200,8.999439208984375,-0.967437744140625,-0.2718048095703125,-0.2479095458984375
1772713804371413200,9.009413330078125,-0.96600341796875,-0.28240966796875,-0.2530517578125
1772713804381387300,9.01938720703125,-0.96307373046875,-0.2717132568359375,-0.2518768310546875
1772713804391361300,9.029361328125,-0.9787750244140625,-0.2457275390625,-0.23004150390625
1772713804401336300,9.03933642578125,-1.0109100341796875,-0.2179718017578125,-0.2068328857421875
1772713804411310000,9.04931005859375,-1.0448455810546875,-0.1998443603515625,-0.1862030029296875
1772713804421284000,9.0592841796875,-1.0739593505859375,-0.176483154296875,-0.164276123046875
1772713804431258000,9.069258056640624,-1.0864715576171875,-0.1348724365234375,-0.1450653076171875
1772713804441232100,9.079232177734376,-1.081756591796875,-0.0875244140625,-0.1349639892578125
1772713804451206100,9.0892060546875,-1.0897064208984375,-0.0508575439453125,-0.12286376953125
1772713804461180200,9.09918017578125,-1.0836029052734375,-0.0344696044921875,-0.1193695068359375
1772713804471155200,9.1091552734375,-1.061920166015625,-0.0173797607421875,-0.0796356201171875
1772713804481129200,9.119129150390625,-1.0958099365234375,0.047882080078125,-0.004852294921875
1772713804491103200,9.129103271484375,-1.139007568359375,0.081329345703125,0.0261993408203125
1772713804501074000,9.139073974609374,-1.165069580078125,0.0634765625,0.0489349365234375
1772713804511048000,9.1490478515625,-1.1763458251953125,0.0442047119140625,0.048797607421875
1772713804521022000,9.15902197265625,-1.1804962158203125,0.0207977294921875,0.0175323486328125
1772713804530996000,9.168995849609376,-1.1596832275390625,0.011016845703125,-0.028900146484375
1772713804540969700,9.1789697265625,-1.1040496826171875,0.0045013427734375,-0.082611083984375
1772713804550944800,9.18894482421875,-1.04248046875,-0.011077880859375,-0.120452880859375
1772713804560918800,9.198918701171875,-0.9947357177734375,-0.0287933349609375,-0.145263671875
1772713804570892800,9.208892822265625,-0.9662628173828125,-0.0362396240234375,-0.1583099365234375
1772713804580866800,9.21886669921875,-0.951629638671875,-0.059967041015625,-0.171173095703125
1772713804590840800,9.2288408203125,-0.9489288330078125,-0.0902557373046875,-0.184173583984375
1772713804600814800,9.23881494140625,-0.94879150390625,-0.1081085205078125,-0.1788787841796875
1772713804610788900,9.248788818359374,-0.946441650390625,-0.115509033203125,-0.1630096435546875
1772713804620763000,9.258762939453124,-0.9345245361328125,-0.1068267822265625,-0.1190643310546875
1772713804630737700,9.268737548828126,-0.9268341064453125,-0.0712432861328125,-0.0392608642578125
1772713804640711700,9.278711669921876,-0.9290924072265625,-0.0421295166015625,0.0417938232421875
1772713804650685700,9.288685791015626,-0.9420318603515625,-0.0346832275390625,0.108306884765625
1772713804660659700,9.29865966796875,-0.9539794921875,-0.076080322265625,0.134368896484375
1772713804670633700,9.3086337890625,-0.9523773193359375,-0.09832763671875,0.1447296142578125
1772713804680606000,9.31860595703125,-0.9804229736328125,-0.0753936767578125,0.1126861572265625
1772713804690580000,9.328580078125,-0.9819488525390625,-0.03692626953125,0.073516845703125
1772713804700554000,9.338553955078124,-0.981781005859375,-0.0050201416015625,0.0403594970703125
1772713804710528000,9.348528076171876,-1.001312255859375,0.011077880859375,0.01007080078125
1772713804720502000,9.358501953125,-1.0037994384765625,0.0191497802734375,-0.0049591064453125
1772713804730476800,9.368476806640626,-0.991607666015625,0.0171661376953125,-0.0118865966796875
1772713804740450800,9.378450927734375,-0.98028564453125,0.0079803466796875,-0.0140228271484375
1772713804750424800,9.3884248046875,-0.9758758544921875,-0.0091705322265625,-0.0160980224609375
1772713804760398800,9.39839892578125,-0.9700927734375,-0.03338623046875,-0.013214111328125
1772713804770372900,9.408372802734375,-0.96734619140625,-0.0618133544921875,-0.0089569091796875
1772713804780347000,9.418346923828125,-0.9688720703125,-0.0951690673828125,0.0062408447265625
1772713804790321000,9.42832080078125,-0.97039794921875,-0.1283721923828125,0.0186614990234375
1772713804800295000,9.438294921875,-0.9695281982421875,-0.1502838134765625,0.01922607421875
1772713804810270000,9.44827001953125,-0.973297119140625,-0.1556396484375,0.0115203857421875
1772713804820243700,9.45824365234375,-0.981689453125,-0.1616058349609375,0.00592041015625
1772713804830217700,9.4682177734375,-0.98089599609375,-0.169036865234375,0.0077056884765625
1772713804840191700,9.478191650390626,-0.9836883544921875,-0.168701171875,0.009490966796875
1772713804850165800,9.488165771484375,-0.9847412109375,-0.1652069091796875,0.0075836181640625
1772713804860139800,9.498139892578125,-0.976837158203125,-0.1695556640625,0.00628662109375
1772713804870113800,9.50811376953125,-0.964141845703125,-0.1748504638671875,0.0049591064453125
1772713804880087800,9.518087890625,-0.952911376953125,-0.177520751953125,0.01763916015625
1772713804890062800,9.528062744140625,-0.945098876953125,-0.1772918701171875,0.0224151611328125
1772713804900036900,9.538036865234375,-0.9373321533203125,-0.172882080078125,0.01287841796875
1772713804910011000,9.548010986328125,-0.9382781982421875,-0.1688385009765625,0.005767822265625
1772713804919985000,9.55798486328125,-0.935882568359375,-0.1658935546875,0.0012359619140625
1772713804929959000,9.567958984375,-0.9309539794921875,-0.16644287109375,-0.0124969482421875
1772713804939933000,9.577932861328126,-0.9315032958984375,-0.168853759765625,-0.026336669921875
1772713804949907000,9.587906982421876,-0.9354095458984375,-0.1737213134765625,-0.042236328125
1772713804959881700,9.5978818359375,-0.943023681640625,-0.176116943359375,-0.0513916015625
1772713804969855700,9.607855712890625,-0.9498138427734375,-0.170135498046875,-0.0503387451171875
1772713804979829800,9.617829833984375,-0.9569854736328125,-0.1591033935546875,-0.0528717041015625
1772713804989803800,9.6278037109375,-0.957305908203125,-0.1416168212890625,-0.069122314453125
1772713804999777800,9.63777783203125,-0.951812744140625,-0.1401824951171875,-0.068939208984375
1772713805009751800,9.647751708984375,-0.94683837890625,-0.149322509765625,-0.058685302734375
1772713805019725800,9.657725830078125,-0.9362640380859375,-0.15667724609375,-0.047149658203125
1772713805029699800,9.667699951171874,-0.9349365234375,-0.1617279052734375,-0.0255889892578125
1772713805039673900,9.677673828125,-0.9438629150390625,-0.16680908203125,-0.021392822265625
1772713805049648600,9.687648681640624,-0.964080810546875,-0.167724609375,-0.022705078125
1772713805059622700,9.69762255859375,-0.9804534912109375,-0.167510986328125,-0.020538330078125
1772713805069596700,9.7075966796875,-0.98748779296875,-0.1687774658203125,-0.0257110595703125
1772713805079570700,9.71757080078125,-1.0055084228515625,-0.162017822265625,-0.0393829345703125
1772713805089544700,9.727544677734375,-0.99603271484375,-0.15667724609375,-0.0344390869140625
1772713805099518700,9.737518798828125,-0.98236083984375,-0.162200927734375,-0.0268402099609375
1772713805109492700,9.74749267578125,-0.9815826416015625,-0.16827392578125,-0.0160675048828125
1772713805119468000,9.757468017578125,-0.9804534912109375,-0.1736602783203125,-0.005401611328125
1772713805129442000,9.767442138671875,-0.984130859375,-0.1799468994140625,-0.0031890869140625
1772713805139416000,9.777416015625,-0.9865570068359375,-0.182861328125,-0.0023345947265625
1772713805149390000,9.78739013671875,-0.9906005859375,-0.1827239990234375,0.0009002685546875
1772713805159364000,9.797364013671874,-0.9963531494140625,-0.1874847412109375,0.0028533935546875
1772713805169338000,9.807338134765626,-0.99285888671875,-0.19244384765625,0.003173828125
1772713805179311900,9.817311767578126,-0.9873504638671875,-0.1985931396484375,0.006622314453125
1772713805189285600,9.82728564453125,-0.9964447021484375,-0.2034149169921875,0.01861572265625
1772713805199259600,9.837259765625,-1.0041961669921875,-0.207275390625,0.031707763671875
1772713805209235000,9.84723486328125,-1.003570556640625,-0.21319580078125,0.0392303466796875
1772713805219209000,9.857208984375,-1.018646240234375,-0.21771240234375,0.0481109619140625
1772713805229183000,9.867182861328125,-1.0282440185546875,-0.22418212890625,0.052032470703125
1772713805239157000,9.877156982421875,-1.0301361083984375,-0.23150634765625,0.054107666015625
1772713805249131000,9.887131103515625,-1.0362396240234375,-0.23150634765625,0.0569610595703125
1772713805259105000,9.89710498046875,-1.044036865234375,-0.2307891845703125,0.05303955078125
1772713805269079000,9.9070791015625,-1.0465240478515625,-0.23406982421875,0.0524139404296875
1772713805279053000,9.917052978515626,-1.052276611328125,-0.2358245849609375,0.05364990234375
1772713805289027800,9.92702783203125,-1.0536346435546875,-0.231201171875,0.052642822265625
1772713805299001900,9.937001953125,-1.0551605224609375,-0.2297210693359375,0.0498199462890625
1772713805308975900,9.946975830078125,-1.0530853271484375,-0.2380523681640625,0.0491180419921875
1772713805318950000,9.956949951171875,-1.0521240234375,-0.2535400390625,0.05596923828125
1772713805328925000,9.966925048828125,-1.0573272705078125,-0.2722625732421875,0.0618743896484375
1772713805338899000,9.97689892578125,-1.0676422119140625,-0.279052734375,0.057464599609375
1772713805348873000,9.986873046875,-1.1174163818359375,-0.2748870849609375,0.055908203125
1772713805358847000,9.996846923828125,-1.1210479736328125,-0.2746734619140625,0.05609130859375
1772713805368821000,10.006821044921875,-1.127410888671875,-0.2659759521484375,0.050384521484375
1772713805378795000,10.016794921875,-1.1440277099609375,-0.24285888671875,0.04119873046875
1772713805388769800,10.026769775390624,-1.1422119140625,-0.213287353515625,0.0197906494140625
1772713805398743800,10.036743896484374,-1.12945556640625,-0.181884765625,-0.0001983642578125
1772713805408717800,10.0467177734375,-1.1084136962890625,-0.1595611572265625,-0.01776123046875
1772713805418691800,10.05669189453125,-1.07965087890625,-0.14727783203125,-0.0304412841796875
1772713805428665900,10.066665771484375,-1.04595947265625,-0.133056640625,-0.0377349853515625
1772713805438639900,10.076639892578125,-1.019561767578125,-0.1145172119140625,-0.04669189453125
1772713805448614000,10.08661376953125,-1.0014190673828125,-0.1042633056640625,-0.0531158447265625
1772713805458589000,10.0965888671875,-0.9850616455078125,-0.1010894775390625,-0.0587005615234375
1772713805468563000,10.10656298828125,-0.966033935546875,-0.1024017333984375,-0.061614990234375
1772713805478537000,10.116536865234375,-0.9409942626953125,-0.1054840087890625,-0.0607147216796875
1772713805488510700,10.1265107421875,-0.9206085205078125,-0.1142425537109375,-0.065338134765625
1772713805498484700,10.136484619140624,-0.9036712646484375,-0.1226959228515625,-0.0728759765625
1772713805508462800,10.146462890625,-0.89215087890625,-0.1326904296875,-0.0796966552734375
1772713805518436900,10.156436767578125,-0.887969970703125,-0.1365203857421875,-0.0850067138671875
1772713805528411000,10.166410888671875,-0.8895416259765625,-0.1349334716796875,-0.097930908203125
1772713805538385000,10.176385009765625,-0.8907470703125,-0.1337738037109375,-0.121368408203125
1772713805548360000,10.18635986328125,-0.89306640625,-0.1385345458984375,-0.134429931640625
1772713805558334000,10.196333984375,-0.8973236083984375,-0.1457672119140625,-0.144439697265625
1772713805568308000,10.206307861328124,-0.9039764404296875,-0.15234375,-0.171112060546875
1772713805578282000,10.216281982421876,-0.912628173828125,-0.14898681640625,-0.19781494140625
1772713805588256000,10.226256103515626,-0.92413330078125,-0.139190673828125,-0.2147369384765625
1772713805598229800,10.236229736328125,-0.928497314453125,-0.1352081298828125,-0.234771728515625
1772713805608203800,10.246203857421875,-0.9343109130859375,-0.13702392578125,-0.2603759765625
1772713805618177800,10.256177734375,-0.94598388671875,-0.1368255615234375,-0.283111572265625
1772713805628152800,10.26615283203125,-0.94696044921875,-0.13067626953125,-0.3011322021484375
1772713805638126800,10.276126953125,-0.95428466796875,-0.119842529296875,-0.3196258544921875
1772713805648100900,10.286100830078125,-0.9644927978515625,-0.1097412109375,-0.3311004638671875
1772713805658075000,10.296074951171875,-0.968231201171875,-0.10089111328125,-0.33392333984375
1772713805668049000,10.306048828125,-0.9676513671875,-0.0975189208984375,-0.33038330078125
1772713805678023000,10.31602294921875,-0.96112060546875,-0.10693359375,-0.315673828125
1772713805687997000,10.325996826171876,-0.962554931640625,-0.1223297119140625,-0.2913055419921875
1772713805697971000,10.335970947265626,-0.9627685546875,-0.13836669921875,-0.269256591796875
1772713805707945700,10.34594580078125,-0.9611053466796875,-0.1546630859375,-0.249725341796875
1772713805717919700,10.355919677734375,-0.9636688232421875,-0.164764404296875,-0.2294921875
1772713805727893800,10.365893798828125,-0.9677276611328125,-0.1672515869140625,-0.20941162109375
1772713805737867800,10.37586767578125,-0.96435546875,-0.1711273193359375,-0.194671630859375
1772713805747841800,10.385841796875,-0.9582977294921875,-0.1722869873046875,-0.1862335205078125
1772713805757815800,10.39581591796875,-0.954864501953125,-0.1651763916015625,-0.17431640625
1772713805767789800,10.405789794921875,-0.9478607177734375,-0.1586151123046875,-0.15765380859375
1772713805777763800,10.415763916015624,-0.9411163330078125,-0.1551513671875,-0.155242919921875
1772713805787739000,10.42573876953125,-0.9535675048828125,-0.15496826171875,-0.17510986328125
1772713805797713000,10.435712890625,-0.95623779296875,-0.169403076171875,-0.1694793701171875
1772713805807687000,10.44568701171875,-0.9498138427734375,-0.1727294921875,-0.17181396484375
1772713805817661000,10.455660888671876,-0.9430084228515625,-0.167205810546875,-0.1744842529296875
1772713805827634700,10.465634765625,-0.9261016845703125,-0.157806396484375,-0.16552734375
1772713805837608700,10.475608642578125,-0.91217041015625,-0.153289794921875,-0.1360015869140625
1772713805847582700,10.485582763671875,-0.90081787109375,-0.1685638427734375,-0.1044921875
1772713805857556700,10.495556640625,-0.8991851806640625,-0.1853790283203125,-0.092010498046875
1772713805867530800,10.50553076171875,-0.9001007080078125,-0.1943206787109375,-0.0887451171875
1772713805877505800,10.515505859375,-0.9046173095703125,-0.1979522705078125,-0.09393310546875
1772713805887479800,10.525479736328125,-0.9132080078125,-0.199981689453125,-0.09625244140625
1772713805897453800,10.535453857421874,-0.9261474609375,-0.2066650390625,-0.0998992919921875
1772713805907427800,10.545427734375,-0.939056396484375,-0.213348388671875,-0.1115875244140625
1772713805917401900,10.55540185546875,-0.9625244140625,-0.2153472900390625,-0.1259002685546875
1772713805927376000,10.5653759765625,-0.9767913818359375,-0.2148895263671875,-0.135650634765625
1772713805937350000,10.575349853515625,-0.9905548095703125,-0.21453857421875,-0.1348419189453125
1772713805947324000,10.585323974609375,-1.0037078857421875,-0.2207183837890625,-0.1244354248046875
1772713805957298700,10.595298583984375,-1.02264404296875,-0.2259674072265625,-0.1082763671875
1772713805967272700,10.605272705078125,-1.031097412109375,-0.22540283203125,-0.096160888671875
1772713805977246700,10.615246826171875,-1.0279388427734375,-0.2256011962890625,-0.0871124267578125
1772713805987220700,10.625220703125,-1.0212860107421875,-0.2290802001953125,-0.0776824951171875
1772713805997194800,10.63519482421875,-1.0200042724609375,-0.2298431396484375,-0.0691070556640625
1772713806007168800,10.645168701171874,-1.0196075439453125,-0.2258453369140625,-0.0607452392578125
1772713806017142800,10.655142822265624,-1.0130615234375,-0.22015380859375,-0.0491790771484375
1772713806027116800,10.66511669921875,-1.0041351318359375,-0.21331787109375,-0.0397186279296875
1772713806037091800,10.675091796875,-0.9946746826171875,-0.2077484130859375,-0.03411865234375
1772713806047065900,10.68506591796875,-0.9744415283203125,-0.205963134765625,-0.0264892578125
1772713806057039600,10.69503955078125,-0.9475555419921875,-0.2124481201171875,-0.0159912109375
1772713806067013600,10.705013671875,-0.9254150390625,-0.220611572265625,0.0043487548828125
1772713806076987600,10.714987548828125,-0.9144287109375,-0.2278594970703125,0.024169921875
1772713806086961700,10.724961669921875,-0.898651123046875,-0.225433349609375,0.0432586669921875
1772713806096935700,10.734935791015625,-0.8879241943359375,-0.2238616943359375,0.0512237548828125
1772713806106909700,10.74490966796875,-0.8681640625,-0.2201080322265625,0.075439453125
1772713806116883700,10.7548837890625,-0.9912872314453125,-0.245208740234375,0.0484619140625
1772713806126858800,10.764858642578124,-0.9329376220703125,-0.2488861083984375,0.073272705078125
1772713806136832800,10.774832763671874,-0.840484619140625,-0.266326904296875,0.1142120361328125
1772713806146806800,10.784806884765626,-0.8803863525390625,-0.2714385986328125,0.106964111328125
1772713806156780800,10.79478076171875,-0.8639984130859375,-0.2923583984375,0.1003570556640625
1772713806166754800,10.8047548828125,-0.8248748779296875,-0.311859130859375,0.1252899169921875
1772713806176728800,10.814728759765625,-0.8164825439453125,-0.3134307861328125,0.1455078125
1772713806186702800,10.824702880859375,-0.8447723388671875,-0.3224639892578125,0.1607208251953125
1772713806196676600,10.834676513671875,-0.8467559814453125,-0.35089111328125,0.1717681884765625
1772713806206652000,10.84465185546875,-0.8498382568359375,-0.3914947509765625,0.189300537109375
1772713806216626000,10.8546259765625,-0.8808441162109375,-0.4239044189453125,0.2126617431640625
1772713806226600000,10.864599853515625,-0.911529541015625,-0.45501708984375,0.2392730712890625
1772713806236574000,10.874573974609374,-0.9788360595703125,-0.470855712890625,0.2512969970703125
1772713806246548000,10.8845478515625,-1.0369873046875,-0.4627227783203125,0.2535858154296875
1772713806256522000,10.89452197265625,-1.112701416015625,-0.4412078857421875,0.2494659423828125
1772713806266496000,10.90449609375,-1.1904449462890625,-0.4111175537109375,0.2340850830078125
1772713806276470000,10.914469970703125,-1.20904541015625,-0.3537139892578125,0.2102508544921875
1772713806286443800,10.92444384765625,-1.19921875,-0.276611328125,0.161651611328125
1772713806296418800,10.934418701171875,-1.1849365234375,-0.21881103515625,0.1481475830078125
1772713806306392800,10.944392822265625,-1.1812286376953125,-0.1847686767578125,0.140289306640625
1772713806316366800,10.954366943359375,-1.114044189453125,-0.152618408203125,0.1313629150390625
1772713806326340900,10.9643408203125,-1.0622100830078125,-0.12542724609375,0.126495361328125
1772713806336315000,10.97431494140625,-1.0173187255859375,-0.11187744140625,0.1306610107421875
1772713806346289000,10.984288818359374,-0.972930908203125,-0.1154022216796875,0.1554412841796875
1772713806356263000,10.994262939453124,-0.932769775390625,-0.1307525634765625,0.1908111572265625
1772713806366237000,11.00423681640625,-0.8946990966796875,-0.15570068359375,0.2239227294921875
1772713806376212000,11.0142119140625,-0.8663177490234375,-0.187744140625,0.2566680908203125
1772713806386186000,11.02418603515625,-0.85540771484375,-0.216400146484375,0.27978515625
1772713806396160000,11.034159912109375,-0.8423614501953125,-0.236663818359375,0.27734375
1772713806406134000,11.044134033203125,-0.8356781005859375,-0.2544708251953125,0.263519287109375
1772713806416107800,11.054107666015625,-0.8446807861328125,-0.268707275390625,0.24993896484375
1772713806426081800,11.064081787109375,-0.867950439453125,-0.2718658447265625,0.241424560546875
1772713806436055800,11.074055908203125,-0.9010467529296875,-0.2687530517578125,0.2397308349609375
1772713806446029800,11.08402978515625,-0.9429473876953125,-0.2644805908203125,0.2463836669921875
1772713806456003800,11.09400390625,-1.007232666015625,-0.2580108642578125,0.2518157958984375
1772713806465979000,11.103978759765624,-1.0438079833984375,-0.243743896484375,0.2436065673828125
1772713806475953000,11.113952880859374,-1.06866455078125,-0.223052978515625,0.22821044921875
1772713806485927000,11.123927001953126,-1.125885009765625,-0.2031097412109375,0.2113800048828125
1772713806495901000,11.13390087890625,-1.1610870361328125,-0.173797607421875,0.1974334716796875
1772713806505870600,11.14387060546875,-1.152008056640625,-0.13714599609375,0.18798828125
1772713806515844600,11.1538447265625,-1.1437530517578125,-0.106689453125,0.1763153076171875
1772713806525818600,11.163818603515624,-1.1258697509765625,-0.104888916015625,0.157623291015625
1772713806535792600,11.173792724609376,-1.0940704345703125,-0.1116790771484375,0.14080810546875
1772713806545766700,11.1837666015625,-1.08111572265625,-0.074981689453125,0.1496734619140625
1772713806555741400,11.193741455078126,-1.077789306640625,-0.06793212890625,0.1573486328125
1772713806565715500,11.203715576171875,-1.0698699951171875,-0.0954132080078125,0.1457366943359375
1772713806575689500,11.213689453125,-1.0392303466796875,-0.11669921875,0.1353912353515625
1772713806585663500,11.22366357421875,-1.007568359375,-0.1234130859375,0.138031005859375
1772713806595637500,11.233637451171875,-0.98828125,-0.133544921875,0.141448974609375
1772713806605611500,11.243611572265625,-0.975341796875,-0.1513671875,0.14495849609375
1772713806615585500,11.25358544921875,-0.9661102294921875,-0.1658935546875,0.148956298828125
1772713806625559600,11.2635595703125,-0.95654296875,-0.1722259521484375,0.1463775634765625
1772713806635534600,11.27353466796875,-0.93890380859375,-0.180938720703125,0.1357879638671875
1772713806645508600,11.283508544921874,-0.926055908203125,-0.1913299560546875,0.1293792724609375
1772713806655482600,11.293482666015626,-0.9237518310546875,-0.1937713623046875,0.131072998046875
1772713806665456600,11.30345654296875,-0.918212890625,-0.1950836181640625,0.140869140625
1772713806675430700,11.3134306640625,-0.908782958984375,-0.213165283203125,0.145751953125
1772713806685404400,11.323404296875,-0.905426025390625,-0.246917724609375,0.128662109375
1772713806695378400,11.33337841796875,-0.9024505615234375,-0.279998779296875,0.0863189697265625
1772713806705352400,11.3433525390625,-0.9113006591796875,-0.297149658203125,0.0404815673828125
1772713806715327500,11.353327392578125,-0.902069091796875,-0.303375244140625,-0.0072784423828125
1772713806725301500,11.363301513671875,-0.856292724609375,-0.2994384765625,-0.0445098876953125
1772713806735275500,11.373275634765625,-0.8603668212890625,-0.3023834228515625,-0.071075439453125
1772713806745249500,11.38324951171875,-0.89239501953125,-0.30743408203125,-0.0895843505859375
1772713806755223600,11.3932236328125,-0.9122161865234375,-0.3048248291015625,-0.10205078125
1772713806765197600,11.403197509765626,-0.91009521484375,-0.30145263671875,-0.10772705078125
1772713806775171600,11.413171630859376,-0.9002685546875,-0.30670166015625,-0.1010284423828125
1772713806785145600,11.4231455078125,-0.9035186767578125,-0.320465087890625,-0.0787353515625
1772713806795119600,11.43311962890625,-0.9011993408203125,-0.3345184326171875,-0.055694580078125
1772713806805094700,11.4430947265625,-0.8944854736328125,-0.34228515625,-0.0394287109375
1772713806815068700,11.453068603515625,-0.892608642578125,-0.3452301025390625,-0.026458740234375
1772713806825042700,11.463042724609375,-0.8942108154296875,-0.3484954833984375,-0.017608642578125
1772713806835016700,11.4730166015625,-0.894927978515625,-0.35321044921875,-0.019744873046875
1772713806844990700,11.48299072265625,-0.89093017578125,-0.3549957275390625,-0.0287322998046875
1772713806854964700,11.49296484375,-0.8919525146484375,-0.3533172607421875,-0.0364532470703125
1772713806864938800,11.502938720703124,-0.8889617919921875,-0.355926513671875,-0.040008544921875
1772713806874912800,11.512912841796876,-0.8952178955078125,-0.3652801513671875,-0.044036865234375
1772713806884886500,11.522886474609376,-0.897613525390625,-0.3736419677734375,-0.0516357421875
1772713806894861800,11.53286181640625,-0.8922271728515625,-0.378570556640625,-0.0597076416015625
1772713806904835600,11.542835693359375,-0.8818359375,-0.383880615234375,-0.0673065185546875
1772713806914809600,11.5528095703125,-0.875732421875,-0.3858642578125,-0.072998046875
1772713806924783600,11.56278369140625,-0.8672637939453125,-0.3873443603515625,-0.073944091796875
1772713806934757600,11.572757568359375,-0.857330322265625,-0.395233154296875,-0.0694732666015625
1772713806944731600,11.582731689453125,-0.8578948974609375,-0.404052734375,-0.0664215087890625
1772713806954705700,11.59270556640625,-0.85906982421875,-0.407562255859375,-0.0598297119140625
1772713806964679700,11.6026796875,-0.8598785400390625,-0.4123382568359375,-0.049835205078125
1772713806974653700,11.61265380859375,-0.8655242919921875,-0.4155426025390625,-0.036651611328125
1772713806984628700,11.622628662109374,-0.882904052734375,-0.4144287109375,-0.0284881591796875
1772713806994602800,11.632602783203126,-0.892486572265625,-0.4138641357421875,-0.0228729248046875
1772713807004576800,11.64257666015625,-0.9082794189453125,-0.4136962890625,-0.0200653076171875
1772713807014550800,11.65255078125,-0.9272613525390625,-0.4128265380859375,-0.02105712890625
1772713807024524800,11.66252490234375,-0.93994140625,-0.41265869140625,-0.0165252685546875
1772713807034498800,11.672498779296875,-0.956634521484375,-0.4107818603515625,-0.0098114013671875
1772713807044472600,11.68247265625,-0.9761199951171875,-0.4129791259765625,-0.006500244140625
1772713807054446600,11.692446533203125,-0.99755859375,-0.4069976806640625,-0.0143280029296875
1772713807064420600,11.702420654296875,-1.0142669677734375,-0.392547607421875,-0.0341033935546875
1772713807074395600,11.712395751953125,-1.0216217041015625,-0.3798980712890625,-0.0623931884765625
1772713807084369700,11.72236962890625,-1.0301513671875,-0.370513916015625,-0.0909881591796875
1772713807094343700,11.73234375,-1.0352020263671875,-0.3653106689453125,-0.104949951171875
1772713807104317700,11.742317626953126,-1.0351715087890625,-0.3636627197265625,-0.1056671142578125
1772713807114291700,11.752291748046876,-1.026611328125,-0.3614044189453125,-0.1035614013671875
1772713807124265700,11.762265625,-1.0216827392578125,-0.3593292236328125,-0.0957794189453125
1772713807134239700,11.77223974609375,-1.014862060546875,-0.3668212890625,-0.0847320556640625
1772713807144213800,11.7822138671875,-1.003021240234375,-0.383087158203125,-0.07122802734375
1772713807154187800,11.792187744140625,-1.0010528564453125,-0.3914642333984375,-0.06939697265625
1772713807164162600,11.80216259765625,-1.0044403076171875,-0.383148193359375,-0.071075439453125
1772713807174136600,11.812136474609375,-1.01068115234375,-0.358001708984375,-0.07147216796875
1772713807184110600,11.822110595703125,-1.0152130126953125,-0.3277130126953125,-0.0790863037109375
1772713807194084600,11.832084716796874,-1.0264434814453125,-0.29559326171875,-0.096221923828125
1772713807204058600,11.84205859375,-1.0445556640625,-0.253997802734375,-0.1245574951171875
1772713807214032600,11.85203271484375,-1.0390625,-0.213714599609375,-0.1552734375
1772713807224006700,11.862006591796876,-1.0239410400390625,-0.1785736083984375,-0.1863861083984375
1772713807233980700,11.871980712890625,-1.0109100341796875,-0.1541900634765625,-0.208984375
1772713807243955700,11.881955810546875,-1.0056915283203125,-0.1385345458984375,-0.204010009765625
1772713807253929700,11.8919296875,-0.982757568359375,-0.133453369140625,-0.1916961669921875
1772713807263903700,11.90190380859375,-0.956451416015625,-0.1424407958984375,-0.17413330078125
1772713807273877500,11.91187744140625,-0.9395904541015625,-0.15740966796875,-0.1583251953125
1772713807283851500,11.9218515625,-0.9218292236328125,-0.179473876953125,-0.160430908203125
1772713807293825500,11.931825439453124,-0.9119415283203125,-0.2071533203125,-0.162689208984375
1772713807303799600,11.941799560546874,-0.9029998779296875,-0.23858642578125,-0.1631622314453125
1772713807313773600,11.951773681640624,-0.8994598388671875,-0.264617919921875,-0.161285400390625
1772713807323747600,11.96174755859375,-0.9128570556640625,-0.2792205810546875,-0.1517333984375
1772713807333722600,11.97172265625,-0.944671630859375,-0.28302001953125,-0.1466827392578125
1772713807343696600,11.981696533203126,-0.9461212158203125,-0.3031768798828125,-0.158294677734375
1772713807353670700,11.991670654296875,-0.9459991455078125,-0.3284149169921875,-0.1730804443359375
1772713807363644700,12.001644775390625,-0.9410858154296875,-0.2820587158203125,-0.15380859375
1772713807373618700,12.01161865234375,-0.9630889892578125,-0.2566070556640625,-0.1326904296875
1772713807383592700,12.0215927734375,-0.972625732421875,-0.2574310302734375,-0.1117401123046875
1772713807393566700,12.031566650390625,-0.961181640625,-0.2662811279296875,-0.0846405029296875
1772713807403540700,12.041540771484375,-0.9574737548828125,-0.2576141357421875,-0.1492919921875
1772713807413514500,12.051514404296874,-0.92608642578125,-0.29620361328125,-0.198577880859375
1772713807423489500,12.061489501953124,-0.860260009765625,-0.3191375732421875,-0.202972412109375
1772713807433463600,12.071463623046874,-0.859222412109375,-0.263275146484375,-0.2313995361328125
1772713807443437600,12.0814375,-0.899932861328125,-0.1716766357421875,-0.246063232421875
1772713807453411600,12.09141162109375,-0.9921875,-0.132781982421875,-0.263519287109375
1772713807463385600,12.101385498046875,-1.011322021484375,-0.1410675048828125,-0.1702880859375
1772713807473359600,12.111359619140625,-0.9067535400390625,-0.139739990234375,-0.067352294921875
1772713807483333600,12.121333740234375,-0.8565826416015625,-0.1434326171875,-0.03106689453125
1772713807493307600,12.1313076171875,-0.8937835693359375,-0.1562042236328125,-0.01068115234375
1772713807503281700,12.14128173828125,-0.9166717529296875,-0.17462158203125,0.0086517333984375
1772713807513256200,12.151256103515625,-0.9199981689453125,-0.20745849609375,0.007659912109375
1772713807523230000,12.16122998046875,-0.918365478515625,-0.2420501708984375,0.0133819580078125
1772713807533204000,12.171203857421874,-0.9476470947265625,-0.2481689453125,0.0396270751953125
1772713807543178000,12.181177978515626,-0.9975128173828125,-0.227020263671875,0.048980712890625
1772713807553152000,12.191152099609376,-1.0089263916015625,-0.2056427001953125,0.02410888671875
1772713807563126000,12.2011259765625,-0.9779510498046875,-0.2049102783203125,-0.006103515625
1772713807573100000,12.21110009765625,-0.9438629150390625,-0.2046966552734375,-0.01458740234375
1772713807583074000,12.221073974609375,-0.8751068115234375,-0.2034912109375,-0.011566162109375
1772713807593048000,12.231048095703125,-0.797271728515625,-0.1889801025390625,-0.016265869140625
1772713807603022000,12.24102197265625,-0.809295654296875,-0.193756103515625,-0.0643768310546875
1772713807612997000,12.2509970703125,-1.021209716796875,-0.198638916015625,-0.14935302734375
1772713807622971100,12.26097119140625,-1.0340576171875,-0.2512664794921875,-0.1595611572265625
1772713807632945200,12.270945068359374,-0.9800567626953125,-0.3018341064453125,-0.19354248046875
1772713807642919200,12.280919189453124,-0.899200439453125,-0.3154144287109375,-0.20745849609375
1772713807652893200,12.29089306640625,-0.86285400390625,-0.31768798828125,-0.2051239013671875
1772713807662867000,12.300866943359376,-0.88739013671875,-0.32342529296875,-0.1910552978515625
1772713807672841000,12.310841064453125,-0.908447265625,-0.3398590087890625,-0.13592529296875
1772713807682815000,12.32081494140625,-0.9342498779296875,-0.3330230712890625,-0.0802764892578125
1772713807692790000,12.3307900390625,-0.907318115234375,-0.2944488525390625,-0.0480194091796875
1772713807702764000,12.340763916015625,-0.876708984375,-0.2688446044921875,-0.043792724609375
1772713807712738000,12.350738037109375,-0.8755645751953125,-0.260650634765625,-0.0446624755859375
1772713807722712000,12.360712158203125,-0.9228668212890625,-0.2679290771484375,-0.0373077392578125
1772713807732686000,12.37068603515625,-0.9596099853515625,-0.267791748046875,0.001068115234375
1772713807742660000,12.38066015625,-0.9774627685546875,-0.28155517578125,0.0471954345703125
1772713807752634000,12.390634033203124,-0.93951416015625,-0.284454345703125,0.08905029296875
1772713807762608000,12.400608154296876,-0.982391357421875,-0.2733001708984375,0.140350341796875
1772713807772582100,12.41058203125,-1.105072021484375,-0.3170013427734375,0.1193695068359375
1772713807782556200,12.42055615234375,-1.07684326171875,-0.3629608154296875,0.026458740234375
1772713807792531000,12.430531005859375,-1.0484771728515625,-0.3713836669921875,-0.0175628662109375
1772713807802505000,12.4405048828125,-1.0399017333984375,-0.3782196044921875,-0.010955810546875
1772713807812479000,12.45047900390625,-1.070770263671875,-0.3837432861328125,-0.010772705078125
1772713807822453000,12.460452880859375,-1.0872650146484375,-0.3604888916015625,0.0316162109375
1772713807832427000,12.470427001953125,-1.08636474609375,-0.3456268310546875,0.0796356201171875
1772713807842401000,12.480401123046875,-1.064666748046875,-0.314971923828125,0.1237945556640625
1772713807852375000,12.490375,-1.0265655517578125,-0.3434295654296875,0.11395263671875
