time,seconds_elapsed,z,y,x
1772713795439552000,0.077552001953125,0.5940133561313152,-0.3800426886707544,0.2762935603827238
1772713795449526000,0.087526123046875,0.6340303092211484,-0.19327157830297945,0.6040420712579041
1772713795459500000,0.0975,0.559757450786233,-0.5612897749200463,0.006051555123925209
1772713795469474000,0.10747412109375,0.7825812867879867,-0.6107590314880013,-0.14853534160628915
1772713795479448000,0.117447998046875,0.9671598555475472,-0.47647477194368837,-0.05344210572168231
1772713795489423000,0.127423095703125,0.7942530198812484,-0.4268491557702422,-0.014617138895392416
1772713795499396900,0.13739697265625,0.6234358499705791,-0.39101737941056486,-0.033070275757089256
1772713795509371000,0.147370849609375,0.5681710588663816,-0.411168479296565,-0.06937171545512974
1772713795519345000,0.157344970703125,0.635123949676752,-0.44926527797877785,-0.13734759263768792
1772713795529319000,0.16731884765625,0.7456751591950654,-0.4919204706177115,-0.17619301773011684
1772713795539293700,0.177293701171875,0.7167839957535267,-0.4793164251103997,-0.23719839831292627
1772713795549267700,0.187267822265625,0.39623628310263154,-0.39660423963218927,-0.25872392835728825
1772713795559241700,0.19724169921875,0.22711013501882552,-0.3932189811080694,-0.2411166677352041
1772713795569215700,0.2072158203125,0.3256155174344778,-0.4503910671383142,-0.19455730726458131
1772713795579189800,0.217189697265625,0.33932606287896633,-0.42919805698394775,-0.2036189309246838
1772713795589164800,0.227164794921875,0.263113176292181,-0.3357601870909333,-0.1257966363798827
1772713795599138800,0.237138916015625,0.1020592755049467,-0.30607056674808264,-0.00467741722650826
1772713795609112800,0.24711279296875,-0.1365145028144121,-0.31229309452474113,0.04502272548787296
1772713795619086800,0.2570869140625,-0.280467046675086,-0.31301497905850406,0.008892916029691696
1772713795629060900,0.267060791015625,-0.29048633638620375,-0.2815183092936873,-0.07357143216729163
1772713795639034600,0.27703466796875,-0.23758593632578848,-0.15840426306128502,-0.09001322920657694
1772713795649010000,0.287010009765625,-0.3063531830817461,-0.13991525116860865,-0.12581307605803013
1772713795658984000,0.29698388671875,-0.4018079457551241,-0.23143705830723046,-0.1090551988068968
1772713795668957700,0.306957763671875,-0.35441666450500486,-0.24193887083828447,-0.05040704887472093
1772713795678931700,0.316931640625,-0.38275603928267954,-0.20081834042072294,0.011665522548183798
1772713795688905700,0.32690576171875,-0.2387187397480011,-0.18004677054882048,0.023630247238650915
1772713795698881000,0.336881103515625,-0.13337971192002296,0.14055793298631905,0.0963817047925666
1772713795708855000,0.34685498046875,-0.1518511881560087,-0.10521335562169551,0.25495354297310113
1772713795718828800,0.356828857421875,-0.34175182872116566,-0.27889848218411206,0.18630469843242317
1772713795728802800,0.366802734375,-0.46781741823554035,-0.1330547177493572,0.14278638615813105
1772713795738776800,0.37677685546875,-0.3455114735156298,-0.15020429773181676,0.03681691493950784
1772713795748750800,0.386750732421875,-0.32848142825961113,-0.20540888308137653,-0.004988072344567627
1772713795758726000,0.396725830078125,-0.35937925534844395,-0.18970599477589128,0.02268925832780078
1772713795768700000,0.406699951171875,-0.4367524178862571,-0.2074360049948096,0.13836700794645584
1772713795778674000,0.416673828125,-0.4872171152323484,-0.3080111794218421,0.1975583705103956
1772713795788648000,0.42664794921875,-0.4575853625565767,-0.3717471540123224,0.2030228647276759
1772713795798622000,0.4366220703125,-0.3196025407552719,-0.31302023975551124,0.17484523811666294
1772713795808596700,0.4465966796875,-0.15653846918940542,-0.2179793185800314,0.17576047153174876
1772713795818570800,0.45657080078125,-0.11905015779435633,-0.1596753059104085,0.2166551755704917
1772713795828544800,0.466544677734375,-0.18844576558172701,-0.17351853782385587,0.2532210200920701
1772713795838518800,0.476518798828125,-0.1285498075455427,-0.16506518225520847,0.2696331526454538
1772713795848492800,0.486492919921875,-0.050609074252843854,-0.12036416300237178,0.2502262952554971
1772713795858466800,0.496466796875,-0.047208325898647305,-0.10830693772286176,0.29479678346384314
1772713795868441900,0.50644189453125,-0.09378653720021247,-0.10576251393705606,0.3759355090802535
1772713795878416000,0.516415771484375,-0.07099135254621505,-0.08414397184699773,0.425765013795346
1772713795888390000,0.526389892578125,0.024632336953282354,-0.025480770476162432,0.4553692939423024
1772713795898364000,0.536364013671875,0.07998597538471222,0.027919688060879706,0.5062966038314626
1772713795908338000,0.546337890625,0.13776421061456204,0.039355566571652886,0.5612923322033136
1772713795918312700,0.556312744140625,0.12186755330264568,0.04406359813213348,0.6019213162442669
1772713795928286700,0.56628662109375,-0.010081249031424521,-0.03376899861097336,0.6530619035579264
1772713795938260700,0.5762607421875,-0.1635194141179323,-0.1720572330996394,0.6502081946272402
1772713795948234800,0.58623486328125,-0.23870646478831767,-0.22525924645513296,0.6340170113481581
1772713795958208800,0.596208740234375,-0.13655541934669016,-0.1440592191055417,0.6215202256076038
1772713795968182800,0.606182861328125,-0.053172202739119524,-0.05373714314550161,0.6232432500079274
1772713795978157800,0.61615771484375,-0.12466975124180316,0.020666940453648565,0.6188957953881472
1772713795988131800,0.6261318359375,-0.180129772657156,0.1481347979813814,0.6424602108489722
1772713795998105900,0.63610595703125,-0.1314741705596447,0.2294835861518979,0.6704111708309501
1772713796008080000,0.646079833984375,-0.09485270512700081,0.30336627622544765,0.7113230269338935
1772713796018054000,0.656053955078125,-0.018411855003237724,0.4332306735008955,0.7603745695464312
1772713796028027600,0.666027587890625,0.039269349592924115,0.5446031362742185,0.7746184912152588
1772713796038002700,0.676002685546875,0.11428922700285911,0.5782596144214273,0.8147058791927992
1772713796047976700,0.685976806640625,0.25800036332309245,0.5779539094731211,0.9347779273808002
1772713796057950700,0.69595068359375,0.31469781757891174,0.5228787957221269,1.0558666052654384
1772713796067924700,0.7059248046875,0.3199778038084507,0.38442601832151413,1.136536836587265
1772713796077898800,0.715898681640625,0.18426292693912982,0.21185878987312315,0.6390974564176053
1772713796087874000,0.7258740234375,0.30666999394595623,0.017355916209518908,0.9011912265341728
1772713796097848000,0.73584814453125,0.8221645246356725,0.7670274515643716,2.3140794911712406
1772713796107821800,0.74582177734375,-0.12548574379980562,0.6631190410614013,1.6958258661441503
1772713796117795800,0.7557958984375,-0.2899742952108383,-0.08639934955835342,0.8663429813191295
1772713796127769900,0.765769775390625,0.562646157965064,0.09158025932759047,1.4798124408096074
1772713796137743600,0.77574365234375,0.5599567727506161,0.5336895280718803,1.6861837391823529
1772713796147719000,0.785718994140625,-0.008453940090537071,0.5221534040570259,1.5526532206147907
1772713796157693000,0.79569287109375,-0.12602701106965541,0.3001061053857207,1.5032885934650897
1772713796167667000,0.8056669921875,0.009179916277527808,0.21515432428717612,1.4733853303715585
1772713796177641000,0.815640869140625,-0.0003004442512989044,0.24407442156225442,1.4321280218318104
1772713796187615000,0.825614990234375,-0.05248012882173061,0.26104455332458015,1.394410577856004
1772713796197589800,0.83558984375,-0.03766483700573444,0.21762480605393647,1.4042695624388755
1772713796207563800,0.845563720703125,0.024873159971833227,0.1748027324154973,1.432672357841581
1772713796217537800,0.855537841796875,0.0706932463824749,0.12516922519654033,1.4907611203253268
1772713796227511800,0.86551171875,0.07268588150441646,0.04620587085783481,1.5264287921644746
1772713796237485800,0.87548583984375,0.06531915212869643,0.04426496592313051,1.541197029968351
1772713796247459800,0.8854599609375,0.08474865974187851,0.07042816570550203,1.4631998903132974
1772713796257435000,0.895434814453125,0.16821604750156402,-0.002319382858276367,1.366669168971479
1772713796267409000,0.905408935546875,0.21200725843310356,-0.04617255311012268,1.2947482804901898
1772713796277383000,0.9153828125,0.17467150725126265,-0.03383563410639763,1.2414544971980155
1772713796287357000,0.92535693359375,0.18375439289510248,-0.016726093873381614,1.1417882543094455
1772713796297331000,0.9353310546875,0.23412732030451297,0.05798486371785402,1.0304053432073443
1772713796307305700,0.9453056640625,0.2775339158326387,0.09644172788411379,0.9152738932266831
1772713796317279700,0.95527978515625,0.40233167736828324,0.12725889095216988,0.8453498776510358
1772713796327253800,0.965253662109375,0.5200274979442358,0.19442688581794498,0.8243760632053018
1772713796337227800,0.975227783203125,0.539777323552966,0.16458090586960314,0.8217101319316774
1772713796347201800,0.985201904296875,0.524993595919013,0.10787088439315556,0.8794409478232263
1772713796357175800,0.99517578125,0.5180149890780449,0.1347694127127528,0.9257779707800596
1772713796367150800,1.00515087890625,0.42092122702598567,0.07467179462462663,0.9893827202063054
1772713796377124900,1.015124755859375,0.36395547722280025,-0.041030221785604955,0.9643553195208311
1772713796387099000,1.025098876953125,0.5693547156929969,-0.011860241402685642,0.852151082098484
1772713796397073000,1.035072998046875,0.7544763052880764,0.03885667713880539,0.7802055706325918
1772713796407047000,1.045046875,0.7852262483388185,-0.06790566149055957,0.7591301955085248
1772713796417020700,1.055020751953125,0.758507168239355,-0.27219489289224147,0.7414107797488569
1772713796426995700,1.06499560546875,0.8834545673787594,-0.37468262294232846,0.7186598726280033
1772713796436969700,1.0749697265625,0.9850099850147962,-0.4274608579277992,0.7819345133170486
1772713796446943700,1.08494384765625,0.9021674511551856,-0.6064657182082533,0.8987339695751666
1772713796456917800,1.094917724609375,0.7772942862957716,-0.8957143294930457,1.0554513024628163
1772713796466891800,1.104891845703125,0.6524924331068992,-1.0931351364299655,1.2222050223268568
1772713796476865800,1.11486572265625,0.4148907146900892,-1.1255839923530817,1.2157039698697625
1772713796486840800,1.1248408203125,-0.19596973134577272,-0.7606105702593923,1.1134674381017684
1772713796496814800,1.13481494140625,-0.09435936865210533,-1.169821193486452,1.3244146660879255
1772713796506788900,1.144788818359375,0.20845102725625037,-2.067137697479129,1.0766646247528493
1772713796516763000,1.154762939453125,-0.4070966998130083,-1.6756734510838984,0.6098144441142678
1772713796526737000,1.16473681640625,-0.6630740328758955,-1.0287211164474486,0.10571239118501544
1772713796536712000,1.1747119140625,-0.5136632236093283,-0.7791828765213489,-0.23951105916947124
1772713796546686000,1.18468603515625,-0.44761166555285453,-0.6611237755909561,-0.159345197173208
1772713796556660000,1.194659912109375,-1.0844406655818224,-0.7003910793572664,0.14912249384447931
1772713796566634000,1.204634033203125,-2.1013976944774386,-0.8930082854047418,0.25298838037997484
1772713796576608000,1.21460791015625,-1.878905866909027,-1.0441007641479372,0.32194355092346666
1772713796586582000,1.22458203125,-1.4610451964974402,-1.2629086425065994,-0.35292759499102827
1772713796596556800,1.234556884765625,-1.1318623419702052,-1.6755565467059612,-0.746315795186162
1772713796606530800,1.24453076171875,-1.2269745748162268,-1.4669924144640565,0.399247447617352
1772713796616504800,1.2545048828125,-1.684537141019106,-1.1481290016382932,-0.14293898290395735
1772713796626478800,1.264478759765625,-2.1468951248049737,-0.8923489447131753,-0.3344008814364671
1772713796636452900,1.274452880859375,-2.8823341366678474,-0.5504159142062067,-0.4017363418236375
1772713796646427000,1.284427001953125,-2.880826070192456,-0.32589287307113407,-0.7039256832242011
1772713796656402000,1.29440185546875,-2.2006892588347196,-0.5152636445432901,-0.688631083458662
1772713796666376000,1.3043759765625,-1.568807652080059,-0.8088502850323915,0.3668453534454107
1772713796676350000,1.314349853515625,-1.5132394941151142,-1.0339306677892803,0.7315992875695229
1772713796686324000,1.324323974609375,-1.1735901906311512,-1.1021873346745967,0.0976826678559184
1772713796696298000,1.334298095703125,-0.4131751429438591,-0.8031734084397554,-0.6023717268928885
1772713796706272800,1.344272705078125,0.42529871145784853,-0.5119549583867192,-0.8178136359497904
1772713796716246800,1.354246826171875,1.062314758491516,-0.37349867385476826,-0.826046626766026
1772713796726220800,1.364220703125,1.3602952500253915,-0.4249792702451348,-0.8186249523326754
1772713796736194800,1.37419482421875,1.3507301338225601,-0.6311003932490945,-0.8943433334007859
1772713796746168800,1.3841689453125,1.4488713591009377,-0.7543935954406857,-1.0776336159154771
1772713796756142800,1.394142822265625,1.617446887564659,-0.7475865457743406,-1.1910516130417586
1772713796766118100,1.4041181640625,1.5625351476818323,-0.6629211804017424,-1.0075573323875666
1772713796776092200,1.414092041015625,0.955726022863388,-0.3311412951186299,-0.3954088923677802
1772713796786066200,1.424066162109375,-0.3387678444743156,0.2723424846693873,1.1010168295904994
1772713796796040000,1.4340400390625,-2.0690292103141545,0.9411889634668826,2.910833962704241
1772713796806014000,1.444013916015625,-3.040830754187703,0.5763014660909772,3.4053695842564102
1772713796815988000,1.453988037109375,-1.7158277668178081,-0.23497429252266883,2.4711431532785295
1772713796825963000,1.463962890625,-0.8343465453386306,-0.14794190575778485,1.5173022135093808
1772713796835937000,1.47393701171875,-0.5781137762099504,0.2501622170433402,0.06267565188258886
1772713796845911000,1.4839111328125,-0.27414661148190494,0.5823886770501733,-0.8901192859649658
1772713796855885000,1.493885009765625,-0.5620990454763174,0.965705565086007,-1.7493837071999907
1772713796865859000,1.503859130859375,0.004867313775420189,1.4556038822263477,-1.1802537401735782
1772713796875833000,1.5138330078125,0.9215957897245883,1.9399626854181289,-1.0066036849245428
1772713796885807900,1.523807861328125,1.2142863581568002,1.8961732280522583,-0.4907774380624294
1772713796895782000,1.533781982421875,0.8161907109230756,1.6025275508522987,-0.007955927440524101
1772713796905756000,1.543755859375,0.9371458255559205,1.5059259562313556,0.09106295745521784
1772713796915730000,1.55372998046875,1.280656480643153,1.5042244130104778,0.1799646452233195
1772713796925704000,1.563703857421875,1.339236679905653,1.4433330141961573,0.4062359913304448
1772713796935679000,1.573678955078125,1.1416285337030887,1.2437941921919584,0.8984900778166949
1772713796945653000,1.583653076171875,1.0052695137113332,1.0494657983124256,1.1967195756755769
1772713796955627000,1.593626953125,0.9825438871622085,1.2171060917526484,1.291973408949375
1772713796965601000,1.60360107421875,0.8420119653999805,1.1149234821289777,1.5157392019763587
1772713796975575000,1.613574951171875,0.3676455639123916,1.0303893419206143,1.9079833467029035
1772713796985549000,1.623549072265625,-0.2567605923950672,1.0991191792756319,1.857173050789535
1772713796995523800,1.63352392578125,-0.3873533039450645,1.0682207676649094,1.6994181915476918
1772713797005497900,1.643497802734375,-0.65760115442276,1.1300018087953327,1.538615781303495
1772713797015471900,1.653471923828125,-0.6907979061037302,1.3045552426248788,1.6384978588998316
1772713797025446000,1.66344580078125,-0.44460722303986544,1.4963304448902606,1.8699355017289518
1772713797035420000,1.673419921875,-0.21470833408534526,1.7700053472071886,2.040595289120823
1772713797045394000,1.683393798828125,-0.02126198373734951,1.97871531766057,2.2774545186072586
1772713797055369000,1.693368896484375,0.05923194116950035,1.9210119012326001,2.499455055527389
1772713797065343000,1.703343017578125,0.22216274174451828,1.611497623771429,2.4549150720551607
1772713797075317000,1.71331689453125,0.3707885381132364,1.374503808119893,1.961635588043928
1772713797085291000,1.723291015625,0.732837304931879,1.3481728505551813,1.5701288176812231
1772713797095265000,1.73326513671875,1.7876970712423323,1.4919564675897359,1.8006585518851874
1772713797105239800,1.74323974609375,2.6194746428757902,1.658781060732901,2.2321146169289947
1772713797115213800,1.7532138671875,3.305046338763833,1.8492767445817588,2.727591903245449
1772713797125187800,1.763187744140625,3.5315257746636863,1.9505039531767367,3.368806571012735
1772713797135161900,1.773161865234375,2.44716752666831,1.5721227679774163,3.830488847494125
1772713797145135900,1.783135986328125,0.5678115779042243,0.5214066773429513,3.307460998690128
1772713797155110000,1.79310986328125,0.4543400970250368,-0.020918869388103483,2.8398548851177097
1772713797165085000,1.8030849609375,1.2833634015142916,0.18415566717237233,2.6320181903675195
1772713797175059000,1.813058837890625,1.5557926876842976,0.3686977033138275,2.393171732586622
1772713797185033000,1.823032958984375,1.4456225864380596,0.29388620795756576,2.3052121479742227
1772713797195006700,1.8330068359375,1.0489292072176932,0.07148731936961412,2.326055467908084
1772713797204980700,1.842980712890625,0.4990723881989717,-0.24541297668963669,2.2654212587252256
1772713797214954800,1.852954833984375,-0.07317161919474602,-0.576061227594316,2.1745266435742376
1772713797224930000,1.862929931640625,-0.4778203413337469,-0.7411389770701527,1.9848907914251088
1772713797234904000,1.872904052734375,-0.7766583264797926,-0.7388406369999051,1.5516956276290117
1772713797244878000,1.882878173828125,-1.0710276417791842,-0.8058513954773545,0.9187450034033506
1772713797254852000,1.89285205078125,-1.4714584539622066,-0.8472861064106225,0.22216756405010818
1772713797264826000,1.902826171875,-1.668598398131132,-0.6428682801932096,-0.42796150092631574
1772713797274800000,1.912800048828125,-1.6868746440559625,-0.2843228453204036,-0.982147581321001
1772713797284775000,1.92277490234375,-1.7621558027505873,-0.17725567852556703,-1.4401511692896485
1772713797294749000,1.9327490234375,-1.6989333306401968,-0.1867322396621108,-1.8234335705339908
1772713797304723000,1.942722900390625,-1.596952381068468,-0.07349398301690817,-1.9704013705626129
1772713797314697000,1.952697021484375,-1.6579443176478146,-0.1389873226687312,-1.0635608860950916
1772713797324671000,1.9626708984375,-1.7843460072487591,-0.4461363323032856,-0.16113924098312854
1772713797334646000,1.97264599609375,-2.139021614950895,-0.2256625665590167,0.13131547286659478
1772713797344620000,1.9826201171875,-1.6483739407479763,-0.008976210398972034,0.299088671971485
1772713797354594000,1.992593994140625,-0.9882371303677558,0.18449264404177665,0.018672332570329308
1772713797364568000,2.002568115234375,-0.9176794930636882,0.4850403557151556,-0.42718386761732396
1772713797374542000,2.0125419921875,-1.6396213099718093,0.061148296184837816,0.05638173937015235
1772713797384516000,2.02251611328125,-2.2517308792859314,-0.13977993435114622,0.8681146671667694
1772713797394491000,2.032490966796875,-1.808684914213419,0.01767009672522545,1.1623961580522357
1772713797404465000,2.04246484375,-1.4431711016327142,0.05549333916306495,1.0393844031505286
1772713797414439000,2.05243896484375,-1.465124574765563,0.14597411281615494,1.011628308153525
1772713797424413000,2.062412841796875,-1.4852484943836926,0.40224692169427867,1.2875357187628744
1772713797434387000,2.072386962890625,-1.2223106746584176,0.7254895725175738,1.535315716844797
1772713797444361000,2.08236083984375,-0.9410703055232763,1.0037903810694813,1.716327825294435
1772713797454336000,2.0923359375,-0.8225859649181365,1.0306614368602633,1.668366196810454
1772713797464310000,2.10231005859375,-0.4684124615192413,0.6687637689501047,1.487760623335093
1772713797474284000,2.112283935546875,-0.14820318704247473,0.1830024054840207,1.4347915419526398
1772713797484258000,2.122258056640625,-0.18229601078033447,-0.12819763310700655,1.6108490967348217
1772713797494231800,2.132231689453125,-0.1624047308743,-0.06951485025286674,1.7396945262260735
1772713797504205800,2.142205810546875,-0.0759042590290308,0.49366526845842595,1.510573635906726
1772713797514180600,2.1521806640625,0.10104337646067142,1.1040867385551332,1.3567518783301113
1772713797524154600,2.162154541015625,0.26946809827685353,1.4699609088808296,1.332408879712224
1772713797534128600,2.172128662109375,0.3388736429363489,1.4367889993801712,1.397072198280692
1772713797544102700,2.1821025390625,0.37057811023294923,1.2007342181444167,1.4986461744867263
1772713797554076700,2.19207666015625,0.49156595809161663,1.0523223567873239,1.5869157018311322
1772713797564050700,2.20205078125,1.0838526365607977,0.9599415947318076,1.944416157695651
1772713797574025700,2.212025634765625,0.6604653116822242,0.9343635013610124,1.824112931100279
1772713797583999700,2.221999755859375,-0.4417740454405546,1.4315642504692077,0.9793259480290114
1772713797593973800,2.231973876953125,0.4110451451778412,1.8682851041734216,0.7705763762176037
1772713797603947500,2.241947509765625,0.7689116578757762,1.769810701417923,1.0636153196960687
1772713797613921500,2.251921630859375,0.12775193516612052,1.3285551268935203,1.193342646588385
1772713797623896600,2.261896484375,-0.07677928829789162,1.3862807551532983,1.041176985655725
1772713797633870600,2.27187060546875,0.2023760912567377,1.8354542631953954,0.8375371580734848
1772713797643844600,2.2818447265625,0.2737801162570715,2.254952763941884,0.5963578734308481
1772713797653818600,2.291818603515625,0.026703298008441925,2.0037386997580526,0.7974146987825632
1772713797663792600,2.301792724609375,0.21312369524240493,1.404146082189679,1.0907960259579121
1772713797673766700,2.3117666015625,0.49909576907455916,1.5300859994977711,1.0982023566916583
1772713797683741700,2.32174169921875,0.27471768936812874,1.4598849205464124,1.3556712434865534
1772713797693715500,2.331715576171875,0.10975216809511185,0.8304214808493852,1.666396650303155
1772713797703689500,2.341689453125,-0.14771861839592457,0.16912907069325447,2.082495717869699
1772713797713663500,2.35166357421875,-0.2815875751376152,-0.2806622769862413,2.3361196196742355
1772713797723637500,2.361637451171875,-0.6653910776466131,0.033898762470483776,2.2703448327325284
1772713797733611500,2.371611572265625,-0.828762023204565,0.31437983767092226,2.1304940251022577
1772713797743586600,2.381586669921875,-0.890536634594202,0.27632921621799467,1.9628189526095985
1772713797753560600,2.391560546875,-1.3084148406624794,0.16821429393589496,1.887235011576116
1772713797763534600,2.40153466796875,-1.9327257199019192,0.5810802248001098,1.734487166841328
1772713797773508600,2.411508544921875,-1.964879100009799,0.9664075758755206,1.2915943465039132
1772713797783482600,2.421482666015625,-1.7870558507293461,1.16266313842535,0.7816700171619653
1772713797793456600,2.43145654296875,-1.7796961356163024,1.4685621479988098,0.42933118184432384
1772713797803431400,2.441431396484375,-1.5410639051079749,1.782954845151305,0.2330804416000843
1772713797813405400,2.451405517578125,-1.1296347290486097,1.9241350016891956,0.22792992696911096
1772713797823379500,2.46137939453125,-0.6455576654076576,1.928925158575177,0.44801703148335215
1772713797833353500,2.471353515625,-0.43084407062530516,1.99147192338109,0.5282685259364545
1772713797843327500,2.481327392578125,-0.5079974529325961,1.8409277261704204,0.5688577259562909
1772713797853302800,2.491302734375,-0.7445534616887569,1.3886375474125146,0.8200364265657961
1772713797863276800,2.50127685546875,-0.8013175514400005,1.1621090116739272,0.8767749434843659
1772713797873250800,2.511250732421875,-0.6901280440181493,1.1006997264653444,0.8349842587202787
1772713797883224800,2.521224853515625,-0.6532505579978227,1.0690127948254347,1.027384168755263
1772713797893198800,2.53119873046875,-0.6979214743733405,0.9666074823617935,1.3185494273163378
1772713797903172600,2.541172607421875,-0.6316781931370496,0.9747288294970988,1.4858188416175544
1772713797913146600,2.551146728515625,-0.6883826616555452,1.0728262156337498,1.5106092917419969
1772713797923121700,2.56112158203125,-0.7865063512772321,1.0270762718498707,1.625376803781092
1772713797933095700,2.571095703125,-0.8473813834786414,0.9658937811344861,1.6513146703749895
1772713797943069700,2.581069580078125,-0.9667471830934286,0.833282715499401,1.6612342991039155
1772713797953043700,2.591043701171875,-1.014272319856286,0.639779082006216,1.7793930610164999
1772713797963017700,2.601017822265625,-0.9037766399174928,0.44184944876432414,1.8556804741442203
1772713797972991700,2.61099169921875,-0.7915028443902731,0.21045652185976504,1.8474156268849968
1772713797982966800,2.620966796875,-0.6901169381022453,-0.027575989189743993,1.8125611711248755
1772713797992940500,2.6309404296875,-0.5958043312013149,-0.27539281215071676,1.7852230823442339
1772713798002914600,2.64091455078125,-0.5183101726323366,-0.502160417342186,1.6691754673667252
1772713798012888600,2.650888671875,-0.5520300714045763,-0.6939028863817452,1.5870840441353617
1772713798022862600,2.660862548828125,-0.595102904933691,-0.8981038549780845,1.5029165452823041
1772713798032837600,2.670837646484375,-0.715923579531908,-1.0250216774076222,1.3666427193559705
1772713798042811600,2.680811767578125,-0.8889034804344177,-1.0472241568654774,1.1536593093670904
1772713798052785700,2.69078564453125,-1.0989812321096657,-1.1586024648576974,0.9379401908040046
1772713798062759700,2.700759765625,-1.1755331413924692,-1.3537638024300336,0.6867267111420631
1772713798072733700,2.710733642578125,-1.0263923812389373,-1.1213503003060816,0.34383126534372566
1772713798082707700,2.720707763671875,-1.0619085157781838,-0.6849971108704805,-0.009916267728060483
1772713798092682500,2.7306826171875,-1.1903572010368109,-0.47455286397039886,-0.37095746493935583
1772713798102656500,2.740656494140625,-1.0974807644188402,-0.34859891813695426,-0.6652515230454504
1772713798112630500,2.750630615234375,-0.998589597555995,-0.10437807384133338,-0.7944654935881496
1772713798122604500,2.7606044921875,-0.7909948948681355,0.07746843960583209,-0.9667094814315438
1772713798132578600,2.77057861328125,-0.7866115652173757,0.18655834439992905,-1.0944275143280624
1772713798142552600,2.780552490234375,-0.725304571339488,0.20582360136210917,-1.0269992610909044
1772713798152527600,2.790527587890625,-0.3617582594394684,0.22577625606656074,-0.8841222375072538
1772713798162501600,2.800501708984375,-0.04560673592090606,0.29005379018783567,-0.6796229435514658
1772713798172475600,2.8104755859375,0.08884674271047115,0.3089847006291151,-0.40406595381498334
1772713798182449700,2.82044970703125,0.27615269060730935,0.24646248574256896,-0.1391832105670124
1772713798192423700,2.830423583984375,0.6982441304564475,0.1897033644273877,0.05630158680602908
1772713798202397700,2.840397705078125,0.942374373859167,0.13901537971943617,0.25849713386408985
1772713798212372500,2.85037255859375,1.0616618475407362,0.010587444987893104,0.5667719326581806
1772713798222346500,2.860346435546875,1.2048287939816713,-0.22082389435619115,0.8231609152618795
1772713798232320500,2.870320556640625,1.2376327469527721,-0.40031127745658157,1.0160268353734165
1772713798242294500,2.88029443359375,1.2138333536922932,-0.7563441449865699,1.2247539761573076
1772713798252268500,2.8902685546875,1.344715988099575,-1.1905959782287479,1.4811540646769106
1772713798262242600,2.90024267578125,1.2087012515008448,-1.168290038396418,1.6655170909896493
1772713798272217600,2.910217529296875,1.0170359393507242,-1.1749392671525478,1.729541234871745
1772713798282191600,2.920191650390625,0.8542308109819888,-1.2649129680663347,1.8759503781042992
1772713798292165600,2.93016552734375,0.5946259350717067,-1.2278253464266657,2.001206258670986
1772713798302139600,2.9401396484375,0.36023850252628326,-1.2273483765646815,2.0006633839659393
1772713798312113400,2.950113525390625,-0.007597615522146224,-1.2553133650720119,1.8635203739896415
1772713798322087400,2.96008740234375,0.06107669225335121,-1.0575579193532467,2.012012753237039
1772713798332062700,2.970062744140625,0.027781156373023985,-1.079431897509098,2.141731458431482
1772713798342036700,2.98003662109375,-0.10676701480448246,-1.03695264595896,2.1113469876922664
1772713798352010800,2.9900107421875,-0.1702852549910545,-0.809612209315598,2.065102684520185
1772713798361984800,2.99998486328125,-0.03585165010392666,-0.6584019494116305,2.1152871036201715
1772713798371958800,3.009958740234375,0.11298165153563022,-0.5873927689477801,2.1261085034944114
1772713798381932800,3.019932861328125,-0.2978893061190843,-0.41961131347119807,1.7780292253173886
1772713798391907600,3.029907470703125,-0.29811200895905493,-0.3096694680228829,1.7206543101914227
1772713798401881600,3.039881591796875,-0.15498188739717006,-0.32092005309462546,1.7778854329325258
1772713798411855600,3.049855712890625,-0.04736147063374519,-0.23343203151673078,1.7180407666921615
1772713798421829600,3.05982958984375,0.09495558097958565,-0.1451905612230301,1.6443579831048845
1772713798431803600,3.0698037109375,0.294572144395113,-0.14574614927917717,1.6766443419426678
1772713798441777700,3.079777587890625,0.4929214643537998,-0.16793752282112837,1.7089609497882425
1772713798451752700,3.089752685546875,0.6082154844850302,-0.18405542166829109,1.7164571507625281
1772713798461726700,3.099726806640625,0.6085089144736529,-0.17080197234153746,1.5476481058038771
1772713798471700700,3.10970068359375,0.9913257440328598,-0.04840162733644247,1.7468430828064678
1772713798481674800,3.1196748046875,1.0750199262857436,-0.07871522479653358,1.7845163953796028
1772713798491648800,3.129648681640625,0.9655296239972114,-0.13419833482652901,1.6828084175303577
1772713798501622800,3.139622802734375,0.9819599497944116,-0.13553425960540771,1.8272762174367903
1772713798511597600,3.14959765625,1.3787252252072095,-0.11641337954998016,2.123117358854413
1772713798521571600,3.159571533203125,0.9656465283751487,-0.2217471466809511,1.910256406201422
1772713798531545600,3.169545654296875,0.5225953026056289,-0.3530544362410903,1.6210830521099269
1772713798541519600,3.17951953125,0.6461340039908886,-0.5185729152217508,1.6970932557314633
1772713798551493600,3.18949365234375,0.5966805295139551,-0.5951426524221897,1.6741564706496894
1772713798561467600,3.199467529296875,0.1312988139927387,-0.7171957914248108,1.547388139693439
1772713798571442700,3.209442626953125,-0.428990551713109,-0.8598752466097473,1.3599778546392918
1772713798581416700,3.219416748046875,-0.7126110939830541,-0.922047625145316,1.162791660175845
1772713798591390700,3.229390625,-1.0778723931074141,-0.6257680923104286,0.7354172384224832
1772713798601364700,3.23936474609375,-1.6133283463299273,-0.6703019383028149,0.33059425569511947
1772713798611338500,3.24933837890625,-1.6366513542503118,-0.7665840917110442,0.7871209760442376
1772713798621312500,3.2593125,-1.7145833197146654,-0.12616086658239364,-0.13677952869245782
1772713798631287600,3.26928759765625,-1.7243348984003066,0.39127018512785433,-1.016173988759145
1772713798641261600,3.279261474609375,-1.5211989286869763,0.5696553060747682,-1.2290160175159572
1772713798651235600,3.289235595703125,-1.46524206366539,0.7363004509977996,-1.3115271274641156
1772713798661209600,3.299209716796875,-1.3668728748500347,0.8000682820312678,-1.4667607976652681
1772713798671183600,3.30918359375,-1.1194020888477563,0.8254423772625624,-1.676485351988673
1772713798681157600,3.31915771484375,-0.3994932390719652,0.8838548187427222,-1.57257314209342
1772713798691132700,3.329132568359375,0.009043722677230834,0.8166621278271079,-1.3088415416419505
1772713798701106400,3.3391064453125,0.011311667609214782,0.9617223406687379,-1.261780369129032
1772713798711080400,3.34908056640625,0.5758206968367099,0.9806748784199356,-0.9711572546206414
1772713798721054500,3.359054443359375,0.36234862654805183,0.18671835726723074,-0.25037523873951284
1772713798731028500,3.369028564453125,0.6769593503654002,0.4302338297724724,0.14997392304204404
1772713798741002500,3.37900244140625,0.9449094452947377,0.7411442377671599,-0.06402856432888657
1772713798750977500,3.3889775390625,0.730146166151762,0.34713732115179297,-0.3570848608009517
1772713798760951600,3.39895166015625,0.42188042744696136,0.30545068128407,0.0031594138789921996
1772713798770925600,3.408925537109375,0.9640496145725249,0.11074439400285482,0.49373431510664517
1772713798780899600,3.418899658203125,0.3310048092573881,0.008005027279257775,0.2948763149734586
1772713798790873600,3.42887353515625,-0.06894318784475326,-0.03253010446578264,0.16746756722182035
1772713798800847600,3.43884765625,-0.18907061948180198,-0.07563654800355434,0.09581000585183501
1772713798810822400,3.448822509765625,-0.46741292908787724,0.029773499234020707,-0.09826024854816495
1772713798820796400,3.45879638671875,-0.713771369934082,0.1572483710244298,-0.23611593683846294
1772713798830770400,3.4687705078125,-0.9995476289331913,0.29971491411104795,-0.4370635296620428
1772713798840744400,3.478744384765625,-1.3447311856687068,0.4238518736504018,-0.6199524648342282
1772713798850718500,3.488718505859375,-1.5003075318276882,0.49097339902594683,-0.7596803767371922
1772713798860692500,3.4986923828125,-1.6022615933924913,0.6661864658080041,-0.8178112978622317
1772713798870667800,3.508667724609375,-1.6044576421320438,0.6810330295450985,-0.8189265656277537
1772713798880641500,3.5186416015625,-1.4809113419622182,0.615450111913681,-0.7329916187107562
1772713798890615600,3.528615478515625,-1.3175176000505684,0.6455757855862378,-0.6255068110257387
1772713798900589600,3.538589599609375,-1.089603747433424,0.6412555842995643,-0.5235873093176633
1772713798910563600,3.5485634765625,-0.8863152175068855,0.6147320267722011,-0.566075474826619
1772713798920537300,3.558537353515625,-0.6600485475748777,0.5041664964675903,-0.5776217914419248
1772713798930511400,3.568511474609375,-0.45894145334064956,0.29652824689894913,-0.4796130334367975
1772713798940486700,3.578486572265625,-0.340001770183444,0.10905220313221216,-0.5037146975794807
1772713798950460700,3.588460693359375,-0.20460954939723014,-0.14765432098805903,-0.4935250197375193
1772713798960434700,3.5984345703125,-0.09231412656009197,-0.3164046214967966,-0.4131859565988183
1772713798970408700,3.60840869140625,0.045187049204111096,-0.40529527641423047,-0.3595834726836532
1772713798980382700,3.6183828125,0.21782383575737474,-0.45041006409972906,-0.36450178599394856
1772713798990356700,3.628356689453125,0.3520844221651554,-0.47774873740226026,-0.33734453367292877
1772713799000331500,3.63833154296875,0.53607729999125,-0.5156297744419426,-0.28955448062988
1772713799010305500,3.648305419921875,0.7625964833796024,-0.4421110953751951,-0.3201340172834694
1772713799020279600,3.658279541015625,1.0257318715035915,-0.3847609493643045,-0.32558278420865533
1772713799030253600,3.668253662109375,1.232245208695531,-0.3094188542626798,-0.30422782495822753
1772713799040227600,3.6782275390625,1.4499457103341817,-0.24386684322617946,-0.2678797148405574
1772713799050201600,3.68820166015625,1.6970131762325762,-0.21587942369133234,-0.23788857253417373
1772713799060176600,3.6981767578125,1.9210095631450415,-0.23839871401339768,-0.18330949867181479
1772713799070150700,3.708150634765625,2.1210393835365773,-0.30323534332215785,-0.11375588731113821
1772713799080124700,3.718124755859375,2.2569342931479213,-0.29030674203559753,-0.053262584436312314
1772713799090098700,3.7280986328125,2.37551391082108,-0.25734233780577775,0.0034232524469494817
1772713799100072700,3.73807275390625,2.4640835901558398,-0.3200441470429301,0.010377017107605933
1772713799110046700,3.748046630859375,2.425643677124381,-0.35210020425617694,0.047794528288766736
1772713799120021500,3.758021484375,2.412993454387784,-0.4139937658503651,0.11097228447459638
1772713799129995500,3.76799560546875,2.3942063363313673,-0.4655414361275732,0.09229732155576348
1772713799139969500,3.777969482421875,2.3357290129214525,-0.5323750844724476,0.10085932513065636
1772713799149943600,3.787943603515625,2.2098913869440553,-0.619454086858034,0.09930522755645214
1772713799159917600,3.79791748046875,2.1365981871962547,-0.6685533410698175,0.11346000963710248
1772713799169891600,3.8078916015625,2.0106880805045364,-0.7558532927297055,0.10981390821970999
1772713799179866600,3.81786669921875,1.8830027808338403,-0.8615027016811072,0.11566877172775566
1772713799189840600,3.827840576171875,1.6753484569132326,-0.9202472977250814,0.10906484341807662
1772713799199814700,3.837814697265625,1.3982552705854177,-1.0157229570560156,0.033580490301549436
1772713799209788700,3.84778857421875,1.1339707124263048,-1.1540884945645928,-0.04218392186537385
1772713799219762700,3.8577626953125,0.898185103520751,-1.2496353194355965,-0.18234708338044583
1772713799229736400,3.867736328125,0.6244833131968974,-1.284001553287357,-0.3753809074047953
1772713799239711500,3.87771142578125,0.32537294085025786,-1.410331638956815,-0.5608648275062441
1772713799249685500,3.887685546875,0.05516425333917141,-1.446030582717061,-0.8348416353791952
1772713799259659500,3.897659423828125,-0.23999650459885596,-1.3183219021707773,-1.1532381613455711
1772713799269633500,3.907633544921875,-0.5651765532255172,-1.2618408671446144,-1.366179485758394
1772713799279607600,3.917607666015625,-0.8352426173955202,-1.158120234298706,-1.6152546382173896
1772713799289581600,3.92758154296875,-0.9319389045625924,-1.0002411641553044,-1.886837828952074
1772713799299556600,3.937556640625,-1.1104273397535085,-0.8696110432043671,-2.0834341677635906
1772713799309530600,3.947530517578125,-1.3525982657819986,-0.8589599583957344,-2.1584899932697414
1772713799319504400,3.95750439453125,-1.3564753994762897,-0.9030482525777072,-2.2338871795594692
1772713799329478400,3.967478515625,-1.2217676538228988,-1.004519499061629,-2.1879940279126164
1772713799339452400,3.977452392578125,-1.1765753439217805,-1.2465529893808067,-2.005683111824095
1772713799349426400,3.987426513671875,-1.2460486931204795,-1.5325810311838983,-1.7429314623206853
1772713799359400400,3.997400390625,-1.2659002255380154,-1.7851709137655793,-1.4674384046658873
1772713799369375500,4.00737548828125,-1.2221329800039529,-1.9993407570600508,-1.16819300776273
1772713799379349500,4.017349609375,-1.2162252172648906,-2.17214500913471,-0.8787218397684394
1772713799389323500,4.027323486328125,-1.1680319719821215,-2.216987628815323,-0.7189864742338657
1772713799399297500,4.037297607421875,-1.0601654715031386,-2.2407512201100586,-0.6713127227805554
1772713799409271600,4.047271484375,-1.0876315705776214,-2.2462769977942108,-0.6372745518393814
1772713799419245600,4.05724560546875,-1.1595260094434021,-2.2439573226749894,-0.5764993267506361
1772713799429220600,4.067220703125,-1.187937864935398,-2.1482876020766795,-0.498131892478466
1772713799439194600,4.077194580078125,-1.0659306109011173,-1.9926614254266022,-0.46076720746308564
1772713799449168600,4.087168701171875,-0.9214151724606752,-1.8660306032449006,-0.44146863275319337
1772713799459142700,4.097142578125,-0.9206997176676988,-1.8446851790077983,-0.3488905945599079
1772713799469116700,4.10711669921875,-1.0498539208471775,-1.8495147911213337,-0.19167437223941086
1772713799479090700,4.117090576171875,-1.1232517500132322,-1.7414885700359939,-0.11872472523227333
1772713799489065700,4.127065673828125,-1.1801713225871324,-1.5204270675316451,-0.11775281146019696
1772713799499039200,4.137039306640625,-1.384731772145629,-1.2689260030999778,-0.08492913087531924
1772713799509013200,4.14701318359375,-1.521208865559101,-0.9474797341741621,-0.11700959187746048
1772713799518987300,4.1569873046875,-1.553371013495326,-0.5545303637877106,-0.20696020417660474
1772713799528961300,4.166961181640625,-1.5328513725578785,-0.1798443798445165,-0.2675717631362378
1772713799538935300,4.176935302734375,-1.4994576370000838,0.17323899023011327,-0.29941856151297686
1772713799548910000,4.18691015625,-1.3782856647461652,0.4705813299909234,-0.32978038202896715
1772713799558884000,4.196884033203125,-1.2129822898209095,0.7334417005658149,-0.2944204609647393
1772713799568858000,4.206858154296875,-1.0172300006181,0.9635988020651042,-0.13917261610776185
1772713799578832100,4.21683203125,-0.8428618602275848,1.085139607631415,0.09879413622915745
1772713799588806100,4.22680615234375,-0.6368231548100709,1.1548195853181182,0.32585224879980085
1772713799598780200,4.2367802734375,-0.3935369610160589,1.217496552374959,0.5722841932736337
1772713799608754200,4.246754150390625,-0.21381401559412477,1.26960740949288,0.7599066597737372
1772713799618729200,4.256729248046875,-0.03458382212519646,1.2693233318544923,0.8854362427152693
1772713799628703200,4.266703125,0.05907879643440246,1.2279381591513752,1.037141884920746
1772713799638677200,4.27667724609375,0.1722860734194517,1.1834978366613387,1.1163136213131248
1772713799648651000,4.286651123046875,0.31294425190985203,1.2136844467408954,1.180972848228365
1772713799658625000,4.296625,0.29313538959026336,1.2731097185254097,1.2658337361730634
1772713799668599000,4.30659912109375,0.23314649257361889,1.2449825251936912,1.271252254090458
1772713799678574000,4.316573974609375,0.17289865235984325,1.224576281502843,1.2993380924984812
1772713799688548000,4.326548095703125,0.0385205770522356,1.1395219168126582,1.2744200704716144
1772713799698522000,4.336522216796875,-0.14919512068927288,1.1271627859771252,1.1495356535658239
1772713799708496100,4.34649609375,-0.12491992661058902,1.1829659217417239,1.1444136343769729
1772713799718470100,4.35647021484375,-0.4961620537102222,1.149811547897756,0.9051797847136854
1772713799728444200,4.366444091796875,-0.8700865517616272,1.292301617990434,0.7108354626126587
1772713799738419200,4.376419189453125,-1.1196791522234677,1.4115306394830345,0.5925635957144201
1772713799748393200,4.386393310546875,-1.3859043230563401,1.5092214906454084,0.40368294584676623
1772713799758367200,4.3963671875,-1.4391753099948168,1.6594538454279302,0.1862792351976037
1772713799768341200,4.40634130859375,-1.363802381363511,1.7987194005161522,0.007670096236467361
1772713799778315300,4.416315185546875,-1.3349100488781929,1.9368352010473608,-0.05657791952937841
1772713799788289300,4.426289306640625,-1.1120575713038443,2.0921219166100022,-0.03868760418221354
1772713799798264300,4.436264404296875,-0.8287970945179461,2.1483812717095017,0.026997166388481854
1772713799808238300,4.44623828125,-0.49460021122097964,2.109965616336465,0.19775880671963095
1772713799818212400,4.45621240234375,-0.11414718818366527,2.034014303295314,0.4130200985126197
1772713799828186400,4.466186279296875,0.2641243991613388,1.953228117443621,0.6588641600959002
1772713799838160400,4.476160400390625,0.544969631499052,1.8337459979727864,0.8688748378843069
1772713799848134400,4.486134521484375,0.7946703685104847,1.7409467182442544,0.95167046386227
1772713799858108200,4.496108154296875,1.1213818644881248,1.644275273257494,1.0381329417847096
1772713799868083200,4.506083251953125,1.3710247338324784,1.620283864556253,1.0852812080591916
1772713799878057200,4.51605712890625,1.4964245529145002,1.55039813516438,1.1362547317102552
1772713799888031200,4.52603125,1.6183002895236014,1.4380962825864552,1.1791501628458498
1772713799898005200,4.536005126953125,1.7149585827678442,1.3389067172989249,1.1870692654073238
1772713799907979300,4.545979248046875,1.7577181125640868,1.2423650361716747,1.1803279744535684
1772713799917953300,4.555953369140625,1.7821604799032211,1.1205743474975227,1.1634519507154821
1772713799927928300,4.56592822265625,1.7187544679194688,1.017722752571106,1.1044489229310304
1772713799937902300,4.57590234375,1.6620745493203402,0.8777826592221856,1.074899807037413
1772713799947876000,4.5858759765625,1.6405881091773509,0.6987772144198418,1.0280975777216255
1772713799957850000,4.59585009765625,1.5676894617050885,0.5664210003286599,0.9876569193270057
1772713799967824100,4.60582421875,1.4768845706641673,0.4265858286589384,0.9494792374283075
1772713799977798100,4.615798095703125,1.4396639702945946,0.2939087120503187,0.8620143044650554
1772713799987773200,4.625773193359375,1.325480541753769,0.2269818324640393,0.6920861923485994
1772713799997747200,4.635747314453125,1.2274188114523887,0.14104279389381408,0.6126622347608208
1772713800007721200,4.64572119140625,1.0739455750524998,0.08014642664343118,0.45724597453437743
1772713800017695200,4.6556953125,0.9761807818710804,0.07250877137184143,0.30804610460475085
1772713800027669200,4.665669189453125,0.8689391352921724,-0.00035363574326038356,0.22057868742346762
1772713800037643300,4.675643310546875,0.7024000810921192,-0.12938304349929095,0.10924999072663485
1772713800047618000,4.6856181640625,0.5348159017533064,-0.22811375910341739,-0.07874284345582128
1772713800057592000,4.695592041015625,0.32178748357892034,-0.3579293488010764,-0.26652612654082475
1772713800067566000,4.705566162109375,0.09646949267387389,-0.47385815970450634,-0.557410157007724
1772713800077540000,4.7155400390625,-0.05918459489643573,-0.6054552259914576,-0.9079069446552545
1772713800087514000,4.72551416015625,-0.18803835382461548,-0.791289347770065,-1.1745509984873235
1772713800097488100,4.735488037109375,-0.23537761262655257,-0.9954434084847569,-1.348270757971704
1772713800107462100,4.745462158203125,-0.24818682531714437,-1.2744842217490076,-1.5199971516817807
1772713800117437200,4.755437255859375,-0.2902536966741085,-1.5536210427336394,-1.6562658630415796
1772713800127411200,4.7654111328125,-0.25369243699610233,-1.799507774414867,-1.7793121047347784
1772713800137385200,4.77538525390625,-0.31901217364668844,-2.0231417577557265,-1.8151722304061053
1772713800147359200,4.785359130859375,-0.33105975431501866,-2.236451477089524,-1.7736222225300966
1772713800157333200,4.795333251953125,-0.3464595680207014,-2.4122777073338626,-1.6827318451628088
1772713800167307300,4.805307373046875,-0.35779987720251083,-2.52615952257961,-1.5493290446281431
1772713800177281000,4.815281005859375,-0.32304128303229807,-2.5634037960857152,-1.4374001170158386
1772713800187256000,4.825256103515625,-0.2847013232439756,-2.4930139165639877,-1.3446231952495873
1772713800197230000,4.83522998046875,-0.3065694561809301,-2.3971353755205866,-1.2198111859928815
1772713800207204000,4.8452041015625,-0.2815016504198313,-2.313292870838195,-1.0705221764750779
1772713800217178000,4.85517822265625,-0.2226969947516918,-2.232243065614253,-0.8244093809530139
1772713800227152100,4.865152099609375,-0.21998890483677386,-2.142762408914417,-0.5768266590088605
1772713800237126100,4.875126220703125,-0.24926760629117486,-2.0339945756815374,-0.30281412223540244
1772713800247101200,4.88510107421875,-0.3184393421947956,-1.8961876949690282,-0.08186017175875604
1772713800257075200,4.8950751953125,-0.3972749785006046,-1.745559472736716,0.0730628250580281
1772713800267049200,4.90504931640625,-0.43215982939898967,-1.571962170588225,0.1382184571880847
1772713800277023200,4.915023193359375,-0.4745686460614204,-1.4566048759624362,0.15539229482896624
1772713800286997200,4.924997314453125,-0.5305529836118221,-1.5046459994234145,0.25281419285684825
1772713800296971300,4.93497119140625,-0.6269874049723148,-1.5819634862512348,0.26788375169485806
1772713800306946300,4.9449462890625,-0.7713345011085272,-1.539018809146434,0.12328341144993901
1772713800316920300,4.95492041015625,-0.8445639879703521,-1.4949882365010678,-0.09354819839969276
1772713800326894300,4.964894287109375,-0.9762906719863415,-1.4731475760929285,-0.31622064323201776
1772713800336868400,4.974868408203125,-1.2473399019747973,-1.3231823478139937,-0.5722336321301758
1772713800346842400,4.98484228515625,-1.438966051158309,-1.139565171432495,-0.8314777119040488
1772713800356816400,4.99481640625,-1.5154863962590694,-0.9275881620071827,-1.13415206034258
1772713800366791200,5.004791259765625,-1.594285207685828,-0.6793056212306022,-1.3337908355899155
1772713800376765200,5.01476513671875,-1.674840507391095,-0.41775326451435685,-1.3990899678438902
1772713800386739200,5.0247392578125,-1.6230577131837605,-0.07458455473259092,-1.4123941244445741
1772713800396713200,5.034713134765625,-1.4905010080844163,0.24591990329846738,-1.1908552136868238
1772713800406687200,5.044687255859375,-1.2849930485427379,0.567615616940707,-0.8304292257644236
1772713800416661200,5.0546611328125,-1.0764894143164156,0.7904933750867843,-0.48474926381409167
1772713800426635300,5.06463525390625,-0.8882681051403284,1.033293831190467,-0.13206731414720416
1772713800436610300,5.0746103515625,-0.5697317323118448,1.1259352900087833,0.22855931091383097
1772713800446584300,5.084584228515625,-0.3342255248695612,1.2272880246795712,0.7153197684198618
1772713800456558300,5.094558349609375,-0.2912590743243694,1.1634767928957939,1.0564141561456024
1772713800466532400,5.104532470703125,-0.22924948513507842,1.061708609291911,1.4765494934909045
1772713800476506000,5.114506103515625,-0.07152794364094733,0.9632482350617647,1.8739137577101588
1772713800486480100,5.124480224609375,-0.02042494839131832,0.8763508728533983,2.1593637073643506
1772713800496455400,5.134455322265625,-0.07987024005055426,0.8307362458869815,2.3792425759553906
1772713800506429400,5.144429443359375,-0.15526128886044024,0.8236591471076011,2.4872920317858456
1772713800516403500,5.154403564453125,-0.33845337169766426,0.8523527421504259,2.476930796769261
1772713800526377500,5.16437744140625,-0.5933692130088806,0.9331056102544069,2.4570523763448
1772713800536351500,5.1743515625,-0.7503940044105053,1.1558259858816862,2.1491167463772
1772713800546325500,5.184325439453125,-0.910227423492074,1.376167649678886,1.8443937948457896
1772713800556299500,5.194299560546875,-1.2083715811550617,1.4908090511202812,1.6475642318002879
1772713800566274300,5.2042744140625,-1.3576409361243247,1.5999062624379992,1.4478138128720224
1772713800576248300,5.214248291015625,-1.3328969554901122,1.7158377036899328,1.2045894322678445
1772713800586222300,5.224222412109375,-1.3216127604097128,1.78746823092252,0.9928155441991984
1772713800596196400,5.2341962890625,-1.2496388265669345,1.7455585959538817,0.8052629280649125
1772713800606170400,5.24417041015625,-1.12349841825068,1.7061600670233368,0.6320964185491204
1772713800616144400,5.254144287109375,-0.8758505221158266,1.6358669258743523,0.46846477622836824
1772713800626119400,5.264119384765625,-0.6529781707972288,1.5819687469482422,0.360535439646244
1772713800636093400,5.274093505859375,-0.5311702387273312,1.580180402226746,0.2756901876620948
1772713800646067500,5.2840673828125,-0.3247989403545856,1.637290821197629,0.20432678693309425
1772713800656041500,5.29404150390625,-0.12719254771769045,1.706650188627839,0.1030496017165482
1772713800666015500,5.304015380859375,0.011592238116264343,1.7111738035321236,0.08879881191551685
1772713800675989500,5.313989501953125,0.1619295145779848,1.591980437874794,0.12130436646193266
1772713800685961500,5.32396142578125,0.26272446923553944,1.4443758012473582,0.1258500470675528
1772713800695935500,5.333935546875,0.23120354181230066,1.2786866418749094,0.11240955073609947
1772713800705909500,5.343909423828125,0.19565818117856978,1.092332295614481,-0.004474222804605961
1772713800715884500,5.353884521484375,0.15790274327993392,0.9212596896380185,-0.15541384907364844
1772713800725858600,5.363858642578125,0.05297171173095703,0.8134311830818652,-0.3104654407061636
1772713800735832600,5.37383251953125,0.1570195307046175,0.7547434317916631,-0.5103494228862225
1772713800745806300,5.383806396484375,0.3423410267859697,0.7002659916728735,-0.6979633407536894
1772713800755780400,5.3937802734375,0.4372667971491813,0.5644558377355336,-0.8011386146765201
1772713800765754400,5.40375439453125,0.5053022224992514,0.4849620297819376,-0.8807982076510786
1772713800775729400,5.4137294921875,0.6125029525458813,0.37692601795494557,-0.9226236714676022
1772713800785703400,5.423703369140625,0.661886868917942,0.2705512173384428,-0.8476588852457702
1772713800795677400,5.433677490234375,0.622139964941144,0.2312064644217491,-0.7912347680386156
1772713800805651500,5.4436513671875,0.6302706644266843,0.1496604001134634,-0.7554707231529056
1772713800815625500,5.45362548828125,0.7141852114319801,0.12790391085743905,-0.6609555063519627
1772713800825599500,5.463599609375,0.8196803066045045,0.14796762472093106,-0.5409631723366678
1772713800835573500,5.473573486328125,0.9929133054852485,0.14019348358809947,-0.4416403360582888
1772713800845548300,5.48354833984375,1.0434943226873874,0.07305529933869838,-0.21642792441956699
1772713800855522300,5.493522216796875,0.794710700520873,0.1043774893194437,0.16954335058256984
1772713800865496300,5.503496337890625,0.41728842348158357,0.2457674892157316,0.43669075082689524
1772713800875470300,5.51347021484375,0.4255401189982891,0.42352819465398783,0.3552259350612759
1772713800885444400,5.5234443359375,0.45242052713930603,0.6063222180843353,0.4172695726506412
1772713800895418400,5.53341845703125,0.12877017229795454,0.6212421393185854,0.6801642838865518
1772713800905393400,5.543393310546875,0.006759411132335662,0.5544909085601568,0.8268301783591508
1772713800915367400,5.553367431640625,0.03232055336833,0.449072970277071,0.9822532336525619
1772713800925341400,5.563341552734375,-0.051124038037657735,0.24622224724590777,1.1871613276049493
1772713800935315500,5.5733154296875,0.017867665123939513,0.13251052787005901,1.2583220453687012
1772713800945289500,5.58328955078125,0.214514857339859,0.1523264044523239,1.2620800827279686
1772713800955263500,5.593263427734375,0.29216508325338364,0.10514905821382999,1.2938242975130676
1772713800965237500,5.603237548828125,0.2963707182496786,0.0945394013941288,1.3031997363626957
1772713800975212300,5.61321240234375,0.3023538843125105,0.17834522732794283,1.2621347355246544
1772713800985186300,5.623186279296875,0.16306465608775614,0.35111820748150346,1.1739246832825243
1772713800995160300,5.633160400390625,-0.04636486081182956,0.5854518640130758,0.9363479531764983
1772713801005134300,5.64313427734375,-0.008445756784081458,0.7618015336096287,0.6642283174775541
1772713801015108400,5.6531083984375,-0.17303952213525772,0.7359317638158798,0.5644007465474307
1772713801025082400,5.663082275390625,-0.36553368632495403,0.6758528504282235,0.4825473698556423
1772713801035057700,5.6730576171875,-0.35512685860097404,0.5921639288723468,0.324118410744518
1772713801045031400,5.683031494140625,-0.3456143493682146,0.49069618951976296,0.19196721770614383
1772713801055005400,5.69300537109375,-0.404281057870388,0.3956412398189306,0.13023381510972976
1772713801064979500,5.7029794921875,-0.38618309112191196,0.31495500721037384,0.06518880374729633
1772713801074953500,5.712953369140625,-0.3840647837936878,0.31740123131871223,-0.008606792564690113
1772713801084927500,5.722927490234375,-0.47935237320661545,0.26159517294466494,-0.023940993688255547
1772713801094901500,5.732901611328125,-0.3488075924515724,0.10376257229149341,-0.10299538731127977
1772713801104876500,5.74287646484375,-0.357296019333601,0.09873802212774753,-0.18107479842230675
1772713801114850600,5.7528505859375,-0.4710545004606247,0.13388824596405027,-0.21844489026516675
1772713801124824600,5.762824462890625,-0.33578678283691404,0.05253799648880958,-0.26286592353284355
1772713801134798600,5.772798583984375,-0.03714753513336182,-0.0961164414525032,-0.2776242244645953
1772713801144772600,5.782772705078125,0.032415245914459226,-0.17917232580184936,-0.2551341602370143
1772713801154746600,5.79274658203125,-0.13420856395959854,-0.09397416872680187,-0.21851094123870132
1772713801164720600,5.802720703125,-0.12455050877630709,0.09134849639832973,-0.23405688541680572
1772713801174695400,5.8126953125,-0.16973054371774196,0.2533347095996141,-0.18176351133882998
1772713801184669400,5.82266943359375,-0.1288730481505394,0.35073008494675156,-0.1614326709717512
1772713801194643500,5.8326435546875,-0.014431260934472083,0.4773024549394846,-0.12405688004046678
1772713801204617500,5.842617431640625,-0.08498539110720157,0.5602379277795553,-0.06677139676362276
1772713801214591500,5.852591552734375,-0.1985854668021202,0.6309644919097424,-0.024307050521671772
1772713801224565500,5.8625654296875,-0.12850889101326465,0.7794108400583267,-0.024482407088577747
1772713801234540500,5.87254052734375,-0.11316519140899181,0.8688730843186377,0.01182546235024929
1772713801244514600,5.8825146484375,-0.08529811031818389,0.9690285720288753,0.006032265901565552
1772713801254488600,5.892488525390625,0.044559272694587704,1.1388567309021949,-0.030847265945374965
1772713801264462600,5.902462646484375,0.23325755173265933,1.2934084101885557,-0.01969721863865852
1772713801274436400,5.912436279296875,0.3245242150664329,1.3493985929578542,0.020526070678234098
1772713801284410400,5.922410400390625,0.48450902531743045,1.2757114254564046,0.05620324099808931
1772713801294384400,5.93238427734375,0.5940840832799673,1.200296995770931,0.12869798384457826
1772713801304359400,5.942359375,0.6693570586681366,1.3336118257611989,0.1782026039868593
1772713801314333400,5.95233349609375,0.8144856605708599,1.3928881905943153,0.13274784375727175
1772713801324309200,5.962309326171875,0.15099369454383849,0.23996961659193036,0.2032198486045003
1772713801334283300,5.972283203125,0.34410160671770573,0.46039808188974857,0.3540519228458404
1772713801344258600,5.982258544921875,0.6303618498414755,0.8282868069082499,0.37740211103409527
1772713801354232600,5.992232666015625,0.5044271932303905,0.41484979815781114,0.44766076539158817
1772713801364206600,6.00220654296875,0.357491834166646,-0.02245148578286171,0.5376283288255334
1772713801374180600,6.0121806640625,0.3389437855631113,-0.132950672852993,0.6231435890257359
1772713801384154600,6.022154541015625,0.24038112000226974,-0.3502922780513763,0.6667609046950936
1772713801394128600,6.032128662109375,0.1668652174144983,-0.587053453990817,0.6651666212409735
1772713801404102700,6.0421025390625,0.2042892314016819,-0.6962871511697769,0.723709995624423
1772713801414077400,6.052077392578125,0.21390695457458495,-0.8288543776631355,0.8062547155812382
1772713801424051500,6.062051513671875,0.19112346035838126,-0.9589175123810768,0.844015998698771
1772713801434025500,6.072025390625,0.02147416518330574,-0.9660176997750997,0.8750874287888407
1772713801443999500,6.08199951171875,0.036305823612213135,-0.9023176732808351,0.8047399271041155
1772713801453973500,6.091973388671875,0.05945990470647811,-0.7932271839648485,0.7027393960490822
1772713801463947500,6.101947509765625,-0.0033685996502637863,-0.691146865671873,0.6238926538273691
1772713801473921500,6.111921630859375,0.004845101943612098,-0.6143389358013868,0.6119909113705158
1772713801483896600,6.121896484375,0.01009878468811512,-0.5525596482366323,0.6329053968444466
1772713801493870600,6.13187060546875,-0.060357730329036706,-0.5083996039927006,0.7272156656578183
1772713801503844600,6.1418447265625,-0.23436931236684322,-0.4279045100420713,0.8233642558142542
1772713801513818600,6.151818603515625,-0.2718354119300842,-0.3292266936689615,0.870092396980524
1772713801523792400,6.16179248046875,-0.3040565965771675,-0.23598083921670912,0.9342427975907921
1772713801533766400,6.171766357421875,-0.3062473846197128,-0.1757546263128519,1.0175549947887659
1772713801543740400,6.181740478515625,-0.3073649904727936,-0.2193289796233177,1.179293955230713
1772713801553715500,6.191715576171875,-0.3584761690288782,-0.3017120792776346,1.2940309260010718
1772713801563689500,6.201689453125,-0.2831815663307905,-0.370220382836461,1.3693579696640372
1772713801573663500,6.21166357421875,-0.3673100483477115,-0.4773088846802711,1.4674243761405348
1772713801583637500,6.221637451171875,-0.38832828645706174,-0.6658002429693937,1.6121332913264632
1772713801593611500,6.231611572265625,-0.28066636863946914,-0.7358464236199855,1.700282991683483
1772713801603585500,6.24158544921875,-0.32701194022893904,-0.8100111455053091,1.8333000077709554
1772713801613560300,6.251560302734375,-0.3690367260098457,-0.9749433490306139,1.9576292750120161
1772713801623534300,6.261534423828125,-0.43093116438686846,-1.1022528011262416,2.0970356998756525
1772713801633508400,6.27150830078125,-0.6059405252903699,-1.2378092725634575,2.240211998666823
1772713801643482400,6.281482421875,-0.7047685637891292,-1.3217302493095398,2.358078207373619
1772713801653456400,6.291456298828125,-0.803306679430604,-1.3390420341163873,2.4662623954996463
1772713801663430400,6.301430419921875,-0.9056681527525186,-1.3219728258937598,2.5518065895333883
1772713801673404400,6.311404296875,-1.0340145466804505,-1.2599638212263584,2.588546712909639
1772713801683379500,6.32137939453125,-1.180882685726881,-1.1914058333069086,2.5968723504453894
1772713801693353500,6.331353515625,-1.2961737832486628,-1.116696337020397,2.5767972384050486
1772713801703327500,6.341327392578125,-1.4099690892547367,-1.0797019466221331,2.5158792438447475
1772713801713301500,6.351301513671875,-1.5077315443485975,-1.0503642084568738,2.4668083389446136
1772713801723275500,6.361275634765625,-1.604115696826577,-1.0001923565775155,2.37995335457325
1772713801733249500,6.37124951171875,-1.6141881780296563,-0.9184814570963382,2.2494009750336406
1772713801743223600,6.3812236328125,-1.6180647272020579,-0.8335977727979421,2.091654299098253
1772713801753198300,6.3911982421875,-1.6474182474583385,-0.7261620649516582,1.9519009604930877
1772713801763172400,6.40117236328125,-1.6462942118644714,-0.6225871241867542,1.83750622728914
1772713801773146400,6.411146484375,-1.6018156031906603,-0.5418938773155212,1.7088395153656601
1772713801783120400,6.421120361328125,-1.5517220772445202,-0.4980664260268211,1.5776464998349546
1772713801793094400,6.431094482421875,-1.5167057089209555,-0.4182786035627126,1.4336992166712879
1772713801803068400,6.441068359375,-1.3756757745087147,-0.27294483447670936,1.2614935150116682
1772713801813042400,6.45104248046875,-1.1568728645861148,-0.19515724591910838,1.1159881887510419
1772713801823017500,6.461017578125,-1.0348609343767166,-0.21177228063344955,1.0403569014444947
1772713801832991500,6.470991455078125,-0.9396411495029926,-0.28029578176140785,0.9811904267266393
1772713801842965200,6.48096533203125,-0.7739560817837715,-0.3300461933583021,0.8918827885061502
1772713801852939300,6.490939208984375,-0.6811287450045347,-0.3825841898471117,0.8595335935652255
1772713801862913300,6.500913330078125,-0.7221522447884082,-0.4553331997156143,0.8438254445627331
1772713801872887300,6.51088720703125,-0.7337526662111282,-0.4885287823528051,0.8517553607791661
1772713801882862600,6.520862548828125,-0.804274647679925,-0.5139987391740083,0.7971303288832307
1772713801892836600,6.530836669921875,-0.8680927475959062,-0.5029033446639776,0.7144453236728906
1772713801902810400,6.540810302734375,-0.9553554359853267,-0.46352293591201305,0.5436816375151277
1772713801912784400,6.550784423828125,-0.9723159231364726,-0.34353286691904067,0.3539388178601861
1772713801922758400,6.56075830078125,-0.8340402558684349,-0.13924217421263455,0.15323212112039328
1772713801932732400,6.570732421875,-0.6241314310193061,0.10022709164172411,0.007618366049230098
1772713801942706400,6.58070654296875,-0.4625228189587593,0.2783405560404062,-0.05046294378042221
1772713801952681500,6.590681396484375,-0.22840368196070193,0.41995208973288534,-0.09344459189474583
1772713801962655500,6.600655517578125,-0.03770809162557125,0.5369727875262499,-0.1355503339573741
1772713801972629500,6.61062939453125,-0.0936024128049612,0.5799859998226166,-0.10357260267734526
1772713801982603500,6.620603515625,-0.05157704250216484,0.6606061814576387,-0.0943321883842349
1772713801992577500,6.63057763671875,0.03169160781502724,0.7172370002180337,-0.09366700247377156
1772713802002551600,6.640551513671875,0.022048165678977966,0.6506938592523336,0.00457096117734909
1772713802012525600,6.650525634765625,-0.014674422040581702,0.48808629928231234,0.0986082582682371
1772713802022500600,6.66050048828125,0.02384206335842609,0.3994137440949678,0.13197685938477516
1772713802032474600,6.670474609375,0.007976385706663132,0.334337753072381,0.19307722477465866
1772713802042448600,6.68044873046875,-0.0900730696350336,0.3233832283377647,0.19696108047068117
1772713802052422400,6.69042236328125,-0.1064776764690876,0.3566419393390417,0.14971446838825941
1772713802062396400,6.700396484375,-0.18314941273927687,0.45565176414549347,0.15629823069274423
1772713802072370400,6.710370361328125,-0.25388649826347826,0.5124135158091784,0.19224194299429653
1772713802082344400,6.720344482421875,-0.28178046736121176,0.5236462729632854,0.22489801192730663
1772713802092319500,6.730319580078125,-0.3159855193018913,0.5191518841534852,0.22490005775392055
1772713802102293500,6.74029345703125,-0.3543471064001322,0.4659487017542123,0.2549149645283818
1772713802112267500,6.750267578125,-0.5064221664398908,0.4635498239189386,0.25092384906560183
1772713802122241500,6.760241455078125,-0.5520020143538713,0.5502876116514206,0.18023001816123724
1772713802132215600,6.770215576171875,-0.5970581306546926,0.6658019965350628,0.127075935600698
1772713802142189600,6.780189453125,-0.6203893218815326,0.7930687785327434,0.06631576195061206
1772713802152163600,6.79016357421875,-0.6257400352597237,0.8967588701099157,0.009157119923830032
1772713802162138400,6.800138427734375,-0.6475573147922754,0.9549714051038026,-0.07665653870105743
1772713802172112400,6.8101123046875,-0.6413882707685232,1.0137152704954147,-0.14827537549585104
1772713802182086400,6.82008642578125,-0.615702040848136,1.0676309850782155,-0.2168587901175022
1772713802192060400,6.830060302734375,-0.5941308450311422,1.1108616395175457,-0.28820787006020543
1772713802202034400,6.840034423828125,-0.620388737359643,1.1640540082618593,-0.3274363031208515
1772713802212008400,6.850008544921875,-0.5535960055470466,1.2646452570408582,-0.42432431346774097
1772713802221983500,6.8599833984375,-0.532408840611577,1.338569155907631,-0.4679851760178804
1772713802231957500,6.86995751953125,-0.5592495012640952,1.3641080863118171,-0.4854939447015524
1772713802241931500,6.879931640625,-0.4798357728093862,1.3925889153867959,-0.47769320782274005
1772713802251905500,6.889905517578125,-0.46130876699388024,1.4199196976438164,-0.4478405058726668
1772713802261879600,6.899879638671875,-0.3916980551511049,1.403487618280947,-0.3666024846002459
1772713802271853600,6.909853515625,-0.29060090267658234,1.4061480696618556,-0.3141547967433929
1772713802281827300,6.919827392578125,-0.1544400356054306,1.3740566488742827,-0.25634704315811396
1772713802291802400,6.92980224609375,-0.03147182758450508,1.2785998403742909,-0.16867460492402314
1772713802301776400,6.9397763671875,0.11055004047453403,1.208928338254988,-0.11113660819083451
1772713802311750400,6.94975048828125,0.24550386984348296,1.0925076521813868,-0.04123538896888494
1772713802321724400,6.959724365234375,0.2753191623926163,0.9685326052054762,0.03948270008265972
1772713802331698400,6.969698486328125,0.3396066333860159,0.887910670004785,0.06389028836935758
1772713802341672400,6.97967236328125,0.42255438118577,0.8182821302443742,0.05026332955509424
1772713802351646500,6.989646484375,0.4987988319545984,0.7225958969026803,0.10610065985023975
1772713802361621500,6.99962158203125,0.520405683606863,0.5874123504310846,0.17180588868707417
1772713802371595300,7.00959521484375,0.6524819117128848,0.4665951829642057,0.2347878300398588
1772713802381569300,7.0195693359375,0.7462398073405027,0.35706221057772636,0.2634609668165445
1772713802391543300,7.029543212890625,0.7804203093618154,0.26802754407972096,0.2995288900196552
1772713802401517300,7.039517333984375,0.8611860369473695,0.2197799382612109,0.3374965093642473
1772713802411491300,7.0494912109375,0.9251672184705734,0.18147183491587637,0.4039940576225519
1772713802421465300,7.05946533203125,0.926643136242032,0.09384937330335379,0.5150388958767056
1772713802431440400,7.0694404296875,0.8933382480114698,0.005452127926051617,0.579101033681631
1772713802441414400,7.079414306640625,0.9089052349776029,-0.07599865931421518,0.6147691439121962
1772713802451388400,7.089388427734375,0.8731026847124099,-0.23015023336708545,0.6690551531121134
1772713802461362400,7.099362548828125,0.8255167576730251,-0.3663049629583955,0.7342015790224075
1772713802471336400,7.10933642578125,0.7518167306900024,-0.4406675455033779,0.7764341623350978
1772713802481310500,7.119310546875,0.6816197433918714,-0.5065913855269552,0.8043196558654307
1772713802491284500,7.129284423828125,0.5979074409604073,-0.5715151085972786,0.8288371342673897
1772713802501260000,7.139260009765625,0.4776917465180158,-0.6300786489859223,0.8219453289270401
1772713802511234000,7.149234130859375,0.3787134858936071,-0.6594856529951095,0.7961120917513966
1772713802521208000,7.1592080078125,0.3154156104594469,-0.7013394661232829,0.7407119838297367
1772713802531182000,7.16918212890625,0.22804420099854467,-0.7773188362151384,0.6862380508422851
1772713802541156000,7.179156005859375,0.11152443846464156,-0.8551286366045474,0.6212406780138612
1772713802551130000,7.189130126953125,0.057386021041870114,-0.8949141190260648,0.5284621488124132
1772713802561104100,7.199104248046875,0.01470890883207321,-0.9280833981782197,0.4797632920950651
1772713802571079000,7.209078857421875,-0.1036497595667839,-0.954297451364994,0.37937194980233907
1772713802581053000,7.219052978515625,-0.17587912947535514,-1.003914299710095,0.2669713130250573
1772713802591027000,7.22902685546875,-0.18693945267200468,-1.0593430492043494,0.10440934576243162
1772713802601001000,7.2390009765625,-0.1950210523188114,-1.0981298759773372,-0.08230535824298858
1772713802610975000,7.24897509765625,-0.2123492037385702,-1.1522197780832648,-0.23210078291296957
1772713802620949000,7.258948974609375,-0.1922673696964979,-1.161531504046917,-0.3638274669289589
1772713802630923000,7.268923095703125,-0.17601415403187273,-1.1795648811265826,-0.44435938575863837
1772713802640898000,7.27889794921875,-0.22408464971780775,-1.192423193655908,-0.45820787836909294
1772713802650872000,7.2888720703125,-0.20256021565198898,-1.1285621313810348,-0.490970330286026
1772713802660846000,7.29884619140625,-0.11064181041121482,-1.0362471280381083,-0.5433934682235121
1772713802670820000,7.308820068359375,-0.06288344941437245,-0.9675450554728507,-0.53292555796206
1772713802680794000,7.318794189453125,0.026817864298820493,-0.9148127054557204,-0.537067480072379
1772713802690768100,7.32876806640625,0.1889350104033947,-0.8435825757175683,-0.5807061307907104
1772713802700742000,7.338741943359375,0.27114392253458497,-0.7901119745537638,-0.5974623275414109
1772713802710717000,7.348717041015625,0.3805342715799808,-0.765838534040749,-0.5826049501493573
1772713802720691000,7.35869091796875,0.5020704009711742,-0.7307657593548298,-0.5559381847590208
1772713802730665000,7.3686650390625,0.5588455966383219,-0.6376596056342124,-0.5147133171841501
1772713802740639000,7.378638916015625,0.6680670188575982,-0.5223781527236103,-0.5083911284253001
1772713802750613000,7.388613037109375,0.7106055993795395,-0.3846306009829044,-0.496043103505671
1772713802760587000,7.3985869140625,0.7423737795621156,-0.338403395076096,-0.4365004889518022
1772713802770561000,7.40856103515625,0.7770604775398969,-0.3470058037266135,-0.37289252465516326
1772713802780536000,7.4185361328125,0.649734658831358,-0.3034928252145648,-0.28293665165901183
1772713802790509800,7.428509765625,0.40466567327380176,-0.20624796425402164,-0.3168590872660279
1772713802800483800,7.43848388671875,0.1825298195362091,-0.11840893728137016,-0.3574026945784688
1772713802810457900,7.448457763671875,0.041025837871432304,-0.19348609783649443,-0.31921003430634737
1772713802820432000,7.458431884765625,-0.06413315721452235,-0.3536298980414867,-0.2808607221677899
1772713802830406000,7.468406005859375,-0.22641046231687068,-0.4617869058996439,-0.23824936867058275
1772713802840380000,7.4783798828125,-0.46475043188035486,-0.44113048684000966,-0.23388474372029303
1772713802850355000,7.48835498046875,-0.6519593491435051,-0.4211439298659563,-0.3145917268559337
1772713802860329000,7.498328857421875,-0.7980822227805853,-0.4036635104939341,-0.38885055676549674
1772713802870303000,7.508302978515625,-0.9741700265705585,-0.295603533269465,-0.5642246593281627
1772713802880277000,7.518277099609375,-1.2200246095478533,-0.11760463516116142,-0.7213212007917463
1772713802890251000,7.5282509765625,-1.4442495445191859,0.17144202381074428,-0.9562054769434034
1772713802900225000,7.53822509765625,-1.6134738922804592,0.5173039181992412,-1.242967093718052
1772713802910199000,7.548198974609375,-1.7863561780273913,0.8598191325083374,-1.3595678125336765
1772713802920173000,7.558173095703125,-1.8847838190317152,1.2235431390628217,-1.4843202736228704
1772713802930147800,7.56814794921875,-1.8174112415045498,1.5442495494067667,-1.5116662534490226
1772713802940121900,7.578121826171875,-1.7302748098433016,1.7664207667186855,-1.417898713210225
1772713802950096000,7.588095947265625,-1.6504074924021959,1.8938655356317757,-1.2650275343567132
1772713802960070000,7.59806982421875,-1.536192499679327,1.9830843265250324,-1.1763410967744887
1772713802970044000,7.6080439453125,-1.3909423172235489,2.0541198104739187,-1.1184700686946512
1772713802980018000,7.618017822265625,-1.1987462591975926,2.0243679385498163,-1.0639676402650773
1772713802989992000,7.627991943359375,-1.0030758030593394,1.9666247746333478,-1.03571258276999
1772713802999967000,7.637967041015625,-0.8147083634108304,1.876647566588223,-0.9892996450327336
1772713803009940700,7.647940673828125,-0.6266688405424357,1.7847820605784654,-1.018607572581619
1772713803019914800,7.657914794921875,-0.37977497764527796,1.6962296246394515,-1.0910248662777244
1772713803029888800,7.667888671875,-0.2396469605088234,1.5447949083298445,-1.1630715730957686
1772713803039862800,7.67786279296875,-0.1488672039091587,1.3774959756731986,-1.2069083036694674
1772713803049836800,7.6878369140625,-0.07780044803917407,1.2804662187680602,-1.2799429255463182
1772713803059810800,7.697810791015625,-0.05621639274060726,1.2331956412881613,-1.4293454053759573
1772713803069786000,7.7077861328125,-0.12611527387499807,1.2126479433000088,-1.5387268404625356
1772713803079760000,7.717759765625,-0.20592939982414243,1.2393658543556927,-1.6635186106488107
1772713803089734000,7.72773388671875,-0.2563677936851978,1.273316054752469,-1.7999847442768513
1772713803099708000,7.7377080078125,-0.3392547512084245,1.2868106193587183,-1.8398001834452151
1772713803109682000,7.747681884765625,-0.38704000021219254,1.3742524637073277,-1.8534730272278188
1772713803119656000,7.757656005859375,-0.41721068207025525,1.483438814613223,-1.849062955700606
1772713803129631000,7.767630859375,-0.4037853833079338,1.5766811619341372,-1.7768872156754134
1772713803139605000,7.77760498046875,-0.3869406314909458,1.6471119579881428,-1.7073033918395637
1772713803149579000,7.7875791015625,-0.33039223031699655,1.7071242358803749,-1.6914542269311845
1772713803159553000,7.797552978515625,-0.28145839579999443,1.7331491962358354,-1.6446800546661018
1772713803169527000,7.807527099609375,-0.2889198177218437,1.7463035691022872,-1.6156109043091536
1772713803179501000,7.8175009765625,-0.2955038722872734,1.7041291457176206,-1.555590443110466
1772713803189475000,7.82747509765625,-0.21100597243607044,1.6666782437235117,-1.4462547468617557
1772713803199449000,7.837448974609375,-0.12880524361133575,1.6041498913571237,-1.27095970088467
1772713803209424100,7.847424072265625,-0.04806465046703815,1.546338338379562,-1.1128097048453987
1772713803219398100,7.857398193359375,0.0183954883903265,1.5714929456412792,-1.0136591563940047
1772713803229372000,7.867371826171875,0.058386722517013545,1.6246689477726817,-0.9367981811620294
1772713803239346000,7.877345947265625,0.1073661497414112,1.6749048047989605,-0.8298482110060751
1772713803249320000,7.88731982421875,0.14664017550945282,1.7494582337409257,-0.7403306563619524
1772713803259294000,7.8972939453125,0.14921967060863972,1.812595657916367,-0.7538378612540662
1772713803269268000,7.90726806640625,0.16008534801602362,1.8000284372881055,-0.6669204791709781
1772713803279243000,7.917242919921875,0.1014186395138502,1.807826836079359,-0.6056110010750592
1772713803289217000,7.927217041015625,0.07003449021279812,1.8707409728929398,-0.7337912446558476
1772713803299191000,7.93719091796875,-0.11619593740701675,1.8003730129420756,-0.7507596959177404
1772713803309165000,7.9471650390625,-0.1528922216415405,1.7995915071755646,-0.6232929343685507
1772713803319139000,7.95713916015625,-0.1679202794253826,1.8410168657585977,-0.6160547998085618
1772713803329113000,7.967113037109375,-0.20010288562774656,1.858623834119737,-0.4424640004660934
1772713803339087000,7.977087158203125,-0.1767132422119379,1.8981667399570346,-0.26297522912621496
1772713803349062000,7.987061767578125,-0.16166238807439803,1.9258733697891235,-0.37235980601795016
1772713803359036000,7.997035888671875,-0.1705254934877157,1.9514958868235348,-0.24448051814511418
1772713803369010000,8.007010009765626,-0.3143745769739151,1.9540853187948464,-0.23033969152458011
1772713803378984000,8.01698388671875,-0.4224117578446865,2.03810595652312,-0.37359698313008993
1772713803388958000,8.0269580078125,-0.6159826113551855,2.0929510609105226,-0.3810094513436779
1772713803398932000,8.036931884765625,-0.98595398786664,2.144566097335517,-0.774526063691452
1772713803408906000,8.046906005859375,-0.8220067037254571,1.9861571580991149,-1.0707725710395724
1772713803418880000,8.0568798828125,-0.627559651902318,1.8809408798679708,-0.9500725271463394
1772713803428855000,8.06685498046875,-0.9145815270483493,1.8923054467082023,-0.905282222174853
1772713803438829000,8.0768291015625,-1.0431769273012876,1.9932012313917278,-0.734371236500889
1772713803448803000,8.086802978515625,-1.1828823351114988,1.822767215579748,-0.23774693557377904
1772713803458776800,8.09677685546875,-1.1199041931509972,1.8155065769270062,-0.06252985020373016
1772713803468750800,8.106750732421874,-1.256599897751212,2.0168375430449843,-0.20994955871831625
1772713803478724900,8.116724853515626,-1.017569607836008,1.7760270917147396,-0.10347580950567498
1772713803488699000,8.126698974609376,-0.6030868894249201,1.7289543748944998,-0.05436101066488772
1772713803498674000,8.136673828125,-0.6451742190480232,1.7336051233097909,-0.030612817868683487
1772713803508651300,8.1466513671875,-0.7650035445213318,1.5337223101735113,0.17676371202385052
1772713803518625300,8.156625244140624,-0.4316577250957489,1.3281328098282217,0.6318320685245097
1772713803528599300,8.166599365234376,-0.3022451632410288,1.0988809866055846,0.5823589029664173
1772713803538573300,8.1765732421875,-0.8131091115206479,0.7566556951537727,0.643741409765929
1772713803548547300,8.18654736328125,-0.21616087098121642,0.5569973384231328,0.88896456297189
1772713803558521300,8.196521240234375,0.11905541849136352,0.310469386228919,0.6679978991441429
1772713803568495400,8.206495361328125,-0.013126608076691627,0.19230214874893425,0.5777068759094923
1772713803578470100,8.21647021484375,-0.1851829643934965,0.06805880622565746,0.7015860612954944
1772713803588444200,8.226444091796875,-0.12429974888563156,0.027335458432137964,0.7340707922495902
1772713803598418200,8.236418212890625,-0.1023293246179819,0.2403586159095168,0.5502209030907601
1772713803608392200,8.24639208984375,-0.080204586571455,0.41664223453253507,0.3996160617340356
1772713803618366200,8.2563662109375,-0.06888064400255679,0.5845524309553206,0.4676629583261907
1772713803628340200,8.26634033203125,0.07334989837110042,0.6909535350568592,0.42887156497593965
1772713803638314200,8.276314208984376,0.21861586291790008,0.7916831693932413,0.443752067515254
1772713803648289300,8.286289306640626,0.39103286924064157,0.7506557240866124,0.5341016160041093
1772713803658263300,8.29626318359375,0.5889280156910419,0.5889015660755336,0.556003066688776
1772713803668237300,8.3062373046875,0.8317541907578706,0.4464633723005652,0.7221176118664443
1772713803678211300,8.31621142578125,0.9948533336371183,0.3060286273024976,0.9184490891966969
1772713803688185000,8.32618505859375,1.091921961247921,0.13278759124577044,1.0100124704547226
1772713803698159000,8.3361591796875,1.3112228838205338,0.04068389256596565,1.1080485548581926
1772713803708133000,8.346133056640625,1.3332681268900632,-0.010469517696648835,1.1187415060471744
1772713803718108200,8.356108154296875,1.4481331079542636,-0.1884773297637701,1.1359810293354093
1772713803728082200,8.366082275390625,1.4951368511915206,-0.35315687370225785,1.182411794990301
1772713803738056200,8.37605615234375,1.4061825564533472,-0.4894388829350471,1.181153392427042
1772713803748030200,8.3860302734375,1.4434855744093655,-0.6252974060587585,1.2850921250030398
1772713803758004200,8.396004150390626,1.2877934929162262,-0.7716312920980155,1.306933808324486
1772713803767978200,8.405978271484376,1.2129039638876915,-0.9115089877352118,1.3646572446271776
1772713803777952300,8.4159521484375,1.0903846686780452,-0.9379778924658894,1.3910302877679466
1772713803787926300,8.42592626953125,0.9562526770859956,-0.8612367442212998,1.203873539083451
1772713803797901000,8.435901123046875,-0.40402036110758777,-0.9913646147385239,0.42216582025960087
1772713803807875000,8.445875,-1.3842284987986087,-0.9454777467019856,0.20012924391170964
1772713803817849000,8.45584912109375,-1.2813117296814918,-0.7941048435822129,-0.5896632711630314
1772713803827823000,8.465822998046875,-1.0741168399661778,-0.7125764610610902,-0.5699474939543754
1772713803837797000,8.475797119140625,-1.5862433555275202,-0.37853023828119037,-0.6112663599556312
1772713803847771100,8.485771240234374,-1.1063912161052227,-0.27246611104905605,-0.7055120756328106
1772713803857745200,8.4957451171875,-0.3995300639510154,-0.4764075519263744,-0.6590021072618663
1772713803867720200,8.50572021484375,-0.15004267742931843,-0.5533293174348771,-0.36317521356530486
1772713803877694200,8.515694091796876,0.11976444354355334,-0.3997872535824775,-0.381599343528226
1772713803887668200,8.525668212890626,0.9467325690686702,-0.4769010345317423,-1.401274033884704
1772713803897642200,8.535642333984375,0.753078128927946,-0.29977877312749623,-1.8766259392783045
1772713803907616300,8.5456162109375,0.2020277162104845,-0.21957506333887575,-1.5445516010932623
1772713803917590000,8.555590087890625,0.1809784984409809,-0.29182635281831026,-0.9522183070033788
1772713803927564000,8.56556396484375,0.3548766832321882,-0.307342632510513,-0.7993151255764067
1772713803937538000,8.5755380859375,0.47344753307700155,-0.64274640737921,-1.0279657680355012
1772713803947513300,8.585513427734375,0.25755086598992344,-0.5640650848522782,-0.6880160933654755
1772713803957487400,8.5954873046875,0.04419219294786453,-0.2689019888266921,-0.4043672017838806
1772713803967461400,8.60546142578125,-0.06877133840918541,0.060323389668017625,-0.5637540461417287
1772713803977435400,8.615435302734374,-0.1820978578597307,0.3145361972764134,-0.4535605640199035
1772713803987409400,8.625409423828126,-0.25933015062212944,0.3519325926043093,-0.6007065701596439
1772713803997383400,8.635383544921876,-0.3278583279252052,0.2739044732891023,-0.7839588587515056
1772713804007357400,8.645357421875,-0.26555998492240906,0.1951567344624549,-0.8394673954837024
1772713804017332200,8.655332275390625,-0.2939151417911052,0.042119916718453165,-0.8898704257704317
1772713804027306200,8.66530615234375,-0.127217682158947,-0.19549056952670216,-0.9981843046907335
1772713804037280300,8.6752802734375,-0.03107961339652538,-0.36783538739606736,-0.9948024071674794
1772713804047254300,8.685254150390625,0.03658580959737301,-0.5668870104052126,-1.0317254128299653
1772713804057228300,8.695228271484375,-0.01902151133418083,-0.7417959796741604,-0.9830229028508066
1772713804067202300,8.705202392578125,-0.13695581684112548,-0.7883720720838755,-0.809504438092187
1772713804077176300,8.71517626953125,-0.19444471373558042,-0.8724600028946995,-0.5460254241622984
1772713804087151400,8.7251513671875,-0.3203653418213129,-0.9734785371750593,-0.38912732788026333
1772713804097125400,8.73512548828125,-0.4813362405002117,-1.047820076932013,-0.21820742824748157
1772713804107099400,8.745099365234376,-0.6700345195382833,-1.139971706406772,-0.012006956396996974
1772713804117073400,8.755073486328126,-0.6663111151009797,-1.2021863166488707,-0.11724997650459408
1772713804127047400,8.76504736328125,-0.6136369250118732,-1.167689076828584,-0.18845219532251356
1772713804137021200,8.775021240234375,-0.36240766325891016,-1.162584812492132,-0.14205533193722367
1772713804146995200,8.7849951171875,-0.3974538421988487,-1.2453083961471914,-0.10239859046190976
1772713804156969200,8.79496923828125,-0.3466647352039814,-1.2901847719669342,-0.07612856930419802
1772713804166944300,8.8049443359375,-0.06039864686131477,-1.1870062101084737,-0.03432882445082068
1772713804176918300,8.814918212890625,0.1537777723044157,-1.1318335542671383,0.03792772572562098
1772713804186892300,8.824892333984375,0.2810679351776838,-1.1513391227912158,0.06928659445494413
1772713804196866300,8.8348662109375,0.3975497037887573,-1.1911471823707223,0.08241305640116334
1772713804206840300,8.84484033203125,0.4437047212421894,-1.1894727463524788,0.12079627080932259
1772713804216814300,8.854814453125,0.46383974677622314,-1.2110804747875779,0.22506898458003996
1772713804226788400,8.864788330078126,0.45070846252441404,-1.2299141353994607,0.3252083979383111
1772713804236762400,8.874762451171875,0.396229853361845,-1.244757192005217,0.3254717250496149
1772713804246737200,8.884737060546875,0.26745909654200073,-1.1892532583829014,0.2197251393340528
1772713804256711200,8.894711181640625,0.43663492898643014,-1.0571423973549157,0.1412603821672499
1772713804266685200,8.904685302734375,0.8594085058808326,-0.8492616442672908,0.1403928055524826
1772713804276659200,8.9146591796875,0.7863391780167818,-0.774015849146992,0.024106997904926538
1772713804286633200,8.92463330078125,0.6138245565384626,-0.7750225419715047,-0.11878989942297338
1772713804296607200,8.934607177734375,0.4047346468567848,-0.801750243768841,-0.25020313357561824
1772713804306581200,8.944581298828124,0.2157704103589058,-0.8455518299639224,-0.3857411925733089
1772713804316555300,8.95455517578125,0.12399170584976672,-0.8582087016370147,-0.36442791704013944
1772713804326530300,8.9645302734375,-0.04317921651303768,-0.8798216177038848,-0.45086467599943275
1772713804336504300,8.97450439453125,0.003363338953256607,-0.9787883340209722,-0.615914514555037
1772713804346478300,8.984478271484376,0.09867138663232326,-1.1130151642896233,-0.8334250465795398
1772713804356452400,8.994452392578125,0.10373626880645752,-1.1704704511754214,-0.9508516948252915
1772713804366426000,9.004426025390625,0.10643325280547142,-1.2998344977132976,-0.9727198277622461
1772713804376400100,9.014400146484375,0.13154022153317926,-1.2984228773497044,-1.0458769800402223
1772713804386374100,9.0243740234375,0.11647007817327976,-1.1118889367386697,-0.9694596569225191
1772713804396349200,9.03434912109375,-0.12277940745055675,-0.8102163126885891,-0.761345898796618
1772713804406323200,9.0443232421875,-0.4431868348479271,-0.5749481517858803,-0.5720598829984664
1772713804416297200,9.054297119140625,-0.7634259199410677,-0.40182212041094895,-0.403789621091634
1772713804426271200,9.064271240234374,-1.0000783748090267,-0.11846695107892155,-0.22620032669752835
1772713804436245200,9.074245361328124,-1.030264838758111,0.3258899504616856,-0.10662073820158839
1772713804446219300,9.08421923828125,-1.0049205541431903,0.7591290995299815,-0.07935885646231472
1772713804456193300,9.094193359375,-1.0801040976822376,1.0512605727747082,0.01521488559283316
1772713804466167300,9.104167236328125,-0.877076849040389,1.1530049371115862,-0.044485330675542355
1772713804476142000,9.11414208984375,-0.8350304359495639,1.5026220923803746,0.5269629232306033
1772713804486116000,9.1241162109375,-1.2797282598823307,2.1922931864112614,1.0289280371963978
1772713804496090000,9.134090087890625,-1.6342460466742514,2.2879604227915404,1.182827316988632
1772713804506060800,9.144060791015624,-1.8428835364133118,2.1254795579411088,1.3157435761153697
1772713804516034800,9.154034912109376,-1.8991998823970555,1.9586944200254977,1.1176130865391343
1772713804526008800,9.1640087890625,-1.9139836100310086,1.7873501575008033,0.7241508712597191
1772713804535982800,9.17398291015625,-1.5473241345465183,1.768702740176022,0.1913154027339071
1772713804545956900,9.183956787109375,-0.9689671972304582,1.709418922688812,-0.31444581557922063
1772713804555932000,9.193931884765625,-0.39298517235219477,1.5800415782779453,-0.6412292808145285
1772713804565906000,9.203906005859375,-0.01812660832107067,1.4868077065244316,-0.865069527317211
1772713804575880000,9.2138798828125,0.20846564030349254,1.455280641621351,-0.9864236512050032
1772713804585853700,9.223853759765625,0.2868026794373989,1.2117692607693373,-1.1534974698688834
1772713804595827700,9.23382763671875,0.2844493943095207,1.005092695839703,-1.2418671696521342
1772713804605801700,9.2438017578125,0.28536183297932144,0.9189647105686366,-1.1489485013276337
1772713804615775700,9.253775634765624,0.3304658800750971,0.900885594651103,-0.9614875089995563
1772713804625750800,9.263750732421874,0.45095045458674426,1.117732255939394,-0.3739797719025984
1772713804635724800,9.273724853515626,0.49562429357171056,1.4737969799123705,0.4118426887637004
1772713804645698800,9.28369873046875,0.43396892464756964,1.6770258886061609,1.1508122493728994
1772713804655672800,9.2936728515625,0.27767537012994287,1.5715329853907227,1.6307355543352662
1772713804665646800,9.303646728515625,0.2796989849120378,1.0899508073054254,1.8041607147872447
1772713804675620900,9.313620849609375,0.15138240160048008,1.0555554934896527,1.7245741139836608
1772713804685592800,9.3235927734375,-0.04759995556473732,1.3436026200301945,1.3221546122014523
1772713804695566800,9.33356689453125,-0.001827215427160263,1.7144548710294067,0.9439638350076973
1772713804705540900,9.343540771484374,-0.07792904285490512,1.9455998145222664,0.6068876699473709
1772713804715515000,9.353514892578126,-0.24469255346059798,2.0540667651124296,0.3370197952305898
1772713804725490000,9.363489990234376,-0.18718027569055556,2.073860575993359,0.2071885878386907
1772713804735464000,9.3734638671875,-0.051993222087621686,2.0055232450872658,0.13567282782588153
1772713804745438000,9.38343798828125,0.04158931697309017,1.8621938015609978,0.06819940200643614
1772713804755412000,9.393411865234375,0.08063479468226432,1.6515185223840176,0.03471269093556329
1772713804765386000,9.403385986328125,0.14085165523588655,1.3809917088344692,0.005535385762713849
1772713804775359700,9.41335986328125,0.14901625699102877,1.0840417293921112,0.053158429942093785
1772713804785333800,9.423333740234375,0.12909575099051,0.7461752176716924,0.15931489336648955
1772713804795307800,9.433307861328124,0.12904548210799693,0.45290524191632864,0.21324593338258563
1772713804805282800,9.44328271484375,0.11467559597194193,0.3183974027492106,0.13254784593945368
1772713804815256800,9.4532568359375,0.06058861647546291,0.30247619551792737,0.053465879322914404
1772713804825230800,9.46323095703125,-0.013985855254530905,0.24890374141484498,0.005903296626498923
1772713804835204900,9.473204833984376,0.012437456768751144,0.21441958027184008,0.04337047390197404
1772713804845179000,9.483178955078126,-0.04818973815143108,0.2795643987469375,0.05405285803116858
1772713804855153000,9.49315283203125,-0.018414777612686156,0.30610213093012567,0.04660928229326382
1772713804865127000,9.503126953125,0.0675689768821001,0.27783465234488247,0.057228140766150314
1772713804875101000,9.513100830078125,0.1975175453096628,0.26290333293378354,0.10261393197933211
1772713804885075700,9.52307568359375,0.2775485288798809,0.2703939809501171,0.25335852886661886
1772713804895049700,9.5330498046875,0.3575695755779743,0.3184456258051097,0.2540409399065189
1772713804905023700,9.543023681640625,0.398704719042778,0.3846177415013313,0.16340442770244554
1772713804914997800,9.552997802734374,0.38008828137815,0.4389399910584092,0.13627165223555637
1772713804924971800,9.5629716796875,0.4250006052941084,0.4628254551671445,0.07108032773761078
1772713804934945800,9.57294580078125,0.4563093512713909,0.45161973215043544,-0.06278662884323857
1772713804944919800,9.582919921875,0.43541327823698517,0.4111053509324789,-0.1922130274270661
1772713804954893800,9.592893798828126,0.3888187003225088,0.34320948018357156,-0.3282537204509601
1772713804964868900,9.602868896484376,0.31385727510154243,0.32302140928804873,-0.37600853778384624
1772713804974843000,9.6128427734375,0.2596756030589342,0.3756991065084934,-0.351380402081646
1772713804984817000,9.62281689453125,0.20211656353771684,0.4702295939438045,-0.450685227779299
1772713804994791000,9.632791015625,0.25167057577967644,0.5834212349683046,-0.568661618862301
1772713805004764700,9.6427646484375,0.29798984388411043,0.4925456167787313,-0.5142343745607882
1772713805014738700,9.65273876953125,0.3794581667810678,0.37903380388915536,-0.3925608825255185
1772713805024712700,9.662712646484374,0.4721773670107126,0.2832809350520372,-0.2505223007936962
1772713805034686700,9.672686767578124,0.44420214937031266,0.2163354968957603,-0.042831827847473324
1772713805044661800,9.682661865234374,0.3197451640963554,0.1538458691045642,-0.04507549685472622
1772713805054635800,9.6926357421875,0.1118763206422329,0.14299436635300516,-0.025278781630657613
1772713805064609800,9.70260986328125,0.006021744507551193,0.10862287180423735,-0.004974957134667783
1772713805074583800,9.712583740234376,-0.09291443054080009,0.0959267640992999,-0.1083835466230288
1772713805084557800,9.722557861328125,-0.22035189293026922,0.15092442869991063,-0.17640371960503978
1772713805094531800,9.73253173828125,-0.02872340565919876,0.1294407650358975,-0.08910157598806545
1772713805104505900,9.742505859375,0.03157002726197242,0.02599208099916577,0.007883026601094752
1772713805114479900,9.75247998046875,0.05716682533323764,-0.05897299797236919,0.14245129071855916
1772713805124455000,9.762454833984375,0.04463701410591602,-0.14491203654259444,0.2452040283803828
1772713805134429000,9.772428955078125,0.02015489927828312,-0.22621932365894315,0.270350634998735
1772713805144403000,9.78240283203125,-0.011268412989377976,-0.25740765812695027,0.310928930032067
1772713805154377000,9.792376953125,-0.049877837368845934,-0.29523820708841086,0.3630701092230156
1772713805164351000,9.80235107421875,-0.08867080162167548,-0.364986427705735,0.38829986408017575
1772713805174324700,9.81232470703125,-0.015299860462546347,-0.4333936089776456,0.4101636861681938
1772713805184298800,9.822298828125,-0.012163316002488135,-0.5134061801083386,0.48351946629080916
1772713805194272800,9.832272705078125,-0.13053542840480803,-0.5634941530965268,0.629335137142241
1772713805204248000,9.842248046875,-0.13008359298408032,-0.6316476518683135,0.7434097715463489
1772713805214222000,9.85222216796875,-0.2008031428515911,-0.6937459422543645,0.8296632098279892
1772713805224195800,9.86219580078125,-0.3344949894607067,-0.7565966584429145,0.9216464969985186
1772713805234169900,9.872169921875,-0.40460020682215686,-0.831417798410356,0.9482450194582343
1772713805244143900,9.882143798828125,-0.4157026155948639,-0.8856792576909065,0.9958144337542354
1772713805254118000,9.892117919921875,-0.5064566532313823,-0.8659962137080729,1.0013543860942125
1772713805264092000,9.902091796875,-0.5493137981832027,-0.8592753810204565,0.9707482354283332
1772713805274066000,9.91206591796875,-0.5944149226695299,-0.8831282580338418,0.9760143392629921
1772713805284041000,9.922041015625,-0.6413730731993913,-0.852220055681467,0.980892978150025
1772713805294015000,9.932014892578126,-0.6521656853705644,-0.7863118516184389,0.9553872924283147
1772713805303989000,9.941989013671876,-0.663835664898157,-0.7896423112154006,0.9278560191631317
1772713805313963000,9.951962890625,-0.6316244171231985,-0.8794692971348762,0.9453982517249881
1772713805323937000,9.96193701171875,-0.6674760672271252,-1.0403056096486747,1.0304477941095829
1772713805333911800,9.971911865234375,-0.6913485257238149,-1.1837927279546856,1.0567048096552492
1772713805343885800,9.9818857421875,-0.974107482728362,-1.1763463574714959,0.997164533188939
1772713805353859800,9.99185986328125,-1.3556710973560808,-1.1328555907912552,1.024917924772203
1772713805363833900,10.001833740234375,-1.3162772446006537,-1.1174250896863638,0.9924978565521537
1772713805373807900,10.011807861328125,-1.4572995802283286,-0.9640190733037889,0.9644921707082539
1772713805383783000,10.021782958984375,-1.5724679281532763,-0.7075609709866344,0.8492522188518196
1772713805393757000,10.0317568359375,-1.4950789835244416,-0.39708968506157394,0.6688372725777327
1772713805403731000,10.04173095703125,-1.349855689075589,-0.10527546107247471,0.5324551639713346
1772713805413705000,10.051705078125,-1.1179594888240099,0.08633432149812578,0.41339916095808144
1772713805423679000,10.061678955078126,-0.8203776412189007,0.23105770360082387,0.36641024996377525
1772713805433653000,10.071653076171875,-0.5092810630023479,0.4436553291425109,0.3336469943292439
1772713805443627000,10.081626953125,-0.308913973480463,0.6686268446974456,0.2870222404722124
1772713805453600800,10.091600830078125,-0.1524140827357769,0.8068868760049343,0.26196926695406436
1772713805463575800,10.101575927734375,-0.010169511836767196,0.8872853777132927,0.228632449215278
1772713805473549800,10.1115498046875,0.19289923785924912,0.9481346909515559,0.2424224896367639
1772713805483523800,10.12152392578125,0.41120822678506375,0.960539560624957,0.2410210253410041
1772713805493497900,10.131497802734375,0.5823059672027826,0.9398271735943853,0.18921404654048382
1772713805503471900,10.141471923828124,0.7145008532524109,0.9084823333904146,0.11350450636595487
1772713805513450000,10.151449951171875,0.7911275813370943,0.8803599623642862,0.05808576680906117
1772713805523424000,10.161424072265625,0.7983955265134572,0.913133081805706,-0.013660641888156532
1772713805533398000,10.17139794921875,0.7676192799776792,0.9806197872318327,-0.19422383752651512
1772713805543372800,10.181372802734375,0.7517173619687557,1.0013803973183035,-0.4185341857589781
1772713805553346800,10.191346923828124,0.7106453468680382,0.9677847094476223,-0.5230907579723745
1772713805563320800,10.20132080078125,0.6642495063960552,0.9068038787841797,-0.7048418482210487
1772713805573294800,10.211294921875,0.5887818852186203,0.8804013172879814,-1.0307613901033996
1772713805583268900,10.221268798828126,0.49805999628603453,0.9503699026577174,-1.288087653557211
1772713805593243000,10.231242919921876,0.3958610200494528,1.0325020962908864,-1.5019611442536114
1772713805603217000,10.241216796875,0.38689913043677804,1.0427863205485046,-1.7722262381270526
1772713805613191000,10.25119091796875,0.28520108945965766,1.011307040309906,-2.0715002766028046
1772713805623166000,10.261166015625,0.22192893298864363,1.0311119571067393,-2.316145191529393
1772713805633140000,10.271139892578125,0.20518354989290236,1.1075931392408906,-2.540761171644926
1772713805643113700,10.28111376953125,0.1090782143563032,1.209723288024962,-2.7428186984717846
1772713805653087700,10.291087646484375,0.039437107375264166,1.296893329694867,-2.864205190259218
1772713805663061800,10.301061767578124,0.01601297716796398,1.3750158492952584,-2.911854830184579
1772713805673035800,10.311035888671874,0.05530512311458587,1.3493259661130605,-2.9010701090589164
1772713805683009800,10.321009765625,0.10414075795412063,1.2212953601360321,-2.765171107794344
1772713805692983800,10.33098388671875,0.08062953398525714,1.0471185045339166,-2.595239780807495
1772713805702958800,10.340958740234376,0.10528583633601665,0.8713209158621728,-2.459909519341588
1772713805712932900,10.350932861328126,0.11064122588932514,0.7002899570703506,-2.330276154343039
1772713805722907000,10.360906982421875,0.07607201681137085,0.6104708621963858,-2.1959727517068384
1772713805732881000,10.370880859375,0.06851999399662018,0.5582891317993403,-2.050054022339731
1772713805742855000,10.38085498046875,0.12670622550547123,0.4945382519006729,-1.9841130850508808
1772713805752829000,10.390828857421875,0.17468319768905638,0.5042543208815157,-1.9075522618092595
1772713805762803000,10.400802978515625,0.22193419368565082,0.5845584223046898,-1.7860365906842053
1772713805772777000,10.41077685546875,0.29485096133649347,0.6405911290414631,-1.6243733258269726
1772713805782750700,10.420750732421874,0.306135156416893,0.7154222058810293,-1.731325341809541
1772713805792725800,10.430725830078124,0.14970190116763113,0.6726501088641583,-1.8320780647605657
1772713805802699800,10.44069970703125,0.19559739090204237,0.5971688975527882,-1.7748212230563163
1772713805812673800,10.450673828125,0.2181172657459974,0.64153410898,-1.832879152010381
1772713805822647800,10.460647705078125,0.33802900880575176,0.7546491776369512,-1.8315506798855958
1772713805832621800,10.470621826171875,0.4720248067975044,0.8791621308818459,-1.6853654085367917
1772713805842595800,10.480595947265625,0.6094108317494392,0.8912314849905669,-1.3673466298416257
1772713805852569900,10.49056982421875,0.6666542294502258,0.7395368025705218,-1.140131134752184
1772713805862544000,10.5005439453125,0.6697761608630418,0.6391323085352778,-1.0630958258666097
1772713805872518700,10.5105185546875,0.622024229606986,0.6051034899443387,-1.0821468555562197
1772713805882492700,10.52049267578125,0.5820411787867545,0.6147635909542442,-1.124473327697441
1772713805892466700,10.530466796875,0.4440326380223035,0.5998463000684976,-1.1491175742842257
1772713805902440700,10.540440673828124,0.336959918269515,0.5499085492059588,-1.2057323186926543
1772713805912414700,10.550414794921876,0.15608780281245707,0.5129816710859537,-1.3317102299235761
1772713805922388700,10.560388671875,-0.061569444206357,0.5224827821418643,-1.464284178418666
1772713805932362800,10.57036279296875,-0.18178280056118964,0.5383551817953586,-1.534145650152117
1772713805942336800,10.580336669921875,-0.32048049263358114,0.5213552394166588,-1.5066304512389004
1772713805952311800,10.590311767578125,-0.4612374553233385,0.44159255139380693,-1.4073898864164949
1772713805962285800,10.600285888671875,-0.6354606342852115,0.3979582845896482,-1.2960748529188335
1772713805972259800,10.610259765625,-0.6581161182075739,0.40003187599331136,-1.2442409130461514
1772713805982233900,10.62023388671875,-0.6065004972606897,0.3649161389485001,-1.2058682200320063
1772713805992208000,10.630207763671875,-0.5505716892898083,0.33380496136993165,-1.1655927621364592
1772713806002182000,10.640181884765624,-0.5610375537246466,0.3467877770617604,-1.1351241202451288
1772713806012155600,10.65015576171875,-0.5430237581282854,0.4081096762478351,-1.0889500327650457
1772713806022129700,10.660129638671876,-0.46534313707649705,0.4829913142308592,-1.023498121102154
1772713806032103700,10.670103759765626,-0.40087797142863274,0.5745490694656967,-0.993900855217874
1772713806042078700,10.68007861328125,-0.2755570628017187,0.6484861200749874,-0.9831390035111457
1772713806052052700,10.690052734375,-0.07218669981062412,0.6691089291259646,-0.9542116727776825
1772713806062026800,10.70002685546875,0.19399463188052177,0.6384896267175674,-0.8645704186886548
1772713806072000800,10.710000732421875,0.32616204540133475,0.6043097092181444,-0.7014166960779578
1772713806081974800,10.719974853515625,0.42766777867674827,0.599610737746954,-0.5743417103253304
1772713806091948800,10.72994873046875,0.5639484727352857,0.6952063701957464,-0.4649496807795018
1772713806101922800,10.7399228515625,0.6538724892884492,0.7486442381337285,-0.44281544425226743
1772713806111896800,10.749896728515624,0.5130091436147689,0.7302271224334835,-0.36184703370146454
1772713806121871600,10.75987158203125,-0.6274252118676901,0.5540422880098224,-0.7493983444366603
1772713806131845600,10.769845703125,0.6522767445296048,0.5551178082868456,-0.2977579348243773
1772713806141819600,10.779819580078126,0.8285229537516832,0.4293868575543165,-0.20883257391974328
1772713806151793700,10.789793701171876,0.6098416243821382,0.44425767894983287,-0.3755620361253619
1772713806161767700,10.799767578125,0.7861620678842067,0.22303192579448222,-0.35805589779019353
1772713806171741700,10.80974169921875,1.1700766295522451,0.18073124568164348,-0.1631492656312883
1772713806181715700,10.8197158203125,0.9813649065107106,0.20421821199208498,-0.04748144375160336
1772713806191689700,10.829689697265625,0.7585153515458106,0.10274725776910781,0.0013600363068282603
1772713806201663700,10.839663818359375,0.7592758145242929,-0.2103536460071802,0.03852466870546341
1772713806211639000,10.84963916015625,0.593040127184987,-0.5622402075126767,0.13164587386474014
1772713806221613000,10.859613037109375,0.24407471382319926,-0.8545917532488703,0.28505452059581876
1772713806231586800,10.8695869140625,-0.15800503461062906,-1.1382505817025899,0.4356678375199437
1772713806241560800,10.879560791015624,-0.8676409121751785,-1.2301041050136088,0.44033188380822536
1772713806251534800,10.889534912109376,-1.4062117825478315,-1.1298793514594434,0.430271823695302
1772713806261508900,10.8995087890625,-2.23476162430644,-0.9751973237916827,0.31378684021383524
1772713806271483000,10.90948291015625,-2.7611159871846436,-0.6919780557990074,0.14618322552219032
1772713806281456600,10.91945654296875,-2.769112246635556,-0.12653817546218632,-0.22141718407422303
1772713806291432000,10.929431884765625,-2.5848206781238314,0.5051356337606907,-0.6595046499565244
1772713806301406000,10.939406005859375,-2.5342192026555534,0.8747080740824341,-0.7487718100361526
1772713806311380000,10.9493798828125,-2.2625807746022937,1.1207216470137238,-0.9126334617204963
1772713806321354000,10.95935400390625,-1.5788234346598387,1.3987269797503947,-1.0418686211816965
1772713806331328000,10.969327880859375,-1.163450489410758,1.6100918486267328,-1.1382936901919543
1772713806341302000,10.979302001953124,-0.7196575053632259,1.7057316124781965,-1.0747101296842099
1772713806351276000,10.989276123046874,-0.3355751859128475,1.656932802517712,-0.8020008575290442
1772713806361250000,10.99925,0.04309329179525375,1.5339976199835539,-0.45720951498150825
1772713806371223800,11.009223876953126,0.3661217153459787,1.3196815000861883,-0.12020546530932187
1772713806381198800,11.01919873046875,0.581594604063034,1.0783677754089236,0.23364319004938006
1772713806391172900,11.0291728515625,0.6456336532533168,0.8976447130337357,0.42603330934271216
1772713806401147000,11.03914697265625,0.7893132253915071,0.7875821638152003,0.4061725707054138
1772713806411121000,11.049120849609375,0.775456549474597,0.6758981508746743,0.3344667862795293
1772713806421095000,11.059094970703125,0.6462269429713488,0.6251248259708285,0.288009132617712
1772713806431069000,11.06906884765625,0.36118776607513425,0.6637953328877687,0.3008708061479032
1772713806441043000,11.07904296875,0.05073650002479553,0.7146732872098683,0.3801701144427061
1772713806451017000,11.089016845703124,-0.46294250567555423,0.7562500369623303,0.5333689178153872
1772713806460991700,11.09899169921875,-1.0069751485854386,0.8048688141807914,0.6086128132395446
1772713806470965800,11.1089658203125,-1.2200561737298965,0.9346960943162441,0.5603209298878907
1772713806480939800,11.118939697265626,-1.5544254909843205,1.071440021972358,0.4776774257317185
1772713806490913800,11.128913818359376,-2.0764590680539605,1.2303747386485338,0.39566403617262835
1772713806500887800,11.1388876953125,-2.197833284881711,1.508655381195247,0.35802900978326796
1772713806510857500,11.148857421875,-2.0532962191313504,1.8317179992765187,0.3470753618314862
1772713806520831500,11.15883154296875,-1.9557120432138442,2.0447937637239693,0.2829766914084553
1772713806530805500,11.168805419921876,-1.6783149055033921,1.929943687967956,0.13129443007856606
1772713806540779500,11.178779541015626,-1.436806242775917,2.082907513540983,0.14521204240247607
1772713806550754600,11.188754638671876,-1.33429980802536,2.411870587837696,0.3337072731491178
1772713806560728600,11.198728515625,-1.3212386664003133,2.3362620968848464,0.4222235417962074
1772713806570702600,11.20870263671875,-1.1480179424792527,2.0566943371370434,0.3682625267669558
1772713806580676600,11.218676513671875,-0.8014367939054966,1.9274583008930086,0.41963973584808406
1772713806590650600,11.228650634765625,-0.5323427896380424,1.8784668909698723,0.5555884214732796
1772713806600624600,11.238624755859375,-0.37330139771699905,1.74997261300385,0.685478318516165
1772713806610598700,11.2485986328125,-0.2556809804648161,1.586012469381094,0.8206952558007091
1772713806620572700,11.25857275390625,-0.17129998499155044,1.4927753827571868,0.9492370992355048
1772713806630546700,11.268546630859374,-0.0471083726555109,1.44717946049124,0.9898637817215173
1772713806640521500,11.278521484375,0.1263636956781149,1.3657394869059323,0.9931432417836039
1772713806650495500,11.28849560546875,0.2025631382614374,1.3006155650883913,1.081456242943555
1772713806660469500,11.298469482421876,0.20888824962973593,1.3308578508779405,1.276444562036544
1772713806670443500,11.308443603515625,0.28568039740920065,1.2987830889642238,1.5503341300174593
1772713806680417500,11.31841748046875,0.3364098831713199,1.0857546707898378,1.7355336071543395
1772713806690391600,11.3283916015625,0.33672669403553007,0.7612669883415103,1.6825456749409435
1772713806700365600,11.338365478515625,0.343455710029602,0.5107917598262429,1.4466070674307643
1772713806710339600,11.348339599609375,0.18116905257701874,0.3975286610007286,1.2028469725146889
1772713806720314600,11.358314697265625,0.4881090956360101,0.386270769405365,0.9356285528607666
1772713806730288400,11.368288330078125,0.773541071242094,0.4109861084669828,0.7457549464330077
1772713806740262400,11.378262451171874,0.5707610753595829,0.3526034776031971,0.6233081319376826
1772713806750236400,11.388236328125,0.2614969732671976,0.3087918084055185,0.5163669296100736
1772713806760210400,11.39821044921875,0.15145137518346308,0.31718758856803175,0.44912426207289097
1772713806770184400,11.408184326171876,0.25661037026941774,0.29117431865036486,0.4282857644446194
1772713806780158500,11.418158447265625,0.31742519671618935,0.15488134963214398,0.5362593785598874
1772713806790132500,11.428132568359375,0.3121738520592451,-0.030634499977529046,0.7504968802630901
1772713806800106500,11.4381064453125,0.37715690410137176,-0.19974282014369962,0.9136503836780786
1772713806810081800,11.448081787109375,0.45457682839035984,-0.2902835072904825,1.0154850566469131
1772713806820055800,11.458055908203125,0.4708014024823904,-0.3535325751468539,1.1049601603887975
1772713806830029800,11.46802978515625,0.462573672363162,-0.4223313860848546,1.1379568594530225
1772713806840003800,11.47800390625,0.49449149014949795,-0.4887848029404878,1.0729071719154715
1772713806849977900,11.487977783203124,0.5104600436538458,-0.5106710560560226,0.9916749958619475
1772713806859951600,11.49795166015625,0.5249947649627924,-0.505828584460914,0.9439609123982489
1772713806869925600,11.507925537109376,0.525443093252182,-0.5734682884916663,0.9260869636639952
1772713806879899400,11.5178994140625,0.45348786410987374,-0.6734975194737315,0.8947679885536431
1772713806889874700,11.527874755859376,0.4677952064037323,-0.747790836174786,0.8289927632205187
1772713806899848700,11.5378486328125,0.5380027150958776,-0.7933572400853037,0.7635365407086908
1772713806909822700,11.54782275390625,0.636129327327013,-0.8456871467813849,0.7024719772845506
1772713806919796700,11.557796630859375,0.6883113499850034,-0.8479290804892778,0.6546437659218907
1772713806929770800,11.567770751953125,0.7959469643175602,-0.8885828701779246,0.6663242668434977
1772713806939744800,11.577744873046875,0.8566331959486008,-0.9712208213761448,0.6934193406485021
1772713806949718800,11.58771875,0.8419839083492755,-1.0443021319389343,0.7098708553642034
1772713806959692800,11.59769287109375,0.8319710483789443,-1.0708289043366908,0.7734785273998975
1772713806969666800,11.607666748046874,0.8260878355592489,-1.1262462556540966,0.8613343593768775
1772713806979640800,11.617640869140626,0.7128782204866408,-1.1272373125180601,0.9687059159457683
1772713806989615600,11.62761572265625,0.5675011967808008,-1.113140105843544,1.0207666503116488
1772713806999589600,11.637589599609376,0.4623568147420883,-1.1019915198415517,1.0653870055437087
1772713807009563600,11.647563720703126,0.28288346016705035,-1.0885811263874172,1.075910006993264
1772713807019537700,11.65753759765625,0.10955167708694934,-1.0717352055266498,1.0774182195991278
1772713807029511700,11.66751171875,-0.022176760494709014,-1.044634432633221,1.1511055332310498
1772713807039485700,11.677485595703125,-0.21315409038066863,-1.0186436668083072,1.2169799811549484
1772713807049459700,11.687459716796875,-0.4095797488003969,-1.0155997690677643,1.2359225820340216
1772713807059433700,11.697433837890625,-0.6357663392335177,-0.8953919656708836,1.132522121053189
1772713807069408800,11.70740869140625,-0.7566676778525113,-0.749417268332839,0.9154046799995005
1772713807079382800,11.7173828125,-0.8281231407791375,-0.6276686652347445,0.6392270010814071
1772713807089356500,11.7273564453125,-0.9100888918042183,-0.5508236182242632,0.3910990663446486
1772713807099330600,11.73733056640625,-0.943985900709033,-0.5117863238215447,0.30607261257469653
1772713807109304600,11.7473046875,-0.9015817602217197,-0.5006950209647417,0.2891317069068551
1772713807119278600,11.757278564453125,-0.8141215034335851,-0.4743482813090086,0.2957381194345653
1772713807129252600,11.767252685546875,-0.7697843490570783,-0.48149084654003377,0.3509402205660939
1772713807139226600,11.7772265625,-0.6578314560472965,-0.6130547412097453,0.424167661601305
1772713807149200600,11.78720068359375,-0.5624199479937553,-0.7837269496917724,0.4901625940997153
1772713807159175700,11.79717578125,-0.5508633657127618,-0.8443237494736909,0.42866029684543605
1772713807169149700,11.807149658203125,-0.5792588545918465,-0.7419844879835844,0.3947596346788108
1772713807179123700,11.817123779296875,-0.6181704767882824,-0.515495115211606,0.34853104053251444
1772713807189097700,11.82709765625,-0.6434259140759706,-0.29256957240104675,0.2292755694244057
1772713807199071700,11.83707177734375,-0.783535811033845,-0.016368074215948582,0.03145933342911303
1772713807209045800,11.847045654296876,-0.8768553152441978,0.32444267426282164,-0.24798589591756462
1772713807219019800,11.857019775390626,-0.7545937941879034,0.6407035033747553,-0.517789436693862
1772713807228993500,11.86699365234375,-0.5702934578478336,0.9010410774737596,-0.8090115400087088
1772713807238967600,11.876967529296875,-0.4945499423384666,1.0716197624534367,-0.9135038878794759
1772713807248942600,11.886942626953125,-0.3889630772292614,1.1887915591552853,-0.8037655291140079
1772713807258916600,11.89691650390625,-0.1237181496053934,1.1886983279138803,-0.6696145405605435
1772713807268890600,11.906890625,0.08870295032560825,1.0942182554915547,-0.4743322069570422
1772713807278864600,11.91686474609375,0.24387597638070582,0.955989057713747,-0.3817861713372171
1772713807288838700,11.926838623046875,0.3896563201904297,0.7444602304473519,-0.4207205168221146
1772713807298812700,11.936812744140624,0.4619102400183677,0.48229397961646314,-0.4241336132012307
1772713807308786700,11.94678662109375,0.5464771134525537,0.19185703532993792,-0.43777182406187054
1772713807318760700,11.9567607421875,0.5288870962262153,-0.027081775932013986,-0.40020102201513946
1772713807328734700,11.966734619140626,0.30809330474734303,-0.14438772040754555,-0.31338183960951865
1772713807338709500,11.97670947265625,0.10402736070752143,-0.21475772618502378,-0.32993937198296186
1772713807348683500,11.98668359375,0.11366554214656352,-0.6363312796398997,-0.5451814476188271
1772713807358657500,11.996657470703125,0.19974632727503774,-0.6142819449171424,-0.5809081561688333
1772713807368631600,12.006631591796875,0.17580138806402681,-0.2669536312378943,-0.40410022141076624
1772713807378605600,12.01660546875,-0.033220132556557654,-0.22615210364162922,-0.2662567350149154
1772713807388579600,12.02657958984375,0.026946459114551544,-0.3948559346601367,-0.08988594956509768
1772713807398553600,12.0365537109375,0.1533510713249445,-0.5447761547535658,-0.0069588061619549986
1772713807408527600,12.046527587890624,0.2145925987511873,-0.6139991824530064,-1.1042441941391676
1772713807418501600,12.056501708984374,0.7863841862022877,-1.1622424287952482,-1.2028492375370115
1772713807428476700,12.0664765625,1.2506594017863273,-1.1145134400233625,-1.5388599653229116
1772713807438450700,12.07645068359375,1.083227198138833,-0.3749037183471024,-1.817768238248676
1772713807448424700,12.0864248046875,0.48564708943665025,0.45528848379105324,-2.144702290935814
1772713807458398500,12.0963984375,-0.35990240243971344,0.5817470181457698,-2.0583315829500557
1772713807468372500,12.10637255859375,-0.000786181941628456,0.5832543539687991,-0.907993453894928
1772713807478346500,12.116346435546875,1.029513143607974,0.6398382648475468,-0.217303373813536
1772713807488320500,12.126320556640625,1.0860685590445995,0.615353081279993,0.01106227769171819
1772713807498294500,12.13629443359375,0.6868710880488157,0.5095648483797908,0.20934329992085693
1772713807508268000,12.14626806640625,0.5622212105512618,0.29620193755403157,0.33371231465041634
1772713807518243000,12.1562431640625,0.5665525177538394,-0.0765719291575253,0.2830099726235494
1772713807528217000,12.166217041015624,0.5274725532531738,-0.38482378546744583,0.41767906676698474
1772713807538191000,12.176191162109374,0.11885375843942164,-0.38087081005796786,0.6211375099003315
1772713807548165000,12.1861650390625,-0.2799836470723152,-0.22923414143547413,0.5525580773340538
1772713807558139100,12.19613916015625,-0.15382161144614218,-0.1820977117292583,0.20462511229254304
1772713807568113200,12.206113037109375,0.17844810318052767,-0.2802402521818876,-0.059159579186188055
1772713807578087200,12.216087158203125,0.60586570648849,-0.33764643922895193,-0.13838138353168034
1772713807588061200,12.226061279296875,1.385637781074643,-0.2936021303191781,-0.1364739516083151
1772713807598035200,12.23603515625,2.0503695180296897,-0.1548620604097843,-0.2853343239178881
1772713807608010000,12.246010009765625,0.9043617463290691,-0.19540742128789423,-1.0926531250666827
1772713807617984000,12.25598388671875,-0.5920008472651243,-0.31848858816400166,-1.5228293063677847
1772713807627958000,12.2659580078125,-0.3649678691357374,-0.9134336721874773,-1.6302428023822604
1772713807637932000,12.27593212890625,0.3462672603189945,-1.2258921864069998,-1.8725586898393929
1772713807647906000,12.285906005859376,1.021588780349493,-1.2846833980716763,-1.8827474908985196
1772713807657880000,12.295880126953126,1.118559792804718,-1.2755433754131198,-1.819602614068985
1772713807667854000,12.30585400390625,0.8404758418738841,-1.369707221493125,-1.5483160681933164
1772713807677828000,12.315828125,0.6014993279725313,-1.4779904860794544,-0.9669877869162707
1772713807687802000,12.325802001953125,0.4928548288583755,-1.230887802737206,-0.5361126270329579
1772713807697777200,12.335777099609375,0.8557885618180036,-0.8106124723993241,-0.39339371662046757
1772713807707751000,12.3457509765625,1.0474410144865511,-0.5554148915372789,-0.48951381133478133
1772713807717725000,12.355724853515625,0.8568114751249551,-0.4665621574774384,-0.5870777847144752
1772713807727699000,12.365698974609375,0.32053076151609416,-0.418804819393903,-0.5106577581830323
1772713807737673000,12.3756728515625,0.05290273814797401,-0.3491777409382164,-0.1452600462626666
1772713807747647000,12.38564697265625,-0.12929273486733436,-0.43672947540208695,0.18582305239532143
1772713807757621000,12.39562109375,0.5647054285824299,-0.18073767542243002,0.6768924956742673
1772713807767595000,12.405594970703126,-0.9221177677720784,-0.22677491171509026,0.862694834075123
1772713807777569000,12.415569091796876,-1.3397984054416416,-0.6582032119691371,0.37315921276733277
1772713807787544000,12.4255439453125,-1.0312146868288516,-0.9209913940906524,-0.5196576782511547
1772713807797518000,12.43551806640625,-0.7996814746707678,-0.9384101464033127,-0.6924499110944569
1772713807807492000,12.4454921875,-0.889615428096056,-1.0133110736086963,-0.6432757650155574
1772713807817466000,12.455466064453125,-1.188150630903244,-0.9811232067093253,-0.5874945853544399
1772713807827440000,12.465440185546875,-1.2561305266737937,-0.7505719913259148,-0.06935564110316336
1772713807837414100,12.4754140625,-1.220698563286662,-0.5706015008836984,0.3890200681135058
1772713807847388000,12.485387939453124,-0.8412363048523664,-0.49457449225783345,0.5664041222590953
1772713807857362000,12.49536181640625,-0.6900678382635116,-0.7125391977906227,0.47248000321909783
