time,seconds_elapsed,z,y,x
1772713795439552000,0.077552001953125,0.11763333529233932,-0.05261191353201866,0.18194037675857544
1772713795449526000,0.087526123046875,0.08344287425279617,-0.11378951370716095,0.1549212783575058
1772713795459500000,0.0975,0.10496149957180023,-0.15031689405441284,0.12652011215686798
1772713795469474000,0.10747412109375,0.1272742748260498,-0.10660430043935776,0.09081777930259705
1772713795479448000,0.117447998046875,0.12984926998615265,-0.03021911531686783,0.037183649837970734
1772713795489423000,0.127423095703125,0.12067786604166031,0.01700698584318161,-0.02216835506260395
1772713795499396900,0.13739697265625,0.11673319339752197,0.032978467643260956,-0.0947004035115242
1772713795509371000,0.147370849609375,0.1320362538099289,0.041156232357025146,-0.15364974737167358
1772713795519345000,0.157344970703125,0.14435622096061707,0.0762643963098526,-0.19904428720474243
1772713795529319000,0.16731884765625,0.14255192875862122,0.14482669532299042,-0.2226681113243103
1772713795539293700,0.177293701171875,0.12300005555152893,0.18962106108665466,-0.26336681842803955
1772713795549267700,0.187267822265625,0.11626625806093216,0.1892402321100235,-0.30531853437423706
1772713795559241700,0.19724169921875,0.1280638575553894,0.21140281856060028,-0.330980122089386
1772713795569215700,0.2072158203125,0.14768444001674652,0.23793776333332062,-0.35395413637161255
1772713795579189800,0.217189697265625,0.16153007745742798,0.2390383630990982,-0.3715892732143402
1772713795589164800,0.227164794921875,0.1624416708946228,0.20187820494174957,-0.37812864780426025
1772713795599138800,0.237138916015625,0.15211018919944763,0.13482458889484406,-0.35629457235336304
1772713795609112800,0.24711279296875,0.15328916907310486,0.07172072678804398,-0.2889690697193146
1772713795619086800,0.2570869140625,0.16899403929710388,0.05511004105210304,-0.19820566475391388
1772713795629060900,0.267060791015625,0.1710081845521927,0.11141218990087509,-0.10232014954090118
1772713795639034600,0.27703466796875,0.1488381177186966,0.2596864700317383,-0.040473178029060364
1772713795649010000,0.287010009765625,0.11568229645490646,0.4303700625896454,-0.022471537813544273
1772713795658984000,0.29698388671875,0.08710379898548126,0.5898759365081787,-0.02866576425731182
1772713795668957700,0.306957763671875,0.06695831567049026,0.6691496968269348,-0.04209182411432266
1772713795678931700,0.316931640625,0.05390278622508049,0.6799472570419312,-0.0439867228269577
1772713795688905700,0.32690576171875,0.0934898778796196,0.6366794109344482,-0.008739786222577095
1772713795698881000,0.336881103515625,0.13042619824409485,0.640192985534668,0.04805236682295799
1772713795708855000,0.34685498046875,0.11744088679552078,0.6762250065803528,0.13275180757045746
1772713795718828800,0.356828857421875,0.07551556080579758,0.6703655123710632,0.19966170191764832
1772713795728802800,0.366802734375,0.04094746336340904,0.6929978132247925,0.26899418234825134
1772713795738776800,0.37677685546875,0.03255844861268997,0.7110834121704102,0.3369657099246979
1772713795748750800,0.386750732421875,0.037570782005786896,0.6950581073760986,0.3978583514690399
1772713795758726000,0.396725830078125,0.04121607914566994,0.6436864733695984,0.43394026160240173
1772713795768700000,0.406699951171875,0.0340212844312191,0.5611316561698914,0.437207967042923
1772713795778674000,0.416673828125,0.03619293123483658,0.4650304913520813,0.4247281551361084
1772713795788648000,0.42664794921875,0.05021047964692116,0.39152297377586365,0.3998046815395355
1772713795798622000,0.4366220703125,0.07900872081518173,0.35620102286338806,0.3755238652229309
1772713795808596700,0.4465966796875,0.10331059992313385,0.33548563718795776,0.3324885368347168
1772713795818570800,0.45657080078125,0.1272956281900406,0.295376718044281,0.28427383303642273
1772713795828544800,0.466544677734375,0.14937908947467804,0.24855142831802368,0.2342277318239212
1772713795838518800,0.476518798828125,0.1759825050830841,0.22134819626808167,0.19179767370224
1772713795848492800,0.486492919921875,0.19577963650226593,0.2133653610944748,0.1554013192653656
1772713795858466800,0.496466796875,0.20300167798995972,0.20178623497486115,0.12472161650657654
1772713795868441900,0.50644189453125,0.19694218039512634,0.19579491019248962,0.11302074790000916
1772713795878416000,0.516415771484375,0.18943844735622406,0.21598194539546967,0.11556929349899292
1772713795888390000,0.526389892578125,0.17316626012325287,0.2452452927827835,0.13025395572185516
1772713795898364000,0.536364013671875,0.16788262128829956,0.26137420535087585,0.14511162042617798
1772713795908338000,0.546337890625,0.17674003541469574,0.26069241762161255,0.1449185460805893
1772713795918312700,0.556312744140625,0.19404175877571106,0.21878106892108917,0.12097340822219849
1772713795928286700,0.56628662109375,0.2129451334476471,0.133894145488739,0.07976125180721283
1772713795938260700,0.5762607421875,0.22697320580482483,0.0402742438018322,0.027913784608244896
1772713795948234800,0.58623486328125,0.22897164523601532,-0.008046947419643402,-0.01587417535483837
1772713795958208800,0.596208740234375,0.2229113131761551,-0.00085336749907583,-0.03284398093819618
1772713795968182800,0.606182861328125,0.22863072156906128,0.02124847285449505,-0.037064824253320694
1772713795978157800,0.61615771484375,0.23066219687461853,0.03430130332708359,-0.02938823029398918
1772713795988131800,0.6261318359375,0.22749623656272888,0.06278008222579956,-0.006650160066783428
1772713795998105900,0.63610595703125,0.21333301067352295,0.10528026521205902,0.02087395265698433
1772713796008080000,0.646079833984375,0.1959470957517624,0.15162566304206848,0.04616839066147804
1772713796018054000,0.656053955078125,0.18683940172195435,0.20450609922409058,0.06510923057794571
1772713796028027600,0.666027587890625,0.20288921892642975,0.24556830525398254,0.07015911489725113
1772713796038002700,0.676002685546875,0.2455790638923645,0.27111634612083435,0.06606171280145645
1772713796047976700,0.685976806640625,0.3158082067966461,0.28872624039649963,0.05626634508371353
1772713796057950700,0.69595068359375,0.39768868684768677,0.27548834681510925,0.045344263315200806
1772713796067924700,0.7059248046875,0.4881698489189148,0.22033266723155975,0.04013805091381073
1772713796077898800,0.715898681640625,0.5394991636276245,0.07612080872058868,0.01732066087424755
1772713796087874000,0.7258740234375,0.46343743801116943,0.24721133708953857,0.04020014405250549
1772713796097848000,0.73584814453125,0.4134637117385864,0.3496163785457611,0.019163701683282852
1772713796107821800,0.74582177734375,0.48487985134124756,0.15792818367481232,0.019779957830905914
1772713796117795800,0.7557958984375,0.5622168779373169,0.16230913996696472,0.07176237553358078
1772713796127769900,0.765769775390625,0.5688169598579407,0.2683495581150055,0.1399693787097931
1772713796137743600,0.77574365234375,0.5639361143112183,0.25032898783683777,0.16576245427131653
1772713796147719000,0.785718994140625,0.5963361263275146,0.1832583248615265,0.15475614368915558
1772713796157693000,0.79569287109375,0.6486175060272217,0.16623304784297943,0.13904590904712677
1772713796167667000,0.8056669921875,0.7061311602592468,0.2020014226436615,0.11562474071979523
1772713796177641000,0.815640869140625,0.7568953633308411,0.2544950544834137,0.08481714129447937
1772713796187615000,0.825614990234375,0.789333164691925,0.3050229549407959,0.05298250913619995
1772713796197589800,0.83558984375,0.806065559387207,0.3586915135383606,0.021189160645008087
1772713796207563800,0.845563720703125,0.7956752181053162,0.40283632278442383,-0.009308028034865856
1772713796217537800,0.855537841796875,0.7633450031280518,0.4302458167076111,-0.04196568578481674
1772713796227511800,0.86551171875,0.6983276605606079,0.4077143967151642,-0.08213493973016739
1772713796237485800,0.87548583984375,0.6294976472854614,0.3602583706378937,-0.12750820815563202
1772713796247459800,0.8854599609375,0.5812745094299316,0.35323452949523926,-0.18123695254325867
1772713796257435000,0.895434814453125,0.5543637871742249,0.3864869177341461,-0.24500486254692078
1772713796267409000,0.905408935546875,0.5355690717697144,0.4294474124908447,-0.31738635897636414
1772713796277383000,0.9153828125,0.5184161067008972,0.5066269636154175,-0.402056485414505
1772713796287357000,0.92535693359375,0.5022517442703247,0.6334717273712158,-0.48597481846809387
1772713796297331000,0.9353310546875,0.48926493525505066,0.790361225605011,-0.5564543008804321
1772713796307305700,0.9453056640625,0.4841897487640381,0.964378297328949,-0.6005821228027344
1772713796317279700,0.95527978515625,0.4864826202392578,1.1520074605941772,-0.6125566959381104
1772713796327253800,0.965253662109375,0.5024828910827637,1.31670343875885,-0.6111806035041809
1772713796337227800,0.975227783203125,0.5396274924278259,1.4297511577606201,-0.5897117257118225
1772713796347201800,0.985201904296875,0.5833984017372131,1.500746250152588,-0.5565468668937683
1772713796357175800,0.99517578125,0.6186944842338562,1.5081974267959595,-0.5205689668655396
1772713796367150800,1.00515087890625,0.6494476199150085,1.4783334732055664,-0.4702232778072357
1772713796377124900,1.015124755859375,0.6770374774932861,1.4831563234329224,-0.3852051794528961
1772713796387099000,1.025098876953125,0.682802140712738,1.525393009185791,-0.28609907627105713
1772713796397073000,1.035072998046875,0.6721358299255371,1.5518869161605835,-0.17681702971458435
1772713796407047000,1.045046875,0.6484664678573608,1.5386779308319092,-0.08232568204402924
1772713796417020700,1.055020751953125,0.6189985275268555,1.532067894935608,0.010961590334773064
1772713796426995700,1.06499560546875,0.5564948916435242,1.5536906719207764,0.09829143434762955
1772713796436969700,1.0749697265625,0.45988550782203674,1.5638993978500366,0.16032521426677704
1772713796446943700,1.08494384765625,0.33079224824905396,1.520603895187378,0.19699028134346008
1772713796456917800,1.094917724609375,0.1528305858373642,1.4241119623184204,0.19124984741210938
1772713796466891800,1.104891845703125,-0.049112651497125626,1.2366187572479248,0.17032858729362488
1772713796476865800,1.11486572265625,-0.27514469623565674,0.8866035342216492,0.10920600593090057
1772713796486840800,1.1248408203125,-0.5205930471420288,0.4972832500934601,0.06122836098074913
1772713796496814800,1.13481494140625,-0.6395748853683472,0.3047047257423401,0.14178524911403656
1772713796506788900,1.144788818359375,-0.6727397441864014,0.141441211104393,0.23188690841197968
1772713796516763000,1.154762939453125,-0.6474252343177795,0.057508863508701324,0.3052309453487396
1772713796526737000,1.16473681640625,-0.5606160163879395,0.17572152614593506,0.37754109501838684
1772713796536712000,1.1747119140625,-0.47874972224235535,0.4858744144439697,0.44403010606765747
1772713796546686000,1.18468603515625,-0.4645705223083496,0.7426457405090332,0.47605833411216736
1772713796556660000,1.194659912109375,-0.5300655961036682,0.73293137550354,0.4560439884662628
1772713796566634000,1.204634033203125,-0.6470758318901062,0.7284748554229736,0.4544098675251007
1772713796576608000,1.21460791015625,-0.7695528864860535,0.902538537979126,0.44553521275520325
1772713796586582000,1.22458203125,-0.6752681732177734,1.2932021617889404,0.4236120581626892
1772713796596556800,1.234556884765625,-0.7393837571144104,1.6649413108825684,0.4753284156322479
1772713796606530800,1.24453076171875,-0.748913049697876,1.7566715478897095,0.492876261472702
1772713796616504800,1.2545048828125,-0.6517900228500366,1.7984341382980347,0.3963809013366699
1772713796626478800,1.264478759765625,-0.45384496450424194,1.8670861721038818,0.052914608269929886
1772713796636452900,1.274452880859375,-0.15474453568458557,1.6719955205917358,-0.3500116765499115
1772713796646427000,1.284427001953125,0.1764826625585556,1.228016972541809,-0.6836562156677246
1772713796656402000,1.29440185546875,0.3799441158771515,0.8287949562072754,-0.9204226732254028
1772713796666376000,1.3043759765625,0.4580942988395691,0.4828375577926636,-1.070014238357544
1772713796676350000,1.314349853515625,0.5099855661392212,0.19271908700466156,-1.1224305629730225
1772713796686324000,1.324323974609375,0.5834930539131165,-0.007219322957098484,-1.0827604532241821
1772713796696298000,1.334298095703125,0.6565906405448914,-0.08927931636571884,-0.9735086560249329
1772713796706272800,1.344272705078125,0.7439703345298767,-0.07916782796382904,-0.8106656670570374
1772713796716246800,1.354246826171875,0.8635364174842834,-0.04280582070350647,-0.5992059111595154
1772713796726220800,1.364220703125,1.011285424232483,-0.05880369618535042,-0.3311059772968292
1772713796736194800,1.37419482421875,1.1494334936141968,-0.06862001866102219,-0.011708301492035389
1772713796746168800,1.3841689453125,1.2407176494598389,-0.026068564504384995,0.3519101142883301
1772713796756142800,1.394142822265625,1.2575603723526,0.11673640459775925,0.7410627007484436
1772713796766118100,1.4041181640625,1.1447250843048096,0.20841465890407562,1.1197426319122314
1772713796776092200,1.414092041015625,0.8421215415000916,0.10981936752796173,1.3964135646820068
1772713796786066200,1.424066162109375,0.291035532951355,-0.3311345875263214,1.4697394371032715
1772713796796040000,1.4340400390625,-0.3590371012687683,-1.086474061012268,1.3485660552978516
1772713796806014000,1.444013916015625,-0.885219156742096,-1.5800901651382446,1.1866381168365479
1772713796815988000,1.453988037109375,-1.2688006162643433,-1.2429317235946655,0.9394353032112122
1772713796825963000,1.463962890625,-1.413702130317688,-1.2673544883728027,0.7954895496368408
1772713796835937000,1.47393701171875,-1.3352597951889038,-1.2710822820663452,0.6986300945281982
1772713796845911000,1.4839111328125,-1.0440958738327026,-1.1081476211547852,0.5076127648353577
1772713796855885000,1.493885009765625,-0.6945842504501343,-1.0063817501068115,0.34672221541404724
1772713796865859000,1.503859130859375,-0.3706466555595398,-0.8990062475204468,0.29529044032096863
1772713796875833000,1.5138330078125,-0.058169085532426834,-0.7853467464447021,0.3118875026702881
1772713796885807900,1.523807861328125,0.1444316804409027,-0.7259550094604492,0.312388151884079
1772713796895782000,1.533781982421875,0.30035296082496643,-0.7828424572944641,0.32564279437065125
1772713796905756000,1.543755859375,0.42302268743515015,-0.7796679735183716,0.35431596636772156
1772713796915730000,1.55372998046875,0.5112236142158508,-0.8173601031303406,0.3932730257511139
1772713796925704000,1.563703857421875,0.5354503989219666,-0.9657663702964783,0.4117926359176636
1772713796935679000,1.573678955078125,0.5003054141998291,-1.216939091682434,0.4631936550140381
1772713796945653000,1.583653076171875,0.42406895756721497,-1.4860209226608276,0.5510862469673157
1772713796955627000,1.593626953125,0.30759820342063904,-1.757224678993225,0.6529006958007812
1772713796965601000,1.60360107421875,0.12297507375478745,-1.9631257057189941,0.713885486125946
1772713796975575000,1.613574951171875,-0.0811353325843811,-2.195722818374634,0.6998772025108337
1772713796985549000,1.623549072265625,-0.25306421518325806,-2.377206802368164,0.6192933917045593
1772713796995523800,1.63352392578125,-0.3510875403881073,-2.5018036365509033,0.467792272567749
1772713797005497900,1.643497802734375,-0.4028815031051636,-2.5678482055664062,0.25751999020576477
1772713797015471900,1.653471923828125,-0.40219151973724365,-2.5574421882629395,0.03009663335978985
1772713797025446000,1.66344580078125,-0.3185141980648041,-2.4944236278533936,-0.23295123875141144
1772713797035420000,1.673419921875,-0.14513307809829712,-2.4829914569854736,-0.5041114687919617
1772713797045394000,1.683393798828125,0.07889176905155182,-2.5409748554229736,-0.7479193806648254
1772713797055369000,1.693368896484375,0.3094349801540375,-2.551424503326416,-0.9223359227180481
1772713797065343000,1.703343017578125,0.5196220278739929,-2.393573760986328,-1.0136083364486694
1772713797075317000,1.71331689453125,0.714413583278656,-2.270725727081299,-1.0673184394836426
1772713797085291000,1.723291015625,0.8799402713775635,-2.005298376083374,-1.0982638597488403
1772713797095265000,1.73326513671875,0.9892342686653137,-1.4735612869262695,-1.0843144655227661
1772713797105239800,1.74323974609375,1.024781584739685,-0.7204769253730774,-1.02291738986969
1772713797115213800,1.7532138671875,1.0055263042449951,0.00632643373683095,-0.9405511617660522
1772713797125187800,1.763187744140625,0.9442906379699707,0.48013609647750854,-0.8911561369895935
1772713797135161900,1.773161865234375,0.9816428422927856,0.45707061886787415,-0.9783865809440613
1772713797145135900,1.783135986328125,1.1165809631347656,0.29474350810050964,-1.0920108556747437
1772713797155110000,1.79310986328125,1.2338589429855347,0.3517014980316162,-1.1265089511871338
1772713797165085000,1.8030849609375,1.3065650463104248,0.5786299705505371,-1.0994988679885864
1772713797175059000,1.813058837890625,1.368655800819397,0.8144564032554626,-1.0392558574676514
1772713797185033000,1.823032958984375,1.4322514533996582,0.9523801803588867,-1.0070557594299316
1772713797195006700,1.8330068359375,1.5015286207199097,0.9510570168495178,-1.0407990217208862
1772713797204980700,1.842980712890625,1.5452958345413208,0.8033109903335571,-1.1340442895889282
1772713797214954800,1.852954833984375,1.5599473714828491,0.5711400508880615,-1.2368608713150024
1772713797224930000,1.862929931640625,1.569870114326477,0.34038111567497253,-1.334033489227295
1772713797234904000,1.872904052734375,1.6231448650360107,0.17980386316776276,-1.3877558708190918
1772713797244878000,1.882878173828125,1.7172833681106567,0.12223909050226212,-1.4287512302398682
1772713797254852000,1.89285205078125,1.800773024559021,0.21242932975292206,-1.4335825443267822
1772713797264826000,1.902826171875,1.8466776609420776,0.4680943787097931,-1.3366765975952148
1772713797274800000,1.912800048828125,1.8628251552581787,0.8056989312171936,-1.16153085231781
1772713797284775000,1.92277490234375,1.8641397953033447,1.1219722032546997,-0.9462475776672363
1772713797294749000,1.9327490234375,1.8790138959884644,1.255605697631836,-0.6765300631523132
1772713797304723000,1.942722900390625,1.7778332233428955,1.2829699516296387,-0.4680250585079193
1772713797314697000,1.952697021484375,1.5441882610321045,1.1445249319076538,-0.3313157856464386
1772713797324671000,1.9626708984375,1.2725298404693604,0.8033654689788818,-0.2341330349445343
1772713797334646000,1.97264599609375,1.0276111364364624,0.454035222530365,-0.1224481537938118
1772713797344620000,1.9826201171875,0.9165332317352295,0.26540565490722656,0.08659055083990097
1772713797354594000,1.992593994140625,1.005653738975525,0.012137304060161114,0.3909723460674286
1772713797364568000,2.002568115234375,1.0860176086425781,-0.16328485310077667,0.6633111834526062
1772713797374542000,2.0125419921875,1.0668472051620483,-0.1946578025817871,0.7522848844528198
1772713797384516000,2.02251611328125,0.9985504150390625,-0.2268916368484497,0.8380740880966187
1772713797394491000,2.032490966796875,0.9550074934959412,-0.25850334763526917,0.9997729063034058
1772713797404465000,2.04246484375,0.956367015838623,-0.36900508403778076,1.1779799461364746
1772713797414439000,2.05243896484375,0.9938841462135315,-0.5482560396194458,1.3619871139526367
1772713797424413000,2.062412841796875,1.0387778282165527,-0.6754920482635498,1.5277504920959473
1772713797434387000,2.072386962890625,1.0971676111221313,-0.7241973876953125,1.6612753868103027
1772713797444361000,2.08236083984375,1.1896605491638184,-0.6959322094917297,1.7041903734207153
1772713797454336000,2.0923359375,1.3347501754760742,-0.6160295605659485,1.731343150138855
1772713797464310000,2.10231005859375,1.5173927545547485,-0.48991847038269043,1.8220707178115845
1772713797474284000,2.112283935546875,1.6962873935699463,-0.33776435256004333,1.9477074146270752
1772713797484258000,2.122258056640625,1.843650221824646,-0.1691359430551529,2.0654659271240234
1772713797494231800,2.132231689453125,1.974705457687378,0.022741101682186127,2.141629934310913
1772713797504205800,2.142205810546875,2.103316068649292,0.28538498282432556,2.158292293548584
1772713797514180600,2.1521806640625,2.2464237213134766,0.6018809676170349,2.120666027069092
1772713797524154600,2.162154541015625,2.397120237350464,0.9286900162696838,2.067983865737915
1772713797534128600,2.172128662109375,2.545787811279297,1.2075597047805786,2.043412208557129
1772713797544102700,2.1821025390625,2.663567543029785,1.4629608392715454,2.0702624320983887
1772713797554076700,2.19207666015625,2.7583155632019043,1.7573989629745483,2.13283109664917
1772713797564050700,2.20205078125,2.7838733196258545,2.1131174564361572,2.1985764503479004
1772713797574025700,2.212025634765625,2.7838566303253174,2.198509693145752,2.1366753578186035
1772713797583999700,2.221999755859375,2.7878239154815674,2.347381830215454,2.0915932655334473
1772713797593973800,2.231973876953125,2.8015804290771484,2.6528611183166504,2.0424258708953857
1772713797603947500,2.241947509765625,2.867824077606201,2.8573009967803955,1.906383991241455
1772713797613921500,2.251921630859375,3.0146842002868652,2.8121204376220703,1.7357481718063354
1772713797623896600,2.261896484375,3.1509172916412354,2.708300828933716,1.6348658800125122
1772713797633870600,2.27187060546875,3.2028892040252686,2.588578462600708,1.6206767559051514
1772713797643844600,2.2818447265625,3.174006223678589,2.3693525791168213,1.6373060941696167
1772713797653818600,2.291818603515625,3.1850757598876953,2.123386859893799,1.71195650100708
1772713797663792600,2.301792724609375,3.1988048553466797,2.030343770980835,1.818001389503479
1772713797673766700,2.3117666015625,3.164533853530884,1.9684263467788696,1.8571759462356567
1772713797683741700,2.32174169921875,3.1033971309661865,1.9202390909194946,1.812383770942688
1772713797693715500,2.331715576171875,3.009816884994507,1.8779457807540894,1.662090539932251
1772713797703689500,2.341689453125,2.8724827766418457,1.8727459907531738,1.4533671140670776
1772713797713663500,2.35166357421875,2.692279100418091,1.8055143356323242,1.179008960723877
1772713797723637500,2.361637451171875,2.4957268238067627,1.6676055192947388,0.8401549458503723
1772713797733611500,2.371611572265625,2.333681583404541,1.530376672744751,0.48173651099205017
1772713797743586600,2.381586669921875,2.2321791648864746,1.4122437238693237,0.1257549524307251
1772713797753560600,2.391560546875,2.1604106426239014,1.28998863697052,-0.23979689180850983
1772713797763534600,2.40153466796875,2.107351303100586,1.2573907375335693,-0.5501217246055603
1772713797773508600,2.411508544921875,2.096856117248535,1.4008870124816895,-0.7364748120307922
1772713797783482600,2.421482666015625,2.1300315856933594,1.6212971210479736,-0.8437488079071045
1772713797793456600,2.43145654296875,2.205514669418335,1.875934362411499,-0.8751735687255859
1772713797803431400,2.441431396484375,2.3084850311279297,2.1214237213134766,-0.8556046485900879
1772713797813405400,2.451405517578125,2.413797616958618,2.321204423904419,-0.8289350867271423
1772713797823379500,2.46137939453125,2.4998209476470947,2.428821086883545,-0.7834112644195557
1772713797833353500,2.471353515625,2.5019583702087402,2.369278907775879,-0.6773973703384399
1772713797843327500,2.481327392578125,2.436546802520752,2.1161890029907227,-0.5131253004074097
1772713797853302800,2.491302734375,2.397355794906616,1.7863678932189941,-0.26810914278030396
1772713797863276800,2.50127685546875,2.427194833755493,1.5305556058883667,0.017789995297789574
1772713797873250800,2.511250732421875,2.497121572494507,1.384854793548584,0.2784562110900879
1772713797883224800,2.521224853515625,2.5726430416107178,1.3082550764083862,0.45838868618011475
1772713797893198800,2.53119873046875,2.641124963760376,1.271150827407837,0.5591560006141663
1772713797903172600,2.541172607421875,2.6633992195129395,1.2598183155059814,0.6169530153274536
1772713797913146600,2.551146728515625,2.6014833450317383,1.2426472902297974,0.6902822852134705
1772713797923121700,2.56112158203125,2.4803926944732666,1.2067220211029053,0.831690788269043
1772713797933095700,2.571095703125,2.3626692295074463,1.1745511293411255,0.9664655923843384
1772713797943069700,2.581069580078125,2.269982099533081,1.168742060661316,1.0327612161636353
1772713797953043700,2.591043701171875,2.1789355278015137,1.219508171081543,1.0354695320129395
1772713797963017700,2.601017822265625,2.095017910003662,1.3284142017364502,0.9854984283447266
1772713797972991700,2.61099169921875,2.0276682376861572,1.4742298126220703,0.8860384225845337
1772713797982966800,2.620966796875,1.9818296432495117,1.6275099515914917,0.7473958730697632
1772713797992940500,2.6309404296875,1.9632818698883057,1.7967246770858765,0.5904651880264282
1772713798002914600,2.64091455078125,1.9499242305755615,1.970998764038086,0.4290722906589508
1772713798012888600,2.650888671875,1.911686897277832,2.0890135765075684,0.27938348054885864
1772713798022862600,2.660862548828125,1.8526691198349,2.129094123840332,0.13111944496631622
1772713798032837600,2.670837646484375,1.7775737047195435,2.0720176696777344,-0.01905364915728569
1772713798042811600,2.680811767578125,1.69900643825531,1.9450349807739258,-0.16080304980278015
1772713798052785700,2.69078564453125,1.6415319442749023,1.7867220640182495,-0.2377338856458664
1772713798062759700,2.700759765625,1.6022777557373047,1.6727361679077148,-0.19509880244731903
1772713798072733700,2.710733642578125,1.5658668279647827,1.5833942890167236,-0.09704247862100601
1772713798082707700,2.720707763671875,1.5261729955673218,1.4855241775512695,-0.01780332252383232
1772713798092682500,2.7306826171875,1.4703450202941895,1.4262831211090088,0.04120085388422012
1772713798102656500,2.740656494140625,1.3902357816696167,1.3873977661132812,0.0799274742603302
1772713798112630500,2.750630615234375,1.303375482559204,1.3807754516601562,0.07981368154287338
1772713798122604500,2.7606044921875,1.2304415702819824,1.380933403968811,0.03878023102879524
1772713798132578600,2.77057861328125,1.1539356708526611,1.3503440618515015,-0.03480440750718117
1772713798142552600,2.780552490234375,1.0831319093704224,1.3575308322906494,-0.0908793956041336
1772713798152527600,2.790527587890625,1.0125821828842163,1.374855637550354,-0.1378658562898636
1772713798162501600,2.800501708984375,0.9424920082092285,1.3796067237854004,-0.20801670849323273
1772713798172475600,2.8104755859375,0.893528401851654,1.3343603610992432,-0.2737109363079071
1772713798182449700,2.82044970703125,0.8717738389968872,1.292968511581421,-0.2974977493286133
1772713798192423700,2.830423583984375,0.8727540969848633,1.2790848016738892,-0.28777819871902466
1772713798202397700,2.840397705078125,0.862826943397522,1.2611366510391235,-0.27470871806144714
1772713798212372500,2.85037255859375,0.8396873474121094,1.233184814453125,-0.26072967052459717
1772713798222346500,2.860346435546875,0.8182854056358337,1.1981613636016846,-0.2922865152359009
1772713798232320500,2.870320556640625,0.8090055584907532,1.1480733156204224,-0.3682054877281189
1772713798242294500,2.88029443359375,0.8290466070175171,1.1339346170425415,-0.4396793842315674
1772713798252268500,2.8902685546875,0.8368914127349854,1.1683173179626465,-0.5266785621643066
1772713798262242600,2.90024267578125,0.8347068428993225,1.1637178659439087,-0.6497179269790649
1772713798272217600,2.910217529296875,0.8339625597000122,1.1003806591033936,-0.7676711082458496
1772713798282191600,2.920191650390625,0.8175830245018005,0.9990383386611938,-0.8760502934455872
1772713798292165600,2.93016552734375,0.7911039590835571,0.8464980721473694,-0.9660337567329407
1772713798302139600,2.9401396484375,0.7818161845207214,0.6686010360717773,-1.0371752977371216
1772713798312113400,2.950113525390625,0.778763473033905,0.5402801036834717,-1.0798510313034058
1772713798322087400,2.96008740234375,0.7654684782028198,0.4590504765510559,-1.0867233276367188
1772713798332062700,2.970062744140625,0.7727782130241394,0.40644317865371704,-1.0630956888198853
1772713798342036700,2.98003662109375,0.7779372930526733,0.3466794490814209,-1.0220451354980469
1772713798352010800,2.9900107421875,0.7600648403167725,0.33329111337661743,-0.9453576803207397
1772713798361984800,2.99998486328125,0.7099705338478088,0.3889754116535187,-0.8007743954658508
1772713798371958800,3.009958740234375,0.6853322386741638,0.3600383996963501,-0.6590133905410767
1772713798381932800,3.019932861328125,0.6594250202178955,0.3081198036670685,-0.5363391041755676
1772713798391907600,3.029907470703125,0.6066738963127136,0.2762024998664856,-0.3995717763900757
1772713798401881600,3.039881591796875,0.5457620620727539,0.2511615753173828,-0.25749242305755615
1772713798411855600,3.049855712890625,0.4857948422431946,0.23912350833415985,-0.12551464140415192
1772713798421829600,3.05982958984375,0.43672502040863037,0.24710234999656677,-0.015239258296787739
1772713798431803600,3.0698037109375,0.3990788459777832,0.26799193024635315,0.04748125746846199
1772713798441777700,3.079777587890625,0.3791392147541046,0.24514786899089813,0.05944923684000969
1772713798451752700,3.089752685546875,0.3960782587528229,0.16581521928310394,0.023273905739188194
1772713798461726700,3.099726806640625,0.41252702474594116,0.11265240609645844,-0.00993491429835558
1772713798471700700,3.10970068359375,0.3949824273586273,0.061026643961668015,-0.007212046533823013
1772713798481674800,3.1196748046875,0.3471482992172241,-0.009309569373726845,0.027735818177461624
1772713798491648800,3.129648681640625,0.2981892228126526,-0.07869041711091995,0.07090801745653152
1772713798501622800,3.139622802734375,0.24747197329998016,-0.034784749150276184,0.13713230192661285
1772713798511597600,3.14959765625,0.204069584608078,0.029327774420380592,0.16591882705688477
1772713798521571600,3.159571533203125,0.20488664507865906,0.024003051221370697,0.10530581325292587
1772713798531545600,3.169545654296875,0.20792734622955322,0.0668502002954483,0.01670977473258972
1772713798541519600,3.17951953125,0.20225614309310913,0.11986122280359268,-0.10370505601167679
1772713798551493600,3.18949365234375,0.17978958785533905,0.15920522809028625,-0.289204478263855
1772713798561467600,3.199467529296875,0.13189131021499634,0.12579479813575745,-0.5642040967941284
1772713798571442700,3.209442626953125,0.06311993300914764,0.11486438661813736,-0.8888900876045227
1772713798581416700,3.219416748046875,0.0029484685510396957,0.09201046824455261,-1.229893445968628
1772713798591390700,3.229390625,0.0626869648694992,0.041477810591459274,-1.528530240058899
1772713798601364700,3.23936474609375,-0.12795329093933105,0.09169038385152817,-1.7645666599273682
1772713798611338500,3.24933837890625,-0.2547420561313629,0.1384669691324234,-1.8258188962936401
1772713798621312500,3.2593125,-0.17578868567943573,0.16959026455879211,-1.7604327201843262
1772713798631287600,3.26928759765625,-0.0036094372626394033,0.19805334508419037,-1.5759942531585693
1772713798641261600,3.279261474609375,0.1813976913690567,0.2724737823009491,-1.3393473625183105
1772713798651235600,3.289235595703125,0.3148643374443054,0.29663342237472534,-1.055572748184204
1772713798661209600,3.299209716796875,0.41678887605667114,0.18696337938308716,-0.7230201363563538
1772713798671183600,3.30918359375,0.49755072593688965,0.06052602082490921,-0.36002784967422485
1772713798681157600,3.31915771484375,0.5068851113319397,-0.07455883175134659,0.03312183916568756
1772713798691132700,3.329132568359375,0.47692906856536865,-0.3494678735733032,0.3644455671310425
1772713798701106400,3.3391064453125,0.5822957158088684,-0.7709016799926758,0.6930248141288757
1772713798711080400,3.34908056640625,0.5397303104400635,-0.8070645332336426,0.8106781244277954
1772713798721054500,3.359054443359375,0.4513644576072693,-0.8317839503288269,0.8634012937545776
1772713798731028500,3.369028564453125,0.4292253851890564,-0.7953668832778931,0.8669907450675964
1772713798741002500,3.37900244140625,0.5583210587501526,-0.7157878875732422,0.8073641657829285
1772713798750977500,3.3889775390625,0.6800026893615723,-0.595849871635437,0.6273900866508484
1772713798760951600,3.39895166015625,0.6983348727226257,-0.28623825311660767,0.4355181157588959
1772713798770925600,3.408925537109375,0.6927751302719116,0.010409743525087833,0.18070176243782043
1772713798780899600,3.418899658203125,0.6917052865028381,0.15397728979587555,-0.09957809746265411
1772713798790873600,3.42887353515625,0.6748701333999634,0.25545012950897217,-0.33426743745803833
1772713798800847600,3.43884765625,0.6539219617843628,0.3239636719226837,-0.5258824229240417
1772713798810822400,3.448822509765625,0.629899799823761,0.37502995133399963,-0.6782504916191101
1772713798820796400,3.45879638671875,0.5814462304115295,0.4100193381309509,-0.7866238355636597
1772713798830770400,3.4687705078125,0.4894217550754547,0.44002997875213623,-0.876522958278656
1772713798840744400,3.478744384765625,0.3812212646007538,0.4715418219566345,-0.9440380334854126
1772713798850718500,3.488718505859375,0.28725096583366394,0.519571840763092,-0.982940137386322
1772713798860692500,3.4986923828125,0.21694909036159515,0.5750588178634644,-1.0132811069488525
1772713798870667800,3.508667724609375,0.18303942680358887,0.6406902074813843,-1.0254024267196655
1772713798880641500,3.5186416015625,0.1795235127210617,0.6990600824356079,-1.0292457342147827
1772713798890615600,3.528615478515625,0.20802170038223267,0.7331787347793579,-1.0148245096206665
1772713798900589600,3.538589599609375,0.25809526443481445,0.7264321446418762,-0.9745510816574097
1772713798910563600,3.5485634765625,0.31631502509117126,0.6998155117034912,-0.9050723910331726
1772713798920537300,3.558537353515625,0.3829236328601837,0.6457128524780273,-0.8214550018310547
1772713798930511400,3.568511474609375,0.44598594307899475,0.5499686598777771,-0.7431847453117371
1772713798940486700,3.578486572265625,0.4940946102142334,0.4435761570930481,-0.6608443260192871
1772713798950460700,3.588460693359375,0.5416568517684937,0.33498844504356384,-0.5854547619819641
1772713798960434700,3.5984345703125,0.5965837240219116,0.21868102252483368,-0.5035108923912048
1772713798970408700,3.60840869140625,0.669249415397644,0.10269369930028915,-0.41600558161735535
1772713798980382700,3.6183828125,0.7483013868331909,-0.01653202809393406,-0.32091420888900757
1772713798990356700,3.628356689453125,0.819739043712616,-0.12145516276359558,-0.2047848254442215
1772713799000331500,3.63833154296875,0.88960200548172,-0.20028287172317505,-0.0689990371465683
1772713799010305500,3.648305419921875,0.95094233751297,-0.24451196193695068,0.07580599188804626
1772713799020279600,3.658279541015625,1.0033576488494873,-0.29180437326431274,0.22150833904743195
1772713799030253600,3.668253662109375,1.0374045372009277,-0.35015878081321716,0.3555777668952942
1772713799040227600,3.6782275390625,1.0558972358703613,-0.4178725779056549,0.4813537895679474
1772713799050201600,3.68820166015625,1.0510170459747314,-0.4766071140766144,0.5957047939300537
1772713799060176600,3.6981767578125,1.0270605087280273,-0.5233136415481567,0.6924947500228882
1772713799070150700,3.708150634765625,0.9995340704917908,-0.5651007294654846,0.75050288438797
1772713799080124700,3.718124755859375,0.958040177822113,-0.5928125381469727,0.7709335684776306
1772713799090098700,3.7280986328125,0.8995609879493713,-0.6016756296157837,0.7621037364006042
1772713799100072700,3.73807275390625,0.8292894959449768,-0.5976889133453369,0.7208359241485596
1772713799110046700,3.748046630859375,0.752845287322998,-0.5658141374588013,0.6429957747459412
1772713799120021500,3.758021484375,0.6898082494735718,-0.5141535997390747,0.5387226343154907
1772713799129995500,3.76799560546875,0.6453618407249451,-0.4378553032875061,0.42834633588790894
1772713799139969500,3.777969482421875,0.6004154086112976,-0.35928672552108765,0.32204413414001465
1772713799149943600,3.787943603515625,0.5622890591621399,-0.262457937002182,0.2238781601190567
1772713799159917600,3.79791748046875,0.530305027961731,-0.16207009553909302,0.1262274980545044
1772713799169891600,3.8078916015625,0.5113199949264526,-0.06349381804466248,0.036047179251909256
1772713799179866600,3.81786669921875,0.502842128276825,0.01706068031489849,-0.0590556375682354
1772713799189840600,3.827840576171875,0.4941008687019348,0.05369196832180023,-0.1688823401927948
1772713799199814700,3.837814697265625,0.48776254057884216,0.0643954798579216,-0.28794270753860474
1772713799209788700,3.84778857421875,0.4725881814956665,0.03651272878050804,-0.39806419610977173
1772713799219762700,3.8577626953125,0.44931429624557495,-0.00510608684271574,-0.49527010321617126
1772713799229736400,3.867736328125,0.4048464000225067,-0.04351871460676193,-0.5847712159156799
1772713799239711500,3.87771142578125,0.37883156538009644,-0.07039959728717804,-0.6543854475021362
1772713799249685500,3.887685546875,0.38306906819343567,-0.08582723885774612,-0.7146182656288147
1772713799259659500,3.897659423828125,0.3974754512310028,-0.09684153646230698,-0.7661378979682922
1772713799269633500,3.907633544921875,0.42268815636634827,-0.10616350919008255,-0.8002516031265259
1772713799279607600,3.917607666015625,0.45899927616119385,-0.09474600851535797,-0.8031845688819885
1772713799289581600,3.92758154296875,0.4925629496574402,-0.08045261353254318,-0.779727578163147
1772713799299556600,3.937556640625,0.5180302262306213,-0.08450088649988174,-0.7302985191345215
1772713799309530600,3.947530517578125,0.5412835478782654,-0.08444525301456451,-0.6221779584884644
1772713799319504400,3.95750439453125,0.5596995949745178,-0.0558016262948513,-0.4426897168159485
1772713799329478400,3.967478515625,0.5485368371009827,-0.02448848821222782,-0.23104052245616913
1772713799339452400,3.977452392578125,0.5114081501960754,-0.03704502806067467,-0.038930464535951614
1772713799349426400,3.987426513671875,0.4758099615573883,-0.10023317486047745,0.09607238322496414
1772713799359400400,3.997400390625,0.4468131959438324,-0.17855088412761688,0.18179233372211456
1772713799369375500,4.00737548828125,0.4279618263244629,-0.2759137451648712,0.2368880659341812
1772713799379349500,4.017349609375,0.3967916667461395,-0.359053373336792,0.2971554100513458
1772713799389323500,4.027323486328125,0.3511299192905426,-0.3890852928161621,0.3719037175178528
1772713799399297500,4.037297607421875,0.29343652725219727,-0.3809346854686737,0.4351383447647095
1772713799409271600,4.047271484375,0.2266288846731186,-0.3508760631084442,0.46220484375953674
1772713799419245600,4.05724560546875,0.16508430242538452,-0.2983614504337311,0.44687408208847046
1772713799429220600,4.067220703125,0.12201149016618729,-0.2122504860162735,0.42011287808418274
1772713799439194600,4.077194580078125,0.11033432185649872,-0.10438207536935806,0.41853976249694824
1772713799449168600,4.087168701171875,0.09120724350214005,-0.01610586978495121,0.4253653585910797
1772713799459142700,4.097142578125,0.05808790773153305,0.013190766796469688,0.40963059663772583
1772713799469116700,4.10711669921875,0.011263460852205753,-0.00415278784930706,0.3642580211162567
1772713799479090700,4.117090576171875,-0.03887321054935455,-0.05279356241226196,0.3226921856403351
1772713799489065700,4.127065673828125,-0.10387842357158661,-0.13738347589969635,0.26655545830726624
1772713799499039200,4.137039306640625,-0.17210035026073456,-0.23200026154518127,0.20573468506336212
1772713799509013200,4.14701318359375,-0.2316189408302307,-0.2826164960861206,0.15732260048389435
1772713799518987300,4.1569873046875,-0.2828720211982727,-0.2727060616016388,0.14277054369449615
1772713799528961300,4.166961181640625,-0.33732011914253235,-0.20176002383232117,0.16717442870140076
1772713799538935300,4.176935302734375,-0.385393351316452,-0.07957019656896591,0.23755139112472534
1772713799548910000,4.18691015625,-0.42137765884399414,0.07107994705438614,0.3517279326915741
1772713799558884000,4.196884033203125,-0.4401380121707916,0.20486518740653992,0.49867212772369385
1772713799568858000,4.206858154296875,-0.4353727400302887,0.2647119164466858,0.6480320692062378
1772713799578832100,4.21683203125,-0.41012197732925415,0.26248711347579956,0.7896326184272766
1772713799588806100,4.22680615234375,-0.37504908442497253,0.21286702156066895,0.915614128112793
1772713799598780200,4.2367802734375,-0.34870320558547974,0.14222241938114166,1.0139719247817993
1772713799608754200,4.246754150390625,-0.3376709520816803,0.07057703286409378,1.071197509765625
1772713799618729200,4.256729248046875,-0.3272944986820221,0.010850585997104645,1.080324411392212
1772713799628703200,4.266703125,-0.3008236885070801,-0.029519306495785713,1.065023422241211
1772713799638677200,4.27667724609375,-0.2629660665988922,-0.029366174712777138,1.0523475408554077
1772713799648651000,4.286651123046875,-0.2197478860616684,-0.007978533394634724,1.026846170425415
1772713799658625000,4.296625,-0.16514748334884644,0.01794281415641308,0.9708691239356995
1772713799668599000,4.30659912109375,-0.10407190024852753,0.041035208851099014,0.8903775811195374
1772713799678574000,4.316573974609375,-0.034613464027643204,0.062465399503707886,0.8009973764419556
1772713799688548000,4.326548095703125,0.046785131096839905,0.04520246759057045,0.7148059606552124
1772713799698522000,4.336522216796875,0.09075898677110672,0.03557806834578514,0.649158775806427
1772713799708496100,4.34649609375,0.10880900919437408,-0.03519029542803764,0.5758484601974487
1772713799718470100,4.35647021484375,0.1156994104385376,-0.15874259173870087,0.46193066239356995
1772713799728444200,4.366444091796875,0.09883787482976913,-0.2733570635318756,0.3272940218448639
1772713799738419200,4.376419189453125,0.0710829421877861,-0.33458659052848816,0.18681202828884125
1772713799748393200,4.386393310546875,0.04710650444030762,-0.3214143216609955,0.09567385166883469
1772713799758367200,4.3963671875,0.0405798964202404,-0.22100330889225006,0.08301424980163574
1772713799768341200,4.40634130859375,0.05549087002873421,-0.08085619658231735,0.11344260722398758
1772713799778315300,4.416315185546875,0.08914097398519516,0.07845542579889297,0.17834463715553284
1772713799788289300,4.426289306640625,0.13349796831607819,0.22377169132232666,0.2635168731212616
1772713799798264300,4.436264404296875,0.1826721727848053,0.32730525732040405,0.3495737314224243
1772713799808238300,4.44623828125,0.22648181021213531,0.3841352164745331,0.4205515384674072
1772713799818212400,4.45621240234375,0.2606099545955658,0.400058776140213,0.4586789608001709
1772713799828186400,4.466186279296875,0.28885316848754883,0.380876749753952,0.4640457332134247
1772713799838160400,4.476160400390625,0.304681658744812,0.33545997738838196,0.44919222593307495
1772713799848134400,4.486134521484375,0.32324838638305664,0.3018170893192291,0.43238675594329834
1772713799858108200,4.496108154296875,0.34702908992767334,0.293011337518692,0.39703088998794556
1772713799868083200,4.506083251953125,0.3805915415287018,0.30313852429389954,0.333222895860672
1772713799878057200,4.51605712890625,0.42227718234062195,0.33472758531570435,0.25299781560897827
1772713799888031200,4.52603125,0.47946932911872864,0.38029077649116516,0.17082391679286957
1772713799898005200,4.536005126953125,0.5282469987869263,0.42631179094314575,0.08721531927585602
1772713799907979300,4.545979248046875,0.5742277503013611,0.4710889458656311,0.01053515076637268
1772713799917953300,4.555953369140625,0.6079473495483398,0.4966723620891571,-0.06902465224266052
1772713799927928300,4.56592822265625,0.6230711936950684,0.49787700176239014,-0.1508861631155014
1772713799937902300,4.57590234375,0.6222783327102661,0.4897037744522095,-0.2232850044965744
1772713799947876000,4.5858759765625,0.6159821152687073,0.46961265802383423,-0.3077012002468109
1772713799957850000,4.59585009765625,0.6003557443618774,0.44809749722480774,-0.4025645852088928
1772713799967824100,4.60582421875,0.5798933506011963,0.4517289996147156,-0.5039317011833191
1772713799977798100,4.615798095703125,0.5585514903068542,0.47363612055778503,-0.6211421489715576
1772713799987773200,4.625773193359375,0.5338670015335083,0.5087146759033203,-0.7398971319198608
1772713799997747200,4.635747314453125,0.511769711971283,0.5387162566184998,-0.851438045501709
1772713800007721200,4.64572119140625,0.5084465146064758,0.5593552589416504,-0.9362736940383911
1772713800017695200,4.6556953125,0.522184431552887,0.5726015567779541,-0.9870399832725525
1772713800027669200,4.665669189453125,0.5516469478607178,0.5600405931472778,-1.0167063474655151
1772713800037643300,4.675643310546875,0.5949081182479858,0.5085297226905823,-1.0298773050308228
1772713800047618000,4.6856181640625,0.6453940272331238,0.4234556257724762,-1.0181043148040771
1772713800057592000,4.695592041015625,0.6891611814498901,0.31606659293174744,-0.970457911491394
1772713800067566000,4.705566162109375,0.7435348629951477,0.1991424560546875,-0.8853322863578796
1772713800077540000,4.7155400390625,0.8050147294998169,0.09915779531002045,-0.7826051115989685
1772713800087514000,4.72551416015625,0.8481273651123047,0.016060030087828636,-0.6553261280059814
1772713800097488100,4.735488037109375,0.8587912321090698,-0.03685964271426201,-0.5200205445289612
1772713800107462100,4.745462158203125,0.8480467796325684,-0.0791223794221878,-0.38502275943756104
1772713800117437200,4.755437255859375,0.8262799382209778,-0.11119216680526733,-0.251725971698761
1772713800127411200,4.7654111328125,0.7924466729164124,-0.14283739030361176,-0.1423938274383545
1772713800137385200,4.77538525390625,0.7543853521347046,-0.18388576805591583,-0.07752562314271927
1772713800147359200,4.785359130859375,0.7005921006202698,-0.22780227661132812,-0.03675913065671921
1772713800157333200,4.795333251953125,0.6283866167068481,-0.2529086768627167,-0.020084543153643608
1772713800167307300,4.805307373046875,0.5468554496765137,-0.2512245178222656,-0.010160662233829498
1772713800177281000,4.815281005859375,0.4626726806163788,-0.24347926676273346,0.006252399645745754
1772713800187256000,4.825256103515625,0.3723936975002289,-0.22884409129619598,0.013638925738632679
1772713800197230000,4.83522998046875,0.2754746079444885,-0.17656037211418152,0.010452719405293465
1772713800207204000,4.8452041015625,0.18120557069778442,-0.08355723321437836,0.011058205738663673
1772713800217178000,4.85517822265625,0.10824908316135406,0.012298721820116043,0.009668035432696342
1772713800227152100,4.865152099609375,0.06685225665569305,0.07766222953796387,0.001124309841543436
1772713800237126100,4.875126220703125,0.03867601975798607,0.08084071427583694,0.0024670755956321955
1772713800247101200,4.88510107421875,0.005665457807481289,0.01647363416850567,0.02120983973145485
1772713800257075200,4.8950751953125,-0.033678218722343445,-0.09001924842596054,0.08136319369077682
1772713800267049200,4.90504931640625,-0.07612265646457672,-0.20985791087150574,0.18693116307258606
1772713800277023200,4.915023193359375,-0.11266814917325974,-0.32474589347839355,0.32035231590270996
1772713800286997200,4.924997314453125,-0.15066076815128326,-0.41291022300720215,0.4583999514579773
1772713800296971300,4.93497119140625,-0.17053060233592987,-0.5077843070030212,0.5542473793029785
1772713800306946300,4.9449462890625,-0.17178213596343994,-0.5813688039779663,0.5988737344741821
1772713800316920300,4.95492041015625,-0.15059323608875275,-0.6438716053962708,0.5776342153549194
1772713800326894300,4.964894287109375,-0.154192253947258,-0.7257581353187561,0.4671376645565033
1772713800336868400,4.974868408203125,-0.190617635846138,-0.7916241884231567,0.29041430354118347
1772713800346842400,4.98484228515625,-0.2550891637802124,-0.7885352373123169,0.08644170314073563
1772713800356816400,4.99481640625,-0.3056436777114868,-0.6990290880203247,-0.12316771596670151
1772713800366791200,5.004791259765625,-0.32489991188049316,-0.5557228922843933,-0.30976974964141846
1772713800376765200,5.01476513671875,-0.3022952675819397,-0.3840411305427551,-0.4082622528076172
1772713800386739200,5.0247392578125,-0.23975783586502075,-0.22054460644721985,-0.3862570822238922
1772713800396713200,5.034713134765625,-0.17144162952899933,-0.09555739164352417,-0.22876279056072235
1772713800406687200,5.044687255859375,-0.09308334439992905,-0.05488169565796852,0.035765912383794785
1772713800416661200,5.0546611328125,-0.038558315485715866,-0.11741112172603607,0.37762126326560974
1772713800426635300,5.06463525390625,-0.03173767402768135,-0.22462411224842072,0.7534208297729492
1772713800436610300,5.0746103515625,-0.07443825900554657,-0.3587014973163605,1.1036502122879028
1772713800446584300,5.084584228515625,-0.14006547629833221,-0.5091273188591003,1.3800420761108398
1772713800456558300,5.094558349609375,-0.17959797382354736,-0.6377164721488953,1.551345944404602
1772713800466532400,5.104532470703125,-0.17168183624744415,-0.7001165151596069,1.6329740285873413
1772713800476506000,5.114506103515625,-0.11872222274541855,-0.6933246850967407,1.633378028869629
1772713800486480100,5.124480224609375,-0.04038658365607262,-0.6107624173164368,1.5549260377883911
1772713800496455400,5.134455322265625,0.052652280777692795,-0.4406055510044098,1.4103049039840698
1772713800506429400,5.144429443359375,0.15423716604709625,-0.23403270542621613,1.2395930290222168
1772713800516403500,5.154403564453125,0.2476123869419098,0.014835435897111893,1.1086622476577759
1772713800526377500,5.16437744140625,0.35659730434417725,0.32217666506767273,1.0747218132019043
1772713800536351500,5.1743515625,0.48104149103164673,0.6408870220184326,1.1352481842041016
1772713800546325500,5.184325439453125,0.5917643308639526,0.8759648203849792,1.2136762142181396
1772713800556299500,5.194299560546875,0.6623556613922119,0.972744345664978,1.2808810472488403
1772713800566274300,5.2042744140625,0.6893581748008728,0.9575172066688538,1.3489880561828613
1772713800576248300,5.214248291015625,0.6647092700004578,0.8518664240837097,1.4031918048858643
1772713800586222300,5.224222412109375,0.5806036591529846,0.7012545466423035,1.4336938858032227
1772713800596196400,5.2341962890625,0.4709205627441406,0.5446697473526001,1.4462946653366089
1772713800606170400,5.24417041015625,0.3594260811805725,0.4219782054424286,1.4604589939117432
1772713800616144400,5.254144287109375,0.264536589384079,0.36544302105903625,1.460173487663269
1772713800626119400,5.264119384765625,0.19463352859020233,0.3730824887752533,1.4287725687026978
1772713800636093400,5.274093505859375,0.1562965363264084,0.4442877173423767,1.381761908531189
1772713800646067500,5.2840673828125,0.1524534374475479,0.5636158585548401,1.337815284729004
1772713800656041500,5.29404150390625,0.16079393029212952,0.7022594809532166,1.2864447832107544
1772713800666015500,5.304015380859375,0.17015524208545685,0.8389084339141846,1.2188748121261597
1772713800675989500,5.313989501953125,0.19261129200458527,0.9561026692390442,1.12921941280365
1772713800685961500,5.32396142578125,0.23260383307933807,1.0179574489593506,1.0262600183486938
1772713800695935500,5.333935546875,0.26784491539001465,1.0255836248397827,0.9098209142684937
1772713800705909500,5.343909423828125,0.30949848890304565,0.9949434399604797,0.7871658802032471
1772713800715884500,5.353884521484375,0.36703288555145264,0.9296709299087524,0.649236798286438
1772713800725858600,5.363858642578125,0.4491671621799469,0.8825114369392395,0.5195969939231873
1772713800735832600,5.37383251953125,0.5591663122177124,0.8790075182914734,0.41866448521614075
1772713800745806300,5.383806396484375,0.6798361539840698,0.8954812288284302,0.3482905626296997
1772713800755780400,5.3937802734375,0.8037444949150085,0.907439649105072,0.2913857400417328
1772713800765754400,5.40375439453125,0.9357851147651672,0.9082835912704468,0.2436915785074234
1772713800775729400,5.4137294921875,1.0379533767700195,0.8683188557624817,0.21110540628433228
1772713800785703400,5.423703369140625,1.1002261638641357,0.7654129862785339,0.20560549199581146
1772713800795677400,5.433677490234375,1.11635160446167,0.6305848956108093,0.2321191281080246
1772713800805651500,5.4436513671875,1.0975995063781738,0.5069181323051453,0.29646068811416626
1772713800815625500,5.45362548828125,1.0535252094268799,0.40103113651275635,0.3845580518245697
1772713800825599500,5.463599609375,1.0144927501678467,0.33627399802207947,0.4631393551826477
1772713800835573500,5.473573486328125,0.9973030686378479,0.3041040599346161,0.5132461786270142
1772713800845548300,5.48354833984375,0.9876707196235657,0.2806209921836853,0.5231429934501648
1772713800855522300,5.493522216796875,0.9935110211372375,0.2836245000362396,0.5165308713912964
1772713800865496300,5.503496337890625,1.0714328289031982,0.39415156841278076,0.5675314664840698
1772713800875470300,5.51347021484375,1.199959635734558,0.5933623909950256,0.6770249605178833
1772713800885444400,5.5234443359375,1.292843222618103,0.7352258563041687,0.7698307633399963
1772713800895418400,5.53341845703125,1.3333914279937744,0.8023620247840881,0.8158227801322937
1772713800905393400,5.543393310546875,1.3269919157028198,0.8394121527671814,0.8215115666389465
1772713800915367400,5.553367431640625,1.2795705795288086,0.8361939787864685,0.7929249405860901
1772713800925341400,5.563341552734375,1.250524640083313,0.8136486411094666,0.7580367922782898
1772713800935315500,5.5733154296875,1.268817663192749,0.8175193071365356,0.7252101302146912
1772713800945289500,5.58328955078125,1.3231035470962524,0.8340722918510437,0.6804609894752502
1772713800955263500,5.593263427734375,1.3939741849899292,0.8281891345977783,0.6165437698364258
1772713800965237500,5.603237548828125,1.4686036109924316,0.8119625449180603,0.5436594486236572
1772713800975212300,5.61321240234375,1.5404229164123535,0.7593289017677307,0.4841093122959137
1772713800985186300,5.623186279296875,1.6285723447799683,0.6784688830375671,0.4956163465976715
1772713800995160300,5.633160400390625,1.7160769701004028,0.6385492086410522,0.6050328016281128
1772713801005134300,5.64313427734375,1.7712634801864624,0.6111721396446228,0.7807303667068481
1772713801015108400,5.6531083984375,1.8055812120437622,0.5628834366798401,0.9465025067329407
1772713801025082400,5.663082275390625,1.8496119976043701,0.5217037796974182,1.0781956911087036
1772713801035057700,5.6730576171875,1.9104840755462646,0.5148866176605225,1.1586130857467651
1772713801045031400,5.683031494140625,1.9646003246307373,0.5052729249000549,1.1858950853347778
1772713801055005400,5.69300537109375,2.007704496383667,0.5002331137657166,1.1918083429336548
1772713801064979500,5.7029794921875,2.042008638381958,0.5124408006668091,1.2072718143463135
1772713801074953500,5.712953369140625,2.046663761138916,0.5165473818778992,1.2333931922912598
1772713801084927500,5.722927490234375,2.0408685207366943,0.5730403065681458,1.3012813329696655
1772713801094901500,5.732901611328125,2.0221495628356934,0.7097933292388916,1.347727656364441
1772713801104876500,5.74287646484375,1.984683871269226,0.8645259737968445,1.3040673732757568
1772713801114850600,5.7528505859375,1.9481120109558105,1.0414178371429443,1.2007780075073242
1772713801124824600,5.762824462890625,1.9213420152664185,1.2493770122528076,1.1016095876693726
1772713801134798600,5.772798583984375,1.909104824066162,1.4434312582015991,0.9989575743675232
1772713801144772600,5.782772705078125,1.8961397409439087,1.5422148704528809,0.8922790288925171
1772713801154746600,5.79274658203125,1.8909921646118164,1.5638296604156494,0.8215587735176086
1772713801164720600,5.802720703125,1.8907039165496826,1.5112383365631104,0.7936034202575684
1772713801174695400,5.8126953125,1.899628758430481,1.384751558303833,0.8095962405204773
1772713801184669400,5.82266943359375,1.9129672050476074,1.2167763710021973,0.8567678928375244
1772713801194643500,5.8326435546875,1.8677219152450562,1.0289177894592285,0.9207236766815186
1772713801204617500,5.842617431640625,1.7740169763565063,0.8032045364379883,1.008929967880249
1772713801214591500,5.852591552734375,1.674149751663208,0.6067999005317688,1.1118377447128296
1772713801224565500,5.8625654296875,1.5855265855789185,0.4792037904262543,1.1769497394561768
1772713801234540500,5.87254052734375,1.5268670320510864,0.44148969650268555,1.1706321239471436
1772713801244514600,5.8825146484375,1.5268943309783936,0.5045307278633118,1.1121033430099487
1772713801254488600,5.892488525390625,1.5546849966049194,0.6311451196670532,1.0275743007659912
1772713801264462600,5.902462646484375,1.5675808191299438,0.7681105732917786,0.9312474727630615
1772713801274436400,5.912436279296875,1.5506540536880493,0.8782447576522827,0.861413836479187
1772713801284410400,5.922410400390625,1.4965120553970337,0.9490407705307007,0.8201469779014587
1772713801294384400,5.93238427734375,1.4078466892242432,0.9642194509506226,0.7962301969528198
1772713801304359400,5.942359375,1.2463452816009521,1.001490831375122,0.7983512282371521
1772713801314333400,5.95233349609375,1.2083745002746582,0.8808763027191162,0.7910611033439636
1772713801324309200,5.962309326171875,1.1813546419143677,0.7124761343002319,0.770739734172821
1772713801334283300,5.972283203125,1.0983718633651733,0.6942062973976135,0.7039665579795837
1772713801344258600,5.982258544921875,1.020196557044983,0.7521451711654663,0.6019797325134277
1772713801354232600,5.992232666015625,0.9710077047348022,0.8074396252632141,0.4738348126411438
1772713801364206600,6.00220654296875,0.9126291275024414,0.8754020929336548,0.3139927089214325
1772713801374180600,6.0121806640625,0.8349204659461975,0.9336883425712585,0.14267900586128235
1772713801384154600,6.022154541015625,0.7607916593551636,0.929350733757019,-0.020082002505660057
1772713801394128600,6.032128662109375,0.6949045062065125,0.8866562843322754,-0.1635315716266632
1772713801404102700,6.0421025390625,0.6214040517807007,0.822083592414856,-0.29063695669174194
1772713801414077400,6.052077392578125,0.5430479645729065,0.7343271374702454,-0.4314899444580078
1772713801424051500,6.062051513671875,0.45893269777297974,0.5954714417457581,-0.5839956402778625
1772713801434025500,6.072025390625,0.3844776451587677,0.44606196880340576,-0.6936481595039368
1772713801443999500,6.08199951171875,0.3450488746166229,0.34464165568351746,-0.7679722309112549
1772713801453973500,6.091973388671875,0.33297115564346313,0.27191632986068726,-0.8265239596366882
1772713801463947500,6.101947509765625,0.34357956051826477,0.22996391355991364,-0.8725411891937256
1772713801473921500,6.111921630859375,0.36973074078559875,0.20913000404834747,-0.9042226672172546
1772713801483896600,6.121896484375,0.392721563577652,0.189370259642601,-0.9188228845596313
1772713801493870600,6.13187060546875,0.40677690505981445,0.1121649518609047,-0.9152513146400452
1772713801503844600,6.1418447265625,0.43385714292526245,0.005352209787815809,-0.8523896932601929
1772713801513818600,6.151818603515625,0.48375654220581055,-0.11545144021511078,-0.7555249333381653
1772713801523792400,6.16179248046875,0.5417899489402771,-0.2023308426141739,-0.6445885300636292
1772713801533766400,6.171766357421875,0.5939309597015381,-0.25591790676116943,-0.5431929230690002
1772713801543740400,6.181740478515625,0.6380376815795898,-0.29494842886924744,-0.4690874218940735
1772713801553715500,6.191715576171875,0.6544882655143738,-0.31078943610191345,-0.4080272614955902
1772713801563689500,6.201689453125,0.6517308354377747,-0.3268410563468933,-0.36502504348754883
1772713801573663500,6.21166357421875,0.624800443649292,-0.3599358797073364,-0.31237754225730896
1772713801583637500,6.221637451171875,0.5837339162826538,-0.35779690742492676,-0.260221004486084
1772713801593611500,6.231611572265625,0.53545743227005,-0.3040655255317688,-0.24359941482543945
1772713801603585500,6.24158544921875,0.48769888281822205,-0.2094106525182724,-0.2577357590198517
1772713801613560300,6.251560302734375,0.4368487596511841,-0.08539843559265137,-0.29119357466697693
1772713801623534300,6.261534423828125,0.3824785053730011,0.02788272686302662,-0.3427293002605438
1772713801633508400,6.27150830078125,0.348377525806427,0.10468056797981262,-0.3794010281562805
1772713801643482400,6.281482421875,0.3262908160686493,0.1543184071779251,-0.39865487813949585
1772713801653456400,6.291456298828125,0.3185756504535675,0.16715936362743378,-0.38509753346443176
1772713801663430400,6.301430419921875,0.3227638006210327,0.1641809344291687,-0.34611791372299194
1772713801673404400,6.311404296875,0.3360756039619446,0.1427651345729828,-0.29313167929649353
1772713801683379500,6.32137939453125,0.35008877515792847,0.12264005839824677,-0.2375062108039856
1772713801693353500,6.331353515625,0.3724263310432434,0.11164147406816483,-0.18305468559265137
1772713801703327500,6.341327392578125,0.3942427635192871,0.10769829899072647,-0.14846040308475494
1772713801713301500,6.351301513671875,0.41762131452560425,0.10148967057466507,-0.11530990153551102
1772713801723275500,6.361275634765625,0.43853503465652466,0.10258687287569046,-0.09279222786426544
1772713801733249500,6.37124951171875,0.4602033197879791,0.11707925796508789,-0.06301994621753693
1772713801743223600,6.3812236328125,0.48782816529273987,0.14106136560440063,-0.036702822893857956
1772713801753198300,6.3911982421875,0.502505898475647,0.16266998648643494,-0.006646123249083757
1772713801763172400,6.40117236328125,0.5050795674324036,0.18165059387683868,0.01811394654214382
1772713801773146400,6.411146484375,0.49185723066329956,0.2025284469127655,0.04351810738444328
1772713801783120400,6.421120361328125,0.4649019241333008,0.2269188016653061,0.04323531687259674
1772713801793094400,6.431094482421875,0.4367389976978302,0.27532896399497986,0.06293658167123795
1772713801803068400,6.441068359375,0.4080597162246704,0.3545387089252472,0.09360694140195847
1772713801813042400,6.45104248046875,0.36982443928718567,0.4538932740688324,0.10917897522449493
1772713801823017500,6.461017578125,0.31951257586479187,0.5415593981742859,0.0965210422873497
1772713801832991500,6.470991455078125,0.2726505398750305,0.6316969990730286,0.09168500453233719
1772713801842965200,6.48096533203125,0.24777765572071075,0.7233551144599915,0.08714891225099564
1772713801852939300,6.490939208984375,0.25399452447891235,0.7827920913696289,0.07420089095830917
1772713801862913300,6.500913330078125,0.27443891763687134,0.7928464412689209,0.055772580206394196
1772713801872887300,6.51088720703125,0.30159464478492737,0.7516859769821167,0.052032165229320526
1772713801882862600,6.520862548828125,0.3197823166847229,0.6558014750480652,0.06548602879047394
1772713801892836600,6.530836669921875,0.3336493968963623,0.5160468220710754,0.08866219222545624
1772713801902810400,6.540810302734375,0.3325050175189972,0.35582101345062256,0.10665470361709595
1772713801912784400,6.550784423828125,0.3257448375225067,0.23746666312217712,0.1317477971315384
1772713801922758400,6.56075830078125,0.3254053294658661,0.19027277827262878,0.15088528394699097
1772713801932732400,6.570732421875,0.3425520956516266,0.2053593099117279,0.17385052144527435
1772713801942706400,6.58070654296875,0.3703674376010895,0.2617361843585968,0.21449309587478638
1772713801952681500,6.590681396484375,0.402681440114975,0.35917913913726807,0.27203094959259033
1772713801962655500,6.600655517578125,0.4093768000602722,0.4428413510322571,0.32622137665748596
1772713801972629500,6.61062939453125,0.4047892391681671,0.49312928318977356,0.41030430793762207
1772713801982603500,6.620603515625,0.3879421651363373,0.5334060192108154,0.5103185772895813
1772713801992577500,6.63057763671875,0.3674866855144501,0.5621950626373291,0.5879366993904114
1772713802002551600,6.640551513671875,0.3434019982814789,0.5709238052368164,0.6090298295021057
1772713802012525600,6.650525634765625,0.32956022024154663,0.5935513377189636,0.5769690871238708
1772713802022500600,6.66050048828125,0.3215183615684509,0.6492428779602051,0.4930934011936188
1772713802032474600,6.670474609375,0.2966441810131073,0.707313597202301,0.3880671262741089
1772713802042448600,6.68044873046875,0.26760414242744446,0.7585898041725159,0.30624812841415405
1772713802052422400,6.69042236328125,0.25883620977401733,0.8095192909240723,0.24117805063724518
1772713802062396400,6.700396484375,0.2659620940685272,0.8373891711235046,0.1923326849937439
1772713802072370400,6.710370361328125,0.2791210412979126,0.8477246165275574,0.15986262261867523
1772713802082344400,6.720344482421875,0.29594793915748596,0.8431413173675537,0.1297377496957779
1772713802092319500,6.730319580078125,0.3069097697734833,0.8231841325759888,0.07672220468521118
1772713802102293500,6.74029345703125,0.3154585659503937,0.78132164478302,0.002282992471009493
1772713802112267500,6.750267578125,0.3198208212852478,0.729234516620636,-0.05821310728788376
1772713802122241500,6.760241455078125,0.3311247229576111,0.6831846237182617,-0.08718647062778473
1772713802132215600,6.770215576171875,0.3441678285598755,0.6380842328071594,-0.09127495437860489
1772713802142189600,6.780189453125,0.36232438683509827,0.6095191836357117,-0.07683517038822174
1772713802152163600,6.79016357421875,0.3853934705257416,0.5865659117698669,-0.06599584221839905
1772713802162138400,6.800138427734375,0.41457539796829224,0.5813615918159485,-0.07007898390293121
1772713802172112400,6.8101123046875,0.4491797387599945,0.5849025845527649,-0.0902835875749588
1772713802182086400,6.82008642578125,0.48002374172210693,0.5864840745925903,-0.11421147733926773
1772713802192060400,6.830060302734375,0.4978208541870117,0.5801452398300171,-0.14235283434391022
1772713802202034400,6.840034423828125,0.5041433572769165,0.5646483898162842,-0.14993415772914886
1772713802212008400,6.850008544921875,0.5114302635192871,0.55585777759552,-0.1384279727935791
1772713802221983500,6.8599833984375,0.5189886093139648,0.542418360710144,-0.12447825819253922
1772713802231957500,6.86995751953125,0.5374382138252258,0.539884090423584,-0.10671896487474442
1772713802241931500,6.879931640625,0.5730997323989868,0.5496431589126587,-0.08335399627685547
1772713802251905500,6.889905517578125,0.6142604947090149,0.5678501129150391,-0.0709758922457695
1772713802261879600,6.899879638671875,0.6654020547866821,0.6037481427192688,-0.05268721282482147
1772713802271853600,6.909853515625,0.736909031867981,0.6487395763397217,-0.03499157726764679
1772713802281827300,6.919827392578125,0.8195476531982422,0.692215621471405,-0.016964908689260483
1772713802291802400,6.92980224609375,0.9096192121505737,0.720743715763092,-0.01621922291815281
1772713802301776400,6.9397763671875,0.9866465926170349,0.738419771194458,-0.02490372583270073
1772713802311750400,6.94975048828125,1.0493054389953613,0.7213073372840881,-0.03190917149186134
1772713802321724400,6.959724365234375,1.1014410257339478,0.6825644969940186,-0.016863370314240456
1772713802331698400,6.969698486328125,1.1361327171325684,0.6260229349136353,0.028468690812587738
1772713802341672400,6.97967236328125,1.1593183279037476,0.5658654570579529,0.09749472141265869
1772713802351646500,6.989646484375,1.1843528747558594,0.4892471730709076,0.16800537705421448
1772713802361621500,6.99962158203125,1.2060909271240234,0.4116837978363037,0.22900381684303284
1772713802371595300,7.00959521484375,1.2200366258621216,0.3622983992099762,0.2644350528717041
1772713802381569300,7.0195693359375,1.2216284275054932,0.31996265053749084,0.26871636509895325
1772713802391543300,7.029543212890625,1.2261619567871094,0.2969377636909485,0.2544551193714142
1772713802401517300,7.039517333984375,1.23291015625,0.2844025790691376,0.23924128711223602
1772713802411491300,7.0494912109375,1.2331730127334595,0.2753360867500305,0.21685902774333954
1772713802421465300,7.05946533203125,1.2214534282684326,0.25838425755500793,0.1766601800918579
1772713802431440400,7.0694404296875,1.2046781778335571,0.26928988099098206,0.13154810667037964
1772713802441414400,7.079414306640625,1.1772165298461914,0.29513147473335266,0.06388923525810242
1772713802451388400,7.089388427734375,1.1464247703552246,0.33393558859825134,-0.009808691218495369
1772713802461362400,7.099362548828125,1.1081093549728394,0.3788064420223236,-0.09327054023742676
1772713802471336400,7.10933642578125,1.071460485458374,0.424201637506485,-0.18099240958690643
1772713802481310500,7.119310546875,1.0330983400344849,0.465181827545166,-0.25777173042297363
1772713802491284500,7.129284423828125,1.0075852870941162,0.4816009998321533,-0.3142315447330475
1772713802501260000,7.139260009765625,0.9875156283378601,0.477275550365448,-0.3499666452407837
1772713802511234000,7.149234130859375,0.9726964831352234,0.4651419222354889,-0.3606400489807129
1772713802521208000,7.1592080078125,0.9554139375686646,0.4312085807323456,-0.3549269735813141
1772713802531182000,7.16918212890625,0.9265004992485046,0.389373242855072,-0.3493409752845764
1772713802541156000,7.179156005859375,0.8952537178993225,0.35129180550575256,-0.3393144905567169
1772713802551130000,7.189130126953125,0.862504780292511,0.3093148171901703,-0.3158040940761566
1772713802561104100,7.199104248046875,0.8250865936279297,0.2598567008972168,-0.29275578260421753
1772713802571079000,7.209078857421875,0.7644149661064148,0.21818196773529053,-0.2694741487503052
1772713802581053000,7.219052978515625,0.6917025446891785,0.20367269217967987,-0.23428559303283691
1772713802591027000,7.22902685546875,0.6240174770355225,0.20790311694145203,-0.183378204703331
1772713802601001000,7.2390009765625,0.5663561224937439,0.22690771520137787,-0.13396790623664856
1772713802610975000,7.24897509765625,0.5099080801010132,0.24678927659988403,-0.0820077657699585
1772713802620949000,7.258948974609375,0.4545004963874817,0.25812333822250366,-0.022644616663455963
1772713802630923000,7.268923095703125,0.3877536952495575,0.2424543797969818,0.0364069864153862
1772713802640898000,7.27889794921875,0.30650845170021057,0.21869778633117676,0.10847312957048416
1772713802650872000,7.2888720703125,0.22087690234184265,0.19921836256980896,0.1991175413131714
1772713802660846000,7.29884619140625,0.13736455142498016,0.1788979023694992,0.29671892523765564
1772713802670820000,7.308820068359375,0.059452712535858154,0.16657811403274536,0.37635621428489685
1772713802680794000,7.318794189453125,-0.013086890801787376,0.19801197946071625,0.4515005350112915
1772713802690768100,7.32876806640625,-0.08009708672761917,0.2504245936870575,0.4944879412651062
1772713802700742000,7.338741943359375,-0.14489810168743134,0.3244413435459137,0.5045819878578186
1772713802710717000,7.348717041015625,-0.2001349925994873,0.40445199608802795,0.4943022131919861
1772713802720691000,7.35869091796875,-0.2513038218021393,0.4704832434654236,0.4604020416736603
1772713802730665000,7.3686650390625,-0.28874120116233826,0.5135385394096375,0.4397295117378235
1772713802740639000,7.378638916015625,-0.32749611139297485,0.5397246479988098,0.44792473316192627
1772713802750613000,7.388613037109375,-0.3703956604003906,0.5642374157905579,0.46717461943626404
1772713802760587000,7.3985869140625,-0.40147092938423157,0.5875144600868225,0.5183179974555969
1772713802770561000,7.40856103515625,-0.4230595827102661,0.563345730304718,0.5613730549812317
1772713802780536000,7.4185361328125,-0.44592684507369995,0.47431766986846924,0.5808005928993225
1772713802790509800,7.428509765625,-0.4751092493534088,0.3598579466342926,0.567904531955719
1772713802800483800,7.43848388671875,-0.5001280307769775,0.2796515226364136,0.5348336696624756
1772713802810457900,7.448457763671875,-0.531175434589386,0.2458493411540985,0.5001513361930847
1772713802820432000,7.458431884765625,-0.5788705945014954,0.22553975880146027,0.4544782340526581
1772713802830406000,7.468406005859375,-0.6247153282165527,0.20876477658748627,0.35641637444496155
1772713802840380000,7.4783798828125,-0.6668479442596436,0.2124321609735489,0.2109231799840927
1772713802850355000,7.48835498046875,-0.6992040276527405,0.24475760757923126,0.03641822934150696
1772713802860329000,7.498328857421875,-0.723605215549469,0.29452359676361084,-0.16003528237342834
1772713802870303000,7.508302978515625,-0.7530507445335388,0.3459756076335907,-0.38717707991600037
1772713802880277000,7.518277099609375,-0.787790060043335,0.3807618021965027,-0.6233429908752441
1772713802890251000,7.5282509765625,-0.8254439830780029,0.39526617527008057,-0.8296599388122559
1772713802900225000,7.53822509765625,-0.9073833227157593,0.3997828960418701,-0.9817606806755066
1772713802910199000,7.548198974609375,-1.005051612854004,0.4343824088573456,-1.052627444267273
1772713802920173000,7.558173095703125,-1.076004981994629,0.5080005526542664,-1.0203282833099365
1772713802930147800,7.56814794921875,-1.1238209009170532,0.604181170463562,-0.8976644277572632
1772713802940121900,7.578121826171875,-1.1506317853927612,0.6666763424873352,-0.7160848379135132
1772713802950096000,7.588095947265625,-1.1420127153396606,0.667303204536438,-0.49869048595428467
1772713802960070000,7.59806982421875,-1.1161552667617798,0.6227198839187622,-0.25276216864585876
1772713802970044000,7.6080439453125,-1.0869512557983398,0.5516776442527771,0.011121147312223911
1772713802980018000,7.618017822265625,-1.0412497520446777,0.4528447985649109,0.24903611838817596
1772713802989992000,7.627991943359375,-1.0064419507980347,0.3268599808216095,0.42645618319511414
1772713802999967000,7.637967041015625,-0.9984143972396851,0.2021806687116623,0.5480188727378845
1772713803009940700,7.647940673828125,-1.0091171264648438,0.12194310128688812,0.619049608707428
1772713803019914800,7.657914794921875,-0.9969258904457092,0.06045356020331383,0.628780722618103
1772713803029888800,7.667888671875,-0.9602224826812744,0.003436879487708211,0.5916671752929688
1772713803039862800,7.67786279296875,-0.9165955185890198,-0.03610111027956009,0.5218946933746338
1772713803049836800,7.6878369140625,-0.8713518381118774,-0.05757817253470421,0.4135160446166992
1772713803059810800,7.697810791015625,-0.8228816390037537,-0.07136072963476181,0.27958744764328003
1772713803069786000,7.7077861328125,-0.7852370738983154,-0.0829489454627037,0.12521839141845703
1772713803079760000,7.717759765625,-0.747205913066864,-0.08391546458005905,-0.039943039417266846
1772713803089734000,7.72773388671875,-0.7099802494049072,-0.08986683189868927,-0.19386203587055206
1772713803099708000,7.7377080078125,-0.6663103103637695,-0.11556823551654816,-0.3151994049549103
1772713803109682000,7.747681884765625,-0.6287447810173035,-0.14705905318260193,-0.37599483132362366
1772713803119656000,7.757656005859375,-0.6057289242744446,-0.1814304143190384,-0.37815457582473755
1772713803129631000,7.767630859375,-0.5941880941390991,-0.21096007525920868,-0.33194500207901
1772713803139605000,7.77760498046875,-0.5724560022354126,-0.2240317165851593,-0.24839633703231812
1772713803149579000,7.7875791015625,-0.5594174265861511,-0.21974562108516693,-0.13560694456100464
1772713803159553000,7.797552978515625,-0.5689366459846497,-0.2073400318622589,-0.024619394913315773
1772713803169527000,7.807527099609375,-0.5726839900016785,-0.1737903207540512,0.07568936049938202
1772713803179501000,7.8175009765625,-0.5477752685546875,-0.14410774409770966,0.18985281884670258
1772713803189475000,7.82747509765625,-0.5157012343406677,-0.14560525119304657,0.31756311655044556
1772713803199449000,7.837448974609375,-0.4825201630592346,-0.1874096393585205,0.43936681747436523
1772713803209424100,7.847424072265625,-0.46535956859588623,-0.2606326937675476,0.5349199771881104
1772713803219398100,7.857398193359375,-0.47082456946372986,-0.358744740486145,0.5915820002555847
1772713803229372000,7.867371826171875,-0.5069889426231384,-0.4445813298225403,0.598137617111206
1772713803239346000,7.877345947265625,-0.5505079627037048,-0.478962242603302,0.5599292516708374
1772713803249320000,7.88731982421875,-0.590023398399353,-0.4624791443347931,0.4673503339290619
1772713803259294000,7.8972939453125,-0.6177327632904053,-0.3716198205947876,0.34541457891464233
1772713803269268000,7.90726806640625,-0.6400146484375,-0.2166678011417389,0.19087772071361542
1772713803279243000,7.917242919921875,-0.6550279259681702,-0.01718287356197834,0.024196885526180267
1772713803289217000,7.927217041015625,-0.6602253913879395,0.11095831543207169,-0.12447807937860489
1772713803299191000,7.93719091796875,-0.6913160681724548,0.1625572144985199,-0.231864795088768
1772713803309165000,7.9471650390625,-0.7246726751327515,0.1294458657503128,-0.30299994349479675
1772713803319139000,7.95713916015625,-0.7667893767356873,0.0476902574300766,-0.37575551867485046
1772713803329113000,7.967113037109375,-0.8229219317436218,-0.0028392295353114605,-0.4747646450996399
1772713803339087000,7.977087158203125,-0.8381354808807373,-0.04073590785264969,-0.5948141813278198
1772713803349062000,7.987061767578125,-0.8128109574317932,-0.04641563072800636,-0.720097541809082
1772713803359036000,7.997035888671875,-0.7507578134536743,-0.034324124455451965,-0.8669607639312744
1772713803369010000,8.007010009765626,-0.6642162799835205,-0.08675271272659302,-0.9901692271232605
1772713803378984000,8.01698388671875,-0.6235235333442688,-0.13992489874362946,-1.06364107131958
1772713803388958000,8.0269580078125,-0.6738399863243103,-0.21080678701400757,-1.0867629051208496
1772713803398932000,8.036931884765625,-0.7964357137680054,-0.26098424196243286,-1.0041803121566772
1772713803408906000,8.046906005859375,-0.9569399356842041,-0.2248251736164093,-0.824503481388092
1772713803418880000,8.0568798828125,-1.0857566595077515,-0.17987488210201263,-0.6547483801841736
1772713803428855000,8.06685498046875,-1.136155128479004,-0.11341410875320435,-0.5775675773620605
1772713803438829000,8.0768291015625,-1.1335031986236572,-0.012893157079815865,-0.5859699845314026
1772713803448803000,8.086802978515625,-1.0897763967514038,0.06766453385353088,-0.6033740043640137
1772713803458776800,8.09677685546875,-1.048703670501709,0.05774397403001785,-0.6616566181182861
1772713803468750800,8.106750732421874,-0.9777090549468994,-0.018784087151288986,-0.7132835984230042
1772713803478724900,8.116724853515626,-0.9139564037322998,-0.06966644525527954,-0.7078164219856262
1772713803488699000,8.126698974609376,-0.874933660030365,-0.14859214425086975,-0.6759911179542542
1772713803498674000,8.136673828125,-0.862689197063446,-0.31529951095581055,-0.6522199511528015
1772713803508651300,8.1466513671875,-0.8967915177345276,-0.42457062005996704,-0.6462603211402893
1772713803518625300,8.156625244140624,-0.9679841995239258,-0.3745383322238922,-0.6998849511146545
1772713803528599300,8.166599365234376,-0.9942203164100647,-0.4665750563144684,-0.8695330619812012
1772713803538573300,8.1765732421875,-1.035232424736023,-0.4787991940975189,-1.0283703804016113
1772713803548547300,8.18654736328125,-1.055851697921753,-0.36525586247444153,-1.1521586179733276
1772713803558521300,8.196521240234375,-1.0492321252822876,-0.25320857763290405,-1.2576326131820679
1772713803568495400,8.206495361328125,-1.0646134614944458,-0.24532778561115265,-1.3375612497329712
1772713803578470100,8.21647021484375,-1.1201341152191162,-0.286376953125,-1.37709379196167
1772713803588444200,8.226444091796875,-1.21145498752594,-0.30414289236068726,-1.3729850053787231
1772713803598418200,8.236418212890625,-1.309268593788147,-0.2779802680015564,-1.3156431913375854
1772713803608392200,8.24639208984375,-1.4387741088867188,-0.2946180999279022,-1.2162444591522217
1772713803618366200,8.2563662109375,-1.5683584213256836,-0.3048911392688751,-1.0546119213104248
1772713803628340200,8.26634033203125,-1.6763675212860107,-0.2982305586338043,-0.8628126382827759
1772713803638314200,8.276314208984376,-1.754109263420105,-0.2718316912651062,-0.6601242423057556
1772713803648289300,8.286289306640626,-1.7991863489151,-0.25791481137275696,-0.45412230491638184
1772713803658263300,8.29626318359375,-1.8309028148651123,-0.24118919670581818,-0.25699755549430847
1772713803668237300,8.3062373046875,-1.8478045463562012,-0.21483668684959412,-0.09974882751703262
1772713803678211300,8.31621142578125,-1.8684585094451904,-0.20849426090717316,-0.0022852057591080666
1772713803688185000,8.32618505859375,-1.8812803030014038,-0.19290411472320557,0.04705224931240082
1772713803698159000,8.3361591796875,-1.8797414302825928,-0.17193953692913055,0.04470369219779968
1772713803708133000,8.346133056640625,-1.8536664247512817,-0.17781208455562592,0.006458835676312447
1772713803718108200,8.356108154296875,-1.8068418502807617,-0.19295057654380798,-0.0414169579744339
1772713803728082200,8.366082275390625,-1.7446085214614868,-0.24376901984214783,-0.11940443515777588
1772713803738056200,8.37605615234375,-1.6801477670669556,-0.2521040141582489,-0.19930557906627655
1772713803748030200,8.3860302734375,-1.6137101650238037,-0.2576915919780731,-0.28439170122146606
1772713803758004200,8.396004150390626,-1.5558494329452515,-0.3089585602283478,-0.34865525364875793
1772713803767978200,8.405978271484376,-1.5117418766021729,-0.3927794396877289,-0.39775145053863525
1772713803777952300,8.4159521484375,-1.4741039276123047,-0.5226505994796753,-0.4508496820926666
1772713803787926300,8.42592626953125,-1.6535210609436035,-0.09238895773887634,-0.14516140520572662
1772713803797901000,8.435901123046875,-1.7035951614379883,-0.37293270230293274,-0.2352721095085144
1772713803807875000,8.445875,-1.9392995834350586,-0.44899633526802063,-0.025092508643865585
1772713803817849000,8.45584912109375,-2.067202091217041,-0.44239166378974915,0.010233685374259949
1772713803827823000,8.465822998046875,-2.1633379459381104,-0.5767270922660828,-0.11889447271823883
1772713803837797000,8.475797119140625,-2.2615482807159424,-0.7650658488273621,-0.16963931918144226
1772713803847771100,8.485771240234374,-2.2645199298858643,-0.8331817984580994,-0.15794511139392853
1772713803857745200,8.4957451171875,-2.1942198276519775,-0.8691760897636414,-0.12859348952770233
1772713803867720200,8.50572021484375,-2.142045259475708,-1.0063456296920776,-0.03794879838824272
1772713803877694200,8.515694091796876,-2.2495949268341064,-1.3298494815826416,-0.026102792471647263
1772713803887668200,8.525668212890626,-2.348956346511841,-1.395578145980835,-0.04652870446443558
1772713803897642200,8.535642333984375,-2.1546645164489746,-1.437118649482727,-0.1928253471851349
1772713803907616300,8.5456162109375,-1.9187896251678467,-1.1262513399124146,-0.5115000009536743
1772713803917590000,8.555590087890625,-1.8611761331558228,-0.7697892189025879,-0.8117003440856934
1772713803927564000,8.56556396484375,-1.792050838470459,-0.5277004241943359,-0.9498206973075867
1772713803937538000,8.5755380859375,-1.7513855695724487,-0.4707854092121124,-0.9580700397491455
1772713803947513300,8.585513427734375,-1.7908307313919067,-0.524215579032898,-0.936510443687439
1772713803957487400,8.5954873046875,-1.8439295291900635,-0.6238936185836792,-0.9064969420433044
1772713803967461400,8.60546142578125,-1.9074057340621948,-0.7050433158874512,-0.8792429566383362
1772713803977435400,8.615435302734374,-1.9676026105880737,-0.7610594630241394,-0.851228654384613
1772713803987409400,8.625409423828126,-2.0029311180114746,-0.8018923997879028,-0.7867990732192993
1772713803997383400,8.635383544921876,-2.019432544708252,-0.8164346218109131,-0.7041180729866028
1772713804007357400,8.645357421875,-2.0139896869659424,-0.8507074117660522,-0.6244919300079346
1772713804017332200,8.655332275390625,-1.984300136566162,-0.8671950697898865,-0.5425362586975098
1772713804027306200,8.66530615234375,-1.952836513519287,-0.8631417155265808,-0.4677506983280182
1772713804037280300,8.6752802734375,-1.9227797985076904,-0.8249186873435974,-0.41808435320854187
1772713804047254300,8.685254150390625,-1.8818355798721313,-0.7363283634185791,-0.40871483087539673
1772713804057228300,8.695228271484375,-1.8468981981277466,-0.6478376388549805,-0.43064287304878235
1772713804067202300,8.705202392578125,-1.83018159866333,-0.552075207233429,-0.45796823501586914
1772713804077176300,8.71517626953125,-1.817524790763855,-0.4655262231826782,-0.4847312867641449
1772713804087151400,8.7251513671875,-1.7931571006774902,-0.4195757806301117,-0.4830785393714905
1772713804097125400,8.73512548828125,-1.7853758335113525,-0.4157979190349579,-0.4786396324634552
1772713804107099400,8.745099365234376,-1.7685555219650269,-0.4118969142436981,-0.4530338644981384
1772713804117073400,8.755073486328126,-1.7274014949798584,-0.4681716859340668,-0.41957032680511475
1772713804127047400,8.76504736328125,-1.6974384784698486,-0.4754466414451599,-0.3581269383430481
1772713804137021200,8.775021240234375,-1.6746516227722168,-0.5096657872200012,-0.3312797248363495
1772713804146995200,8.7849951171875,-1.6382232904434204,-0.5585025548934937,-0.3374244272708893
1772713804156969200,8.79496923828125,-1.6004457473754883,-0.5419626832008362,-0.3462114930152893
1772713804166944300,8.8049443359375,-1.575605869293213,-0.49813714623451233,-0.3434644341468811
1772713804176918300,8.814918212890625,-1.564087986946106,-0.4437618553638458,-0.3323690891265869
1772713804186892300,8.824892333984375,-1.5464937686920166,-0.34917062520980835,-0.3036828637123108
1772713804196866300,8.8348662109375,-1.5221996307373047,-0.26985663175582886,-0.2812449038028717
1772713804206840300,8.84484033203125,-1.4996168613433838,-0.20374074578285217,-0.24683740735054016
1772713804216814300,8.854814453125,-1.469844937324524,-0.1646975427865982,-0.19277700781822205
1772713804226788400,8.864788330078126,-1.4199562072753906,-0.15932726860046387,-0.13375070691108704
1772713804236762400,8.874762451171875,-1.3588190078735352,-0.16678062081336975,-0.08523187786340714
1772713804246737200,8.884737060546875,-1.3210633993148804,-0.14696723222732544,-0.034367628395557404
1772713804256711200,8.894711181640625,-1.3143789768218994,-0.07066705077886581,0.05765845999121666
1772713804266685200,8.904685302734375,-1.3091548681259155,-0.016172388568520546,0.16788403689861298
1772713804276659200,8.9146591796875,-1.290444016456604,0.02978086657822132,0.2543373703956604
1772713804286633200,8.92463330078125,-1.2540357112884521,0.05588756874203682,0.315260112285614
1772713804296607200,8.934607177734375,-1.2003490924835205,0.05802113190293312,0.3409198820590973
1772713804306581200,8.944581298828124,-1.1614086627960205,0.04352181777358055,0.3527805209159851
1772713804316555300,8.95455517578125,-1.1281920671463013,-0.006514457520097494,0.34844833612442017
1772713804326530300,8.9645302734375,-1.0949879884719849,-0.0514473095536232,0.3338880240917206
1772713804336504300,8.97450439453125,-1.0713915824890137,-0.06860007345676422,0.31686651706695557
1772713804346478300,8.984478271484376,-1.0525990724563599,-0.07239348441362381,0.2902849614620209
1772713804356452400,8.994452392578125,-1.0289883613586426,-0.06225990131497383,0.2388775646686554
1772713804366426000,9.004426025390625,-0.9794045090675354,-0.027981294319033623,0.17573295533657074
1772713804376400100,9.014400146484375,-0.9215592741966248,0.04623371362686157,0.11229787021875381
1772713804386374100,9.0243740234375,-0.8639745712280273,0.11754944175481796,0.04217151552438736
1772713804396349200,9.03434912109375,-0.803463339805603,0.1710384488105774,-0.031184222549200058
1772713804406323200,9.0443232421875,-0.7375112175941467,0.22123397886753082,-0.09961414337158203
1772713804416297200,9.054297119140625,-0.6768027544021606,0.2666267156600952,-0.15561604499816895
1772713804426271200,9.064271240234374,-0.6033437252044678,0.29834869503974915,-0.17626646161079407
1772713804436245200,9.074245361328124,-0.5308436155319214,0.3614366352558136,-0.14754357933998108
1772713804446219300,9.08421923828125,-0.48147282004356384,0.4828738570213318,-0.13049481809139252
1772713804456193300,9.094193359375,-0.4172793924808502,0.597809910774231,-0.0514071099460125
1772713804466167300,9.104167236328125,-0.4094028174877167,0.7664346694946289,0.06063234061002731
1772713804476142000,9.11414208984375,-0.49384939670562744,0.8349213004112244,0.1515188366174698
1772713804486116000,9.1241162109375,-0.6172722578048706,0.7316077351570129,0.24128787219524384
1772713804496090000,9.134090087890625,-0.7572791576385498,0.5784332156181335,0.3010793924331665
1772713804506060800,9.144060791015624,-0.8817287087440491,0.4363580644130707,0.31442609429359436
1772713804516034800,9.154034912109376,-0.9536968469619751,0.274408221244812,0.2937740385532379
1772713804526008800,9.1640087890625,-0.9780000448226929,0.13513688743114471,0.2716708481311798
1772713804535982800,9.17398291015625,-0.9596448540687561,0.050386134535074234,0.2926539480686188
1772713804545956900,9.183956787109375,-0.9125894904136658,0.01595439203083515,0.356965035200119
1772713804555932000,9.193931884765625,-0.8266328573226929,0.022064518183469772,0.445171058177948
1772713804565906000,9.203906005859375,-0.7187351584434509,0.057890161871910095,0.5171195268630981
1772713804575880000,9.2138798828125,-0.593769907951355,0.0907609835267067,0.5534095764160156
1772713804585853700,9.223853759765625,-0.44293323159217834,0.10548613965511322,0.5409289598464966
1772713804595827700,9.23382763671875,-0.3003769516944885,0.10762334614992142,0.47006189823150635
1772713804605801700,9.2438017578125,-0.17530557513237,0.11957667768001556,0.3418205678462982
1772713804615775700,9.253775634765624,-0.10124436020851135,0.15237866342067719,0.1822611689567566
1772713804625750800,9.263750732421874,-0.14144077897071838,0.1965184211730957,0.023064320906996727
1772713804635724800,9.273724853515626,-0.2874545454978943,0.21929335594177246,-0.11468561738729477
1772713804645698800,9.28369873046875,-0.5060782432556152,0.20626597106456757,-0.21867726743221283
1772713804655672800,9.2936728515625,-0.8875918984413147,0.08895458281040192,-0.27898305654525757
1772713804665646800,9.303646728515625,-1.2366937398910522,0.029320282861590385,-0.2667474150657654
1772713804675620900,9.313620849609375,-1.5003310441970825,-0.08552920818328857,-0.24006249010562897
1772713804685592800,9.3235927734375,-1.7011696100234985,-0.161744624376297,-0.21002230048179626
1772713804695566800,9.33356689453125,-1.8370310068130493,-0.17453762888908386,-0.2073611319065094
1772713804705540900,9.343540771484374,-1.9143869876861572,-0.19730286300182343,-0.24271193146705627
1772713804715515000,9.353514892578126,-1.9492710828781128,-0.1712629497051239,-0.284878134727478
1772713804725490000,9.363489990234376,-1.926468014717102,-0.0988025888800621,-0.30117881298065186
1772713804735464000,9.3734638671875,-1.8452664613723755,-0.00724143348634243,-0.2805933356285095
1772713804745438000,9.38343798828125,-1.7103328704833984,0.08227460086345673,-0.23505407571792603
1772713804755412000,9.393411865234375,-1.5425437688827515,0.1664087027311325,-0.17802272737026215
1772713804765386000,9.403385986328125,-1.3602436780929565,0.22325706481933594,-0.11130441725254059
1772713804775359700,9.41335986328125,-1.2223987579345703,0.23742616176605225,-0.03507234528660774
1772713804785333800,9.423333740234375,-1.1589834690093994,0.20878466963768005,0.03629477694630623
1772713804795307800,9.433307861328124,-1.1350772380828857,0.14577969908714294,0.10530253499746323
1772713804805282800,9.44328271484375,-1.134988784790039,0.04089749976992607,0.15723709762096405
1772713804815256800,9.4532568359375,-1.1439868211746216,-0.0970834419131279,0.19592764973640442
1772713804825230800,9.46323095703125,-1.1635676622390747,-0.20419739186763763,0.2354188710451126
1772713804835204900,9.473204833984376,-1.198670506477356,-0.3053584098815918,0.26224344968795776
1772713804845179000,9.483178955078126,-1.2377870082855225,-0.378642201423645,0.2731488049030304
1772713804855153000,9.49315283203125,-1.296425223350525,-0.43277084827423096,0.26466771960258484
1772713804865127000,9.503126953125,-1.358373999595642,-0.4970502257347107,0.26836445927619934
1772713804875101000,9.513100830078125,-1.4477238655090332,-0.5264433026313782,0.2675727307796478
1772713804885075700,9.52307568359375,-1.5655150413513184,-0.530636191368103,0.27097436785697937
1772713804895049700,9.5330498046875,-1.683552622795105,-0.533429741859436,0.24685640633106232
1772713804905023700,9.543023681640625,-1.7958006858825684,-0.5369182229042053,0.19817648828029633
1772713804914997800,9.552997802734374,-1.8904813528060913,-0.5386203527450562,0.1253013163805008
1772713804924971800,9.5629716796875,-1.9470678567886353,-0.5485374331474304,0.0351911298930645
1772713804934945800,9.57294580078125,-1.9618136882781982,-0.5466349124908447,-0.0676129087805748
1772713804944919800,9.582919921875,-1.9346762895584106,-0.5219455361366272,-0.16868706047534943
1772713804954893800,9.592893798828126,-1.8801584243774414,-0.4685782492160797,-0.26385316252708435
1772713804964868900,9.602868896484376,-1.8246122598648071,-0.4015994668006897,-0.3302055597305298
1772713804974843000,9.6128427734375,-1.772667646408081,-0.34140434861183167,-0.36747848987579346
1772713804984817000,9.62281689453125,-1.7170109748840332,-0.3198162317276001,-0.3885302245616913
1772713804994791000,9.632791015625,-1.672727108001709,-0.31862616539001465,-0.3921170234680176
1772713805004764700,9.6427646484375,-1.6510913372039795,-0.35925641655921936,-0.3775133192539215
1772713805014738700,9.65273876953125,-1.6438957452774048,-0.43488946557044983,-0.33205944299697876
1772713805024712700,9.662712646484374,-1.6622488498687744,-0.46328890323638916,-0.28340163826942444
1772713805034686700,9.672686767578124,-1.6818890571594238,-0.4688701033592224,-0.2463991940021515
1772713805044661800,9.682661865234374,-1.694679617881775,-0.45678335428237915,-0.23464293777942657
1772713805054635800,9.6926357421875,-1.6999897956848145,-0.4250412881374359,-0.24402748048305511
1772713805064609800,9.70260986328125,-1.6999011039733887,-0.36222851276397705,-0.26099076867103577
1772713805074583800,9.712583740234376,-1.6973870992660522,-0.3534712493419647,-0.30201515555381775
1772713805084557800,9.722557861328125,-1.7083476781845093,-0.39140644669532776,-0.35023489594459534
1772713805094531800,9.73253173828125,-1.7281346321105957,-0.4436187446117401,-0.38403451442718506
1772713805104505900,9.742505859375,-1.7503526210784912,-0.4952068328857422,-0.393195778131485
1772713805114479900,9.75247998046875,-1.7704371213912964,-0.5303409099578857,-0.3715633153915405
1772713805124455000,9.762454833984375,-1.7858160734176636,-0.5348997116088867,-0.3353930711746216
1772713805134429000,9.772428955078125,-1.7920777797698975,-0.51112300157547,-0.3065706491470337
1772713805144403000,9.78240283203125,-1.8030624389648438,-0.4902747571468353,-0.28649255633354187
1772713805154377000,9.792376953125,-1.8089417219161987,-0.4673859179019928,-0.2774930000305176
1772713805164351000,9.80235107421875,-1.813608169555664,-0.43847063183784485,-0.2699280381202698
1772713805174324700,9.81232470703125,-1.8046537637710571,-0.3927856683731079,-0.24905911087989807
1772713805184298800,9.822298828125,-1.792260766029358,-0.3772463798522949,-0.2379143089056015
1772713805194272800,9.832272705078125,-1.792852759361267,-0.3732515573501587,-0.23298367857933044
1772713805204248000,9.842248046875,-1.798997402191162,-0.3650578260421753,-0.22479578852653503
1772713805214222000,9.85222216796875,-1.8089594841003418,-0.37652572989463806,-0.20714697241783142
1772713805224195800,9.86219580078125,-1.8082984685897827,-0.3822813630104065,-0.17546574771404266
1772713805234169900,9.872169921875,-1.8029571771621704,-0.3639819025993347,-0.12535443902015686
1772713805244143900,9.882143798828125,-1.7886884212493896,-0.34669771790504456,-0.052222710102796555
1772713805254118000,9.892117919921875,-1.7655298709869385,-0.319576621055603,0.016941066831350327
1772713805264092000,9.902091796875,-1.7385083436965942,-0.28046277165412903,0.07293322682380676
1772713805274066000,9.91206591796875,-1.7065708637237549,-0.23975186049938202,0.10697493702173233
1772713805284041000,9.922041015625,-1.6757581233978271,-0.21152396500110626,0.12110433727502823
1772713805294015000,9.932014892578126,-1.633414387702942,-0.20869024097919464,0.12100953608751297
1772713805303989000,9.941989013671876,-1.5851480960845947,-0.21598491072654724,0.11727605015039444
1772713805313963000,9.951962890625,-1.5240997076034546,-0.2513345777988434,0.10111618787050247
1772713805323937000,9.96193701171875,-1.4409114122390747,-0.280687153339386,0.08719584345817566
1772713805333911800,9.971911865234375,-1.3017349243164062,-0.20431983470916748,0.0905245915055275
1772713805343885800,9.9818857421875,-1.152307152748108,-0.2158776968717575,0.06877295672893524
1772713805353859800,9.99185986328125,-1.0332894325256348,-0.23556509613990784,0.04832238703966141
1772713805363833900,10.001833740234375,-0.9708200097084045,-0.2875414788722992,0.022232994437217712
1772713805373807900,10.011807861328125,-0.96076899766922,-0.3968060612678528,-0.010831158608198166
1772713805383783000,10.021782958984375,-0.9862908720970154,-0.5089719891548157,-0.03463715314865112
1772713805393757000,10.0317568359375,-1.0338456630706787,-0.6050955653190613,-0.018952440470457077
1772713805403731000,10.04173095703125,-1.079849362373352,-0.6558607816696167,0.04681085795164108
1772713805413705000,10.051705078125,-1.1117374897003174,-0.6803271770477295,0.1764325201511383
1772713805423679000,10.061678955078126,-1.1250975131988525,-0.6616014242172241,0.3346474766731262
1772713805433653000,10.071653076171875,-1.0840693712234497,-0.6116455793380737,0.4899142384529114
1772713805443627000,10.081626953125,-1.007609486579895,-0.5354994535446167,0.6073753833770752
1772713805453600800,10.091600830078125,-0.8929165601730347,-0.43789854645729065,0.6795657277107239
1772713805463575800,10.101575927734375,-0.7653383612632751,-0.3486059606075287,0.697497546672821
1772713805473549800,10.1115498046875,-0.6379736661911011,-0.25698307156562805,0.6906006336212158
1772713805483523800,10.12152392578125,-0.5072590708732605,-0.17326687276363373,0.6616489291191101
1772713805493497900,10.131497802734375,-0.39338037371635437,-0.12387052923440933,0.6225923299789429
1772713805503471900,10.141471923828124,-0.3129880428314209,-0.08632021397352219,0.5728756785392761
1772713805513450000,10.151449951171875,-0.284251868724823,-0.05461651086807251,0.5134122371673584
1772713805523424000,10.161424072265625,-0.2943210005760193,-0.03252479061484337,0.442085325717926
1772713805533398000,10.17139794921875,-0.34995222091674805,0.0010529608698561788,0.35961368680000305
1772713805543372800,10.181372802734375,-0.44485023617744446,0.047605548053979874,0.26498332619667053
1772713805553346800,10.191346923828124,-0.55748450756073,0.10501828044652939,0.1670173555612564
1772713805563320800,10.20132080078125,-0.6657598614692688,0.15515202283859253,0.07286502420902252
1772713805573294800,10.211294921875,-0.7594935297966003,0.2064613550901413,-0.013114335015416145
1772713805583268900,10.221268798828126,-0.8490647077560425,0.2456337958574295,-0.08176636695861816
1772713805593243000,10.231242919921876,-0.9240995645523071,0.2809883952140808,-0.1153126060962677
1772713805603217000,10.241216796875,-0.9817476868629456,0.2822355329990387,-0.12517668306827545
1772713805613191000,10.25119091796875,-1.0341072082519531,0.24836134910583496,-0.12482715398073196
1772713805623166000,10.261166015625,-1.081742286682129,0.20032751560211182,-0.11950242519378662
1772713805633140000,10.271139892578125,-1.134481430053711,0.15427711606025696,-0.11485712230205536
1772713805643113700,10.28111376953125,-1.1902471780776978,0.132437065243721,-0.10697097331285477
1772713805653087700,10.291087646484375,-1.238247036933899,0.15092062950134277,-0.10546594858169556
1772713805663061800,10.301061767578124,-1.2761590480804443,0.19455838203430176,-0.10286297649145126
1772713805673035800,10.311035888671874,-1.3053865432739258,0.2729896008968353,-0.11029676347970963
1772713805683009800,10.321009765625,-1.3413081169128418,0.34169888496398926,-0.1455831080675125
1772713805692983800,10.33098388671875,-1.3679736852645874,0.38306865096092224,-0.19120292365550995
1772713805702958800,10.340958740234376,-1.3892699480056763,0.38472193479537964,-0.24207010865211487
1772713805712932900,10.350932861328126,-1.4073877334594727,0.34171077609062195,-0.2863251566886902
1772713805722907000,10.360906982421875,-1.4248775243759155,0.245130717754364,-0.3066709041595459
1772713805732881000,10.370880859375,-1.4467978477478027,0.11284671723842621,-0.2685471773147583
1772713805742855000,10.38085498046875,-1.4651768207550049,-0.020323321223258972,-0.17694135010242462
1772713805752829000,10.390828857421875,-1.4865425825119019,-0.17829155921936035,-0.05384562164545059
1772713805762803000,10.400802978515625,-1.5268343687057495,-0.3246711492538452,0.08708992600440979
1772713805772777000,10.41077685546875,-1.561471939086914,-0.41942471265792847,0.22940585017204285
1772713805782750700,10.420750732421874,-1.609149694442749,-0.44054651260375977,0.3440573215484619
1772713805792725800,10.430725830078124,-1.6791914701461792,-0.4167235791683197,0.40477949380874634
1772713805802699800,10.44069970703125,-1.7335069179534912,-0.37581688165664673,0.4302220046520233
1772713805812673800,10.450673828125,-1.76151442527771,-0.3425710201263428,0.4202031195163727
1772713805822647800,10.460647705078125,-1.7824921607971191,-0.3183405101299286,0.4038510322570801
1772713805832621800,10.470621826171875,-1.8223357200622559,-0.31465137004852295,0.39790400862693787
1772713805842595800,10.480595947265625,-1.89030921459198,-0.33157068490982056,0.40333420038223267
1772713805852569900,10.49056982421875,-1.958885908126831,-0.3849102556705475,0.4021433889865875
1772713805862544000,10.5005439453125,-2.0244104862213135,-0.4486178457736969,0.3827134966850281
1772713805872518700,10.5105185546875,-2.0724387168884277,-0.5050002932548523,0.3445051610469818
1772713805882492700,10.52049267578125,-2.1037347316741943,-0.5513124465942383,0.3167845904827118
1772713805892466700,10.530466796875,-2.100658416748047,-0.5977610349655151,0.2908884882926941
1772713805902440700,10.540440673828124,-2.0639357566833496,-0.6270126700401306,0.25731587409973145
1772713805912414700,10.550414794921876,-2.0184054374694824,-0.6144629120826721,0.20483845472335815
1772713805922388700,10.560388671875,-1.9777932167053223,-0.5267594456672668,0.14400173723697662
1772713805932362800,10.57036279296875,-1.9601672887802124,-0.40137627720832825,0.07252738624811172
1772713805942336800,10.580336669921875,-1.958709955215454,-0.2656634449958801,-0.0005566775798797607
1772713805952311800,10.590311767578125,-1.9709523916244507,-0.154729962348938,-0.06939135491847992
1772713805962285800,10.600285888671875,-1.9856338500976562,-0.06745151430368423,-0.10406864434480667
1772713805972259800,10.610259765625,-1.991863489151001,-0.008570805191993713,-0.08310019969940186
1772713805982233900,10.62023388671875,-1.9834164381027222,0.006542367395013571,-0.005420051049441099
1772713805992208000,10.630207763671875,-1.9659022092819214,-0.0033785239793360233,0.08933331072330475
1772713806002182000,10.640181884765624,-1.945085048675537,-0.018166258931159973,0.17795585095882416
1772713806012155600,10.65015576171875,-1.9306578636169434,-0.02720818482339382,0.2626386880874634
1772713806022129700,10.660129638671876,-1.9129433631896973,-0.033070605248212814,0.3358851969242096
1772713806032103700,10.670103759765626,-1.8885717391967773,-0.0377788282930851,0.4030410051345825
1772713806042078700,10.68007861328125,-1.8596476316452026,-0.031313471496105194,0.47876638174057007
1772713806052052700,10.690052734375,-1.8309872150421143,-0.0009971639374271035,0.5666042566299438
1772713806062026800,10.70002685546875,-1.821277379989624,0.017637239769101143,0.6333689093589783
1772713806072000800,10.710000732421875,-1.8375437259674072,0.018395664170384407,0.6689082384109497
1772713806081974800,10.719974853515625,-1.8752065896987915,0.013654437847435474,0.6628530025482178
1772713806091948800,10.72994873046875,-1.8971061706542969,-0.013047420419752598,0.6086951494216919
1772713806101922800,10.7399228515625,-1.8753178119659424,0.40527525544166565,0.6099204421043396
1772713806111896800,10.749896728515624,-1.7872314453125,0.38748762011528015,0.6110789775848389
1772713806121871600,10.75987158203125,-1.735151767730713,0.23454095423221588,0.6184503436088562
1772713806131845600,10.769845703125,-1.722818374633789,0.24036343395709991,0.7327854633331299
1772713806141819600,10.779819580078126,-1.7064805030822754,0.09641078859567642,0.8014861941337585
1772713806151793700,10.789793701171876,-1.6676675081253052,-0.021632058545947075,0.8393987417221069
1772713806161767700,10.799767578125,-1.6263186931610107,-0.032769929617643356,0.8425050973892212
1772713806171741700,10.80974169921875,-1.624868631362915,0.058031633496284485,0.8331186771392822
1772713806181715700,10.8197158203125,-1.6429858207702637,0.16464994847774506,0.7949920892715454
1772713806191689700,10.829689697265625,-1.64173424243927,0.31936728954315186,0.7414500713348389
1772713806201663700,10.839663818359375,-1.6219536066055298,0.47445806860923767,0.661572277545929
1772713806211639000,10.84963916015625,-1.60331392288208,0.5085791349411011,0.5417945384979248
1772713806221613000,10.859613037109375,-1.6091052293777466,0.4208032190799713,0.3717482388019562
1772713806231586800,10.8695869140625,-1.6503853797912598,0.0983782708644867,0.1840132176876068
1772713806241560800,10.879560791015624,-1.7380505800247192,-0.22729410231113434,-0.015435703098773956
1772713806251534800,10.889534912109376,-1.873056411743164,-0.476906418800354,-0.2603067457675934
1772713806261508900,10.8995087890625,-2.034724473953247,-0.6027551889419556,-0.4948399066925049
1772713806271483000,10.90948291015625,-2.202634572982788,-0.5779848098754883,-0.6156884431838989
1772713806281456600,10.91945654296875,-2.3106296062469482,-0.49411362409591675,-0.5913791060447693
1772713806291432000,10.929431884765625,-2.361959934234619,-0.31537795066833496,-0.46879151463508606
1772713806301406000,10.939406005859375,-2.3382160663604736,-0.1678803712129593,-0.268630713224411
1772713806311380000,10.9493798828125,-2.2367825508117676,-0.007271206006407738,0.007153112441301346
1772713806321354000,10.95935400390625,-2.0890238285064697,0.07294879853725433,0.3060932159423828
1772713806331328000,10.969327880859375,-1.9182199239730835,0.045396845787763596,0.581541121006012
1772713806341302000,10.979302001953124,-1.7486006021499634,-0.08959212899208069,0.8076379299163818
1772713806351276000,10.989276123046874,-1.5907906293869019,-0.3083799481391907,0.9836142659187317
1772713806361250000,10.99925,-1.4606688022613525,-0.5759091377258301,1.1068755388259888
1772713806371223800,11.009223876953126,-1.3752707242965698,-0.8109360933303833,1.1626664400100708
1772713806381198800,11.01919873046875,-1.3384876251220703,-1.0259504318237305,1.1541969776153564
1772713806391172900,11.0291728515625,-1.3366647958755493,-1.172229528427124,1.1154098510742188
1772713806401147000,11.03914697265625,-1.353406548500061,-1.2548314332962036,1.0600299835205078
1772713806411121000,11.049120849609375,-1.3858472108840942,-1.291745901107788,0.9717791080474854
1772713806421095000,11.059094970703125,-1.4403328895568848,-1.3216369152069092,0.8355655670166016
1772713806431069000,11.06906884765625,-1.534820318222046,-1.3618290424346924,0.6545124053955078
1772713806441043000,11.07904296875,-1.6486265659332275,-1.3765003681182861,0.41888707876205444
1772713806451017000,11.089016845703124,-1.7813841104507446,-1.4079694747924805,0.1495700180530548
1772713806460991700,11.09899169921875,-1.914582371711731,-1.4678653478622437,-0.0700419545173645
1772713806470965800,11.1089658203125,-2.020855188369751,-1.5150723457336426,-0.21854571998119354
1772713806480939800,11.118939697265626,-2.1061084270477295,-1.5942505598068237,-0.28624382615089417
1772713806490913800,11.128913818359376,-2.1727797985076904,-1.6505818367004395,-0.22990161180496216
1772713806500887800,11.1388876953125,-2.237689733505249,-1.616255760192871,-0.07673656195402145
1772713806510857500,11.148857421875,-2.293309450149536,-1.5622695684432983,0.11488331854343414
1772713806520831500,11.15883154296875,-2.298490047454834,-1.5293896198272705,0.29384055733680725
1772713806530805500,11.168805419921876,-2.2440245151519775,-1.4824994802474976,0.42866984009742737
1772713806540779500,11.178779541015626,-2.2004940509796143,-1.492997407913208,0.48029282689094543
1772713806550754600,11.188754638671876,-2.1428754329681396,-1.5514637231826782,0.45402953028678894
1772713806560728600,11.198728515625,-2.040412187576294,-1.6227954626083374,0.3827311098575592
1772713806570702600,11.20870263671875,-1.9141616821289062,-1.6485471725463867,0.3092070519924164
1772713806580676600,11.218676513671875,-1.8048005104064941,-1.6481554508209229,0.2652113437652588
1772713806590650600,11.228650634765625,-1.7321052551269531,-1.6451793909072876,0.25265979766845703
1772713806600624600,11.238624755859375,-1.691353678703308,-1.6439876556396484,0.2478218972682953
1772713806610598700,11.2485986328125,-1.6644492149353027,-1.6454437971115112,0.23877525329589844
1772713806620572700,11.25857275390625,-1.6447409391403198,-1.6572471857070923,0.2417108565568924
1772713806630546700,11.268546630859374,-1.6072065830230713,-1.677774429321289,0.24840553104877472
1772713806640521500,11.278521484375,-1.5653150081634521,-1.7357357740402222,0.2567087411880493
1772713806650495500,11.28849560546875,-1.5361618995666504,-1.935852289199829,0.2774248719215393
1772713806660469500,11.298469482421876,-1.5299934148788452,-2.265101194381714,0.3139679729938507
1772713806670443500,11.308443603515625,-1.532594919204712,-2.5994906425476074,0.3284541368484497
1772713806680417500,11.31841748046875,-1.5121623277664185,-2.8445513248443604,0.29047292470932007
1772713806690391600,11.3283916015625,-1.4678751230239868,-2.918470621109009,0.17915329337120056
1772713806700365600,11.338365478515625,-1.4042532444000244,-2.8573999404907227,0.02915848046541214
1772713806710339600,11.348339599609375,-1.3335191011428833,-2.63014554977417,-0.07290474325418472
1772713806720314600,11.358314697265625,-1.2633130550384521,-2.2003159523010254,-0.1287355124950409
1772713806730288400,11.368288330078125,-1.1926212310791016,-1.715665578842163,-0.20798411965370178
1772713806740262400,11.378262451171874,-1.123295783996582,-1.2617111206054688,-0.3216363787651062
1772713806750236400,11.388236328125,-1.0683135986328125,-0.8577443361282349,-0.4582166075706482
1772713806760210400,11.39821044921875,-1.0300801992416382,-0.5070728659629822,-0.5627886056900024
1772713806770184400,11.408184326171876,-1.006805658340454,-0.23705069720745087,-0.6233473420143127
1772713806780158500,11.418158447265625,-0.9979029893875122,-0.058082278817892075,-0.6518529653549194
1772713806790132500,11.428132568359375,-1.0035351514816284,0.04679286479949951,-0.6493996977806091
1772713806800106500,11.4381064453125,-1.0147422552108765,0.07466284930706024,-0.6195557713508606
1772713806810081800,11.448081787109375,-1.0245115756988525,0.03132615610957146,-0.5716813206672668
1772713806820055800,11.458055908203125,-1.0211000442504883,-0.06542834639549255,-0.513775646686554
1772713806830029800,11.46802978515625,-1.0005451440811157,-0.1944100558757782,-0.44983962178230286
1772713806840003800,11.47800390625,-0.9669645428657532,-0.31493914127349854,-0.3730130195617676
1772713806849977900,11.487977783203124,-0.9270550608634949,-0.40043386816978455,-0.2902727723121643
1772713806859951600,11.49795166015625,-0.8898659348487854,-0.43825313448905945,-0.22394566237926483
1772713806869925600,11.507925537109376,-0.84246826171875,-0.4491579532623291,-0.1881353110074997
1772713806879899400,11.5178994140625,-0.7939257025718689,-0.4377284646034241,-0.16886095702648163
1772713806889874700,11.527874755859376,-0.7513929009437561,-0.3967193067073822,-0.15226705372333527
1772713806899848700,11.5378486328125,-0.718004584312439,-0.3241886496543884,-0.13518686592578888
1772713806909822700,11.54782275390625,-0.6961254477500916,-0.25447118282318115,-0.1135861873626709
1772713806919796700,11.557796630859375,-0.6938068866729736,-0.18098363280296326,-0.10051938891410828
1772713806929770800,11.567770751953125,-0.6966933012008667,-0.10828462988138199,-0.0921909362077713
1772713806939744800,11.577744873046875,-0.703015923500061,-0.05334574356675148,-0.09269001334905624
1772713806949718800,11.58771875,-0.7201651334762573,-0.025059305131435394,-0.08935989439487457
1772713806959692800,11.59769287109375,-0.7394323348999023,-0.010478498414158821,-0.08904137462377548
1772713806969666800,11.607666748046874,-0.7597845792770386,-0.03843951225280762,-0.08220227062702179
1772713806979640800,11.617640869140626,-0.767157256603241,-0.10738769173622131,-0.06553620845079422
1772713806989615600,11.62761572265625,-0.7667424082756042,-0.16826167702674866,-0.040459297597408295
1772713806999589600,11.637589599609376,-0.7482073307037354,-0.2147868424654007,-0.006768445484340191
1772713807009563600,11.647563720703126,-0.7144597768783569,-0.24738845229148865,0.02745344117283821
1772713807019537700,11.65753759765625,-0.6766207814216614,-0.2652263045310974,0.06676382571458817
1772713807029511700,11.66751171875,-0.6229783892631531,-0.29281505942344666,0.09910014271736145
1772713807039485700,11.677485595703125,-0.5710427165031433,-0.33560672402381897,0.1111578717827797
1772713807049459700,11.687459716796875,-0.5107834339141846,-0.37441831827163696,0.09808504581451416
1772713807059433700,11.697433837890625,-0.4661986529827118,-0.37159883975982666,0.06095791980624199
1772713807069408800,11.70740869140625,-0.43315979838371277,-0.3055811822414398,0.02085743099451065
1772713807079382800,11.7173828125,-0.40590396523475647,-0.18664199113845825,-0.018469201400876045
1772713807089356500,11.7273564453125,-0.38896262645721436,-0.05164933577179909,-0.04165947437286377
1772713807099330600,11.73733056640625,-0.378154456615448,0.0814911425113678,-0.05404317378997803
1772713807109304600,11.7473046875,-0.3637509346008301,0.2008519023656845,-0.05801623687148094
1772713807119278600,11.757278564453125,-0.3438595235347748,0.282391756772995,-0.08726093918085098
1772713807129252600,11.767252685546875,-0.3106358051300049,0.33733436465263367,-0.13317711651325226
1772713807139226600,11.7772265625,-0.2646898627281189,0.38623398542404175,-0.21558143198490143
1772713807149200600,11.78720068359375,-0.21625490486621857,0.39463871717453003,-0.3273025155067444
1772713807159175700,11.79717578125,-0.18028998374938965,0.3550305962562561,-0.4580802321434021
1772713807169149700,11.807149658203125,-0.16662125289440155,0.26736900210380554,-0.5921778678894043
1772713807179123700,11.817123779296875,-0.1567009836435318,0.12509284913539886,-0.7081665396690369
1772713807189097700,11.82709765625,-0.15012766420841217,-0.06274575740098953,-0.7915898561477661
1772713807199071700,11.83707177734375,-0.14085401594638824,-0.22722098231315613,-0.8255605697631836
1772713807209045800,11.847045654296876,-0.1501522660255432,-0.2980039715766907,-0.7800522446632385
1772713807219019800,11.857019775390626,-0.1562437117099762,-0.2844732403755188,-0.6328383088111877
1772713807228993500,11.86699365234375,-0.15168143808841705,-0.2130739837884903,-0.43226712942123413
1772713807238967600,11.876967529296875,-0.1438293755054474,-0.13560742139816284,-0.22391605377197266
1772713807248942600,11.886942626953125,-0.11919622123241425,-0.07882607728242874,-0.0194876566529274
1772713807258916600,11.89691650390625,-0.07613850384950638,-0.05561210215091705,0.1628139764070511
1772713807268890600,11.906890625,-0.022959811612963676,-0.057751987129449844,0.2902110815048218
1772713807278864600,11.91686474609375,0.04310335963964462,-0.043303269892930984,0.34486421942710876
1772713807288838700,11.926838623046875,0.1050729751586914,-0.00141402508597821,0.3160560429096222
1772713807298812700,11.936812744140624,0.15267698466777802,0.06826838850975037,0.222709059715271
1772713807308786700,11.94678662109375,0.17874231934547424,0.12211897224187851,0.08042499423027039
1772713807318760700,11.9567607421875,0.1652723252773285,0.17397363483905792,-0.1064135953783989
1772713807328734700,11.966734619140626,0.10503697395324707,0.18909671902656555,-0.2978683412075043
1772713807338709500,11.97670947265625,0.02596079558134079,0.22622278332710266,-0.47548919916152954
1772713807348683500,11.98668359375,-0.06674334406852722,0.2846832275390625,-0.6677213311195374
1772713807358657500,11.996657470703125,-0.2451586276292801,0.35783812403678894,-0.8658708930015564
1772713807368631600,12.006631591796875,-0.4824850559234619,0.40929412841796875,-1.0390082597732544
1772713807378605600,12.01660546875,-0.7207980751991272,0.4578331708908081,-1.1580443382263184
1772713807388579600,12.02657958984375,-0.9101184606552124,0.4846191704273224,-1.1921404600143433
1772713807398553600,12.0365537109375,-1.1468844413757324,0.4769649803638458,-1.113567590713501
1772713807408527600,12.046527587890624,-1.5348927974700928,0.4848037660121918,-0.9207648038864136
1772713807418501600,12.056501708984374,-1.8205034732818604,0.568876326084137,-0.6125539541244507
1772713807428476700,12.0664765625,-1.946197748184204,0.6430057883262634,-0.292711466550827
1772713807438450700,12.07645068359375,-1.798873782157898,0.7550119161605835,-0.05532979965209961
1772713807448424700,12.0864248046875,-1.4833693504333496,0.5233311057090759,0.16516534984111786
1772713807458398500,12.0963984375,-1.1333532333374023,0.21502815186977386,0.36135295033454895
1772713807468372500,12.10637255859375,-0.850247859954834,0.16096508502960205,0.4759030342102051
1772713807478346500,12.116346435546875,-0.6830000281333923,0.14437226951122284,0.5048454403877258
1772713807488320500,12.126320556640625,-0.620708167552948,0.002649479079991579,0.4420718252658844
1772713807498294500,12.13629443359375,-0.642318069934845,-0.09606245160102844,0.2631702721118927
1772713807508268000,12.14626806640625,-0.6788473725318909,-0.0897250771522522,-0.009725671261548996
1772713807518243000,12.1562431640625,-0.7203735113143921,0.015022644773125648,-0.31079044938087463
1772713807528217000,12.166217041015624,-0.7777683734893799,0.14187860488891602,-0.5937573909759521
1772713807538191000,12.176191162109374,-0.8831470012664795,0.1806134730577469,-0.825099527835846
1772713807548165000,12.1861650390625,-1.0371460914611816,0.14769868552684784,-0.9613487720489502
1772713807558139100,12.19613916015625,-1.1957656145095825,0.16807213425636292,-0.9421542882919312
1772713807568113200,12.206113037109375,-1.3486729860305786,0.23294486105442047,-0.7720964550971985
1772713807578087200,12.216087158203125,-1.5142539739608765,0.18620958924293518,-0.3977697193622589
1772713807588061200,12.226061279296875,-1.6235371828079224,0.027782509103417397,0.07487723976373672
1772713807598035200,12.23603515625,-1.6175575256347656,-0.16310276091098785,0.4370066821575165
1772713807608010000,12.246010009765625,-1.4948543310165405,-0.4062929153442383,0.3793666660785675
1772713807617984000,12.25598388671875,-1.3681550025939941,-0.8232962489128113,0.34163206815719604
1772713807627958000,12.2659580078125,-1.1948447227478027,-0.923955500125885,0.25119566917419434
1772713807637932000,12.27593212890625,-1.0189976692199707,-0.759859561920166,0.19855839014053345
1772713807647906000,12.285906005859376,-0.8242444396018982,-0.45018839836120605,0.1750202625989914
1772713807657880000,12.295880126953126,-0.6190694570541382,-0.1699673980474472,0.15342575311660767
1772713807667854000,12.30585400390625,-0.47363221645355225,0.05745778605341911,0.15582546591758728
1772713807677828000,12.315828125,-0.36708900332450867,0.24101988971233368,0.2194494605064392
1772713807687802000,12.325802001953125,-0.3335537910461426,0.4761137366294861,0.3941991329193115
1772713807697777200,12.335777099609375,-0.3501058518886566,0.7331031560897827,0.640579879283905
1772713807707751000,12.3457509765625,-0.3481966257095337,0.9430097937583923,0.8552094101905823
1772713807717725000,12.355724853515625,-0.30178332328796387,1.0121004581451416,0.9714870452880859
1772713807727699000,12.365698974609375,-0.2458636313676834,0.9190363883972168,1.0045664310455322
1772713807737673000,12.3756728515625,-0.20318114757537842,0.7465032339096069,0.9986574053764343
1772713807747647000,12.38564697265625,-0.23006412386894226,0.6442373394966125,1.0320273637771606
1772713807757621000,12.39562109375,-0.3497258126735687,0.3840494453907013,1.0117188692092896
1772713807767595000,12.405594970703126,-0.3888392448425293,0.13539601862430573,0.8455182909965515
1772713807777569000,12.415569091796876,-0.29237744212150574,0.016921039670705795,0.621161937713623
1772713807787544000,12.4255439453125,-0.23075781762599945,-0.0011747091775760055,0.39412155747413635
1772713807797518000,12.43551806640625,-0.20274536311626434,0.06665387749671936,0.1957261860370636
1772713807807492000,12.4454921875,-0.15307636559009552,0.10120037198066711,0.03870844095945358
1772713807817466000,12.455466064453125,-0.13728487491607666,0.17296376824378967,-0.10431315749883652
1772713807827440000,12.465440185546875,-0.17482301592826843,0.19834093749523163,-0.2103118896484375
1772713807837414100,12.4754140625,-0.2613285779953003,0.17982611060142517,-0.23174181580543518
