time,seconds_elapsed,z,y,x
1772561443456510000,0.070510009765625,-0.04333418235182762,0.009430592879652977,0.29807159304618835
1772561443466576000,0.080575927734375,-0.1541491150856018,-0.025018727406859398,0.38096192479133606
1772561443476642800,0.090642822265625,-0.23657874763011932,-0.07547257840633392,0.4390992820262909
1772561443486709000,0.100708984375,-0.26146650314331055,-0.11148091405630112,0.46553167700767517
1772561443496776000,0.11077587890625,-0.22287940979003906,-0.1196543425321579,0.4497808814048767
1772561443506841900,0.120841796875,-0.1422189176082611,-0.13288652896881104,0.39019396901130676
1772561443516908800,0.13090869140625,-0.03759115934371948,-0.11670442670583725,0.29198697209358215
1772561443526975000,0.14097509765625,0.07351911813020706,-0.10733649134635925,0.17386512458324432
1772561443537042000,0.1510419921875,0.1768089383840561,-0.11449278891086578,0.06837920099496841
1772561443547108900,0.16110888671875,0.25219929218292236,-0.09921423345804214,-0.02400319278240204
1772561443557175000,0.171175048828125,0.29727160930633545,-0.037629712373018265,-0.08128093183040619
1772561443567242200,0.1812421875,0.3246435821056366,0.05282428488135338,-0.1043471023440361
1772561443577308200,0.19130810546875,0.3262437880039215,0.13386112451553345,-0.11854107677936554
1772561443587375000,0.201375,0.30026358366012573,0.18249310553073883,-0.12361732870340347
1772561443597441300,0.211441162109375,0.26482680439949036,0.19768156111240387,-0.15077048540115356
1772561443607508200,0.22150830078125,0.2372971922159195,0.20344969630241394,-0.1899365335702896
1772561443617574100,0.23157421875,0.22651788592338562,0.23889002203941345,-0.22196312248706818
1772561443627641000,0.24164111328125,0.23046176135540009,0.3034234941005707,-0.21644611656665802
1772561443637707300,0.251707275390625,0.24687358736991882,0.3423362374305725,-0.1829349249601364
1772561443647774200,0.261774169921875,0.29083386063575745,0.3445186913013458,-0.14182238280773163
1772561443657841200,0.271841064453125,0.3367699980735779,0.3111079931259155,-0.09313065558671951
1772561443667907300,0.2819072265625,0.3756641149520874,0.3006580173969269,-0.019974946975708008
1772561443677974300,0.291974365234375,0.3775669038295746,0.29951584339141846,0.07836375385522842
1772561443688040200,0.302040283203125,0.3531193435192108,0.2969115376472473,0.17636115849018097
1772561443698107100,0.312107177734375,0.33635589480400085,0.32100221514701843,0.2683207392692566
1772561443708173300,0.32217333984375,0.34143853187561035,0.3673318922519684,0.37267643213272095
1772561443718240300,0.332240234375,0.3667495846748352,0.45611241459846497,0.47642284631729126
1772561443728306200,0.34230615234375,0.3960544764995575,0.5619789361953735,0.5488539338111877
1772561443738373400,0.352373291015625,0.43836838006973267,0.6724518537521362,0.5495016574859619
1772561443748440300,0.3624404296875,0.4897628426551819,0.8067372441291809,0.48541587591171265
1772561443758506200,0.37250634765625,0.527808427810669,1.014640212059021,0.38630211353302
1772561443768573200,0.3825732421875,0.51847243309021,1.2451062202453613,0.27413561940193176
1772561443778639000,0.39263916015625,0.4292030930519104,1.3713761568069458,0.1960209459066391
1772561443788706300,0.402706298828125,0.25596868991851807,1.499642252922058,0.19013270735740662
1772561443798772200,0.412772216796875,0.05407075583934784,1.4604772329330444,0.2105904221534729
1772561443808839200,0.422839111328125,-0.12726229429244995,1.3246541023254395,0.25292059779167175
1772561443818905000,0.432905029296875,-0.2740068733692169,1.1941217184066772,0.3109189569950104
1772561443828972000,0.442971923828125,-0.3750975430011749,1.1123003959655762,0.39747703075408936
1772561443839038200,0.4530380859375,-0.4136444926261902,1.07167387008667,0.4656068682670593
1772561443849105200,0.463105224609375,-0.405100017786026,1.0431692600250244,0.5231547951698303
1772561443859172000,0.473172119140625,-0.40095505118370056,0.9905655384063721,0.5595826506614685
1772561443869238000,0.483238037109375,-0.40184563398361206,0.9425191879272461,0.5757046341896057
1772561443879305200,0.49330517578125,-0.390407532453537,0.8731597065925598,0.5602787137031555
1772561443889371100,0.50337109375,-0.4085862636566162,0.7860066890716553,0.5120453834533691
1772561443899438000,0.51343798828125,-0.4668854773044586,0.6461374163627625,0.4661869704723358
1772561443909504300,0.523504150390625,-0.551184356212616,0.41634654998779297,0.4199931025505066
1772561443919571200,0.5335712890625,-0.6024385690689087,0.09321311861276627,0.3326987028121948
1772561443929637000,0.54363720703125,-0.5811993479728699,-0.17856088280677795,0.21593773365020752
1772561443939704000,0.5537041015625,-0.5532910823822021,-0.3415461778640747,0.12431599944829941
1772561443949771300,0.563771240234375,-0.6087535619735718,-0.4288656413555145,0.029404928907752037
1772561443959837200,0.573837158203125,-0.7121731042861938,-0.4438142776489258,-0.10069811344146729
1772561443969904000,0.583904052734375,-0.8192681074142456,-0.4215867221355438,-0.25790131092071533
1772561443979970300,0.59397021484375,-0.9004338979721069,-0.38874566555023193,-0.3877885639667511
1772561443990037200,0.604037353515625,-0.9445624947547913,-0.34274354577064514,-0.47758743166923523
1772561444000103200,0.614103271484375,-0.9445479512214661,-0.26708564162254333,-0.5223283767700195
1772561444010170000,0.624170166015625,-0.9527055025100708,-0.296960711479187,-0.548759937286377
1772561444020236300,0.634236328125,-1.0034205913543701,-0.40130287408828735,-0.5027441382408142
1772561444030303200,0.64430322265625,-1.05064857006073,-0.6463181972503662,-0.3826800584793091
1772561444040369200,0.654369140625,-1.0547113418579102,-0.8623501658439636,-0.16312487423419952
1772561444050436400,0.664436279296875,-1.0706119537353516,-1.0571998357772827,0.13378988206386566
1772561444060503300,0.67450341796875,-1.1758489608764648,-1.3120566606521606,0.4530337154865265
1772561444070569200,0.6845693359375,-1.3584102392196655,-1.445611596107483,0.700434684753418
1772561444080636200,0.69463623046875,-1.4831863641738892,-1.5985562801361084,0.8008672595024109
1772561444090702300,0.704702392578125,-1.5165393352508545,-1.7284209728240967,0.7359417676925659
1772561444100769300,0.714769287109375,-1.3981199264526367,-1.7895675897598267,0.6779618263244629
1772561444110835200,0.724835205078125,-1.2325767278671265,-1.9629428386688232,0.6888357400894165
1772561444120902400,0.73490234375,-1.0883731842041016,-1.9324795007705688,0.7033961415290833
1772561444130968000,0.744968017578125,-0.9516278505325317,-1.752633810043335,0.7210230827331543
1772561444141035000,0.755034912109375,-0.7857117056846619,-1.4471487998962402,0.7769749164581299
1772561444151101200,0.76510107421875,-0.6506801247596741,-1.2589144706726074,0.8740551471710205
1772561444161168100,0.775168212890625,-0.5422105193138123,-1.3601887226104736,0.9672812223434448
1772561444171235000,0.785235107421875,-0.34349504113197327,-1.6783396005630493,1.0244126319885254
1772561444181301000,0.795301025390625,-0.340911865234375,-1.9503180980682373,1.1124446392059326
1772561444191368200,0.8053681640625,-0.36071541905403137,-2.174485683441162,1.1995183229446411
1772561444201434000,0.81543408203125,-0.5476632118225098,-1.6377753019332886,1.0160729885101318
1772561444211501000,0.8255009765625,-0.7114539742469788,-1.0664923191070557,1.01461923122406
1772561444221567200,0.835567138671875,-0.7986972332000732,-0.38248777389526367,1.0391391515731812
1772561444231634200,0.84563427734375,-0.7580219507217407,0.13779191672801971,1.0422295331954956
1772561444241700000,0.8557001953125,-0.6368460059165955,0.204494908452034,0.931595504283905
1772561444251767000,0.86576708984375,-0.48020657896995544,-0.27201011776924133,0.5716336369514465
1772561444261834200,0.875834228515625,-0.2912142872810364,-0.6280732750892639,0.1486678272485733
1772561444271900200,0.885900146484375,-0.13563427329063416,-0.8260811567306519,-0.0915389209985733
1772561444281967000,0.895967041015625,-0.039004214107990265,-1.3748202323913574,-0.3178277909755707
1772561444292033300,0.906033203125,0.018229514360427856,-2.035522937774658,-0.4373883008956909
1772561444302100200,0.916100341796875,0.3518032133579254,-2.319125175476074,-0.5040836930274963
1772561444312166100,0.926166259765625,0.8020387887954712,-1.7171069383621216,-0.4941575229167938
1772561444322233000,0.936233154296875,1.0092570781707764,-0.6381611227989197,-0.4540438652038574
1772561444332299300,0.94629931640625,0.9321795701980591,0.0887274220585823,-0.38814929127693176
1772561444342366200,0.9563662109375,0.9588024020195007,0.173863485455513,-0.6254745721817017
1772561444352432000,0.96643212890625,1.504679799079895,0.4787251055240631,-1.180066704750061
1772561444362499300,0.976499267578125,1.7912620306015015,1.0596332550048828,-1.6008245944976807
1772561444372566300,0.986566162109375,1.8778131008148193,1.3546385765075684,-1.6516379117965698
1772561444382632200,0.996632080078125,1.6620436906814575,0.848181426525116,-1.585273265838623
1772561444392699100,1.00669921875,1.2517778873443604,-0.03533317521214485,-1.3784184455871582
1772561444402765300,1.016765380859375,0.7730630040168762,-0.7807825803756714,-1.1034092903137207
1772561444412832300,1.026832275390625,0.2524757385253906,-1.2177019119262695,-0.8627240657806396
1772561444422898200,1.036898193359375,-0.22131744027137756,-1.4656769037246704,-0.7248829007148743
1772561444432965400,1.04696533203125,-0.5307037830352783,-1.4775652885437012,-0.6497354507446289
1772561444443031300,1.05703125,-0.7154073119163513,-1.0615323781967163,-0.5090683102607727
1772561444453098200,1.06709814453125,-0.875446081161499,-0.4313032329082489,-0.2733779549598694
1772561444463164200,1.0771640625,-0.9086112976074219,-0.1116195097565651,-0.015261536464095116
1772561444473231000,1.087231201171875,-0.7945662140846252,-0.16198894381523132,0.2582498788833618
1772561444483298300,1.09729833984375,-0.47799134254455566,0.419764906167984,0.27551111578941345
1772561444493364000,1.107364013671875,-0.2094978243112564,0.5944117903709412,0.37387096881866455
1772561444503431200,1.11743115234375,-0.015522674657404423,0.8582119345664978,0.29761263728141785
1772561444513497000,1.1274970703125,0.20673543214797974,0.6533461213111877,0.005836973898112774
1772561444523564000,1.13756396484375,0.49266985058784485,-0.09652622789144516,-0.30758899450302124
1772561444533630200,1.147630126953125,0.6097986102104187,-0.23250935971736908,-0.3771939277648926
1772561444543697200,1.157697265625,0.6275821328163147,0.010620227083563805,-0.31338992714881897
1772561444553763000,1.16776318359375,0.6106905341148376,0.2762660086154938,-0.2734782099723816
1772561444563830300,1.177830322265625,0.6311339735984802,0.3156665563583374,-0.2688106298446655
1772561444573897500,1.1878974609375,0.6710081696510315,0.37633684277534485,-0.28207850456237793
1772561444583963400,1.19796337890625,0.6823517084121704,1.0023201704025269,-0.39633506536483765
1772561444594030300,1.2080302734375,0.8480650186538696,1.3415628671646118,-0.36846375465393066
1772561444604096500,1.218096435546875,1.0527920722961426,1.649746060371399,-0.1991589367389679
1772561444614163500,1.22816357421875,1.153106689453125,1.7492449283599854,0.19572579860687256
1772561444624229400,1.2382294921875,0.9564352035522461,1.546085238456726,0.6943010687828064
1772561444634296300,1.24829638671875,0.6220545768737793,0.8310021758079529,1.0465997457504272
1772561444644362500,1.258362548828125,0.37798067927360535,0.02886624075472355,1.4450737237930298
1772561444654429400,1.268429443359375,0.19882529973983765,-0.1912783682346344,1.8883280754089355
1772561444664495400,1.278495361328125,0.08812414854764938,-0.6516126394271851,2.2632863521575928
1772561444674562600,1.2885625,0.16212034225463867,-0.5790771842002869,2.7310378551483154
1772561444684629500,1.29862939453125,0.23673030734062195,-0.22053509950637817,2.976505756378174
1772561444694695400,1.3086953125,0.29506102204322815,0.26646360754966736,3.0151360034942627
1772561444704762400,1.318762451171875,0.33267247676849365,0.8779045939445496,2.738286018371582
1772561444714828500,1.32882861328125,0.38813894987106323,1.5523056983947754,2.1832995414733887
1772561444724895500,1.3388955078125,0.5498359799385071,2.0689749717712402,1.516847848892212
1772561444734961400,1.34896142578125,0.9438914060592651,2.4353222846984863,1.0857031345367432
1772561444745028600,1.359028564453125,1.4740052223205566,2.563572406768799,1.039947509765625
1772561444755094300,1.36909423828125,1.9132217168807983,2.3711936473846436,1.1516386270523071
1772561444765161500,1.379161376953125,2.062312364578247,2.1926960945129395,1.167846918106079
1772561444775228400,1.389228515625,1.9733490943908691,2.0182764530181885,0.8728319406509399
1772561444785294300,1.39929443359375,1.8891724348068237,1.7875431776046753,0.2726018726825714
1772561444795361500,1.409361572265625,2.044001579284668,1.563849925994873,-0.542945384979248
1772561444805427200,1.41942724609375,2.2751288414001465,1.320729374885559,-1.2386409044265747
1772561444815494400,1.429494384765625,2.32064151763916,1.2963310480117798,-1.4787520170211792
1772561444825560300,1.439560302734375,2.0749757289886475,1.645493507385254,-1.0608831644058228
1772561444835627300,1.449627197265625,1.600833535194397,1.7693876028060913,-0.447950541973114
1772561444845693400,1.459693359375,1.1969977617263794,1.199798822402954,-0.18329377472400665
1772561444855760400,1.469760498046875,1.1081137657165527,0.2790270745754242,-0.09946226328611374
1772561444865826300,1.479826416015625,0.8395738005638123,-0.5021167397499084,-0.13518908619880676
1772561444875893200,1.489893310546875,0.39332708716392517,-1.0790021419525146,-0.33586201071739197
1772561444885960400,1.49996044921875,-0.0010155458003282547,-1.2837319374084473,-0.5900176763534546
1772561444896026400,1.5100263671875,-0.3548828065395355,-1.2265833616256714,-0.9394659399986267
1772561444906093300,1.52009326171875,-0.7030522227287292,-0.8890069723129272,-1.3642672300338745
1772561444916159500,1.530159423828125,-1.020932912826538,-0.3199501931667328,-1.764568567276001
1772561444926226400,1.540226318359375,-1.2559068202972412,0.2132476568222046,-2.103801727294922
1772561444936292400,1.550292236328125,-1.3968322277069092,0.5434910655021667,-2.3577113151550293
1772561444946359300,1.560359375,-1.3603920936584473,0.7875292301177979,-2.437761068344116
1772561444956425500,1.570425537109375,-1.1060540676116943,1.1157305240631104,-2.2664239406585693
1772561444966492400,1.580492431640625,-0.8509771227836609,1.4671255350112915,-1.8772563934326172
1772561444976559400,1.590559326171875,-0.7453585863113403,1.7128934860229492,-1.4259307384490967
1772561444986625500,1.60062548828125,-0.8373492956161499,1.6422827243804932,-1.0631861686706543
1772561444996692500,1.6106923828125,-1.145854115486145,1.2917406558990479,-0.8506221771240234
1772561445006758400,1.62075830078125,-1.6201140880584717,0.8214150071144104,-0.8571786284446716
1772561445016825300,1.630825439453125,-2.057832717895508,0.4015607535839081,-1.026899814605713
1772561445026891500,1.6408916015625,-2.217668294906616,0.02180752158164978,-1.1919927597045898
1772561445036958500,1.65095849609375,-2.109673023223877,-0.34543412923812866,-1.2861374616622925
1772561445047024400,1.6610244140625,-1.869209885597229,-0.5507626533508301,-1.3249638080596924
1772561445057091600,1.671091552734375,-1.6296417713165283,-0.565104603767395,-1.3688286542892456
1772561445067157500,1.681157470703125,-1.477326512336731,-0.5548767447471619,-1.4621977806091309
1772561445077224400,1.691224365234375,-1.4381093978881836,-0.3319181799888611,-1.60555100440979
1772561445087291400,1.70129150390625,-1.4676470756530762,0.03406297042965889,-1.8365832567214966
1772561445097357600,1.711357666015625,-1.500531554222107,0.19486010074615479,-2.1966910362243652
1772561445107424500,1.721424560546875,-1.578114628791809,0.039631519466638565,-2.6668643951416016
1772561445117490200,1.731490234375,-1.711918592453003,-0.37478697299957275,-3.192046880722046
1772561445127557600,1.7415576171875,-1.8173656463623047,-0.6843364238739014,-3.6472060680389404
1772561445137623300,1.751623291015625,-1.855377435684204,-0.6848506927490234,-3.881991386413574
1772561445147690200,1.761690185546875,-1.828391194343567,-0.41500312089920044,-3.9175405502319336
1772561445157756400,1.77175634765625,-1.7164857387542725,-0.15270918607711792,-3.7809998989105225
1772561445167823400,1.7818232421875,-1.4358158111572266,-0.07708001881837845,-3.444227695465088
1772561445177890300,1.791890380859375,-0.9713996648788452,-0.3075238764286041,-3.1051204204559326
1772561445187956200,1.801956298828125,-0.5656654238700867,-0.6570339202880859,-2.7275238037109375
1772561445198023400,1.8120234375,-0.35090172290802,-1.0849125385284424,-2.183577299118042
1772561445208089300,1.82208935546875,-0.3757365345954895,-1.5061594247817993,-1.5092871189117432
1772561445218156300,1.83215625,-0.5274232625961304,-1.610005497932434,-0.7612485885620117
1772561445228222500,1.842222412109375,-0.5889808535575867,-1.4483579397201538,-0.12851592898368835
1772561445238289400,1.852289306640625,-0.479062020778656,-1.1889032125473022,0.20623037219047546
1772561445248355300,1.862355224609375,-0.1294236183166504,-0.8526557087898254,0.29191693663597107
1772561445258422300,1.87242236328125,0.325721800327301,-0.528788149356842,0.1552664041519165
1772561445268489500,1.882489501953125,0.5778001546859741,-0.18136222660541534,-0.051116351038217545
1772561445278555400,1.892555419921875,0.6109296083450317,-0.06562124192714691,0.027771275490522385
1772561445288622300,1.902622314453125,0.5939925909042358,-0.22287344932556152,0.5898606181144714
1772561445298688500,1.9126884765625,0.6914182305335999,-0.3705601096153259,1.6349066495895386
1772561445308755500,1.92275537109375,0.8732397556304932,-0.2555190324783325,2.8955278396606445
1772561445318821400,1.9328212890625,1.1079691648483276,0.07396059483289719,3.8975374698638916
1772561445328888300,1.942888427734375,1.290589690208435,0.07476212084293365,4.24294900894165
1772561445338954500,1.95295458984375,1.5064858198165894,-0.20227959752082825,4.230665683746338
1772561445349021400,1.963021484375,1.6885991096496582,-0.5364903211593628,4.156326770782471
1772561445359087400,1.97308740234375,1.627712368965149,-0.4735177755355835,4.2540435791015625
1772561445369154600,1.983154541015625,1.314955472946167,-0.2674751579761505,4.481994152069092
1772561445379221500,1.993221435546875,1.0420984029769897,0.0991949737071991,4.855197429656982
1772561445389287400,2.003287353515625,1.2548489570617676,0.498512327671051,5.3526611328125
1772561445399354400,2.013354248046875,1.6589610576629639,0.5993792414665222,5.617626667022705
1772561445409420500,2.023420654296875,1.846753478050232,0.4489629566669464,5.658870220184326
1772561445419487500,2.033487548828125,1.6886330842971802,0.030532430857419968,5.611746788024902
1772561445429553400,2.043553466796875,1.2309520244598389,-0.44739603996276855,5.691784858703613
1772561445439620600,2.05362060546875,0.2522062361240387,-0.5646060109138489,5.467430591583252
1772561445449686300,2.063686279296875,-0.2443649023771286,-0.3681710958480835,4.309999465942383
1772561445459753500,2.07375341796875,0.21853137016296387,-0.11070042103528976,2.6044468879699707
1772561445469820400,2.0838203125,0.499187707901001,0.5082229971885681,1.1296772956848145
1772561445479886300,2.09388623046875,0.4456174075603485,1.1530109643936157,0.150203138589859
1772561445489953500,2.10395361328125,0.39364004135131836,1.4456413984298706,-0.4794120192527771
1772561445500019200,2.114019287109375,0.5513980388641357,1.248808741569519,-0.8791197538375854
1772561445510086400,2.12408642578125,0.7817464470863342,0.5945581197738647,-1.083647608757019
1772561445520152300,2.13415234375,0.7817491292953491,-0.09117044508457184,-1.0357884168624878
1772561445530219300,2.14421923828125,0.5086420178413391,-0.5430118441581726,-0.7922170758247375
1772561445540285400,2.154285400390625,0.16019482910633087,-0.6786535978317261,-0.547109067440033
1772561445550352400,2.164352294921875,-0.027828369289636612,-0.26742643117904663,-0.2875027060508728
1772561445560419300,2.17441943359375,-0.11573958396911621,0.5386024713516235,-0.0004309993237257004
1772561445570485500,2.184485595703125,-0.15784192085266113,1.1916582584381104,0.07946308702230453
1772561445580552700,2.194552734375,-0.2427014261484146,1.483740210533142,-0.13759253919124603
1772561445590618600,2.20461865234375,-0.39448896050453186,1.389397382736206,-0.6498292684555054
1772561445600685600,2.214685546875,-0.6486930251121521,1.0890405178070068,-1.231553554534912
1772561445610751700,2.224751708984375,-0.8530513644218445,0.6993494033813477,-1.7171512842178345
1772561445620818700,2.234818603515625,-0.9543569087982178,0.429965615272522,-2.0226798057556152
1772561445630884400,2.24488427734375,-0.9100924730300903,0.39562055468559265,-2.011788845062256
1772561445640951600,2.25495166015625,-0.6691123843193054,0.433734655380249,-1.761674404144287
1772561445651018500,2.2650185546875,-0.31764933466911316,0.31995856761932373,-1.4487183094024658
1772561445661084400,2.27508447265625,0.021125519648194313,0.03527141734957695,-1.154632329940796
1772561445671151600,2.285151611328125,0.14143995940685272,-0.597093403339386,-1.0112428665161133
1772561445681217500,2.295217529296875,-0.03608716279268265,-1.3601901531219482,-1.1038073301315308
1772561445691284500,2.305284423828125,-0.2836964428424835,-1.8754308223724365,-1.336384892463684
1772561445701350400,2.315350341796875,-0.41888222098350525,-1.9572519063949585,-1.6330865621566772
1772561445711417300,2.325417236328125,-0.45632290840148926,-1.6817868947982788,-2.0381641387939453
1772561445721483500,2.3354833984375,-0.4355694055557251,-1.15473210811615,-2.526773452758789
1772561445731550500,2.345550537109375,-0.4829164147377014,-0.44294312596321106,-3.0091116428375244
1772561445741617400,2.355617431640625,-0.6122339367866516,0.28391289710998535,-3.3289740085601807
1772561445751683600,2.36568359375,-0.7951030135154724,0.8131491541862488,-3.396632432937622
1772561445761750500,2.37575048828125,-0.9621562361717224,1.0774803161621094,-3.207725763320923
1772561445771816400,2.38581640625,-1.1069049835205078,1.0379626750946045,-2.826000452041626
1772561445781883400,2.39588330078125,-1.2366684675216675,0.7674261927604675,-2.3366663455963135
1772561445791949600,2.405949462890625,-1.327092170715332,0.3502773642539978,-1.8020012378692627
1772561445802016500,2.4160166015625,-1.4101516008377075,-0.19211696088314056,-1.3085062503814697
1772561445812082400,2.42608251953125,-1.5362850427627563,-0.7199006080627441,-0.9372473955154419
1772561445822149600,2.436149658203125,-1.703384280204773,-1.285800576210022,-0.7962050437927246
1772561445832215600,2.446215576171875,-1.7499370574951172,-1.6833770275115967,-0.9175528883934021
1772561445842282500,2.456282470703125,-1.5282411575317383,-1.8108413219451904,-1.10153329372406
1772561445852349400,2.466349365234375,-1.0704158544540405,-1.4305723905563354,-1.0379542112350464
1772561445862415600,2.47641552734375,-0.5602948665618896,-0.716090202331543,-0.6959683895111084
1772561445872482600,2.486482666015625,-0.15437784790992737,0.05238252133131027,-0.18799011409282684
1772561445882548500,2.496548583984375,0.031759802252054214,0.6755725741386414,0.33429598808288574
1772561445892615700,2.50661572265625,0.032697249203920364,1.0301154851913452,0.849011242389679
1772561445902681600,2.516681640625,-0.09503728151321411,0.904222309589386,1.273483157157898
1772561445912748500,2.52674853515625,-0.07620663195848465,0.6836538910865784,1.8724451065063477
1772561445922815500,2.5368154296875,0.4251853823661804,0.8417729735374451,2.8681139945983887
1772561445932881700,2.546881591796875,0.9647614359855652,1.1061084270477295,3.8107361793518066
1772561445942948600,2.556948486328125,1.3409862518310547,1.0804635286331177,4.3901686668396
1772561445953014500,2.5670146484375,1.4668169021606445,0.31426194310188293,4.4032301902771
1772561445963081500,2.57708154296875,1.3627067804336548,-0.2290753722190857,4.303343772888184
1772561445973147600,2.587147705078125,1.1985119581222534,-0.26295140385627747,4.343699932098389
1772561445983214600,2.597214599609375,1.2437244653701782,0.22845028340816498,4.358693599700928
1772561445993280500,2.607280517578125,1.6802598237991333,0.7514522671699524,4.347897052764893
1772561446003347700,2.61734765625,2.0858750343322754,1.154947280883789,4.353816032409668
1772561446013414700,2.62741455078125,2.306166648864746,1.0934617519378662,4.28668212890625
1772561446023480300,2.637480224609375,1.9226187467575073,0.21166221797466278,3.8507909774780273
1772561446033547500,2.647547607421875,1.2951595783233643,-0.008042455650866032,3.5703794956207275
1772561446043613400,2.657613525390625,0.9418909549713135,0.4667206108570099,2.8807878494262695
1772561446053680400,2.667680419921875,1.3064662218093872,0.6051310896873474,1.2526344060897827
1772561446063746600,2.67774658203125,1.7147636413574219,0.5526964068412781,-0.47888416051864624
1772561446073813500,2.6878134765625,1.6029263734817505,0.5126452445983887,-1.5070406198501587
1772561446083879400,2.69787939453125,1.2599499225616455,0.3955097794532776,-1.8933863639831543
1772561446093946400,2.7079462890625,0.9340113401412964,0.1019524410367012,-2.0404293537139893
1772561446104012500,2.718012451171875,0.6584128141403198,-0.2881889343261719,-2.028569221496582
1772561446114079500,2.72807958984375,0.33078619837760925,-0.6322567462921143,-1.8835523128509521
1772561446124146400,2.738146484375,-0.07437698543071747,-0.7206276059150696,-1.7307497262954712
1772561446134212600,2.748212646484375,-0.4090157151222229,-0.3636928200721741,-1.5650560855865479
1772561446144279600,2.758279541015625,-0.5589072108268738,0.4179433584213257,-1.2819359302520752
1772561446154345500,2.768345458984375,-0.6524072289466858,1.2834316492080688,-0.8920407295227051
1772561446164412400,2.778412353515625,-0.715907871723175,1.7144091129302979,-0.5274659395217896
1772561446174478600,2.788478515625,-0.7931028008460999,1.53590989112854,-0.3645075857639313
1772561446184545500,2.798545654296875,-0.8634989261627197,0.8875728845596313,-0.47437840700149536
1772561446194612500,2.808612548828125,-0.877778947353363,0.13472503423690796,-0.6630626320838928
1772561446204678700,2.8186787109375,-0.8521215319633484,-0.3881951570510864,-0.8277778029441833
1772561446214745600,2.82874560546875,-0.7948390245437622,-0.515120804309845,-0.8658788800239563
1772561446224811500,2.8388115234375,-0.6849748492240906,-0.43027567863464355,-0.8577751517295837
1772561446234878500,2.84887841796875,-0.594299852848053,-0.26407334208488464,-0.823661208152771
1772561446244944600,2.858944580078125,-0.5843870043754578,-0.11173759400844574,-0.8304101824760437
1772561446255011600,2.869011474609375,-0.6573903560638428,-0.03474412485957146,-0.9047886729240417
1772561446265077500,2.879077392578125,-0.7922030687332153,-0.025002548471093178,-1.0200177431106567
1772561446275144700,2.889144775390625,-0.9428397417068481,-0.08757949620485306,-1.1741057634353638
1772561446285211600,2.899211669921875,-1.1047085523605347,-0.21237869560718536,-1.3557263612747192
1772561446295277600,2.909277587890625,-1.318344235420227,-0.30971360206604004,-1.5380390882492065
1772561446305344500,2.919344482421875,-1.5548959970474243,-0.47350573539733887,-1.7652021646499634
1772561446315410700,2.92941064453125,-1.7605175971984863,-0.6897470951080322,-2.1009230613708496
1772561446325477600,2.9394775390625,-1.8963598012924194,-0.7485973238945007,-2.432575225830078
1772561446335543600,2.94954345703125,-2.0305240154266357,-0.6241783499717712,-2.663989782333374
1772561446345610500,2.959610595703125,-2.166611671447754,-0.3948170840740204,-2.6850333213806152
1772561446355676400,2.969676513671875,-2.2171194553375244,-0.23151426017284393,-2.4559102058410645
1772561446365743600,2.97974365234375,-2.1717677116394043,-0.2022772878408432,-1.984255313873291
1772561446375810600,2.989810546875,-2.0724949836730957,-0.3575120270252228,-1.4017442464828491
1772561446385876500,2.99987646484375,-2.0135645866394043,-0.6196547150611877,-0.8048796653747559
1772561446395943700,3.009943603515625,-2.066267728805542,-0.9527785778045654,-0.23883268237113953
1772561446406009300,3.02000927734375,-2.2057230472564697,-1.5028960704803467,0.20310717821121216
1772561446416076500,3.03007666015625,-2.3222100734710693,-2.2117159366607666,0.3887712061405182
1772561446426142500,3.040142578125,-2.3220977783203125,-2.660907030105591,0.2597362697124481
1772561446436209400,3.05020947265625,-2.1669304370880127,-2.5988669395446777,-0.031007928773760796
1772561446446275600,3.060275634765625,-1.899076223373413,-2.010468006134033,-0.29329413175582886
1772561446456342500,3.070342529296875,-1.5190330743789673,-0.9772263765335083,-0.41432592272758484
1772561446466409500,3.080409423828125,-1.0658780336380005,0.018325787037611008,-0.3323064148426056
1772561446476475400,3.090475341796875,-0.6923430562019348,0.7143643498420715,-0.11321748793125153
1772561446486542300,3.100542236328125,-0.39341890811920166,1.1422747373580933,0.30110806226730347
1772561446496608500,3.1106083984375,-0.1538112610578537,1.0118962526321411,0.8416898250579834
1772561446506675500,3.120675537109375,0.06040942296385765,0.6961976885795593,1.5230553150177002
1772561446516741600,3.13074169921875,0.5475016236305237,0.6774554252624512,2.422589063644409
1772561446526808600,3.14080859375,1.1931943893432617,0.7265087366104126,3.30702543258667
1772561446536875500,3.15087548828125,1.589490532875061,0.6021593809127808,3.7808284759521484
1772561446546941400,3.16094140625,1.573269009590149,-0.2522535026073456,3.516263723373413
1772561446557008400,3.17100830078125,1.3316928148269653,-0.8996812701225281,2.861138343811035
1772561446567074600,3.181074462890625,1.5334137678146362,0.009692350402474403,2.589794397354126
1772561446577141800,3.191141845703125,1.7729923725128174,1.0794389247894287,2.31608247756958
1772561446587207700,3.201207763671875,2.279677391052246,2.0225346088409424,2.051060914993286
1772561446597274600,3.211274658203125,3.082735061645508,2.5230953693389893,2.1296932697296143
1772561446607340500,3.221340576171875,3.7938640117645264,2.350123643875122,2.851472854614258
1772561446617407500,3.231407470703125,4.1678009033203125,1.3021165132522583,3.988931894302368
1772561446627474400,3.241474365234375,4.177191734313965,0.1426190286874771,5.290574073791504
1772561446637540600,3.25154052734375,3.915616512298584,-0.6454789638519287,6.320352554321289
1772561446647607600,3.261607666015625,3.5218770503997803,-1.4689980745315552,6.426209926605225
1772561446657673500,3.271673583984375,3.1332995891571045,-1.7105203866958618,5.783945083618164
1772561446667740700,3.28174072265625,2.965747833251953,-0.9223242998123169,4.56497859954834
1772561446677806600,3.291806640625,2.7139830589294434,0.24551229178905487,2.698943853378296
1772561446687873500,3.30187353515625,2.4113693237304688,0.9913364052772522,0.7854107618331909
1772561446697939700,3.311939697265625,2.071964979171753,1.1230710744857788,-0.5310813188552856
1772561446708006700,3.322006591796875,1.5334044694900513,0.8077977895736694,-1.2222424745559692
1772561446718073600,3.332073486328125,0.8779696822166443,0.3441097140312195,-1.5294616222381592
1772561446728139500,3.342139404296875,0.32568708062171936,0.0030650312546640635,-1.6267426013946533
1772561446738206700,3.352206787109375,-0.14457732439041138,-0.12597231566905975,-1.6056329011917114
1772561446748272600,3.362272705078125,-0.5824539661407471,0.17823365330696106,-1.3225293159484863
1772561446758339600,3.372339599609375,-0.7315352559089661,0.7142190933227539,-0.7527452707290649
1772561446768405800,3.38240576171875,-0.7131141424179077,1.1350594758987427,-0.08214583992958069
1772561446778472700,3.39247265625,-0.8141161799430847,1.2702704668045044,0.37039461731910706
1772561446788538600,3.40253857421875,-1.1240851879119873,1.1078402996063232,0.36829206347465515
1772561446798605600,3.41260546875,-1.5323256254196167,0.7618904113769531,-0.08923310041427612
1772561446808672800,3.4226728515625,-1.9129557609558105,0.5051515698432922,-0.8136727809906006
1772561446818738700,3.43273876953125,-2.1505885124206543,0.6038262844085693,-1.533617377281189
1772561446828805600,3.4428056640625,-2.1834795475006104,0.9849187731742859,-2.0592076778411865
1772561446838871800,3.452871826171875,-2.0949254035949707,1.34791100025177,-2.3394269943237305
1772561446848938800,3.462938720703125,-1.9827444553375244,1.5091630220413208,-2.347620964050293
1772561446859004700,3.473004638671875,-1.8774378299713135,1.4955896139144897,-2.0802001953125
1772561446869071600,3.483071533203125,-1.7939207553863525,1.2642892599105835,-1.664199948310852
1772561446879138800,3.493138916015625,-1.6885946989059448,0.7004443407058716,-1.3289098739624023
1772561446889204700,3.503204833984375,-1.5575016736984253,0.01563161425292492,-1.1763262748718262
1772561446899271700,3.513271728515625,-1.4307231903076172,-0.40535661578178406,-1.1727358102798462
1772561446909337900,3.523337890625,-1.3239303827285767,-0.5976954102516174,-1.2958660125732422
1772561446919404800,3.53340478515625,-1.2201489210128784,-0.7502659559249878,-1.5635932683944702
1772561446929470500,3.543470458984375,-1.1268727779388428,-0.7884396910667419,-1.95343017578125
1772561446939537700,3.55353759765625,-1.119933009147644,-0.730526328086853,-2.446115493774414
1772561446949603600,3.563603515625,-1.2072402238845825,-0.6313004493713379,-2.961817979812622
1772561446959670500,3.57367041015625,-1.2681834697723389,-0.4661138653755188,-3.327878952026367
1772561446969737700,3.58373779296875,-1.2405418157577515,-0.12365584820508957,-3.3990535736083984
1772561446979803600,3.5938037109375,-1.130392074584961,0.30151575803756714,-3.153329610824585
1772561446989870600,3.60387060546875,-0.9538831114768982,0.6672729253768921,-2.642510414123535
1772561446999936500,3.6139365234375,-0.7298422455787659,0.8205443620681763,-2.0229647159576416
1772561447010003500,3.62400341796875,-0.496367484331131,0.6767019629478455,-1.4160107374191284
1772561447020069600,3.634069580078125,-0.3193439543247223,0.2953146994113922,-0.9660810828208923
1772561447030136600,3.644136474609375,-0.1855297088623047,-0.2222086489200592,-0.7009932398796082
1772561447040202500,3.654202392578125,-0.030242281034588814,-0.7265418171882629,-0.565869152545929
1772561447050269700,3.664269775390625,0.1484643518924713,-1.0724753141403198,-0.5464051365852356
1772561447060336600,3.674336669921875,0.31141331791877747,-1.1792246103286743,-0.5983312129974365
1772561447070402600,3.684402587890625,0.4077875018119812,-1.154970407485962,-0.6781088709831238
1772561447080469500,3.694469482421875,0.37158578634262085,-1.0379292964935303,-0.7530350089073181
1772561447090535700,3.70453564453125,0.2945197820663452,-0.7659434080123901,-0.7445001006126404
1772561447100602600,3.7146025390625,0.35065996646881104,-0.43548667430877686,-0.7202696204185486
1772561447110668500,3.72466845703125,0.5770869851112366,-0.3053414523601532,-0.7633252143859863
1772561447120735700,3.73473583984375,0.8723695874214172,-0.20719094574451447,-0.8113309741020203
1772561447130802700,3.744802734375,1.174996256828308,0.12109852582216263,-0.8023779392242432
1772561447140868600,3.75486865234375,1.622686505317688,0.7837965488433838,-0.764090359210968
1772561447150935600,3.764935546875,2.200582504272461,1.5809245109558105,-0.750863254070282
1772561447161001700,3.775001708984375,2.4647510051727295,1.5471794605255127,-1.097120761871338
1772561447171068700,3.785068603515625,1.9848463535308838,0.8196264505386353,-1.7459325790405273
1772561447181134600,3.795134521484375,1.220150113105774,0.6422793865203857,-1.9715330600738525
1772561447191201800,3.805201904296875,0.7163226008415222,1.1210438013076782,-1.8362668752670288
1772561447201267700,3.815267822265625,0.7211079597473145,1.4694253206253052,-1.7867125272750854
1772561447211334700,3.825334716796875,1.2915652990341187,1.573163390159607,-1.7163238525390625
1772561447221401600,3.835401611328125,1.895269751548767,1.7583187818527222,-1.3071174621582031
1772561447231467800,3.8454677734375,1.7624413967132568,1.7766828536987305,-0.6689097881317139
1772561447241534700,3.85553466796875,1.1906112432479858,1.500908374786377,0.20978598296642303
1772561447251600600,3.8656005859375,0.4907473921775818,0.44282063841819763,1.0455636978149414
1772561447261667800,3.875667724609375,-0.26048943400382996,-1.6309409141540527,1.2064067125320435
1772561447271733800,3.885733642578125,-0.6024973392486572,-3.3186211585998535,0.8380432724952698
1772561447281800700,3.89580078125,-0.5024645924568176,-3.650458574295044,0.7228795886039734
1772561447291867600,3.90586767578125,-0.3667515218257904,-3.0117883682250977,0.8407087326049805
1772561447301933800,3.915933837890625,-0.38565441966056824,-2.4172708988189697,0.7920610308647156
1772561447312000800,3.926000732421875,-0.4628722369670868,-1.9459551572799683,0.6137381792068481
1772561447322066400,3.93606640625,-0.4492057263851166,-1.4350868463516235,0.2864627540111542
1772561447332134000,3.9461337890625,-0.34356558322906494,-0.7626854181289673,-0.15373753011226654
1772561447342199600,3.956199462890625,-0.1764811873435974,0.08591984212398529,-0.4551672637462616
1772561447352266500,3.9662666015625,-0.001516570569947362,1.0027620792388916,-0.445091187953949
1772561447362332700,3.976332763671875,0.14286546409130096,1.6126563549041748,-0.28255921602249146
1772561447372399600,3.986399658203125,0.2383645623922348,1.9491006135940552,-0.0426507368683815
1772561447382466600,3.996466552734375,0.2392948418855667,1.9648685455322266,0.12224055826663971
1772561447392532500,4.006532470703125,0.05926302447915077,1.4951703548431396,0.07760384678840637
1772561447402599700,4.016599609375,-0.27223676443099976,0.7407382130622864,-0.18351291120052338
1772561447412665600,4.02666552734375,-0.5412722229957581,0.23438149690628052,-0.45392388105392456
1772561447422732500,4.036732666015625,-0.5616037249565125,0.09134847670793533,-0.5781964659690857
1772561447432798700,4.046798828125,-0.3541887700557709,0.15672482550144196,-0.5444867014884949
1772561447442865700,4.05686572265625,-0.04417921602725983,0.33632391691207886,-0.4759686589241028
1772561447452932600,4.0669326171875,0.21446219086647034,0.5653656125068665,-0.4171255826950073
1772561447462998500,4.07699853515625,0.3256925642490387,0.6964993476867676,-0.40748971700668335
1772561447473065700,4.087065673828125,0.28143107891082764,0.6064869165420532,-0.5195688605308533
1772561447483131600,4.097131591796875,0.1456766277551651,0.3420954644680023,-0.718254029750824
1772561447493198600,4.107198486328125,-0.010767313651740551,0.017607394605875015,-0.920283854007721
1772561447503264800,4.1172646484375,-0.2228672057390213,-0.2590155005455017,-1.127296805381775
1772561447513331700,4.127331787109375,-0.49583378434181213,-0.4612964391708374,-1.347564697265625
1772561447523397600,4.137397705078125,-0.7512505054473877,-0.5267178416252136,-1.4961984157562256
1772561447533464600,4.147464599609375,-0.9196861386299133,-0.3865218758583069,-1.51131272315979
1772561447543531800,4.15753173828125,-0.9775201678276062,-0.058257654309272766,-1.3892678022384644
1772561447553597700,4.16759765625,-0.8998450636863708,0.38568732142448425,-1.0646209716796875
1772561447563664600,4.17766455078125,-0.6391957998275757,0.636161744594574,-0.41919758915901184
1772561447573730800,4.187730712890625,-0.37616604566574097,0.3227926194667816,0.5116419196128845
1772561447583798000,4.197798095703125,-0.3598079979419708,-0.638568103313446,1.2599836587905884
1772561447593863700,4.20786376953125,-0.6987034678459167,-1.4017213582992554,1.4772228002548218
1772561447603930600,4.2179306640625,-1.1146358251571655,-1.6483888626098633,1.3059865236282349
1772561447613997800,4.227997802734375,-1.3154809474945068,-1.5049927234649658,0.8414406180381775
1772561447624063700,4.238063720703125,-1.2903261184692383,-1.1362147331237793,0.21846258640289307
1772561447634130700,4.248130615234375,-1.145715594291687,-0.6295428276062012,-0.3192621171474457
1772561447644196900,4.25819677734375,-1.0372432470321655,0.05970599502325058,-0.5795599222183228
1772561447654263800,4.268263916015625,-0.9680120348930359,0.7375649213790894,-0.49972105026245117
1772561447664329700,4.278329833984375,-0.9221959114074707,1.149268627166748,-0.10169947147369385
1772561447674396700,4.288396728515625,-0.8611426949501038,1.0838160514831543,0.43430376052856445
1772561447684462800,4.298462890625,-0.7491304874420166,0.759181797504425,1.039150357246399
1772561447694529800,4.30852978515625,-0.573594331741333,0.4281191825866699,1.6468830108642578
1772561447704596700,4.3185966796875,-0.4620446562767029,-0.24463166296482086,1.926064372062683
1772561447714663000,4.328662841796875,-0.46434110403060913,-0.735283613204956,2.008427858352661
1772561447724729900,4.338729736328125,-0.4178938865661621,-0.5835030674934387,2.1417460441589355
1772561447734795800,4.348795654296875,-0.1885986477136612,-0.5851438641548157,1.892894983291626
1772561447744862700,4.35886279296875,-0.0027133668772876263,-1.1477138996124268,0.7659679055213928
1772561447754929000,4.368928955078125,-0.09449521452188492,-0.5844992399215698,-0.4938686490058899
1772561447764995800,4.378995849609375,-0.10702912509441376,1.089414358139038,-1.0752551555633545
1772561447775062800,4.389062744140625,-0.11780188232660294,2.0723867416381836,-1.2802759408950806
1772561447785128700,4.399128662109375,0.3682236075401306,2.4249637126922607,-0.9513663649559021
1772561447795196000,4.40919580078125,1.2716224193572998,2.2622311115264893,0.16577883064746857
1772561447805261800,4.41926171875,1.7272999286651611,1.1805466413497925,1.5612074136734009
1772561447815328800,4.429328857421875,1.7792956829071045,-0.30414220690727234,2.3859658241271973
1772561447825395000,4.43939501953125,1.2637860774993896,-1.2671140432357788,2.7325477600097656
1772561447835462000,4.4494619140625,0.5111592411994934,-2.393782138824463,2.4167182445526123
1772561447845527800,4.45952783203125,0.17900389432907104,-3.1984786987304688,1.5075433254241943
1772561447855594800,4.4695947265625,0.3163388669490814,-3.0075738430023193,0.5151795744895935
1772561447865662000,4.479661865234375,0.3231349587440491,-1.6650159358978271,-0.29684633016586304
1772561447875728000,4.489727783203125,0.1684018224477768,0.06436733156442642,-0.9781734943389893
1772561447885794800,4.499794921875,-0.051358748227357864,1.3952313661575317,-1.5351108312606812
1772561447895861000,4.509861083984375,-0.44646161794662476,1.9294606447219849,-2.0468909740448
1772561447905928000,4.519927978515625,-0.9544546008110046,1.6043734550476074,-2.435333251953125
1772561447915993900,4.529993896484375,-1.3742483854293823,0.9923536777496338,-2.461669921875
1772561447926060800,4.540060791015625,-1.5296180248260498,0.5548945665359497,-1.982180118560791
1772561447936128000,4.5501279296875,-1.3764069080352783,0.44554227590560913,-1.0289807319641113
1772561447946194000,4.56019384765625,-0.9090489745140076,0.5628865957260132,0.18428140878677368
1772561447956260900,4.5702607421875,-0.42214375734329224,0.588310182094574,1.2803006172180176
1772561447966326800,4.580326904296875,-0.019655659794807434,0.3134230077266693,1.9599796533584595
1772561447976392700,4.590392822265625,0.25008660554885864,-0.24784910678863525,2.0022530555725098
1772561447986459600,4.600459716796875,0.3258955776691437,-0.8202271461486816,1.4627984762191772
1772561447996525800,4.61052587890625,0.2736222445964813,-1.0970762968063354,0.6987891793251038
1772561448006592800,4.6205927734375,0.2838863730430603,-0.9419922828674316,-0.03190644457936287
1772561448016658700,4.63065869140625,0.4561300575733185,-0.3698800802230835,-0.5124186873435974
1772561448026726000,4.640725830078125,0.7125077247619629,0.3544197082519531,-0.7041007280349731
1772561448036792800,4.650792724609375,0.9326659440994263,0.8619985580444336,-0.6683946251869202
1772561448046858800,4.660858642578125,1.0660566091537476,1.012183427810669,-0.5165764093399048
1772561448056925700,4.67092578125,1.0321292877197266,0.8563379049301147,-0.35429349541664124
1772561448066991900,4.680991943359375,0.9015505313873291,0.409402996301651,-0.18515555560588837
1772561448077058800,4.691058837890625,0.7188920378684998,-0.25759077072143555,-0.12385998666286469
1772561448087124700,4.701124755859375,0.39536651968955994,-0.9396518468856812,-0.33828485012054443
1772561448097192000,4.71119189453125,0.011984793469309807,-1.3006553649902344,-0.810535192489624
1772561448107259000,4.7212587890625,-0.20297563076019287,-1.3527328968048096,-1.396952748298645
1772561448117324800,4.73132470703125,-0.26820096373558044,-1.1490551233291626,-1.9864269495010376
1772561448127391700,4.741391845703125,-0.31012433767318726,-0.649139940738678,-2.393692970275879
1772561448137458000,4.7514580078125,-0.4307332932949066,-0.08930669724941254,-2.6268911361694336
1772561448147524900,4.76152490234375,-0.6636121869087219,0.36741259694099426,-2.594069480895996
1772561448157590800,4.7715908203125,-0.8413270711898804,0.6988911628723145,-2.2514874935150146
1772561448167657700,4.78165771484375,-0.8385167717933655,0.8855699300765991,-1.7213053703308105
1772561448177725000,4.791724853515625,-0.665433943271637,0.7400053143501282,-1.1653987169265747
1772561448187790800,4.801790771484375,-0.4409736692905426,0.2030647099018097,-0.6831315159797668
1772561448197857800,4.81185791015625,-0.24924206733703613,-0.49339666962623596,-0.294083833694458
1772561448207924000,4.821924072265625,-0.08775731921195984,-1.100069284439087,-0.05440197512507439
1772561448217991000,4.831990966796875,0.012229462154209614,-1.3799747228622437,0.02753097377717495
1772561448228056800,4.842056884765625,0.04275995492935181,-1.2177990674972534,0.028467856347560883
1772561448238123800,4.852123779296875,0.17435447871685028,-0.7641080617904663,0.055009182542562485
1772561448248190000,4.86218994140625,0.46672719717025757,-0.3768150806427002,0.1739458292722702
1772561448258257000,4.8722568359375,0.9055625796318054,-0.2639276683330536,0.4567128121852875
1772561448268323800,4.88232373046875,1.236369013786316,-0.23435409367084503,0.8913223743438721
1772561448278390000,4.89239013671875,1.2817524671554565,-0.18345601856708527,1.4263498783111572
1772561448288457000,4.90245703125,1.0235716104507446,-0.10370203852653503,1.8301748037338257
1772561448298522600,4.912522705078125,0.6672132611274719,0.04376491159200668,2.1148924827575684
1772561448308589800,4.92258984375,0.5687287449836731,0.4644688367843628,2.5310118198394775
1772561448318655700,4.93265576171875,0.7282419800758362,0.8103796243667603,2.938706636428833
1772561448328722700,4.94272265625,1.012144923210144,0.7342534065246582,2.988701343536377
1772561448338789600,4.95278955078125,1.1680843830108643,0.0646047592163086,2.369083881378174
1772561448348855800,4.962855712890625,1.0257025957107544,-0.23305781185626984,1.2194876670837402
1772561448358922800,4.9729228515625,0.8711035251617432,0.624496579170227,0.37306076288223267
1772561448368989700,4.98298974609375,0.8265274167060852,2.167536735534668,0.5382028818130493
1772561448379055600,4.9930556640625,1.0571860074996948,2.851437568664551,1.1977800130844116
1772561448389122800,5.003122802734375,1.6272361278533936,2.108445644378662,1.478493571281433
1772561448399188700,5.013188720703125,2.276646614074707,0.9847558736801147,1.758218765258789
1772561448409255700,5.023255615234375,2.562666893005371,0.06027887761592865,2.161494016647339
1772561448419321900,5.03332177734375,2.485074996948242,-0.9126633405685425,2.532932758331299
1772561448429388800,5.043388916015625,2.1713473796844482,-1.5674883127212524,3.0203025341033936
1772561448439454700,5.053454833984375,1.2937592267990112,-2.1515865325927734,3.355677843093872
1772561448449521700,5.063521728515625,0.310857355594635,-2.800452470779419,2.857113838195801
1772561448459588900,5.0735888671875,-0.07051343470811844,-2.8914763927459717,1.8002985715866089
1772561448469654800,5.08365478515625,-0.16040924191474915,-1.9830749034881592,0.6885939240455627
1772561448479721700,5.0937216796875,-0.286847859621048,-0.6178663372993469,-0.335827499628067
1772561448489788000,5.103787841796875,-0.42903614044189453,0.3763463497161865,-1.1799925565719604
1772561448499854800,5.113854736328125,-0.6833677291870117,0.7428452372550964,-1.8241294622421265
1772561448509920800,5.123920654296875,-0.9109482169151306,0.6101292371749878,-2.235384941101074
1772561448519987700,5.13398779296875,-1.0295525789260864,0.325964093208313,-2.421696662902832
1772561448530055000,5.144054931640625,-1.0220662355422974,0.2805427014827728,-2.325432777404785
1772561448540120800,5.154120849609375,-0.8945003151893616,0.5269293189048767,-1.9466745853424072
1772561448550187800,5.164187744140625,-0.7471913695335388,0.8391656279563904,-1.4429664611816406
1772561448560254000,5.17425390625,-0.5230517387390137,1.1026207208633423,-0.8035407066345215
1772561448570320600,5.184320556640625,-0.2596398591995239,1.250919222831726,-0.08607310801744461
1772561448580386600,5.194386474609375,-0.1094876378774643,1.222518801689148,0.5560382008552551
1772561448590453500,5.20445361328125,-0.11810872703790665,0.8441661596298218,0.9012870192527771
1772561448600520700,5.214520751953125,-0.41975486278533936,0.23278264701366425,0.8256590962409973
1772561448610586600,5.224586669921875,-0.9394274950027466,-0.35117530822753906,0.40557825565338135
1772561448620653600,5.234653564453125,-1.3429250717163086,-0.5543875694274902,-0.16326627135276794
1772561448630719700,5.2447197265625,-1.4698086977005005,-0.3752644658088684,-0.7884004712104797
1772561448640786700,5.25478662109375,-1.3595668077468872,0.12746179103851318,-1.3416703939437866
1772561448650852600,5.2648525390625,-1.0952948331832886,0.7194181680679321,-1.7214810848236084
1772561448660919600,5.27491943359375,-0.8021011352539062,1.1478264331817627,-1.8865853548049927
1772561448670986800,5.28498681640625,-0.5629744529724121,1.2265830039978027,-1.822523593902588
1772561448681052700,5.295052734375,-0.4009011387825012,0.943317174911499,-1.5448795557022095
1772561448691119600,5.30511962890625,-0.3590626120567322,0.46638038754463196,-1.1398736238479614
1772561448701185500,5.315185546875,-0.4423191547393799,-0.22164088487625122,-0.8566552400588989
1772561448711252500,5.32525244140625,-0.6950944066047668,-1.0735713243484497,-0.923649251461029
1772561448721318400,5.335318359375,-0.9685848355293274,-1.7367236614227295,-1.2511391639709473
1772561448731385300,5.34538525390625,-1.1123830080032349,-1.9924039840698242,-1.5824000835418701
1772561448741452500,5.35545263671875,-1.1244641542434692,-1.934969186782837,-1.8514728546142578
1772561448751518500,5.3655185546875,-0.9919859170913696,-1.7105852365493774,-2.027912139892578
1772561448761585400,5.37558544921875,-0.7731717824935913,-1.224672555923462,-2.0930378437042236
1772561448771651600,5.385651611328125,-0.6165924072265625,-0.5933508276939392,-1.9618662595748901
1772561448781718500,5.395718505859375,-0.5518032908439636,-0.09312181919813156,-1.5880907773971558
1772561448791784400,5.405784423828125,-0.48339495062828064,0.09256181865930557,-0.9888138771057129
1772561448801851400,5.415851318359375,-0.4044618010520935,-0.0038238363340497017,-0.13241691887378693
1772561448811918600,5.425918701171875,-0.423027366399765,-0.4940667152404785,0.7940279245376587
1772561448821984500,5.435984619140625,-0.44242873787879944,-1.1665314435958862,1.474586009979248
1772561448832051500,5.446051513671875,-0.4487886428833008,-1.626960039138794,1.6621829271316528
1772561448842117600,5.45611767578125,-0.42781731486320496,-1.867400884628296,1.5007047653198242
1772561448852184600,5.4661845703125,-0.4267335832118988,-1.873986005783081,1.1969865560531616
1772561448862250500,5.47625048828125,-0.512596845626831,-1.518778920173645,0.9794941544532776
1772561448872317400,5.4863173828125,-0.5586053133010864,-0.9023644924163818,0.9937257170677185
1772561448882383600,5.496383544921875,-0.48901453614234924,-0.3111933171749115,1.1186777353286743
1772561448892450600,5.506450439453125,-0.4154423177242279,0.07903198897838593,1.1730549335479736
1772561448902517500,5.516517578125,-0.30045607686042786,0.3267216980457306,1.3062241077423096
1772561448912583700,5.526583740234375,-0.19545118510723114,0.2653827667236328,1.4447344541549683
1772561448922650600,5.536650634765625,-0.2675299048423767,-0.4340226948261261,1.4967083930969238
1772561448932716500,5.546716552734375,-0.44270744919776917,-1.3221768140792847,1.715035080909729
1772561448942783500,5.556783447265625,-0.5443478226661682,-1.8928371667861938,1.7394616603851318
1772561448952849700,5.566849609375,-0.5636549592018127,-1.694671869277954,1.088886022567749
1772561448962916600,5.57691650390625,-0.4388861358165741,-0.21790356934070587,0.12425713241100311
1772561448972983600,5.586983642578125,-0.21452395617961884,1.8764270544052124,-0.9035649299621582
1772561448983049700,5.5970498046875,0.06624645739793777,3.3813416957855225,-1.6984245777130127
1772561448993116700,5.60711669921875,0.6550272703170776,3.7732925415039062,-2.0689265727996826
1772561449003182600,5.6171826171875,1.5424095392227173,3.302905797958374,-1.8086880445480347
1772561449013249500,5.62724951171875,2.134916067123413,2.379448175430298,-0.9031477570533752
1772561449023315700,5.637315673828125,2.236475706100464,0.9084688425064087,0.34267154335975647
1772561449033382700,5.647382568359375,1.9028202295303345,-0.6476677060127258,1.7006407976150513
1772561449043449600,5.65744970703125,1.3759889602661133,-2.061352491378784,2.672551155090332
1772561449053515800,5.667515869140625,0.9919584393501282,-3.0071194171905518,2.7863733768463135
1772561449063582700,5.677582763671875,0.8073843121528625,-2.85146164894104,2.429394006729126
1772561449073648400,5.6876484375,0.6271945834159851,-1.4905099868774414,1.9944816827774048
1772561449083715600,5.697715576171875,0.31230613589286804,0.060858841985464096,1.2938483953475952
1772561449093781500,5.707781494140625,-0.0847817212343216,1.0900565385818481,0.2981097996234894
1772561449103848400,5.717848388671875,-0.5425769686698914,1.570068120956421,-0.7152571082115173
1772561449113915600,5.72791552734375,-0.9566309452056885,1.7975443601608276,-1.420305609703064
1772561449123981600,5.737981689453125,-1.0691076517105103,1.6654726266860962,-1.7116154432296753
1772561449134048500,5.748048583984375,-0.7203900218009949,1.259912371635437,-1.5104798078536987
1772561449144114400,5.758114501953125,-0.15853896737098694,0.887364387512207,-0.7625219225883484
1772561449154181400,5.768181396484375,0.23279203474521637,1.0675618648529053,0.5862302780151367
1772561449164247600,5.77824755859375,0.3170608580112457,1.2206939458847046,1.8721977472305298
1772561449174314500,5.788314453125,0.1724807620048523,1.057750940322876,2.4240102767944336
1772561449184381400,5.79838134765625,-0.13150443136692047,0.7416457533836365,2.163423776626587
1772561449194447600,5.808447509765625,-0.5132822394371033,0.35213232040405273,1.2925125360488892
1772561449204514600,5.8185146484375,-0.8978147506713867,0.08016446977853775,0.07391295582056046
1772561449214580500,5.82858056640625,-1.1973884105682373,0.0019406643696129322,-1.258741855621338
1772561449224647400,5.8386474609375,-1.24807608127594,0.22766274213790894,-2.3350508213043213
1772561449234713600,5.848713623046875,-0.9219259023666382,1.0850565433502197,-2.668652057647705
1772561449244780500,5.858780517578125,-0.599829912185669,1.758130669593811,-2.5062901973724365
1772561449254847500,5.868847412109375,-0.3071947991847992,2.031398296356201,-1.9286553859710693
1772561449264913700,5.87891357421875,-0.11311909556388855,1.7524045705795288,-1.2949801683425903
1772561449274980600,5.888980712890625,-0.08190242946147919,0.9213646650314331,-0.9272207617759705
1772561449285046500,5.899046630859375,-0.16629932820796967,-0.2153547704219818,-0.8256795406341553
1772561449295113500,5.909113525390625,-0.3328187167644501,-1.1029040813446045,-1.0140573978424072
1772561449305179600,5.9191796875,-0.49174046516418457,-1.4831931591033936,-1.3544474840164185
1772561449315246600,5.92924658203125,-0.5737799406051636,-1.3291441202163696,-1.7835596799850464
1772561449325313500,5.9393134765625,-0.6104351878166199,-0.7689825892448425,-2.2705135345458984
1772561449335379700,5.949379638671875,-0.5974008440971375,-0.0581793487071991,-2.679863691329956
1772561449345446700,5.95944677734375,-0.5222906470298767,0.5104654431343079,-2.8688762187957764
1772561449355512600,5.9695126953125,-0.5106191039085388,0.8159775733947754,-2.7711992263793945
1772561449365579500,5.97957958984375,-0.5615741610527039,0.7376425266265869,-2.372434616088867
1772561449375645700,5.989645751953125,-0.6110896468162537,0.3001127243041992,-1.7669947147369385
1772561449385712600,5.999712646484375,-0.653051495552063,-0.35177212953567505,-1.1313557624816895
1772561449395779600,6.009779541015625,-0.6799602508544922,-0.9686684012413025,-0.6487826108932495
1772561449405845800,6.019845703125,-0.7002924084663391,-1.3357797861099243,-0.36750462651252747
1772561449415912700,6.02991259765625,-0.683333694934845,-1.3785591125488281,-0.24749435484409332
1772561449425978600,6.039978515625,-0.6339080929756165,-1.2370244264602661,-0.30291473865509033
1772561449436045600,6.050045654296875,-0.5263853073120117,-0.9813400506973267,-0.369475781917572
1772561449446111700,6.06011181640625,-0.3858537971973419,-0.6670604348182678,-0.34424418210983276
1772561449456178700,6.0701787109375,-0.2699224054813385,-0.3925130069255829,-0.15360340476036072
1772561449466245600,6.08024560546875,-0.19295090436935425,-0.26056429743766785,0.20991727709770203
1772561449476311800,6.090311767578125,-0.17876124382019043,-0.1764724850654602,0.7379006147384644
1772561449486378800,6.100378662109375,-0.19028526544570923,-0.019429881125688553,1.3610832691192627
1772561449496444400,6.1104443359375,-0.20199447870254517,0.17074206471443176,2.0104517936706543
1772561449506511400,6.120511474609375,-0.13644076883792877,0.4311275780200958,2.6868560314178467
1772561449516577500,6.13057763671875,0.08388826251029968,0.7539936900138855,3.350778818130493
1772561449526644500,6.14064453125,0.41091325879096985,1.100064992904663,3.915173053741455
1772561449536711400,6.15071142578125,0.7705785036087036,1.223021149635315,4.232913970947266
1772561449546777600,6.160777587890625,0.9603322148323059,0.627293586730957,3.9756858348846436
1772561449556844500,6.170844482421875,0.8201814889907837,-0.3680107891559601,3.2747223377227783
1772561449566910500,6.180910400390625,0.5131310224533081,-0.9926732778549194,2.660759925842285
1772561449576977700,6.190977783203125,0.4535309970378876,-0.8238061666488647,2.387237310409546
1772561449587043800,6.2010439453125,0.8591069579124451,-0.13161572813987732,2.468184471130371
1772561449597110800,6.21111083984375,1.4271317720413208,0.5253838300704956,2.8336799144744873
1772561449607177700,6.221177734375,1.582467794418335,0.24038374423980713,3.0866236686706543
1772561449617243600,6.23124365234375,0.8630138039588928,-0.7843268513679504,2.960418462753296
1772561449627310800,6.241310791015625,-0.38396215438842773,-1.5970485210418701,2.4647886753082275
1772561449637376800,6.251376708984375,-1.23289954662323,-1.6662436723709106,1.5660810470581055
1772561449647443700,6.261443603515625,-1.289986252784729,-1.0430331230163574,0.17669135332107544
1772561449657510000,6.271510009765625,-1.0283523797988892,-0.14230826497077942,-1.4165551662445068
1772561449667576800,6.281576904296875,-0.7605094909667969,0.8860575556755066,-2.3213577270507812
1772561449677643800,6.291643798828125,-0.6259594559669495,1.437139868736267,-2.29002046585083
1772561449687709700,6.301709716796875,-0.6308005452156067,0.8927509188652039,-1.7124241590499878
1772561449697777000,6.31177685546875,-0.6590974926948547,-0.5265721678733826,-0.9424120187759399
1772561449707842800,6.3218427734375,-0.5777102112770081,-1.9581396579742432,-0.21749429404735565
1772561449717909800,6.33190966796875,-0.4170093238353729,-2.595341682434082,0.33507776260375977
1772561449727976000,6.341975830078125,-0.18859663605690002,-2.2574260234832764,0.618545413017273
1772561449738043000,6.35204296875,0.029269330203533173,-1.2265193462371826,0.5799844264984131
1772561449748109800,6.36210986328125,0.274556040763855,0.08669465035200119,0.44899362325668335
1772561449758175700,6.37217578125,0.492902010679245,1.2192593812942505,0.4281955659389496
1772561449768243000,6.382242919921875,0.657686173915863,1.871580719947815,0.5261514186859131
1772561449778308900,6.392308837890625,0.7195063233375549,1.8159798383712769,0.5280286073684692
1772561449788375800,6.402375732421875,0.5673223733901978,1.0060540437698364,0.20721915364265442
1772561449798442000,6.41244189453125,0.2195584625005722,-0.059933070093393326,-0.3657500743865967
1772561449808509000,6.422509033203125,-0.06916601955890656,-0.651167094707489,-1.0219510793685913
1772561449818576000,6.432575927734375,-0.14812563359737396,-0.5822921395301819,-1.5586433410644531
1772561449828641800,6.442641845703125,-0.08739757537841797,-0.0176982544362545,-1.8583840131759644
1772561449838709000,6.452708984375,0.06115906313061714,0.7660670876502991,-1.8585412502288818
1772561449848775000,6.46277490234375,0.21659766137599945,1.3918348550796509,-1.6191990375518799
1772561449858841900,6.472841796875,0.3334513008594513,1.6487607955932617,-1.2264289855957031
1772561449868908000,6.482907958984375,0.4465653598308563,1.5509573221206665,-0.8228055238723755
1772561449878975000,6.49297509765625,0.499428391456604,1.091079831123352,-0.5695142149925232
1772561449889042000,6.5030419921875,0.42494750022888184,0.5025875568389893,-0.49677181243896484
1772561449899107800,6.51310791015625,0.31745824217796326,0.0411076620221138,-0.6288354992866516
1772561449909175000,6.523175048828125,0.18966589868068695,-0.09812799096107483,-0.9532415866851807
1772561449919240700,6.53324072265625,0.06393088400363922,0.06373163312673569,-1.4206395149230957
1772561449929307600,6.5433076171875,-0.04162057861685753,0.4201590120792389,-1.9381426572799683
1772561449939373800,6.553373779296875,-0.10662633180618286,0.7797060012817383,-2.3914990425109863
1772561449949440800,6.563440673828125,-0.1551656424999237,0.8352766036987305,-2.744243621826172
1772561449959507700,6.5735078125,-0.266485333442688,0.5341322422027588,-2.9697248935699463
1772561449969573600,6.58357373046875,-0.33640527725219727,-0.016064582392573357,-2.9748897552490234
1772561449979640800,6.593640869140625,-0.3006925582885742,-0.5024572610855103,-2.6978042125701904
1772561449989706800,6.603706787109375,-0.23794634640216827,-0.6938202977180481,-2.2399916648864746
1772561449999773700,6.613773681640625,-0.07837841659784317,-0.5286346077919006,-1.678877592086792
1772561450009839900,6.62383984375,0.10968043655157089,-0.21605966985225677,-1.0639111995697021
1772561450019906800,6.63390673828125,0.2588135600090027,-0.0039503565058112144,-0.47200143337249756
1772561450029973800,6.643973876953125,0.3410881757736206,-0.056152574717998505,-0.017593465745449066
1772561450040039700,6.654039794921875,0.4109307825565338,-0.3308001756668091,0.3229592442512512
1772561450050107000,6.66410693359375,0.531336784362793,-0.7271387577056885,0.6365358233451843
1772561450060172800,6.6741728515625,0.6097844839096069,-1.0085300207138062,0.961718738079071
1772561450070239700,6.68423974609375,0.5191166400909424,-1.0701820850372314,1.268798828125
1772561450080306000,6.694305908203125,0.322297066450119,-0.9256480932235718,1.5005831718444824
1772561450090372900,6.704372802734375,0.18277353048324585,-0.5205650329589844,1.7389260530471802
1772561450100439800,6.714439697265625,0.1605847328901291,-0.046265412122011185,2.0053229331970215
1772561450110505700,6.724505615234375,0.12626777589321136,0.13331367075443268,2.257740020751953
1772561450120573000,6.734572998046875,-0.010579404421150684,0.27368855476379395,2.5678720474243164
1772561450130638800,6.744638916015625,-0.18018122017383575,0.4983445703983307,3.028430461883545
1772561450140705800,6.754705810546875,-0.2913077175617218,0.6137790083885193,3.5175623893737793
1772561450150772000,6.76477197265625,-0.23921391367912292,0.5424153804779053,3.703085422515869
1772561450160839000,6.7748388671875,-0.28409281373023987,-0.026984579861164093,3.093543767929077
1772561450170905900,6.78490576171875,-0.41007816791534424,0.0781887099146843,2.35921573638916
1772561450180971800,6.7949716796875,-0.44851016998291016,0.6120587587356567,1.8000261783599854
1772561450191038700,6.805038818359375,-0.41192737221717834,0.9627728462219238,1.4933881759643555
1772561450201105000,6.81510498046875,0.19884492456912994,0.8755908012390137,1.5035731792449951
1772561450211171800,6.825171875,0.7782151103019714,0.15448561310768127,1.7378349304199219
1772561450221238000,6.835238037109375,0.7425441145896912,-0.5989975333213806,2.0975308418273926
1772561450231305000,6.845304931640625,0.5543731451034546,-0.5952115654945374,2.501511812210083
1772561450241372000,6.855371826171875,0.6094114184379578,-0.09651637822389603,2.572483539581299
1772561450251437800,6.865437744140625,0.7820063233375549,0.0262026134878397,1.7940901517868042
1772561450261504800,6.8755048828125,0.7707874178886414,-0.4049445390701294,0.6190639138221741
1772561450271571000,6.885571044921875,0.7215402722358704,-0.7184715270996094,-0.009061544202268124
1772561450281638000,6.895637939453125,0.6110324859619141,-0.8595616221427917,-0.06036048382520676
1772561450291704800,6.905704833984375,0.38530269265174866,-1.1235648393630981,0.041224993765354156
1772561450301771000,6.91577099609375,0.06486424058675766,-1.5650920867919922,-0.061800047755241394
1772561450311838000,6.925837890625,-0.25645333528518677,-1.7286913394927979,-0.4743191599845886
1772561450321903600,6.935903564453125,-0.47939684987068176,-1.2818520069122314,-1.0858432054519653
1772561450331970800,6.945970703125,-0.6529837846755981,-0.36394962668418884,-1.63154935836792
1772561450342036700,6.95603662109375,-0.7884954810142517,0.6210652589797974,-1.818504810333252
1772561450352103700,6.966103759765625,-0.7592403888702393,1.3649876117706299,-1.5384654998779297
1772561450362171000,6.9761708984375,-0.5596990585327148,1.892488956451416,-0.7987754940986633
1772561450372236800,6.98623681640625,-0.23319341242313385,1.9891811609268188,0.1291353702545166
1772561450382303700,6.9963037109375,0.07039391249418259,1.4550855159759521,0.7477412223815918
1772561450392369700,7.00636962890625,0.21256063878536224,0.5059862732887268,0.8721025586128235
1772561450402436600,7.0164365234375,0.15162540972232819,-0.5129386782646179,0.5307496190071106
1772561450412502800,7.026502685546875,-0.022075267508625984,-1.0635648965835571,-0.08959809690713882
1772561450422569700,7.03656982421875,-0.15399016439914703,-1.0454546213150024,-0.8263441324234009
1772561450432636700,7.04663671875,-0.22030074894428253,-0.5764003396034241,-1.4696674346923828
1772561450442702800,7.056702880859375,-0.25949639081954956,0.16440799832344055,-1.940266728401184
1772561450452769800,7.066769775390625,-0.24865224957466125,0.8224721550941467,-2.1538240909576416
1772561450462835700,7.076835693359375,-0.1754974126815796,1.1605662107467651,-2.0674619674682617
1772561450472902700,7.086902587890625,-0.08004971593618393,1.036940097808838,-1.8168737888336182
1772561450482968800,7.09696875,-0.04122839868068695,0.5123542547225952,-1.572104573249817
1772561450493035800,7.107035888671875,-0.08939459919929504,-0.18549379706382751,-1.4758728742599487
1772561450503102700,7.117102783203125,-0.1660185307264328,-0.657965362071991,-1.5225929021835327
1772561450513169000,7.1271689453125,-0.18864820897579193,-0.725807785987854,-1.6894702911376953
1772561450523235800,7.13723583984375,-0.20717105269432068,-0.5489711165428162,-1.9421833753585815
1772561450533301800,7.1473017578125,-0.24392908811569214,-0.14507928490638733,-2.209702730178833
1772561450543368700,7.15736865234375,-0.31318697333335876,0.3774103820323944,-2.4682719707489014
1772561450553436000,7.167435791015625,-0.33966064453125,0.7583601474761963,-2.6065375804901123
1772561450563501800,7.177501708984375,-0.3312395215034485,0.7664750218391418,-2.615687847137451
1772561450573568500,7.187568603515625,-0.35051679611206055,0.45832037925720215,-2.5247318744659424
1772561450583634700,7.197634765625,-0.34164100885391235,-0.045618925243616104,-2.3413796424865723
1772561450593701600,7.20770166015625,-0.2670120596885681,-0.46093517541885376,-2.0247936248779297
1772561450603767600,7.217767578125,-0.1536179482936859,-0.6957354545593262,-1.648829460144043
1772561450613834500,7.22783447265625,-0.01921805925667286,-0.8077019453048706,-1.31948983669281
1772561450623901700,7.237901611328125,0.09708802402019501,-0.8915066123008728,-1.0847240686416626
1772561450633967600,7.247967529296875,0.16952866315841675,-0.889625072479248,-0.9070543646812439
1772561450644034600,7.25803466796875,0.12162995338439941,-0.6376442909240723,-0.7753557562828064
1772561450654100700,7.268100830078125,0.10356199741363525,-0.2611263692378998,-0.6544346809387207
1772561450664167700,7.278167724609375,0.24679915606975555,0.021150894463062286,-0.5076670050621033
1772561450674233600,7.288233642578125,0.44107410311698914,0.07720617204904556,-0.25139501690864563
1772561450684300500,7.298300537109375,0.6155290603637695,-0.02734607830643654,0.33872243762016296
1772561450694367700,7.30836767578125,0.826427698135376,-0.04204672574996948,1.3176077604293823
1772561450704433700,7.31843359375,1.0770771503448486,0.1778804361820221,2.4638946056365967
1772561450714500600,7.32850048828125,1.1459462642669678,0.5618427395820618,3.6055493354797363
1772561450724566800,7.33856689453125,1.0183398723602295,1.0426892042160034,4.702923774719238
1772561450734633700,7.3486337890625,0.8194525241851807,1.3572847843170166,5.494225978851318
1772561450744699600,7.35869970703125,0.8735437393188477,1.3850828409194946,5.784224033355713
1772561450754766600,7.3687666015625,0.8128582835197449,0.7559917569160461,5.2167582511901855
1772561450764833800,7.378833740234375,0.7325236201286316,0.3733367919921875,4.285146713256836
1772561450774899700,7.388899658203125,0.5665631294250488,0.6623920202255249,3.645200252532959
1772561450784966700,7.398966552734375,1.0095323324203491,1.3232033252716064,3.7787065505981445
1772561450795032800,7.40903271484375,1.5298413038253784,1.2173538208007812,4.0998382568359375
1772561450805099800,7.419099853515625,1.7514729499816895,0.5744591951370239,4.205767631530762
1772561450815165700,7.429165771484375,1.757999300956726,-0.07608230412006378,4.2029128074646
1772561450825232600,7.439232666015625,1.198289155960083,-0.798453688621521,3.9449100494384766
1772561450835299800,7.4492998046875,0.28799861669540405,-0.9677824974060059,3.4926514625549316
1772561450845365800,7.45936572265625,-0.2139132171869278,-0.4247902035713196,2.772961139678955
1772561450855432700,7.4694326171875,0.0214950293302536,0.1997397094964981,1.5305185317993164
1772561450865499000,7.479498779296875,0.5853613615036011,0.7781416177749634,0.2065783441066742
1772561450875565800,7.48956591796875,0.6710789203643799,0.9455013275146484,-0.5704007744789124
1772561450885631700,7.4996318359375,0.34280362725257874,0.5771505236625671,-0.8041150569915771
1772561450895698700,7.50969873046875,0.07777197659015656,-0.15715035796165466,-0.7633969187736511
1772561450905766000,7.519765869140625,-0.010855041444301605,-0.8957033157348633,-0.6708702445030212
1772561450915831800,7.529831787109375,-0.1755174845457077,-1.3737401962280273,-0.604599118232727
1772561450925898800,7.539898681640625,-0.475246787071228,-1.51866614818573,-0.5495553016662598
1772561450935964700,7.549964599609375,-0.7656586170196533,-1.3076449632644653,-0.5212091207504272
1772561450946031900,7.560031982421875,-0.8659291863441467,-0.5808914303779602,-0.3523308038711548
1772561450956098800,7.570098876953125,-0.768779456615448,0.7758008241653442,0.1275942623615265
1772561450966164500,7.58016455078125,-0.6161076426506042,1.8519853353500366,0.5317448973655701
1772561450976231700,7.590231689453125,-0.5668426156044006,2.200448989868164,0.5126596093177795
1772561450986297600,7.600297607421875,-0.5989815592765808,1.928063154220581,0.023364847525954247
1772561450996364500,7.610364501953125,-0.7387514710426331,1.3391474485397339,-0.7516824007034302
1772561451006430700,7.6204306640625,-0.9665768146514893,0.7542442083358765,-1.5148087739944458
1772561451016497700,7.63049755859375,-1.146737813949585,0.40152233839035034,-2.1042280197143555
1772561451026564600,7.640564697265625,-1.137445092201233,0.38866889476776123,-2.4479997158050537
1772561451036630500,7.650630615234375,-0.9600043892860413,0.6150344610214233,-2.524301528930664
1772561451046697700,7.66069775390625,-0.667807936668396,0.8432803750038147,-2.308432102203369
1772561451056763600,7.670763671875,-0.38635653257369995,0.73335200548172,-1.9190260171890259
1772561451066830600,7.68083056640625,-0.27860575914382935,0.3290175199508667,-1.6026396751403809
1772561451076896800,7.690896728515625,-0.26926207542419434,-0.22928862273693085,-1.4817217588424683
1772561451086963700,7.700963623046875,-0.3376910984516144,-0.841337263584137,-1.6279929876327515
1772561451097030700,7.71103076171875,-0.5231786370277405,-1.4271395206451416,-2.0969650745391846
1772561451107096600,7.7210966796875,-0.7825761437416077,-1.9266633987426758,-2.862001895904541
1772561451117163800,7.731163818359375,-0.9757035374641418,-2.2083423137664795,-3.7607126235961914
1772561451127229700,7.741229736328125,-1.099461555480957,-2.1599929332733154,-4.594431400299072
1772561451137296600,7.751296630859375,-1.181498646736145,-1.763289451599121,-5.107877731323242
1772561451147363600,7.761363525390625,-1.2478113174438477,-0.9773947596549988,-5.045498371124268
1772561451157429800,7.7714296875,-1.222083330154419,-0.02216842770576477,-4.291080951690674
1772561451167496700,7.78149658203125,-1.1173797845840454,0.43250587582588196,-3.207143783569336
1772561451177562600,7.791562744140625,-1.0728256702423096,0.3134676218032837,-2.212885618209839
1772561451187629800,7.8016298828125,-1.0133278369903564,-0.1653573364019394,-1.4210253953933716
1772561451197695700,7.81169580078125,-0.8792717456817627,-0.8551099300384521,-0.8687233924865723
1772561451207762700,7.8217626953125,-0.7447365522384644,-1.5209236145019531,-0.5717700719833374
1772561451217829600,7.83182958984375,-0.5869913697242737,-1.95804762840271,-0.4444941580295563
1772561451227895800,7.841895751953125,-0.44106099009513855,-2.0930891036987305,-0.4458308219909668
1772561451237962800,7.851962646484375,-0.38368797302246094,-1.8555777072906494,-0.5986374020576477
1772561451248028700,7.862028564453125,-0.3667006194591522,-1.3231562376022339,-0.7307048439979553
1772561451258095600,7.872095703125,-0.369892418384552,-0.6523537039756775,-0.7259412407875061
1772561451268161800,7.882161865234375,-0.3970774710178375,-0.05377762392163277,-0.5070200562477112
1772561451278228700,7.892228759765625,-0.30603569746017456,0.25097349286079407,-0.10892090201377869
1772561451288295700,7.902295654296875,-0.10764245688915253,0.2806892991065979,0.26661837100982666
1772561451298361900,7.91236181640625,0.16763252019882202,0.21229077875614166,0.7086975574493408
1772561451308428800,7.9224287109375,0.3639633059501648,0.07505234330892563,1.3312735557556152
1772561451318494700,7.93249462890625,0.3638322949409485,0.18900473415851593,2.1565730571746826
1772561451328561700,7.942561767578125,0.4367067813873291,0.48181265592575073,3.061713933944702
1772561451338628900,7.95262890625,0.6575973629951477,0.5369699001312256,3.554332733154297
1772561451348694800,7.96269482421875,0.6746701598167419,-0.30510348081588745,3.0338308811187744
1772561451358761700,7.97276171875,0.32291078567504883,-0.8235729932785034,2.30019474029541
1772561451368827600,7.98282763671875,0.27064475417137146,0.2381526082754135,2.634322166442871
1772561451378894800,7.992894775390625,0.34048429131507874,1.2792363166809082,3.572774887084961
1772561451388960500,8.00296044921875,0.8076684474945068,1.926566243171692,4.44000244140625
1772561451399027700,8.01302783203125,1.402560830116272,1.6822142601013184,4.724510669708252
1772561451409095000,8.023094970703125,1.6107956171035767,0.8150973916053772,4.678083896636963
1772561451419160600,8.03316064453125,1.6252549886703491,0.048825569450855255,4.53272008895874
1772561451429227500,8.0432275390625,1.5663557052612305,-0.2566080689430237,4.1937665939331055
1772561451439293700,8.053293701171874,1.3295143842697144,0.1383429914712906,3.532191276550293
1772561451449360600,8.063360595703125,1.4247888326644897,0.5419963598251343,2.4888246059417725
1772561451459427600,8.073427490234375,1.6085789203643799,0.6108747720718384,1.448522686958313
1772561451469493500,8.083493408203125,1.5931426286697388,0.6575787663459778,0.9244874119758606
1772561451479560700,8.093560791015625,1.353887915611267,0.3922555446624756,0.7877378463745117
1772561451489626600,8.103626708984375,1.0337004661560059,-0.13167013227939606,0.7052642107009888
1772561451499693600,8.113693603515625,0.6892926692962646,-0.6367229223251343,0.5071452856063843
1772561451509759700,8.123759765625,0.3043639063835144,-0.721047580242157,0.26284703612327576
1772561451519826700,8.13382666015625,-0.044395942240953445,-0.4587206244468689,-0.010904109105467796
1772561451529893600,8.1438935546875,-0.2936136722564697,-0.04110781475901604,-0.2567394971847534
1772561451539959600,8.15395947265625,-0.47950124740600586,0.2573374807834625,-0.44065365195274353
1772561451550026800,8.16402685546875,-0.5535693168640137,0.5036148428916931,-0.39572179317474365
1772561451560092700,8.1740927734375,-0.4443994164466858,0.8108120560646057,-0.09099412709474564
1772561451570159600,8.18415966796875,-0.25022321939468384,0.9227906465530396,0.2163623571395874
1772561451580226800,8.194226806640625,-0.09469141066074371,0.7542482018470764,0.32087838649749756
1772561451590293000,8.20429296875,-0.09989122301340103,0.4966835379600525,0.22470176219940186
1772561451600360000,8.21435986328125,-0.2402520626783371,0.17769993841648102,-0.11808301508426666
1772561451610425900,8.22442578125,-0.4221850037574768,-0.10399627685546875,-0.6133812665939331
1772561451620493000,8.2344931640625,-0.5158137679100037,-0.2026834338903427,-1.1383148431777954
1772561451630559000,8.24455908203125,-0.40061694383621216,-0.16219104826450348,-1.515769362449646
1772561451640626000,8.2546259765625,-0.11139874160289764,-0.07632407546043396,-1.6352030038833618
1772561451650692900,8.26469287109375,0.2651318609714508,0.11864414066076279,-1.4436389207839966
1772561451660759000,8.274759033203125,0.6313671469688416,0.2989473044872284,-1.0180084705352783
1772561451670826000,8.284825927734374,0.8772859573364258,0.23062410950660706,-0.5219457745552063
1772561451680892000,8.294891845703125,0.9661420583724976,-0.07598961144685745,-0.11442355066537857
1772561451690959000,8.304958984375,0.8803997039794922,-0.5280843377113342,0.04668354615569115
1772561451701026000,8.315026123046875,0.6340408325195312,-0.9436575770378113,-0.015534821897745132
1772561451711092000,8.325092041015624,0.3446243703365326,-0.977583646774292,-0.1870412975549698
1772561451721159000,8.335158935546875,0.10113103687763214,-0.6683810949325562,-0.4231899082660675
1772561451731225000,8.34522509765625,-0.024467119947075844,-0.2932981848716736,-0.7049098610877991
1772561451741292000,8.3552919921875,-0.02131766639649868,0.10795070230960846,-1.0190385580062866
1772561451751357700,8.365357666015624,0.023307887837290764,0.4148278832435608,-1.2679290771484375
1772561451761425000,8.3754248046875,0.017060378566384315,0.5216648578643799,-1.3751064538955688
1772561451771492000,8.3854921875,-0.07075978070497513,0.5269908308982849,-1.2394901514053345
1772561451781557800,8.395557861328125,-0.184199258685112,0.4794829785823822,-0.8517720103263855
1772561451791624700,8.405624755859375,-0.2725111246109009,0.2933889925479889,-0.35753652453422546
1772561451801691000,8.41569091796875,-0.36759689450263977,-0.11388584226369858,0.038117069751024246
1772561451811757800,8.4257578125,-0.4881109297275543,-0.7107051610946655,0.24560122191905975
1772561451821824800,8.43582470703125,-0.6127269268035889,-1.3559341430664062,0.2625189423561096
1772561451831891000,8.445890869140625,-0.7432525753974915,-1.8713809251785278,0.15599575638771057
1772561451841958000,8.4559580078125,-0.7728142142295837,-1.9263848066329956,0.03866460919380188
1772561451852023800,8.46602392578125,-0.6840360760688782,-1.4965656995773315,-0.04069240391254425
1772561451862090800,8.4760908203125,-0.5099990367889404,-0.8360119462013245,-0.07562375068664551
1772561451872157000,8.486156982421875,-0.3382531702518463,-0.38050326704978943,-0.008984368294477463
1772561451882223900,8.496223876953126,-0.29804131388664246,-0.40909042954444885,0.2494511753320694
1772561451892290800,8.506290771484375,-0.4202024042606354,-0.9746527671813965,0.6897892951965332
1772561451902356700,8.516356689453126,-0.6834308505058289,-1.5849926471710205,1.1255269050598145
1772561451912424000,8.526423828125,-0.8387616276741028,-1.7446202039718628,1.4320935010910034
1772561451922489900,8.53648974609375,-0.7966413497924805,-0.7721277475357056,1.6582773923873901
1772561451932556800,8.546556884765625,-0.7543594241142273,1.0749543905258179,1.6451860666275024
1772561451942623700,8.556623779296874,-0.5316632390022278,2.4694230556488037,1.5207186937332153
1772561451952690000,8.56668994140625,-0.6776160597801208,2.4318950176239014,0.7571924328804016
1772561451962756900,8.5767568359375,-0.8302000164985657,2.131382942199707,0.36357271671295166
1772561451972822800,8.58682275390625,-0.7412375807762146,1.7005618810653687,0.5573725700378418
1772561451982890000,8.596889892578124,-0.43933841586112976,0.9339761137962341,0.8048617243766785
1772561451992956000,8.606955810546875,-0.030022474005818367,0.46865642070770264,1.170700192451477
1772561452003022800,8.61702294921875,0.18519821763038635,0.21603776514530182,1.622313141822815
1772561452013089000,8.627089111328125,-0.06782669574022293,-0.029696960002183914,1.7142329216003418
1772561452023156000,8.637156005859374,-0.17551666498184204,0.06201644986867905,1.1756868362426758
1772561452033223000,8.647222900390625,0.6260585188865662,0.3292805254459381,0.3188696801662445
1772561452043288800,8.657288818359374,1.5884947776794434,0.3273494839668274,-0.4800136387348175
1772561452053356000,8.66735595703125,1.7878373861312866,-0.2191191166639328,-0.8067852854728699
1772561452063422000,8.677421875,1.2842531204223633,-0.9904166460037231,-0.6705421805381775
1772561452073489000,8.687489013671875,0.7027711272239685,-1.3099353313446045,-0.2670459747314453
1772561452083555000,8.69755517578125,0.49528583884239197,-1.3049391508102417,-0.0988503247499466
1772561452093622000,8.7076220703125,0.4190049469470978,-1.066797137260437,-0.3925307095050812
1772561452103689000,8.71768896484375,0.2992892265319824,-0.5903363823890686,-0.8972833752632141
1772561452113755000,8.7277548828125,0.20231615006923676,-0.04369287192821503,-1.3195757865905762
1772561452123822000,8.737822021484375,0.11162831634283066,0.528693675994873,-1.4418660402297974
1772561452133888000,8.747887939453125,0.009176235646009445,1.051557183265686,-1.1622065305709839
1772561452143955000,8.757954833984375,-0.040642451494932175,1.4101097583770752,-0.5526893734931946
1772561452154022000,8.76802197265625,-0.035483717918395996,1.5430173873901367,0.1191345751285553
1772561452164088000,8.778088134765625,0.014299814589321613,1.4968445301055908,0.6662647724151611
1772561452174155000,8.788155029296876,0.03764798492193222,1.1641416549682617,0.833557665348053
1772561452184220700,8.798220703125,-0.0032608327455818653,0.6367311477661133,0.5750097632408142
1772561452194288000,8.8082880859375,-0.07860112190246582,0.16060523688793182,0.0030408871825784445
1772561452204353800,8.818353759765625,-0.1257912665605545,-0.06898189336061478,-0.6815952658653259
1772561452214420700,8.828420654296876,-0.11162243783473969,-0.07536625117063522,-1.3053983449935913
1772561452224488000,8.838488037109375,-0.08531732857227325,0.1554746925830841,-1.7322101593017578
1772561452234553900,8.848553955078126,0.0019398946315050125,0.5014081001281738,-1.9414628744125366
1772561452244620800,8.858620849609375,0.131358340382576,0.8012209534645081,-1.9661788940429688
1772561452254686700,8.868686767578126,0.24028325080871582,0.9538917541503906,-1.8557815551757812
1772561452264754000,8.87875390625,0.24615313112735748,0.9034703969955444,-1.8135771751403809
1772561452274820900,8.88882080078125,0.13502146303653717,0.6760245561599731,-1.966460108757019
1772561452284886800,8.89888671875,-0.04585777968168259,0.42429062724113464,-2.2397732734680176
1772561452294953700,8.90895361328125,-0.18152232468128204,0.2579290270805359,-2.5305845737457275
1772561452305020000,8.91902001953125,-0.25945308804512024,0.08215320110321045,-2.769526958465576
1772561452315086800,8.9290869140625,-0.23026645183563232,-0.08770205825567245,-2.839468240737915
1772561452325152800,8.93915283203125,-0.17901045083999634,-0.24690449237823486,-2.7147860527038574
1772561452335220700,8.949220703125,-0.17415401339530945,-0.4774739444255829,-2.406639814376831
1772561452345287000,8.959286865234375,-0.1420421600341797,-0.7642931342124939,-1.9570937156677246
1772561452355353900,8.969353759765625,-0.10113117843866348,-1.1687648296356201,-1.5265592336654663
1772561452365419800,8.979419677734375,-0.07842746376991272,-1.603713870048523,-1.2321484088897705
1772561452375487000,8.989487060546875,-0.05974888056516647,-2.013873815536499,-1.0794024467468262
1772561452385554000,8.999553955078126,-0.04107959195971489,-2.152705669403076,-1.0183018445968628
1772561452395619800,9.009619873046875,-0.002633148804306984,-1.9793307781219482,-1.0168612003326416
1772561452405686800,9.019686767578126,0.029074978083372116,-1.6222922801971436,-1.0515397787094116
1772561452415753000,9.0297529296875,0.1367928385734558,-1.2212663888931274,-0.993000328540802
1772561452425820000,9.03981982421875,0.259765088558197,-0.9094787240028381,-0.7599993348121643
1772561452435886800,9.049886962890625,0.29399654269218445,-0.7159347534179688,-0.23839856684207916
1772561452445952800,9.059952880859376,0.21459731459617615,-0.6361302137374878,0.566168487071991
1772561452456020000,9.07002001953125,0.028647596016526222,-0.5612207055091858,1.396917700767517
1772561452466086000,9.0800859375,-0.19566673040390015,-0.11873887479305267,2.1615779399871826
1772561452476152800,9.09015283203125,-0.4475579261779785,0.5936160683631897,2.776439905166626
1772561452486219000,9.100218994140626,-0.6077603697776794,1.3289880752563477,3.221853733062744
1772561452496286000,9.110285888671875,-0.4843977689743042,2.036405563354492,3.951115369796753
1772561452506353000,9.120352783203124,-0.4314679801464081,2.1881542205810547,4.6818623542785645
1772561452516418800,9.130418701171875,-0.5905933380126953,1.5813844203948975,4.945555210113525
1772561452526486000,9.140486083984374,-0.8121760487556458,1.1498655080795288,4.918155670166016
1772561452536552000,9.150552001953125,-0.7106114625930786,1.4195618629455566,5.004177570343018
1772561452546619000,9.160618896484374,-0.18841269612312317,1.6508662700653076,5.243384838104248
1772561452556685800,9.170685791015625,0.3352355659008026,0.9753447771072388,5.303942680358887
1772561452566752000,9.180751953125,0.4702136218547821,-0.03534587845206261,5.290822505950928
1772561452576818000,9.19081787109375,-0.005155116319656372,-0.5434663891792297,5.188913345336914
1772561452586884000,9.200884033203126,-0.7136819362640381,0.028900496661663055,4.8564772605896
1772561452596951000,9.210950927734375,-0.760033905506134,1.788467526435852,4.134500980377197
1772561452607017000,9.221016845703126,0.2985270917415619,3.331594467163086,2.96829891204834
1772561452617084000,9.231083984375,1.124436616897583,3.6941957473754883,1.6758155822753906
1772561452627151000,9.241151123046874,1.210439920425415,2.5775551795959473,0.6090730428695679
1772561452637217000,9.251217041015625,1.1823244094848633,1.0013606548309326,0.26895269751548767
1772561452647284000,9.261283935546874,1.1980986595153809,-0.3252072334289551,0.5433065295219421
1772561452657350000,9.271349853515625,1.1632630825042725,-1.3837043046951294,0.9815371632575989
1772561452667417000,9.2814169921875,1.0847347974777222,-2.0985238552093506,1.1115574836730957
1772561452677484000,9.291484130859375,0.8845117092132568,-2.26254940032959,0.791768491268158
1772561452687550000,9.301550048828124,0.6145225763320923,-1.834167718887329,0.2860136926174164
1772561452697617200,9.3116171875,0.3506576418876648,-1.0993989706039429,-0.1605299860239029
1772561452707682800,9.321682861328124,0.1710575371980667,-0.13210879266262054,-0.355884850025177
1772561452717749800,9.331749755859375,0.07666324079036713,0.8383966684341431,-0.28824421763420105
1772561452727817000,9.34181689453125,0.03918830305337906,1.5610097646713257,-0.13655933737754822
1772561452737883000,9.3518828125,0.051888126879930496,1.974367380142212,-0.1382244974374771
1772561452747949800,9.36194970703125,0.07786166667938232,2.0420022010803223,-0.4229201376438141
1772561452758015700,9.372015625,0.06251031160354614,1.897782325744629,-0.9462833404541016
1772561452768083000,9.3820830078125,0.005296824499964714,1.651588797569275,-1.5463688373565674
1772561452778148900,9.39214892578125,-0.04604731500148773,1.3564265966415405,-2.0902631282806396
1772561452788215800,9.4022158203125,-0.021870607510209084,1.0379292964935303,-2.550224542617798
1772561452798282800,9.41228271484375,0.009896248579025269,0.6995466351509094,-2.8392515182495117
1772561452808349000,9.422348876953125,0.05070652812719345,0.35931363701820374,-2.8100597858428955
1772561452818415900,9.432415771484376,0.13574393093585968,0.006512337364256382,-2.552736282348633
1772561452828481800,9.442481689453125,0.2424597293138504,-0.33832892775535583,-2.2944984436035156
1772561452838549000,9.452549072265626,0.3630950152873993,-0.6815195083618164,-2.2340176105499268
1772561452848616000,9.462615966796875,0.49629780650138855,-1.0020564794540405,-2.362043619155884
1772561452858681900,9.472681884765626,0.5754814147949219,-1.3092190027236938,-2.631164073944092
1772561452868748800,9.482748779296875,0.5126162171363831,-1.5413569211959839,-2.9192328453063965
1772561452878815000,9.49281494140625,0.37584251165390015,-1.6078212261199951,-3.0749988555908203
1772561452888882000,9.5028818359375,0.26938238739967346,-1.4634469747543335,-3.0856270790100098
1772561452898948900,9.512948974609374,0.25481802225112915,-1.2189950942993164,-2.994770050048828
1772561452909015000,9.52301513671875,0.3426932692527771,-0.9377055764198303,-2.813469886779785
1772561452919082000,9.53308203125,0.44924336671829224,-0.5631521344184875,-2.5638720989227295
1772561452929148000,9.54314794921875,0.5706534385681152,-0.13170753419399261,-2.2921087741851807
1772561452939214800,9.55321484375,0.7401948571205139,0.19290953874588013,-1.9998676776885986
1772561452949281000,9.563281005859375,0.9372314810752869,0.22891654074192047,-1.624450922012329
1772561452959348000,9.573347900390624,1.1740648746490479,-0.053889114409685135,-1.1829195022583008
1772561452969415000,9.583414794921875,1.3712294101715088,-0.8475329279899597,-0.7130331993103027
1772561452979481000,9.593481201171874,1.256797194480896,-0.7786087393760681,-0.33705949783325195
1772561452989548000,9.603548095703125,0.6757025122642517,1.6371876001358032,-0.6066135168075562
1772561452999614000,9.613614013671874,-0.48416635394096375,1.1676383018493652,-0.5538424253463745
1772561453009681000,9.623680908203125,-0.8835230469703674,0.3880026340484619,0.04155357554554939
1772561453019748000,9.633748046875,-0.8466119170188904,-0.4021134078502655,0.5310935378074646
1772561453029814000,9.64381396484375,-0.6984456181526184,-1.168931245803833,0.752437949180603
1772561453039881000,9.653880859375,-0.30882492661476135,-1.6033531427383423,0.6754385232925415
1772561453049947100,9.663947021484375,0.17054696381092072,-1.6458619832992554,0.2605142891407013
1772561453060014000,9.67401416015625,0.3877846300601959,-0.12806351482868195,-0.06814047694206238
1772561453070081000,9.6840810546875,0.48854905366897583,0.7271360754966736,-0.648391604423523
1772561453080147000,9.69414697265625,0.46434885263442993,1.444992184638977,-1.262752652168274
1772561453090214000,9.7042138671875,0.21003669500350952,1.1441676616668701,-2.1139228343963623
1772561453100280000,9.714280029296875,-0.37178996205329895,0.11982664465904236,-2.85086989402771
1772561453110347000,9.724346923828126,-0.5418152213096619,-0.8667269945144653,-3.2985222339630127
1772561453120413000,9.734412841796875,-0.3191860020160675,-0.4685385525226593,-3.691986322402954
1772561453130480000,9.744480224609376,-0.30006638169288635,0.9859505891799927,-3.3149092197418213
1772561453140547000,9.754547119140625,-0.15871989727020264,1.3739413022994995,-2.255704641342163
1772561453150612700,9.76461279296875,0.07538207620382309,1.2597920894622803,-1.3305102586746216
1772561453160680000,9.774679931640625,0.0907847061753273,1.779478907585144,-0.9834604263305664
1772561453170745900,9.784745849609376,-0.1090458482503891,2.2303519248962402,-1.1847485303878784
1772561453180812800,9.794812744140625,-0.3343448340892792,2.136866569519043,-1.6207947731018066
1772561453190880000,9.8048798828125,-0.506703794002533,1.6590168476104736,-2.0426981449127197
1772561453200946000,9.81494580078125,-0.720808744430542,1.2520591020584106,-2.4203789234161377
1772561453211012900,9.825012939453124,-0.9463955163955688,0.8901857137680054,-2.622649669647217
1772561453221078800,9.835078857421875,-1.021508812904358,0.5471115112304688,-2.6010212898254395
1772561453231146000,9.84514599609375,-0.9532709121704102,0.21780820190906525,-2.419412136077881
1772561453241212000,9.8552119140625,-0.9587754011154175,0.01641184836626053,-2.171576738357544
1772561453251278800,9.86527880859375,-0.9683318734169006,-0.12429653108119965,-1.9547240734100342
1772561453261345800,9.875345703125,-1.0447559356689453,1.0745729207992554,-1.0635058879852295
1772561453271412000,9.885411865234374,-1.0434834957122803,1.435565710067749,-0.13908140361309052
1772561453281479000,9.89547900390625,-0.9575242400169373,0.6717535853385925,0.3641624450683594
1772561453291544800,9.905544921875,-0.6157847046852112,0.22787413001060486,0.5054972171783447
1772561453301611800,9.91561181640625,-0.20753757655620575,0.05509808659553528,0.6348424553871155
1772561453311679000,9.925678955078125,0.008682348765432835,-0.19671285152435303,0.9135158658027649
1772561453321745000,9.935744873046875,0.06918508559465408,-0.41978898644447327,1.1959242820739746
1772561453331811800,9.945811767578125,-0.005374104715883732,-0.9751161336898804,1.5377460718154907
1772561453341878000,9.9558779296875,-0.1458713710308075,-1.2073849439620972,1.7742786407470703
1772561453351945000,9.965945068359375,-0.3720216751098633,-1.1079084873199463,1.8438256978988647
1772561453362012000,9.976011962890626,-0.5466908812522888,-0.9491901993751526,1.8339011669158936
1772561453372077800,9.986077880859375,-0.6307684779167175,-0.7456727623939514,1.7962474822998047
1772561453382145000,9.99614501953125,-0.6608698964118958,-0.5502303838729858,1.7177281379699707
1772561453392211000,10.0062109375,-0.6325069665908813,-0.39559873938560486,1.5831823348999023
1772561453402278000,10.01627783203125,-0.5537457466125488,-0.3367047905921936,1.3918769359588623
1772561453412344000,10.026343994140625,-0.4679730534553528,-0.43615415692329407,1.1534793376922607
1772561453422411000,10.036410888671876,-0.4018411636352539,-0.6830854415893555,0.9211216568946838
1772561453432478000,10.04647802734375,-0.3657979369163513,-0.8901363611221313,0.7821613550186157
1772561453442543900,10.0565439453125,-0.36167478561401367,-0.8457499742507935,0.7841032147407532
1772561453452611000,10.066611083984375,-0.3818671405315399,-0.6347754001617432,0.8617359399795532
1772561453462677000,10.076677001953126,-0.44069620966911316,-0.4446568191051483,0.9349111914634705
1772561453472744000,10.086743896484375,-0.5228787064552307,-0.33387836813926697,0.9355375170707703
1772561453482811000,10.096810791015624,-0.6015227437019348,-0.22663873434066772,0.8900296092033386
1772561453492877000,10.106876953125,-0.6545433402061462,-0.10955099761486053,0.8478416800498962
1772561453502944000,10.116944091796874,-0.661006510257721,-0.017238575965166092,0.8407784104347229
1772561453513010000,10.127010009765625,-0.6093952655792236,0.05081397667527199,0.8568772077560425
1772561453523077000,10.1370771484375,-0.5190161466598511,0.08887425810098648,0.8985058069229126
1772561453533144000,10.14714404296875,-0.42665430903434753,0.13146619498729706,0.920818567276001
1772561453543210000,10.1572099609375,-0.36372876167297363,0.17506231367588043,0.8818538188934326
1772561453553277000,10.16727685546875,-0.34639132022857666,0.22766506671905518,0.7524361610412598
1772561453563343000,10.177343017578124,-0.35020193457603455,0.31812119483947754,0.5498484969139099
1772561453573410600,10.18741064453125,-0.34926849603652954,0.4480578899383545,0.345598429441452
1772561453583476500,10.1974765625,-0.3440617024898529,0.5665383338928223,0.2232930064201355
1772561453593543400,10.20754345703125,-0.3583599627017975,0.608932375907898,0.1713019758462906
1772561453603610600,10.217610595703125,-0.3650606572628021,0.6173076629638672,0.20666861534118652
1772561453613676500,10.227676513671875,-0.3501107096672058,0.6101842522621155,0.29114729166030884
1772561453623743500,10.237743408203125,-0.3705984950065613,0.5829749703407288,0.47675788402557373
1772561453633809700,10.2478095703125,-0.3963523507118225,0.3346271812915802,0.5241209268569946
1772561453643876600,10.257876708984375,-0.336233526468277,-0.003043960314244032,0.3735036253929138
1772561453653943600,10.267943603515626,-0.2170940786600113,-0.23110829293727875,0.2106524258852005
1772561453664009500,10.278009521484375,-0.16163480281829834,-0.36468881368637085,0.07292501628398895
1772561453674076700,10.28807666015625,-0.16715100407600403,-0.44549843668937683,-0.057643648236989975
1772561453684142600,10.298142578125,-0.22347775101661682,-0.4940029978752136,-0.16685956716537476
