time,seconds_elapsed,z,y,x
1772561443445185000,0.05918505859375,0.06631191074848175,0.05073241889476776,0.2221483737230301
1772561443455252000,0.069251953125,-0.03399365395307541,0.00692102313041687,0.2917037606239319
1772561443465318000,0.07931787109375,-0.14340509474277496,-0.02359960228204727,0.37427452206611633
1772561443475384800,0.089384765625,-0.23051416873931885,-0.07395198941230774,0.4380447268486023
1772561443485451000,0.099450927734375,-0.26313549280166626,-0.11465387791395187,0.465488076210022
1772561443495518000,0.10951806640625,-0.23595234751701355,-0.12369824200868607,0.4613012969493866
1772561443505584000,0.119584228515625,-0.15806153416633606,-0.1371871531009674,0.4052004814147949
1772561443515651000,0.129651123046875,-0.05598071217536926,-0.12615659832954407,0.3046826720237732
1772561443525717000,0.139717041015625,0.05404938757419586,-0.1126655638217926,0.1930440217256546
1772561443535784000,0.149783935546875,0.16225841641426086,-0.12060364335775375,0.0822349488735199
1772561443545851000,0.159850830078125,0.24075987935066223,-0.11020053923130035,-0.010378871113061905
1772561443555917000,0.1699169921875,0.28988054394721985,-0.05288532003760338,-0.07286541908979416
1772561443565984300,0.179984375,0.3187529444694519,0.03580540046095848,-0.10149892419576645
1772561443576050200,0.19005029296875,0.3233407735824585,0.12250620871782303,-0.11459662020206451
1772561443586117400,0.200117431640625,0.3002237379550934,0.17377258837223053,-0.12145106494426727
1772561443596183300,0.210183349609375,0.262893944978714,0.19057421386241913,-0.14460591971874237
1772561443606250200,0.220250244140625,0.23660801351070404,0.19715407490730286,-0.18240176141262054
1772561443616316200,0.230316162109375,0.2244083434343338,0.22737696766853333,-0.21373945474624634
1772561443626383400,0.24038330078125,0.22775059938430786,0.29094740748405457,-0.2151479870080948
1772561443636449000,0.250448974609375,0.2403244525194168,0.3344205915927887,-0.18370617926120758
1772561443646516000,0.260515869140625,0.28118374943733215,0.3426276445388794,-0.1455444097518921
1772561443656583400,0.27058349609375,0.3286532461643219,0.31148838996887207,-0.09625942260026932
1772561443666649000,0.280649169921875,0.3680770993232727,0.2945227026939392,-0.027634823694825172
1772561443676716000,0.290716064453125,0.3787369132041931,0.29521727561950684,0.06678542494773865
1772561443686782200,0.3007822265625,0.352294385433197,0.2904147803783417,0.16338679194450378
1772561443696849200,0.31084912109375,0.33289432525634766,0.3100753128528595,0.2575324773788452
1772561443706915000,0.3209150390625,0.3373071849346161,0.3534185290336609,0.3639070987701416
1772561443716982000,0.33098193359375,0.3578569293022156,0.43796271085739136,0.4667826294898987
1772561443727048200,0.341048095703125,0.39005428552627563,0.5432528853416443,0.5477091670036316
1772561443737115100,0.351115234375,0.4290160834789276,0.6527652740478516,0.5573426485061646
1772561443747182000,0.36118212890625,0.4817677140235901,0.7822295427322388,0.4988982081413269
1772561443757248300,0.371248291015625,0.5212437510490417,0.975803017616272,0.40220630168914795
1772561443767315200,0.381315185546875,0.521295964717865,1.219144582748413,0.2941381633281708
1772561443777381000,0.391381103515625,0.4424368143081665,1.3512130975723267,0.20364633202552795
1772561443787448000,0.401447998046875,0.27857276797294617,1.485152244567871,0.19602090120315552
1772561443797514200,0.41151416015625,0.07731982320547104,1.4690417051315308,0.20953884720802307
1772561443807581200,0.421581298828125,-0.11076193302869797,1.3367297649383545,0.2479538768529892
1772561443817647000,0.431647216796875,-0.26473817229270935,1.2061001062393188,0.3044706881046295
1772561443827714300,0.44171435546875,-0.3674696087837219,1.1168540716171265,0.39115816354751587
1772561443837780200,0.4517802734375,-0.4169255793094635,1.0694754123687744,0.45801016688346863
1772561443847847200,0.46184716796875,-0.40871238708496094,1.0442672967910767,0.519133448600769
1772561443857914000,0.4719140625,-0.4054628014564514,0.9910599589347839,0.5580142736434937
1772561443867980300,0.481980224609375,-0.4052066206932068,0.9445886015892029,0.5799134373664856
1772561443878047200,0.492047119140625,-0.3934705853462219,0.8762657642364502,0.5645033121109009
1772561443888113200,0.502113037109375,-0.4045267105102539,0.7947112321853638,0.5243830680847168
1772561443898180400,0.512180419921875,-0.4620493948459625,0.6666073203086853,0.47250229120254517
1772561443908246300,0.522246337890625,-0.5450071096420288,0.4444759786128998,0.4295540452003479
1772561443918313200,0.532313232421875,-0.6017633676528931,0.13364194333553314,0.35327017307281494
1772561443928379400,0.54237939453125,-0.5910505056381226,-0.1608557254076004,0.23141378164291382
1772561443938446300,0.5524462890625,-0.5564376711845398,-0.32646653056144714,0.14016322791576385
1772561443948513300,0.56251318359375,-0.6010009050369263,-0.424469530582428,0.045890793204307556
1772561443958579200,0.5725791015625,-0.7014313340187073,-0.4497511684894562,-0.08007805794477463
1772561443968646400,0.582646484375,-0.8096582293510437,-0.4316246509552002,-0.23722480237483978
1772561443978712000,0.592712158203125,-0.8946093320846558,-0.39434412121772766,-0.37085476517677307
1772561443988779300,0.602779296875,-0.9440903067588806,-0.3578138053417206,-0.4669986069202423
1772561443998845200,0.61284521484375,-0.947639524936676,-0.2787461578845978,-0.5171515345573425
1772561444008912100,0.622912109375,-0.9528188705444336,-0.289272278547287,-0.5444028377532959
1772561444018978000,0.63297802734375,-0.9998856782913208,-0.3888548016548157,-0.5106568932533264
1772561444029045000,0.643044921875,-1.0480233430862427,-0.6167159080505371,-0.4012555480003357
1772561444039111200,0.653111083984375,-1.0561250448226929,-0.8438721299171448,-0.19358810782432556
1772561444049178000,0.66317822265625,-1.0702717304229736,-1.0353922843933105,0.09808821976184845
1772561444059245000,0.6732451171875,-1.1599347591400146,-1.2876548767089844,0.4208609461784363
1772561444069311200,0.683311279296875,-1.3411495685577393,-1.4422128200531006,0.6792647838592529
1772561444079378200,0.693378173828125,-1.4765981435775757,-1.5781223773956299,0.803516149520874
1772561444089444000,0.703444091796875,-1.5236120223999023,-1.7245798110961914,0.7485410571098328
1772561444099511000,0.713510986328125,-1.421644687652588,-1.7735824584960938,0.6801734566688538
1772561444109577200,0.7235771484375,-1.2558401823043823,-1.953649640083313,0.6892148852348328
1772561444119644200,0.73364404296875,-1.1104497909545898,-1.9514155387878418,0.7040851712226868
1772561444129710000,0.7437099609375,-0.9709666967391968,-1.786851406097412,0.7186851501464844
1772561444139777300,0.75377734375,-0.8085940480232239,-1.4906764030456543,0.7701728940010071
1772561444149843200,0.76384326171875,-0.6675831079483032,-1.2714173793792725,0.8642162680625916
1772561444159910100,0.77391015625,-0.5643563270568848,-1.3340197801589966,0.9579161405563354
1772561444169977000,0.78397705078125,-0.3595203459262848,-1.6443134546279907,1.018106460571289
1772561444180043300,0.794043212890625,-0.3360493779182434,-1.9197896718978882,1.098351001739502
1772561444190110200,0.804110107421875,-0.36162638664245605,-2.165954828262329,1.1989377737045288
1772561444200176000,0.814176025390625,-0.5240043997764587,-1.7172446250915527,1.0324116945266724
1772561444210243300,0.824243408203125,-0.6984549760818481,-1.1533788442611694,1.0133650302886963
1772561444220309200,0.834309326171875,-0.7951645255088806,-0.46733683347702026,1.0344109535217285
1772561444230376200,0.844376220703125,-0.7715571522712708,0.08406667411327362,1.044690728187561
1772561444240442400,0.8544423828125,-0.6558729410171509,0.23425857722759247,0.9568876028060913
1772561444250509300,0.86450927734375,-0.5070403218269348,-0.2818572521209717,0.640331506729126
1772561444260576300,0.874576171875,-0.3176320195198059,-0.563662588596344,0.1898985654115677
1772561444270642200,0.88464208984375,-0.15502314269542694,-0.7987560629844666,-0.057917892932891846
1772561444280709400,0.89470947265625,-0.052323926240205765,-1.2924256324768066,-0.2900019884109497
1772561444290775300,0.904775390625,0.004491155035793781,-1.9680150747299194,-0.4230519235134125
1772561444300842200,0.91484228515625,0.2851608991622925,-2.3301491737365723,-0.5006745457649231
1772561444310908200,0.924908203125,0.7969373464584351,-1.8375486135482788,-0.5048636794090271
1772561444320975400,0.934975341796875,1.014456868171692,-0.7729039192199707,-0.4675312340259552
1772561444331041000,0.945041015625,0.9487397074699402,0.03310628607869148,-0.3820701241493225
1772561444341108000,0.95510791015625,0.8989942073822021,0.155784010887146,-0.5570009350776672
1772561444351174100,0.965174072265625,1.4436652660369873,0.4243757724761963,-1.1124346256256104
1772561444361241000,0.975240966796875,1.764382243156433,0.9645870923995972,-1.5705050230026245
1772561444371308000,0.98530810546875,1.8794883489608765,1.3596938848495483,-1.6534302234649658
1772561444381374200,0.995374267578125,1.7026818990707397,0.9408266544342041,-1.5963711738586426
1772561444391441200,1.005441162109375,1.306301236152649,0.07542870938777924,-1.4041575193405151
1772561444401507000,1.015507080078125,0.8330562114715576,-0.7096064686775208,-1.135048270225525
1772561444411574000,1.025573974609375,0.31699153780937195,-1.183061957359314,-0.8850840330123901
1772561444421640200,1.03564013671875,-0.1762743592262268,-1.445274829864502,-0.7338252663612366
1772561444431707100,1.04570703125,-0.5028674006462097,-1.5033624172210693,-0.6580569744110107
1772561444441773000,1.05577294921875,-0.6971849203109741,-1.140265941619873,-0.5274209380149841
1772561444451840300,1.06584033203125,-0.8656943440437317,-0.5044301152229309,-0.3038957118988037
1772561444461906200,1.07590625,-0.9160999655723572,-0.13302622735500336,-0.04439755901694298
1772561444471973000,1.08597314453125,-0.8207998275756836,-0.16341689229011536,0.2302483767271042
1772561444482040000,1.0960400390625,-0.5182463526725769,0.36178937554359436,0.2730232775211334
1772561444492106200,1.106106201171875,-0.2451423853635788,0.5474330186843872,0.37143081426620483
1772561444502173200,1.116173095703125,-0.038477882742881775,0.848712682723999,0.32189175486564636
1772561444512239000,1.126239013671875,0.16271141171455383,0.7245609164237976,0.05471144989132881
1772561444522306300,1.136306396484375,0.4643511474132538,-0.03231319785118103,-0.27977678179740906
1772561444532372200,1.146372314453125,0.6005833148956299,-0.24906468391418457,-0.37902960181236267
1772561444542439200,1.156439208984375,0.6255360841751099,-0.030842866748571396,-0.3223053514957428
1772561444552505300,1.16650537109375,0.6100388765335083,0.2472124546766281,-0.2712123394012451
1772561444562572500,1.176572509765625,0.6205953359603882,0.3190549612045288,-0.2665022611618042
1772561444572639500,1.186639404296875,0.6663444638252258,0.31165987253189087,-0.2686578333377838
1772561444582705400,1.196705322265625,0.6693405508995056,0.937714695930481,-0.388040691614151
1772561444592772600,1.206772705078125,0.8190826177597046,1.2992761135101318,-0.3762876093387604
1772561444602838500,1.216838623046875,1.0292433500289917,1.6177356243133545,-0.23286041617393494
1772561444612905500,1.226905517578125,1.1509050130844116,1.7436668872833252,0.1381291151046753
1772561444622971400,1.236971435546875,0.9939510822296143,1.5935231447219849,0.636968731880188
1772561444633038300,1.247038330078125,0.6592913269996643,0.9391672015190125,1.0110877752304077
1772561444643104300,1.257104248046875,0.40102171897888184,0.08857300877571106,1.3855154514312744
1772561444653171200,1.267171142578125,0.2177158147096634,-0.15006886422634125,1.8464769124984741
1772561444663237400,1.2772373046875,0.08917195349931717,-0.6161819696426392,2.211151599884033
1772561444673304300,1.28730419921875,0.14608344435691833,-0.6218137741088867,2.683769941329956
1772561444683371300,1.297371337890625,0.2278241068124771,-0.27957677841186523,2.960024356842041
1772561444693437400,1.3074375,0.2838501036167145,0.19685393571853638,3.034132957458496
1772561444703504400,1.31750439453125,0.3245839476585388,0.7842404842376709,2.7910377979278564
1772561444713570300,1.3275703125,0.3742697238922119,1.4688084125518799,2.265000104904175
1772561444723637200,1.33763720703125,0.5169904232025146,2.0112903118133545,1.596562147140503
1772561444733703400,1.347703369140625,0.8795635104179382,2.3935036659240723,1.1195178031921387
1772561444743770400,1.357770263671875,1.4062126874923706,2.5645298957824707,1.0336588621139526
1772561444753836300,1.367836181640625,1.8673385381698608,2.3999760150909424,1.1374834775924683
1772561444763903500,1.377903564453125,2.0572681427001953,2.2025234699249268,1.1816669702529907
1772561444773970400,1.387970458984375,1.9854472875595093,2.042038679122925,0.928733229637146
1772561444784036400,1.398036376953125,1.8881345987319946,1.8106123208999634,0.3646826148033142
1772561444794103300,1.408103271484375,2.0103533267974854,1.589679479598999,-0.43705350160598755
1772561444804169500,1.41816943359375,2.2483692169189453,1.3413690328598022,-1.1704227924346924
1772561444814236400,1.428236328125,2.3249242305755615,1.2726939916610718,-1.4783164262771606
1772561444824302300,1.43830224609375,2.118644952774048,1.5949535369873047,-1.1384384632110596
1772561444834369500,1.44836962890625,1.6641989946365356,1.7851674556732178,-0.5079013109207153
1772561444844435500,1.458435546875,1.2218964099884033,1.3021353483200073,-0.1963101178407669
1772561444854502400,1.46850244140625,1.1145925521850586,0.38377082347869873,-0.10241825133562088
1772561444864568600,1.478568603515625,0.8875351548194885,-0.4182419776916504,-0.11305251717567444
1772561444874635500,1.488635498046875,0.4461902678012848,-1.0312963724136353,-0.3051204979419708
1772561444884702500,1.498702392578125,0.04205743968486786,-1.2785309553146362,-0.5509145259857178
1772561444894768400,1.508768310546875,-0.31495368480682373,-1.2510478496551514,-0.8864195942878723
1772561444904835600,1.518835693359375,-0.6634687781333923,-0.9507983326911926,-1.3057289123535156
1772561444914901500,1.528901611328125,-0.9871701598167419,-0.3997404873371124,-1.7186763286590576
1772561444924968400,1.538968505859375,-1.2355799674987793,0.15262256562709808,-2.063222885131836
1772561444935034600,1.54903466796875,-1.389600396156311,0.5032055974006653,-2.3305985927581787
1772561444945101600,1.5591015625,-1.3810796737670898,0.7481533288955688,-2.4377682209014893
1772561444955167200,1.569167236328125,-1.146616816520691,1.068926215171814,-2.3012006282806396
1772561444965234400,1.579234375,-0.8775275349617004,1.4177879095077515,-1.930256962776184
1772561444975301600,1.589301513671875,-0.7552103996276855,1.6926913261413574,-1.4745339155197144
1772561444985367300,1.5993671875,-0.8166745901107788,1.663346767425537,-1.1015832424163818
1772561444995434200,1.609434326171875,-1.0985643863677979,1.3424819707870483,-0.8628237247467041
1772561445005500400,1.61950048828125,-1.5583854913711548,0.8767805099487305,-0.845644474029541
1772561445015567400,1.6295673828125,-2.016793966293335,0.445805162191391,-1.0030524730682373
1772561445025633300,1.63963330078125,-2.217379331588745,0.0621802844107151,-1.17156183719635
1772561445035700200,1.6497001953125,-2.1353068351745605,-0.3107863664627075,-1.2756621837615967
1772561445045766400,1.659766357421875,-1.9024912118911743,-0.5423375964164734,-1.31965172290802
1772561445055833300,1.669833251953125,-1.6605682373046875,-0.5692051649093628,-1.358060598373413
1772561445065899300,1.679899169921875,-1.4902716875076294,-0.5658964514732361,-1.4485385417938232
1772561445075966500,1.689966552734375,-1.4407144784927368,-0.3767470121383667,-1.5792747735977173
1772561445086033400,1.700033447265625,-1.4678446054458618,-0.011927233077585697,-1.8003888130187988
1772561445096099300,1.710099365234375,-1.499653935432434,0.1871163547039032,-2.1433141231536865
1772561445106166300,1.720166259765625,-1.5666780471801758,0.07257752865552902,-2.6008949279785156
1772561445116232400,1.730232421875,-1.6985993385314941,-0.3246164321899414,-3.1253771781921387
1772561445126299400,1.74029931640625,-1.8093616962432861,-0.6668677926063538,-3.5979299545288086
1772561445136365300,1.750365234375,-1.8567277193069458,-0.7046276926994324,-3.863832950592041
1772561445146432500,1.7604326171875,-1.8364708423614502,-0.46261265873908997,-3.9200103282928467
1772561445156498400,1.77049853515625,-1.7423230409622192,-0.18301668763160706,-3.808391809463501
1772561445166565400,1.7805654296875,-1.4854656457901,-0.0743890106678009,-3.4914209842681885
1772561445176632300,1.79063232421875,-1.035134196281433,-0.2734462022781372,-3.1427266597747803
1772561445186698500,1.800698486328125,-0.6106513738632202,-0.6143507957458496,-2.7809059619903564
1772561445196765400,1.810765380859375,-0.3691745698451996,-1.0326683521270752,-2.2596468925476074
1772561445206831400,1.820831298828125,-0.3627278506755829,-1.4694433212280273,-1.5954571962356567
1772561445216898600,1.830898681640625,-0.515631914138794,-1.623019814491272,-0.8516546487808228
1772561445226964500,1.840964599609375,-0.5941336750984192,-1.4768234491348267,-0.18778827786445618
1772561445237031400,1.851031494140625,-0.5058338642120361,-1.2326477766036987,0.18123610317707062
1772561445247097600,1.86109765625,-0.18910521268844604,-0.8967305421829224,0.2960265874862671
1772561445257164500,1.87116455078125,0.2703702449798584,-0.5765653252601624,0.18368035554885864
1772561445267231500,1.8812314453125,0.5572906732559204,-0.226171612739563,-0.02947666496038437
1772561445277297400,1.89129736328125,0.6145193576812744,-0.06211130693554878,-0.005152417812496424
1772561445287364600,1.901364501953125,0.585268497467041,-0.20383994281291962,0.4921921193599701
1772561445297430500,1.911430419921875,0.6683727502822876,-0.36308684945106506,1.4887824058532715
1772561445307497500,1.92149755859375,0.8425682187080383,-0.2974433898925781,2.7428276538848877
1772561445317563400,1.9315634765625,1.0748603343963623,0.0393063947558403,3.811277389526367
1772561445327630600,1.941630615234375,1.2667160034179688,0.08766993135213852,4.235631942749023
1772561445337696300,1.9516962890625,1.4710564613342285,-0.16094067692756653,4.241301536560059
1772561445347763200,1.96176318359375,1.6746881008148193,-0.5146167278289795,4.1629252433776855
1772561445357829400,1.971829345703125,1.6420819759368896,-0.5025861859321594,4.231222152709961
1772561445367896300,1.981896240234375,1.3627568483352661,-0.30219367146492004,4.452825546264648
1772561445377963300,1.99196337890625,1.051792860031128,0.036740172654390335,4.800954818725586
1772561445388029400,2.002029541015625,1.2007309198379517,0.45979928970336914,5.299907207489014
1772561445398096400,2.012096435546875,1.6113232374191284,0.5911344289779663,5.602006912231445
1772561445408162300,2.022162353515625,1.834980845451355,0.4726210832595825,5.665950775146484
1772561445418229200,2.032229248046875,1.723426342010498,0.08919113129377365,5.6169281005859375
1772561445428295400,2.04229541015625,1.3175488710403442,-0.3947864770889282,5.688253402709961
1772561445438362400,2.0523623046875,0.37755635380744934,-0.5911911129951477,5.539492130279541
1772561445448428300,2.06242822265625,-0.25363707542419434,-0.3920881450176239,4.509202480316162
1772561445458495500,2.07249560546875,0.15013650059700012,-0.17012779414653778,2.8146564960479736
1772561445468562400,2.0825625,0.4862564504146576,0.41648244857788086,1.2898902893066406
1772561445478628400,2.09262841796875,0.45921286940574646,1.080339789390564,0.24911874532699585
1772561445488695300,2.1026953125,0.38822710514068604,1.426267147064209,-0.4107896685600281
1772561445498761500,2.112761474609375,0.519066333770752,1.2986079454421997,-0.8375157117843628
1772561445508828400,2.122828369140625,0.7586970329284668,0.6849799156188965,-1.0675121545791626
1772561445518894300,2.132894287109375,0.7958683967590332,-0.023241406306624413,-1.0524269342422485
1772561445528961500,2.14296142578125,0.5494726896286011,-0.5040420889854431,-0.8229700326919556
1772561445539027500,2.15302734375,0.19611331820487976,-0.6956394910812378,-0.5738281011581421
1772561445549094400,2.163094482421875,-0.012408466078341007,-0.3551431894302368,-0.3178360164165497
1772561445559161300,2.173161376953125,-0.11237261444330215,0.431833952665329,-0.027599403634667397
1772561445569227500,2.1832275390625,-0.15299753844738007,1.1267602443695068,0.08660785853862762
1772561445579294500,2.19329443359375,-0.23480558395385742,1.465444803237915,-0.09012217074632645
1772561445589360400,2.2033603515625,-0.3716143071651459,1.4096457958221436,-0.5723271369934082
1772561445599427600,2.213427490234375,-0.6206464767456055,1.126515507698059,-1.1626349687576294
1772561445609493500,2.223493408203125,-0.8334540724754333,0.7446938753128052,-1.6587027311325073
1772561445619560400,2.233560546875,-0.9493953585624695,0.44181814789772034,-2.0001184940338135
1772561445629626600,2.243626708984375,-0.9319380521774292,0.3845332860946655,-2.02380108833313
1772561445639693600,2.253693603515625,-0.7106450796127319,0.42989251017570496,-1.7970116138458252
1772561445649760500,2.263760498046875,-0.3682003915309906,0.3389900326728821,-1.486486792564392
1772561445659826400,2.273826416015625,-0.018018415197730064,0.08163627237081528,-1.185922384262085
1772561445669893400,2.283893310546875,0.1403440684080124,-0.5075835585594177,-1.0154513120651245
1772561445679959600,2.29395947265625,-0.007239270955324173,-1.2720894813537598,-1.0786370038986206
1772561445690026500,2.304026611328125,-0.26158180832862854,-1.839227557182312,-1.303730845451355
1772561445700092700,2.3140927734375,-0.4094200134277344,-1.9729562997817993,-1.5861438512802124
1772561445710159600,2.32415966796875,-0.4572999179363251,-1.7354917526245117,-1.9815963506698608
1772561445720225500,2.3342255859375,-0.4366114139556885,-1.2361701726913452,-2.4606244564056396
1772561445730292500,2.34429248046875,-0.47423282265663147,-0.5416139960289001,-2.952282190322876
1772561445740359400,2.354359375,-0.5971683263778687,0.1956632435321808,-3.296769618988037
1772561445750425600,2.364425537109375,-0.7718048691749573,0.7546697854995728,-3.3993468284606934
1772561445760492500,2.374492431640625,-0.9446524977684021,1.0554866790771484,-3.2420740127563477
1772561445770558700,2.384558837890625,-1.093917965888977,1.0533417463302612,-2.87361478805542
1772561445780625700,2.394625732421875,-1.224683403968811,0.8038074970245361,-2.3992955684661865
1772561445790691600,2.404691650390625,-1.3178716897964478,0.40936487913131714,-1.8659605979919434
1772561445800758500,2.414758544921875,-1.4001686573028564,-0.13153912127017975,-1.3611259460449219
1772561445810824700,2.42482470703125,-1.52088463306427,-0.6541570425033569,-0.97162926197052
1772561445820891600,2.4348916015625,-1.6876411437988281,-1.2243608236312866,-0.7947442531585693
1772561445830957300,2.444957275390625,-1.7617955207824707,-1.650962471961975,-0.8886475563049316
1772561445841024500,2.4550244140625,-1.5748869180679321,-1.8242504596710205,-1.0844922065734863
1772561445851091700,2.465091796875,-1.140268325805664,-1.5093356370925903,-1.0574430227279663
1772561445861157400,2.475157470703125,-0.6233658194541931,-0.8154463171958923,-0.7512924075126648
1772561445871224600,2.485224609375,-0.1977626085281372,-0.04410514235496521,-0.25167858600616455
1772561445881290500,2.49529052734375,0.017434384673833847,0.601177990436554,0.27177557349205017
1772561445891357400,2.505357421875,0.03851703181862831,1.000540018081665,0.7946640849113464
1772561445901423400,2.51542333984375,-0.07885167002677917,0.9405419230461121,1.227605938911438
1772561445911490600,2.525490478515625,-0.11091027408838272,0.6768242716789246,1.774596095085144
1772561445921557500,2.5355576171875,0.34475046396255493,0.8090797662734985,2.7360754013061523
1772561445931623400,2.54562353515625,0.9076502919197083,1.0686495304107666,3.7089459896087646
1772561445941690400,2.5556904296875,1.2954694032669067,1.1234246492385864,4.346872329711914
1772561445951756500,2.565756591796875,1.4720335006713867,0.421633243560791,4.421956539154053
1772561445961823500,2.575823486328125,1.378524899482727,-0.20063190162181854,4.308727741241455
1772561445971889400,2.585889404296875,1.2188431024551392,-0.294234037399292,4.339211463928223
1772561445981956600,2.59595654296875,1.2088929414749146,0.14530393481254578,4.366192817687988
1772561445992022500,2.6060224609375,1.6147613525390625,0.6919680833816528,4.352148532867432
1772561446002089500,2.61608935546875,2.043194532394409,1.1076537370681763,4.357377529144287
1772561446012156400,2.626156494140625,2.29883074760437,1.1561682224273682,4.317670822143555
1772561446022222600,2.63622265625,1.9986637830734253,0.313284695148468,3.9088962078094482
1772561446032289500,2.64628955078125,1.3654197454452515,-0.04656590521335602,3.6066794395446777
1772561446042355500,2.65635546875,0.9500573873519897,0.4104818105697632,3.0255496501922607
1772561446052422400,2.66642236328125,1.226043462753296,0.6062380075454712,1.4878500699996948
1772561446062488600,2.676488525390625,1.6911519765853882,0.5522258877754211,-0.2877953052520752
1772561446072555500,2.686555419921875,1.635254979133606,0.5105958580970764,-1.4192752838134766
1772561446082621700,2.69662158203125,1.3018947839736938,0.41840896010398865,-1.8614475727081299
1772561446092688600,2.706688720703125,0.9694585204124451,0.13931821286678314,-2.0260403156280518
1772561446102754600,2.716754638671875,0.6895275712013245,-0.2415897250175476,-2.0389158725738525
1772561446112821500,2.726821533203125,0.37459731101989746,-0.6059695482254028,-1.9017739295959473
1772561446122888400,2.736888427734375,-0.02474289759993553,-0.7356761693954468,-1.7467018365859985
1772561446132954600,2.74695458984375,-0.3805590569972992,-0.4364564120769501,-1.5900360345840454
1772561446143021600,2.757021484375,-0.5482063889503479,0.29800480604171753,-1.3257501125335693
1772561446153087500,2.76708740234375,-0.6466788649559021,1.1872859001159668,-0.9386963844299316
1772561446163154700,2.77715478515625,-0.710791289806366,1.6882902383804321,-0.5624966621398926
1772561446173220600,2.787220703125,-0.7868914008140564,1.587090015411377,-0.3631824553012848
1772561446183287600,2.79728759765625,-0.8607115745544434,0.9788792133331299,-0.4488062858581543
1772561446193354500,2.8073544921875,-0.8824394941329956,0.21388059854507446,-0.6387719511985779
1772561446203420700,2.817420654296875,-0.8604953289031982,-0.34496191143989563,-0.8115608096122742
1772561446213487600,2.827487548828125,-0.8069900274276733,-0.5223225951194763,-0.8633195757865906
1772561446223553500,2.837553466796875,-0.7048327326774597,-0.4522031545639038,-0.8564336895942688
1772561446233620700,2.847620849609375,-0.6036723256111145,-0.2861151099205017,-0.8234278559684753
1772561446243686400,2.857686279296875,-0.5825949907302856,-0.13012871146202087,-0.8218203186988831
1772561446253753300,2.86775341796875,-0.6460133790969849,-0.04060202091932297,-0.8909416198730469
1772561446263819500,2.877819580078125,-0.7783218622207642,-0.029157087206840515,-1.0023078918457031
1772561446273886500,2.887886474609375,-0.9278882145881653,-0.08084824681282043,-1.150956392288208
1772561446283953400,2.897953369140625,-1.0874197483062744,-0.20395046472549438,-1.3286659717559814
1772561446294019600,2.90801953125,-1.2950211763381958,-0.3042200803756714,-1.5118826627731323
1772561446304086500,2.91808642578125,-1.528043508529663,-0.45401835441589355,-1.7289289236068726
1772561446314152400,2.92815234375,-1.7394295930862427,-0.6731534004211426,-2.0519344806671143
1772561446324219400,2.938219482421875,-1.884512186050415,-0.758604884147644,-2.3922040462493896
1772561446334285600,2.94828564453125,-2.0156311988830566,-0.6483036875724792,-2.641451358795166
1772561446344352500,2.9583525390625,-2.157078266143799,-0.4303921163082123,-2.69267201423645
1772561446354418400,2.96841845703125,-2.220571756362915,-0.2501640319824219,-2.4971084594726562
1772561446364485400,2.9784853515625,-2.183162212371826,-0.19960366189479828,-2.0476977825164795
1772561446374552600,2.988552490234375,-2.0887370109558105,-0.33379074931144714,-1.4735957384109497
1772561446384618500,2.998618408203125,-2.016451358795166,-0.5921897888183594,-0.8769767880439758
1772561446394685400,3.008685546875,-2.0540683269500732,-0.9083171486854553,-0.3034307062625885
1772561446404751600,3.018751708984375,-2.190099000930786,-1.4242284297943115,0.16073322296142578
1772561446414818600,3.028818603515625,-2.312128782272339,-2.128281593322754,0.3872912526130676
1772561446424884500,3.038884521484375,-2.332319736480713,-2.6368703842163086,0.29425081610679626
1772561446434951400,3.048951416015625,-2.1979990005493164,-2.637258291244507,0.00905661191791296
1772561446445017600,3.059017578125,-1.9420249462127686,-2.1202785968780518,-0.2640873193740845
1772561446455084500,3.06908447265625,-1.5753737688064575,-1.1215887069702148,-0.4078418016433716
1772561446465151500,3.0791513671875,-1.1206142902374268,-0.0928572341799736,-0.3464852571487427
1772561446475217700,3.0892177734375,-0.7356090545654297,0.6347178220748901,-0.1461161971092224
1772561446485284600,3.09928466796875,-0.4308549761772156,1.1072723865509033,0.2415015697479248
1772561446495350500,3.1093505859375,-0.17937295138835907,1.0531872510910034,0.7735878229141235
1772561446505417500,3.11941748046875,0.02053004316985607,0.7139122486114502,1.4239938259124756
1772561446515483600,3.129483642578125,0.4686574935913086,0.665733277797699,2.304349660873413
1772561446525550600,3.139550537109375,1.1155624389648438,0.7177309393882751,3.2150766849517822
1772561446535617500,3.149617431640625,1.5567489862442017,0.6358086466789246,3.7575156688690186
1772561446545683700,3.15968359375,1.598878264427185,-0.10400309413671494,3.5998566150665283
1772561446555750700,3.169750732421875,1.3360618352890015,-0.9272937774658203,2.920596122741699
1772561446565816600,3.179816650390625,1.5024561882019043,-0.13689793646335602,2.6204464435577393
1772561446575883500,3.189883544921875,1.7310142517089844,0.9462988972663879,2.3600292205810547
1772561446585949700,3.19994970703125,2.1925086975097656,1.9195282459259033,2.0767507553100586
1772561446596016600,3.2100166015625,2.9775702953338623,2.4906301498413086,2.089653491973877
1772561446606082600,3.22008251953125,3.7149477005004883,2.4096744060516357,2.731293201446533
1772561446616149800,3.230149658203125,4.144983768463135,1.460513710975647,3.842153549194336
1772561446626216700,3.240216796875,4.189878940582275,0.259640097618103,5.12992000579834
1772561446636282600,3.25028271484375,3.951145648956299,-0.5534416437149048,6.239588260650635
1772561446646349600,3.260349609375,3.577981472015381,-1.3831595182418823,6.464993000030518
1772561446656415700,3.270415771484375,3.1651577949523926,-1.7461212873458862,5.896159648895264
1772561446666482700,3.280482666015625,2.9825291633605957,-1.0642551183700562,4.760276794433594
1772561446676548600,3.290548583984375,2.7468531131744385,0.10488966107368469,2.953775644302368
1772561446686615800,3.30061572265625,2.443352699279785,0.9303351044654846,1.0026732683181763
1772561446696681700,3.310681640625,2.1223340034484863,1.1300519704818726,-0.40122172236442566
1772561446706748700,3.320748779296875,1.6075862646102905,0.858208954334259,-1.1574805974960327
1772561446716815600,3.330815673828125,0.9577323794364929,0.39607515931129456,-1.5058530569076538
1772561446726881800,3.3408818359375,0.3845681846141815,0.0321507453918457,-1.6191926002502441
1772561446736948700,3.35094873046875,-0.08412552624940872,-0.13382305204868317,-1.6145315170288086
1772561446747014700,3.3610146484375,-0.5428419709205627,0.11202426999807358,-1.3691390752792358
1772561446757081900,3.371081787109375,-0.7320880889892578,0.6439453959465027,-0.8318434357643127
1772561446767147500,3.3811474609375,-0.7155098915100098,1.0903247594833374,-0.1555539071559906
1772561446777214700,3.391214599609375,-0.7930358648300171,1.2664028406143188,0.3383689820766449
1772561446787280600,3.40128076171875,-1.079676628112793,1.1391823291778564,0.3980379104614258
1772561446797347600,3.41134765625,-1.482771635055542,0.804192066192627,-0.008084557950496674
1772561446807414800,3.421414794921875,-1.8759658336639404,0.5143389701843262,-0.7143982648849487
1772561446817480400,3.43148046875,-2.134014129638672,0.5649520754814148,-1.4518976211547852
1772561446827547600,3.441547607421875,-2.1916186809539795,0.926871657371521,-2.005110502243042
1772561446837613600,3.451613525390625,-2.111290693283081,1.3102296590805054,-2.316246509552002
1772561446847680500,3.461680419921875,-1.9993228912353516,1.4928038120269775,-2.3590381145477295
1772561446857746700,3.47174658203125,-1.8893425464630127,1.507145643234253,-2.118734359741211
1772561446867813600,3.481813720703125,-1.8072847127914429,1.30366849899292,-1.7167942523956299
1772561446877880600,3.491880615234375,-1.7044481039047241,0.7821938395500183,-1.3588294982910156
1772561446887946500,3.501946533203125,-1.5761841535568237,0.08674608170986176,-1.185842752456665
1772561446898013700,3.512013671875,-1.4491404294967651,-0.3767315745353699,-1.1668568849563599
1772561446908079600,3.52207958984375,-1.3401726484298706,-0.5819187760353088,-1.2703579664230347
1772561446918146600,3.532146484375,-1.2318379878997803,-0.7405017614364624,-1.5220814943313599
1772561446928212700,3.542212646484375,-1.1388819217681885,-0.7963219285011292,-1.896405816078186
1772561446938279700,3.55227978515625,-1.1133211851119995,-0.744865894317627,-2.3781018257141113
1772561446948345600,3.562345703125,-1.1977055072784424,-0.6533131003379822,-2.8982083797454834
1772561446958412500,3.57241259765625,-1.265360713005066,-0.4985959529876709,-3.2938129901885986
1772561446968479700,3.582479736328125,-1.2519069910049438,-0.1794496476650238,-3.4059112071990967
1772561446978545700,3.592545654296875,-1.1529055833816528,0.24414023756980896,-3.19504451751709
1772561446988612600,3.602612548828125,-0.9793002605438232,0.6265168786048889,-2.7139899730682373
1772561446998678800,3.6126787109375,-0.7632526159286499,0.8158756494522095,-2.1022820472717285
1772561447008745700,3.622745849609375,-0.5269559621810913,0.7039014101028442,-1.4872180223464966
1772561447018811600,3.632811767578125,-0.3414878249168396,0.3488141894340515,-1.0073068141937256
1772561447028878600,3.642878662109375,-0.20178824663162231,-0.15907354652881622,-0.7269396185874939
1772561447038944800,3.65294482421875,-0.05420012027025223,-0.6731064915657043,-0.5750246644020081
1772561447049011700,3.66301171875,0.12475711107254028,-1.045599102973938,-0.5415964126586914
1772561447059078700,3.67307861328125,0.2919250726699829,-1.1765557527542114,-0.5883151888847351
1772561447069144800,3.683144775390625,0.39855697751045227,-1.1646243333816528,-0.6642927527427673
1772561447079211800,3.693211669921875,0.37987223267555237,-1.067705512046814,-0.7433518767356873
1772561447089277700,3.703277587890625,0.2957214117050171,-0.8139224648475647,-0.7465983033180237
1772561447099344600,3.7133447265625,0.3305550217628479,-0.47241201996803284,-0.7159485220909119
1772561447109410800,3.723410888671875,0.541404128074646,-0.3193841278553009,-0.7544242739677429
1772561447119477800,3.733477783203125,0.8327856659889221,-0.2336668223142624,-0.8039968609809875
1772561447129544700,3.743544677734375,1.1302852630615234,0.05897277221083641,-0.8041777014732361
1772561447139611000,3.75361083984375,1.555301547050476,0.6760892271995544,-0.7657509446144104
1772561447149677800,3.763677734375,2.126375436782837,1.5062365531921387,-0.7411603927612305
1772561447159743500,3.773743408203125,2.4718410968780518,1.6031981706619263,-1.0197491645812988
1772561447169810400,3.783810546875,2.0688743591308594,0.897289514541626,-1.6731059551239014
1772561447179876600,3.793876708984375,1.3062692880630493,0.6091296672821045,-1.967681646347046
1772561447189943600,3.803943603515625,0.7534029483795166,1.0485690832138062,-1.8506271839141846
1772561447200009500,3.814009521484375,0.6839151978492737,1.4471467733383179,-1.782376766204834
1772561447210076700,3.82407666015625,1.1979670524597168,1.5457234382629395,-1.7428094148635864
1772561447220143600,3.8341435546875,1.847396969795227,1.7380512952804565,-1.3661134243011475
1772561447230209500,3.84420947265625,1.8144659996032715,1.7902621030807495,-0.75718092918396
1772561447240276500,3.8542763671875,1.2595993280410767,1.5488805770874023,0.08777033537626266
1772561447250342700,3.8643427734375,0.5863021016120911,0.6421539187431335,0.975287675857544
1772561447260409600,3.87440966796875,-0.18283265829086304,-1.358974575996399,1.228333830833435
1772561447270475500,3.8844755859375,-0.5930840969085693,-3.182319402694702,0.8853966593742371
1772561447280542700,3.894542724609375,-0.5316199660301208,-3.6873342990875244,0.7165517210960388
1772561447290609700,3.904609619140625,-0.38191354274749756,-3.106269598007202,0.8353742361068726
1772561447300675600,3.914675537109375,-0.3798501193523407,-2.4852724075317383,0.8115949034690857
1772561447310742500,3.924742431640625,-0.4581052362918854,-2.006993055343628,0.6415703892707825
1772561447320808700,3.93480859375,-0.46060940623283386,-1.5091899633407593,0.3370395302772522
1772561447330875600,3.944875732421875,-0.3621728718280792,-0.8602441549301147,-0.09821019321680069
1772561447340941600,3.954941650390625,-0.20154829323291779,-0.03515638783574104,-0.43410855531692505
1772561447351008800,3.9650087890625,-0.02689206786453724,0.8959686160087585,-0.45427215099334717
1772561447361074700,3.97507470703125,0.12170778959989548,1.546048879623413,-0.3067761957645416
1772561447371141600,3.9851416015625,0.22626721858978271,1.9181209802627563,-0.07092823833227158
1772561447381208600,3.99520849609375,0.24387764930725098,1.9823044538497925,0.11204265058040619
1772561447391274800,4.005274658203125,0.09117651730775833,1.5771557092666626,0.09893510490655899
1772561447401341700,4.015341796875,-0.23252512514591217,0.8267778158187866,-0.14405490458011627
1772561447411407600,4.02540771484375,-0.5215454697608948,0.2694067060947418,-0.42424848675727844
1772561447421474800,4.035474853515625,-0.5757130980491638,0.09091419726610184,-0.5697958469390869
1772561447431540700,4.045540771484375,-0.38897597789764404,0.1357026994228363,-0.5507014989852905
1772561447441607700,4.055607666015625,-0.08425150066614151,0.30063119530677795,-0.4812483787536621
1772561447451674600,4.065674560546875,0.18692940473556519,0.5358173251152039,-0.42086654901504517
1772561447461740800,4.07574072265625,0.3186599910259247,0.6870401501655579,-0.4029772877693176
1772561447471807700,4.085807861328125,0.2911042869091034,0.6287302374839783,-0.4943481981754303
1772561447481873700,4.095873779296875,0.1628035604953766,0.3768085241317749,-0.6883448362350464
1772561447491940900,4.10594091796875,0.004769721534103155,0.04976223036646843,-0.8907685279846191
1772561447502006800,4.1160068359375,-0.19521929323673248,-0.23197917640209198,-1.0970574617385864
1772561447512073700,4.12607373046875,-0.4632747173309326,-0.4434906244277954,-1.3198639154434204
1772561447522139600,4.1361396484375,-0.7256844639778137,-0.5333544611930847,-1.4830422401428223
1772561447532206600,4.14620654296875,-0.9079539179801941,-0.41920819878578186,-1.5110996961593628
1772561447542273800,4.156273681640625,-0.9813175797462463,-0.11372789740562439,-1.4088917970657349
1772561447552339500,4.16633935546875,-0.9236295223236084,0.32590192556381226,-1.1165571212768555
1772561447562406700,4.17640673828125,-0.6783180236816406,0.6247125864028931,-0.5137056708335876
1772561447572472800,4.186472900390625,-0.4076348841190338,0.40198925137519836,0.39774948358535767
1772561447582539800,4.196539794921875,-0.3421000838279724,-0.5165597796440125,1.1996238231658936
1772561447592606000,4.20660595703125,-0.646449863910675,-1.3427847623825073,1.4794195890426636
1772561447602673000,4.2166728515625,-1.074072003364563,-1.6465398073196411,1.346182107925415
1772561447612739800,4.22673974609375,-1.3066965341567993,-1.5452699661254883,0.9158560037612915
1772561447622805800,4.2368056640625,-1.30854070186615,-1.194799780845642,0.3006780743598938
1772561447632872700,4.246872802734375,-1.1649867296218872,-0.709291398525238,-0.256693035364151
1772561447642939000,4.25693896484375,-1.0513249635696411,-0.03684403374791145,-0.5624372363090515
1772561447653005800,4.267005859375,-0.9779968857765198,0.6577155590057373,-0.5284702181816101
1772561447663071700,4.27707177734375,-0.9327178597450256,1.1190834045410156,-0.16110819578170776
1772561447673139000,4.287138916015625,-0.8720395565032959,1.1080363988876343,0.37089020013809204
1772561447683204900,4.297204833984375,-0.7698737978935242,0.7924805879592896,0.959965705871582
1772561447693271800,4.307271728515625,-0.598709762096405,0.4794076085090637,1.5833683013916016
1772561447703338800,4.3173388671875,-0.4699467420578003,-0.15587455034255981,1.915456771850586
1772561447713405000,4.327405029296875,-0.468365341424942,-0.715636670589447,1.9938266277313232
1772561447723472000,4.337471923828125,-0.4347735643386841,-0.6200488805770874,2.1305243968963623
1772561447733537800,4.347537841796875,-0.22427970170974731,-0.5502626299858093,1.9694325923919678
1772561447743605000,4.35760498046875,-0.014732073992490768,-1.0825203657150269,0.9468613266944885
1772561447753671000,4.3676708984375,-0.08775888383388519,-0.7860732674598694,-0.37942028045654297
1772561447763737900,4.37773779296875,-0.10753471404314041,0.9080758690834045,-1.0231544971466064
1772561447773804800,4.3878046875,-0.12640348076820374,1.978882908821106,-1.2741678953170776
1772561447783871000,4.39787109375,0.25893303751945496,2.4088876247406006,-1.0266497135162354
1772561447793938000,4.40793798828125,1.1761776208877563,2.308763265609741,-0.011138671077787876
1772561447804003800,4.41800390625,1.6874572038650513,1.3767684698104858,1.4156395196914673
1772561447814070800,4.42807080078125,1.797629714012146,-0.174650639295578,2.3056671619415283
1772561447824136700,4.43813671875,1.353583574295044,-1.140631914138794,2.7247493267059326
1772561447834203600,4.44820361328125,0.5890265107154846,-2.2604804039001465,2.493837594985962
1772561447844269800,4.458269775390625,0.1819538176059723,-3.1487393379211426,1.644963264465332
1772561447854336800,4.468336669921875,0.29766204953193665,-3.108164072036743,0.6278476715087891
1772561447864403700,4.47840380859375,0.3310341238975525,-1.8755050897598267,-0.19898366928100586
1772561447874469600,4.4884697265625,0.18976406753063202,-0.1469353884458542,-0.9005979895591736
1772561447884536800,4.498536865234375,-0.01992364041507244,1.2606184482574463,-1.4648557901382446
1772561447894602800,4.508602783203125,-0.39172062277793884,1.9112154245376587,-1.9853862524032593
1772561447904669700,4.518669677734375,-0.8944223523139954,1.6712076663970947,-2.399200439453125
1772561447914735900,4.52873583984375,-1.3377926349639893,1.0595413446426392,-2.4854378700256348
1772561447924802800,4.538802734375,-1.5316492319107056,0.5889421105384827,-2.0663464069366455
1772561447934869800,4.548869873046875,-1.4198414087295532,0.4336145520210266,-1.167819857597351
1772561447944935700,4.558935791015625,-0.9785218238830566,0.5435969829559326,0.03148655220866203
1772561447955003000,4.5690029296875,-0.479015588760376,0.5933272242546082,1.1662424802780151
1772561447965068800,4.57906884765625,-0.06783710420131683,0.36236461997032166,1.9145864248275757
1772561447975135000,4.589135009765625,0.22194544970989227,-0.17743870615959167,2.034569501876831
1772561447985201000,4.599200927734375,0.3224310278892517,-0.7626462578773499,1.5525685548782349
1772561447995267800,4.609267822265625,0.277645468711853,-1.0889772176742554,0.7974835634231567
1772561448005334800,4.619334716796875,0.2734784185886383,-0.9891946911811829,0.051484230905771255
1772561448015401000,4.62940087890625,0.42821791768074036,-0.4601020812988281,-0.4681653380393982
1772561448025468000,4.639468017578125,0.6796048879623413,0.26580744981765747,-0.6893171668052673
1772561448035533800,4.649533935546875,0.9023618102073669,0.8143688440322876,-0.6836251616477966
1772561448045600800,4.659600830078125,1.0542341470718384,1.0024704933166504,-0.5348836779594421
1772561448055667000,4.6696669921875,1.043351650238037,0.8895956873893738,-0.37058764696121216
1772561448065734000,4.67973388671875,0.9157851934432983,0.4704146385192871,-0.20154643058776855
1772561448075800800,4.68980078125,0.7432605624198914,-0.16614823043346405,-0.1157124862074852
1772561448085867000,4.699866943359375,0.44151002168655396,-0.8728563785552979,-0.29297488927841187
1772561448095934000,4.709933837890625,0.05110659450292587,-1.2771064043045044,-0.7394266724586487
1772561448105999600,4.71999951171875,-0.1887262463569641,-1.3639086484909058,-1.318253517150879
1772561448116066800,4.73006689453125,-0.2664351463317871,-1.197418212890625,-1.9186177253723145
1772561448126132700,4.7401328125,-0.30478814244270325,-0.7276394963264465,-2.3509862422943115
1772561448136199700,4.75019970703125,-0.40957579016685486,-0.15951615571975708,-2.6073930263519287
1772561448146265900,4.760265869140625,-0.6367397308349609,0.31175071001052856,-2.611886739730835
1772561448156332800,4.770332763671875,-0.8305048942565918,0.6588758826255798,-2.3049025535583496
1772561448166399700,4.780399658203125,-0.8520261645317078,0.8697425723075867,-1.7892223596572876
1772561448176465700,4.790465576171875,-0.6962624192237854,0.7781327962875366,-1.2285470962524414
1772561448186532600,4.80053271484375,-0.46974486112594604,0.27958929538726807,-0.7373608350753784
1772561448196598800,4.810598876953125,-0.27441316843032837,-0.4105638265609741,-0.33691757917404175
1772561448206665700,4.820665771484375,-0.11044075340032578,-1.0429903268814087,-0.07189789414405823
1772561448216732000,4.83073193359375,0.0011760519118979573,-1.3769280910491943,0.025416942313313484
1772561448226798800,4.840798828125,0.03452788293361664,-1.26384437084198,0.03079865872859955
1772561448236865800,4.85086572265625,0.14877669513225555,-0.8298066258430481,0.05480492487549782
1772561448246931700,4.860931640625,0.41965532302856445,-0.41928887367248535,0.15496614575386047
1772561448256998700,4.87099853515625,0.8518698811531067,-0.26685672998428345,0.41667497158050537
1772561448267064800,4.88106494140625,1.2063935995101929,-0.24696238338947296,0.8277748823165894
1772561448277131800,4.8911318359375,1.2892581224441528,-0.19654607772827148,1.368670105934143
1772561448287198000,4.901197998046875,1.063666582107544,-0.11729653179645538,1.7938085794448853
1772561448297265000,4.911264892578125,0.6989530324935913,0.005301554687321186,2.080179214477539
1772561448307331800,4.921331787109375,0.5606933832168579,0.40534403920173645,2.476039409637451
1772561448317397800,4.931397705078125,0.6961990594863892,0.776377260684967,2.901571273803711
1772561448327464700,4.941464599609375,0.9754546284675598,0.777123212814331,3.0177040100097656
1772561448337531000,4.95153076171875,1.161049246788025,0.14730262756347656,2.490485429763794
1772561448347597800,4.961597900390625,1.0502383708953857,-0.2554892897605896,1.3689864873886108
1772561448357663700,4.971663818359375,0.8758875727653503,0.44875913858413696,0.4284125864505768
1772561448367731700,4.981731689453125,0.8248193264007568,1.9836057424545288,0.4709201157093048
1772561448377798000,4.9917978515625,0.9989122748374939,2.843541383743286,1.1299443244934082
1772561448387864800,5.00186474609375,1.542603611946106,2.249058485031128,1.4609681367874146
1772561448397930800,5.0119306640625,2.2056329250335693,1.1086393594741821,1.7154117822647095
1772561448407998000,5.021998046875,2.5464603900909424,0.16851577162742615,2.111884117126465
1772561448418064000,5.03206396484375,2.5077147483825684,-0.8022053837776184,2.4918673038482666
1772561448428130800,5.042130859375,2.231778144836426,-1.5096913576126099,2.95417857170105
1772561448438197000,5.052197021484375,1.4258651733398438,-2.073573350906372,3.351891040802002
1772561448448264000,5.062263916015625,0.40619784593582153,-2.7373740673065186,2.9671807289123535
1772561448458331000,5.072330810546875,-0.05578124150633812,-2.944013833999634,1.9416664838790894
1772561448468396800,5.082396728515625,-0.14886271953582764,-2.1426494121551514,0.8324351906776428
1772561448478464000,5.092464111328125,-0.2763253450393677,-0.7859118580818176,-0.21353119611740112
1772561448488530000,5.102530029296875,-0.4097038805484772,0.28415101766586304,-1.0843619108200073
1772561448498596900,5.112596923828125,-0.651235044002533,0.7231550216674805,-1.7547192573547363
1772561448508662800,5.122662841796875,-0.8922138214111328,0.6414585709571838,-2.192568302154541
1772561448518730000,5.13272998046875,-1.0257929563522339,0.3468644917011261,-2.410521984100342
1772561448528797000,5.142796875,-1.0353044271469116,0.26107341051101685,-2.352435350418091
1772561448538862600,5.152862548828125,-0.9160892963409424,0.48562395572662354,-2.0025551319122314
1772561448548930000,5.162929931640625,-0.77093905210495,0.7972210049629211,-1.5081028938293457
1772561448558995700,5.17299560546875,-0.5612207055091858,1.0700056552886963,-0.89085853099823
1772561448569062400,5.1830625,-0.2909977436065674,1.2322715520858765,-0.17018504440784454
1772561448579128600,5.193128662109375,-0.12358212471008301,1.2411243915557861,0.4922669529914856
1772561448589195500,5.203195556640625,-0.10366754233837128,0.9025319814682007,0.8798317313194275
1772561448599262500,5.213262451171875,-0.36968591809272766,0.3110223114490509,0.8632761836051941
1772561448609328400,5.223328369140625,-0.8740760684013367,-0.30399638414382935,0.475312739610672
1772561448619395600,5.2333955078125,-1.3081854581832886,-0.5545782446861267,-0.0846448466181755
1772561448629461500,5.24346142578125,-1.471323013305664,-0.4210132658481598,-0.706591784954071
1772561448639528400,5.253528564453125,-1.3870453834533691,0.04503139108419418,-1.2779394388198853
1772561448649594600,5.2635947265625,-1.13825261592865,0.6457672715187073,-1.6804327964782715
1772561448659661600,5.27366162109375,-0.8389543294906616,1.1069072484970093,-1.8752211332321167
1772561448669728500,5.283728515625,-0.5911956429481506,1.2351053953170776,-1.8411377668380737
1772561448679794400,5.29379443359375,-0.42035627365112305,0.9883430004119873,-1.5838828086853027
1772561448689861600,5.303861572265625,-0.3591858744621277,0.5279352068901062,-1.1876648664474487
1772561448699927600,5.313927490234375,-0.42712974548339844,-0.12647005915641785,-0.8736398816108704
1772561448709994500,5.323994384765625,-0.6586604714393616,-0.9730937480926514,-0.8957257270812988
1772561448720060700,5.334060791015625,-0.9445247054100037,-1.679487943649292,-1.2005383968353271
1772561448730127600,5.344127685546875,-1.1044278144836426,-1.981513261795044,-1.5416046380996704
1772561448740194600,5.354194580078125,-1.132357120513916,-1.9562468528747559,-1.8193331956863403
1772561448750260500,5.364260498046875,-1.0178651809692383,-1.754205346107483,-2.0055408477783203
1772561448760327700,5.37432763671875,-0.8017398715019226,-1.302198886871338,-2.091654062271118
1772561448770393600,5.3843935546875,-0.6332469582557678,-0.6732183694839478,-1.9856805801391602
1772561448780460500,5.39446044921875,-0.5609373450279236,-0.14415398240089417,-1.644472360610962
1772561448790526700,5.404526611328125,-0.49837782979011536,0.08397719264030457,-1.074278473854065
1772561448800593700,5.41459375,-0.4124773144721985,0.02099076844751835,-0.24847133457660675
1772561448810660600,5.42466064453125,-0.4225272834300995,-0.40985649824142456,0.6888095736503601
1772561448820726500,5.4347265625,-0.44360700249671936,-1.1016587018966675,1.4171702861785889
1772561448830793700,5.444793701171875,-0.4510505497455597,-1.5809389352798462,1.66798734664917
1772561448840859600,5.454859619140625,-0.4333077669143677,-1.8555028438568115,1.5336124897003174
1772561448850926600,5.464926513671875,-0.42348334193229675,-1.8931304216384888,1.2345525026321411
1772561448860992800,5.47499267578125,-0.5051835179328918,-1.5904579162597656,0.9994638562202454
1772561448871059700,5.485059814453125,-0.5616827607154846,-0.9860729575157166,0.9838957786560059
1772561448881125400,5.49512548828125,-0.5039123892784119,-0.38453835248947144,1.1061713695526123
1772561448891192600,5.505192626953125,-0.42876121401786804,0.03488634526729584,1.1679301261901855
1772561448901259800,5.515259765625,-0.3208656311035156,0.2947877049446106,1.2880253791809082
1772561448911325400,5.525325439453125,-0.20433104038238525,0.30485790967941284,1.436806559562683
1772561448921392600,5.535392578125,-0.251348078250885,-0.326026052236557,1.4871991872787476
1772561448931458600,5.54545849609375,-0.4272461235523224,-1.229110598564148,1.6881128549575806
1772561448941525500,5.555525390625,-0.5381785035133362,-1.858459234237671,1.7702136039733887
1772561448951591400,5.56559130859375,-0.570083737373352,-1.7872705459594727,1.2051494121551514
1772561448961658400,5.575658447265625,-0.46843379735946655,-0.4656987190246582,0.2514199912548065
1772561448971725600,5.5857255859375,-0.2484755963087082,1.624129295349121,-0.779154360294342
1772561448981791500,5.59579150390625,0.017010143026709557,3.2452192306518555,-1.614267110824585
1772561448991858400,5.6058583984375,0.5505542159080505,3.782013416290283,-2.052639961242676
1772561449001924600,5.615924560546875,1.4354928731918335,3.382006883621216,-1.8779021501541138
1772561449011991600,5.625991455078125,2.080230712890625,2.5168261528015137,-1.0435439348220825
1772561449022057500,5.636057373046875,2.2490625381469727,1.1040089130401611,0.17769703269004822
1772561449032124400,5.64612451171875,1.9623830318450928,-0.46101662516593933,1.5361621379852295
1772561449042191600,5.656191650390625,1.4331116676330566,-1.9086002111434937,2.5940051078796387
1772561449052257500,5.666257568359375,1.026236891746521,-2.9368748664855957,2.819498300552368
1772561449062324500,5.676324462890625,0.8206661343574524,-2.953845739364624,2.48003888130188
1772561449072390700,5.686390625,0.6541171073913574,-1.6966443061828613,2.061004638671875
1772561449082457600,5.69645751953125,0.35656771063804626,-0.11653939634561539,1.3987209796905518
1772561449092523500,5.7065234375,-0.03639369457960129,0.9916602373123169,0.4374183416366577
1772561449102590500,5.716590576171875,-0.48614248633384705,1.520216703414917,-0.6011524200439453
1772561449112657700,5.72665771484375,-0.9194877743721008,1.7830076217651367,-1.3483654260635376
1772561449122723600,5.7367236328125,-1.0849132537841797,1.6931205987930298,-1.6956533193588257
1772561449132790500,5.74679052734375,-0.7869366407394409,1.3143326044082642,-1.5561316013336182
1772561449142856700,5.756856689453125,-0.22976341843605042,0.9019679427146912,-0.8866848349571228
1772561449152923600,5.766923583984375,0.1976025551557541,1.0229851007461548,0.3999985456466675
1772561449162989600,5.776989501953125,0.31737396121025085,1.2206119298934937,1.7489436864852905
1772561449173056500,5.787056396484375,0.1992931365966797,1.0848476886749268,2.403151750564575
1772561449183123700,5.797123779296875,-0.08722251653671265,0.7841864228248596,2.238222599029541
1772561449193189600,5.807189697265625,-0.4669669270515442,0.3942152261734009,1.4286338090896606
1772561449203256600,5.817256591796875,-0.8529287576675415,0.09953831136226654,0.24430455267429352
1772561449213322800,5.82732275390625,-1.1748859882354736,-0.005358546506613493,-1.096398949623108
1772561449223389700,5.8373896484375,-1.2639029026031494,0.16342194378376007,-2.2316484451293945
1772561449233455600,5.84745556640625,-0.9791010618209839,0.9506518244743347,-2.667948007583618
1772561449243522600,5.8575224609375,-0.6349766850471497,1.699434757232666,-2.5412285327911377
1772561449253589500,5.867589599609375,-0.34514355659484863,2.013702630996704,-2.0164928436279297
1772561449263655700,5.87765576171875,-0.1317199468612671,1.8180612325668335,-1.355960726737976
1772561449273722600,5.88772265625,-0.08218381553888321,1.0436071157455444,-0.95795077085495
1772561449283788800,5.897788818359375,-0.15303482115268707,-0.07890014350414276,-0.8191635608673096
1772561449293855700,5.907855712890625,-0.3109104633331299,-1.0214277505874634,-0.9780608415603638
1772561449303921400,5.91792138671875,-0.4780462086200714,-1.4676870107650757,-1.3046543598175049
1772561449313988600,5.927988525390625,-0.5688503980636597,-1.3814431428909302,-1.7237954139709473
1772561449324055600,5.9380556640625,-0.6114000082015991,-0.8586316108703613,-2.204026222229004
1772561449334121500,5.94812158203125,-0.6049935221672058,-0.1496315747499466,-2.6373488903045654
1772561449344188400,5.9581884765625,-0.5365097522735596,0.4452349841594696,-2.8596866130828857
1772561449354254600,5.968254638671875,-0.5087668299674988,0.7938353419303894,-2.7994439601898193
1772561449364321500,5.978321533203125,-0.5578067898750305,0.7658153772354126,-2.4315524101257324
1772561449374387500,5.988387451171875,-0.6090859770774841,0.3660658597946167,-1.8434478044509888
1772561449384454400,5.998454345703125,-0.6496453881263733,-0.27537643909454346,-1.1988533735275269
1772561449394521600,6.008521484375,-0.679550290107727,-0.9061083197593689,-0.6951569318771362
1772561449404587500,6.01858740234375,-0.7049826979637146,-1.3155949115753174,-0.3903461694717407
1772561449414654500,6.028654541015625,-0.6889570951461792,-1.3912957906723022,-0.2493072897195816
1772561449424720600,6.038720703125,-0.6437196135520935,-1.2682534456253052,-0.28777584433555603
1772561449434787600,6.04878759765625,-0.5472788214683533,-1.0200718641281128,-0.3629470467567444
1772561449444853500,6.058853515625,-0.4038425385951996,-0.7143495678901672,-0.3512224853038788
1772561449454920400,6.06892041015625,-0.2860663831233978,-0.42224711179733276,-0.18662208318710327
1772561449464987400,6.0789873046875,-0.2039685696363449,-0.2744118571281433,0.16143816709518433
1772561449475053600,6.089053466796875,-0.18062463402748108,-0.19702677428722382,0.6684811115264893
1772561449485120500,6.09912060546875,-0.18925940990447998,-0.04544204846024513,1.2861180305480957
1772561449495186700,6.109186767578125,-0.2050921618938446,0.13655251264572144,1.926086187362671
1772561449505253600,6.119253662109375,-0.15571582317352295,0.38872644305229187,2.6036455631256104
1772561449515319600,6.129319580078125,0.046423956751823425,0.7051659226417542,3.274106502532959
1772561449525386500,6.139386474609375,0.3681497871875763,1.0586448907852173,3.856879949569702
1772561449535453400,6.149453369140625,0.7243374586105347,1.2300429344177246,4.217624664306641
1772561449545519600,6.15951953125,0.9570058584213257,0.7402032613754272,4.049440860748291
1772561449555586600,6.169586669921875,0.8444415330886841,-0.2614246904850006,3.365943431854248
1772561449565652700,6.17965283203125,0.5500146746635437,-0.9611361622810364,2.727203369140625
1772561449575720000,6.189719970703125,0.4257981777191162,-0.883158266544342,2.4070377349853516
1772561449585785900,6.199785888671875,0.790738582611084,-0.24377484619617462,2.4460349082946777
1772561449595852800,6.209852783203125,1.360314965248108,0.48027607798576355,2.7857460975646973
1772561449605919700,6.219919677734375,1.6087359189987183,0.32784897089004517,3.0824778079986572
1772561449615986000,6.22998583984375,0.9939556121826172,-0.6541788578033447,2.992479085922241
1772561449626052900,6.240052978515625,-0.22916340827941895,-1.528334379196167,2.551502227783203
1772561449636118800,6.250118896484375,-1.1809207201004028,-1.7144194841384888,1.7037218809127808
1772561449646186000,6.26018603515625,-1.3109186887741089,-1.143769383430481,0.3819231390953064
1772561449656252000,6.270251953125,-1.0663113594055176,-0.27316710352897644,-1.2360891103744507
1772561449666318800,6.28031884765625,-0.7924931049346924,0.761063814163208,-2.2610878944396973
1772561449676385800,6.2903857421875,-0.634200394153595,1.4160765409469604,-2.330817461013794
1772561449686452000,6.300451904296875,-0.6297997832298279,1.0165839195251465,-1.8008897304534912
1772561449696519000,6.310518798828125,-0.6628634333610535,-0.3302234411239624,-1.0357056856155396
1772561449706584800,6.320584716796875,-0.5951802730560303,-1.8189795017242432,-0.29813581705093384
1772561449716652000,6.330652099609375,-0.44546347856521606,-2.576756715774536,0.2830623388290405
1772561449726717700,6.3407177734375,-0.22266556322574615,-2.3509140014648438,0.6031431555747986
1772561449736785000,6.350784912109375,0.0005576659459620714,-1.387182593345642,0.5987781882286072
1772561449746851800,6.360851806640625,0.2401135265827179,-0.08082534372806549,0.46741166710853577
1772561449756917800,6.370917724609375,0.4669607877731323,1.0955791473388672,0.4286075532436371
1772561449766984700,6.380984619140625,0.638008713722229,1.8173624277114868,0.514203667640686
1772561449777050600,6.391050537109375,0.7195003628730774,1.8627575635910034,0.5430630445480347
1772561449787117800,6.401117919921875,0.5963289141654968,1.1296067237854004,0.2695172131061554
1772561449797183700,6.411183837890625,0.26236265897750854,0.05660282447934151,-0.28262078762054443
1772561449807250700,6.421250732421875,-0.04777045175433159,-0.621130108833313,-0.9397232532501221
1772561449817317600,6.431317626953125,-0.15015913546085358,-0.6264417767524719,-1.4994275569915771
1772561449827383800,6.4413837890625,-0.10156497359275818,-0.11155103147029877,-1.833552360534668
1772561449837450800,6.45145068359375,0.03930612653493881,0.6641095280647278,-1.8705265522003174
1772561449847516700,6.4615166015625,0.19870351254940033,1.3271732330322266,-1.6551392078399658
1772561449857583900,6.471583984375,0.3165361285209656,1.6288793087005615,-1.2758845090866089
1772561449867649800,6.48164990234375,0.42837852239608765,1.5813482999801636,-0.8674080967903137
1772561449877716700,6.491716796875,0.4973871409893036,1.1568902730941772,-0.5903269648551941
1772561449887783700,6.50178369140625,0.4359256327152252,0.5730675458908081,-0.49467790126800537
1772561449897849900,6.511849853515625,0.3300474286079407,0.07675176858901978,-0.5988405346870422
1772561449907916800,6.521916748046875,0.20331424474716187,-0.10162302851676941,-0.9002118110656738
1772561449917982700,6.531982666015625,0.07867404073476791,0.02587793581187725,-1.3565963506698608
1772561449928050000,6.5420498046875,-0.030581345781683922,0.36464613676071167,-1.8698102235794067
1772561449938115800,6.55211572265625,-0.10658130049705505,0.7446334362030029,-2.337132453918457
1772561449948182800,6.562182861328125,-0.147303968667984,0.8454217910766602,-2.7077033519744873
1772561449958249700,6.572249755859375,-0.2519552707672119,0.5857409834861755,-2.950718879699707
1772561449968316000,6.58231591796875,-0.33747604489326477,0.04958885908126831,-2.987131357192993
1772561449978382800,6.5923828125,-0.30636870861053467,-0.45933854579925537,-2.7471296787261963
1772561449988448800,6.60244873046875,-0.2502385973930359,-0.6954541802406311,-2.3040502071380615
1772561449998516000,6.612515869140625,-0.10650993138551712,-0.5657930970191956,-1.7514249086380005
1772561450008582000,6.622581787109375,0.08443259447813034,-0.2618963122367859,-1.1390254497528076
1772561450018648800,6.63264892578125,0.24150237441062927,-0.018743060529232025,-0.5393455028533936
1772561450028715800,6.6427158203125,0.3329547941684723,-0.04126594588160515,-0.06475822627544403
1772561450038782000,6.652781982421875,0.3972991704940796,-0.2885899841785431,0.28477075695991516
1772561450048849000,6.662848876953125,0.5132942199707031,-0.6834768652915955,0.5991731286048889
1772561450058914800,6.672914794921875,0.604316771030426,-0.9883003830909729,0.9182113409042358
1772561450068981800,6.682981689453125,0.5352836847305298,-1.0804804563522339,1.2369954586029053
1772561450079048000,6.6930478515625,0.3468538224697113,-0.9595263004302979,1.4761617183685303
1772561450089115000,6.703114990234375,0.18798428773880005,-0.5908095240592957,1.713106632232666
1772561450099181800,6.713181884765625,0.15941309928894043,-0.09778408706188202,1.9731272459030151
1772561450109248000,6.723248046875,0.13185283541679382,0.11819295585155487,2.227010488510132
1772561450119315000,6.73331494140625,0.006814230233430862,0.24316604435443878,2.520646572113037
1772561450129380600,6.743380615234375,-0.1626483052968979,0.467059850692749,2.970660448074341
1772561450139447800,6.75344775390625,-0.2897157073020935,0.602599024772644,3.461992025375366
1772561450149513700,6.763513671875,-0.2500620484352112,0.5716294050216675,3.7280445098876953
1772561450159580700,6.77358056640625,-0.26494431495666504,0.042754922062158585,3.2061281204223633
1772561450169647900,6.78364794921875,-0.4114815592765808,0.0024058998096734285,2.4378929138183594
1772561450179713800,6.7937138671875,-0.4443263113498688,0.5530427098274231,1.8576219081878662
1772561450189780700,6.80378076171875,-0.4399464726448059,0.930534839630127,1.518841028213501
1772561450199846700,6.8138466796875,0.09437044709920883,0.9178270101547241,1.4902961254119873
1772561450209913900,6.823913818359375,0.7354755997657776,0.2577337920665741,1.6986581087112427
1772561450219979800,6.833979736328125,0.7672886848449707,-0.5369555950164795,2.0566301345825195
1772561450230046700,6.844046630859375,0.5632601380348206,-0.6465798020362854,2.4579427242279053
1772561450240113700,6.85411376953125,0.5896430611610413,-0.16004665195941925,2.6064634323120117
1772561450250179800,6.864179931640625,0.7671855688095093,0.04934464767575264,1.939070701599121
1772561450260246800,6.874246826171875,0.77632075548172,-0.35338443517684937,0.751734733581543
1772561450270312700,6.884312744140625,0.7244762182235718,-0.698014497756958,0.033244241029024124
1772561450280379600,6.894379638671875,0.6276671290397644,-0.8436409831047058,-0.06785841286182404
1772561450290446800,6.90444677734375,0.41562649607658386,-1.079951524734497,0.03650288283824921
1772561450300512800,6.9145126953125,0.10462813824415207,-1.519679069519043,-0.029227927327156067
1772561450310579700,6.924579833984375,-0.22379767894744873,-1.7373744249343872,-0.4071163535118103
1772561450320646000,6.93464599609375,-0.45644211769104004,-1.380400538444519,-1.0046788454055786
1772561450330712800,6.944712890625,-0.6344859004020691,-0.4916802644729614,-1.5779203176498413
1772561450340778800,6.95477880859375,-0.783198356628418,0.5021139979362488,-1.814432978630066
1772561450350845700,6.964845703125,-0.7756227850914001,1.2823301553726196,-1.5973254442214966
1772561450360913000,6.974912841796875,-0.5981726050376892,1.8367822170257568,-0.9114205241203308
1772561450370978800,6.984978759765625,-0.27810245752334595,2.00571870803833,0.023967383429408073
1772561450381045800,6.995045654296875,0.036989975720644,1.5474965572357178,0.7011898159980774
1772561450391112000,7.00511181640625,0.2025216817855835,0.6327540278434753,0.8849657773971558
1772561450401179000,7.015178955078125,0.16590827703475952,-0.40463191270828247,0.5982458591461182
1772561450411244800,7.025244873046875,-0.0032019184436649084,-1.033642292022705,-0.003900199430063367
1772561450421311700,7.035311767578125,-0.142149418592453,-1.0799317359924316,-0.7285993099212646
1772561450431379000,7.04537890625,-0.21588648855686188,-0.6582841277122498,-1.393172025680542
1772561450441444900,7.05544482421875,-0.2583191692829132,0.06287962943315506,-1.8900024890899658
1772561450451511800,7.06551171875,-0.25759533047676086,0.7492899298667908,-2.1428720951080322
1772561450461578000,7.075577880859375,-0.18960082530975342,1.1362723112106323,-2.0875842571258545
1772561450471645000,7.08564501953125,-0.09213712066411972,1.071446180343628,-1.8480141162872314
1772561450481710800,7.0957109375,-0.043713659048080444,0.5891178846359253,-1.5942974090576172
1772561450491777800,7.10577783203125,-0.08292710781097412,-0.10598715394735336,-1.4761781692504883
1772561450501845000,7.115844970703125,-0.15884611010551453,-0.6280492544174194,-1.505638599395752
1772561450511911000,7.125910888671875,-0.18827110528945923,-0.7369688153266907,-1.661931037902832
1772561450521977900,7.135977783203125,-0.2066200226545334,-0.587580680847168,-1.9055290222167969
1772561450532044000,7.1460439453125,-0.24323102831840515,-0.21284329891204834,-2.175859212875366
1772561450542111000,7.156111083984375,-0.3088635802268982,0.3079783320426941,-2.437824010848999
1772561450552178000,7.166177978515625,-0.343625545501709,0.7245425581932068,-2.5946173667907715
1772561450562243600,7.17624365234375,-0.3370339572429657,0.7821453809738159,-2.6189544200897217
1772561450572310800,7.186310791015625,-0.35128533840179443,0.5066261887550354,-2.536497116088867
1772561450582376700,7.196376708984375,-0.3515452444553375,0.011377557180821896,-2.3686981201171875
1772561450592443600,7.206443603515625,-0.2809155583381653,-0.4249848425388336,-2.071326494216919
1772561450602509800,7.216509765625,-0.17419949173927307,-0.680378794670105,-1.6906367540359497
1772561450612576800,7.22657666015625,-0.03724563866853714,-0.799623966217041,-1.3527854681015015
1772561450622643700,7.236643798828125,0.08013584464788437,-0.8882268071174622,-1.1050834655761719
1772561450632709600,7.246709716796875,0.16540732979774475,-0.9077456593513489,-0.925224781036377
1772561450642776800,7.25677685546875,0.13008156418800354,-0.6869898438453674,-0.7885540127754211
1772561450652842800,7.2668427734375,0.09193578362464905,-0.30979299545288086,-0.6702643632888794
1772561450662909700,7.27690966796875,0.22282429039478302,-0.00774607015773654,-0.5259431600570679
1772561450672976000,7.286975830078125,0.41563767194747925,0.08028072118759155,-0.29420819878578186
1772561450683042800,7.297042724609375,0.5909026861190796,-0.021344436332583427,0.24875974655151367
1772561450693109800,7.30710986328125,0.7939977645874023,-0.05597831308841705,1.1826972961425781
1772561450703175700,7.31717578125,1.0502252578735352,0.1293606460094452,2.320899248123169
1772561450713243000,7.327242919921875,1.1435821056365967,0.5015110373497009,3.465017080307007
1772561450723308800,7.337308837890625,1.0418400764465332,0.9833192229270935,4.578714370727539
1772561450733375700,7.347375732421875,0.8283008933067322,1.320868730545044,5.420544624328613
1772561450743441700,7.357441650390625,0.8629171848297119,1.4162501096725464,5.794925689697266
1772561450753508900,7.3675087890625,0.8180027008056641,0.8293142318725586,5.320404529571533
1772561450763575800,7.377575927734375,0.757104754447937,0.39969146251678467,4.41229248046875
1772561450773641500,7.387641357421875,0.5534536242485046,0.5613892674446106,3.681751012802124
1772561450783709000,7.397708984375,0.92754065990448,1.2682082653045654,3.7420125007629395
1772561450793774600,7.407774658203125,1.4801840782165527,1.2730966806411743,4.071048259735107
1772561450803841500,7.417841552734375,1.7323945760726929,0.649516761302948,4.200906276702881
1772561450813907700,7.42790771484375,1.7721318006515503,0.0040914141573011875,4.217857837677002
1772561450823974700,7.437974609375,1.303510308265686,-0.7260815501213074,3.994687795639038
1772561450834041600,7.44804150390625,0.3877490758895874,-1.0003472566604614,3.558922529220581
1772561450844107500,7.458107421875,-0.1940925121307373,-0.5080046057701111,2.8982274532318115
1772561450854174700,7.4681748046875,-0.04243054613471031,0.11443150043487549,1.7064305543899536
1772561450864240600,7.47824072265625,0.5235630869865417,0.716157853603363,0.353415846824646
1772561450874307600,7.4883076171875,0.691135048866272,0.9552947878837585,-0.5078421831130981
1772561450884373800,7.498373779296875,0.3807918131351471,0.6427685618400574,-0.7962934374809265
1772561450894440700,7.508440673828125,0.09453342854976654,-0.059537097811698914,-0.7740046381950378
1772561450904507600,7.518507568359375,-0.0020807278342545033,-0.8179883360862732,-0.6789721250534058
1772561450914573600,7.528573486328125,-0.14896897971630096,-1.3316516876220703,-0.6062946915626526
1772561450924640800,7.538640869140625,-0.43918535113334656,-1.527225375175476,-0.5503060221672058
1772561450934706700,7.548706787109375,-0.7368745803833008,-1.3569620847702026,-0.5230395197868347
1772561450944773600,7.558773681640625,-0.8707729578018188,-0.7221110463142395,-0.38716182112693787
1772561450954840600,7.568840576171875,-0.7912744283676147,0.5983436107635498,0.06464077532291412
1772561450964906800,7.57890673828125,-0.6352730989456177,1.7511234283447266,0.505089282989502
1772561450974973700,7.5889736328125,-0.5684298872947693,2.1888086795806885,0.5435541272163391
1772561450985039600,7.59903955078125,-0.5928984880447388,1.985918641090393,0.10837787389755249
1772561450995106800,7.60910693359375,-0.7177128791809082,1.4137829542160034,-0.6489787697792053
1772561451005172700,7.6191728515625,-0.9390636086463928,0.8144095540046692,-1.4261094331741333
1772561451015239700,7.62923974609375,-1.1356121301651,0.4229952096939087,-2.042229652404785
1772561451025306600,7.639306640625,-1.152291178703308,0.36753353476524353,-2.410477876663208
1772561451035372800,7.649372802734375,-0.991347074508667,0.5719417929649353,-2.5305187702178955
1772561451045439700,7.659439697265625,-0.7124792337417603,0.8250832557678223,-2.344057559967041
1772561451055505700,7.669505615234375,-0.4147450029850006,0.7612334489822388,-1.9648627042770386
1772561451065572900,7.67957275390625,-0.2892967760562897,0.3844616413116455,-1.629380226135254
1772561451075638800,7.689638671875,-0.2676578164100647,-0.1630008965730667,-1.4823442697525024
1772561451085705700,7.699705810546875,-0.3262801170349121,-0.766676664352417,-1.5905393362045288
1772561451095772700,7.709772705078125,-0.49481478333473206,-1.3648170232772827,-2.014982223510742
1772561451105838800,7.7198388671875,-0.7543718218803406,-1.8711433410644531,-2.751574754714966
1772561451115905800,7.72990576171875,-0.9610738158226013,-2.1975045204162598,-3.6475372314453125
1772561451125971700,7.7399716796875,-1.0903059244155884,-2.1892426013946533,-4.5006537437438965
1772561451136038700,7.75003857421875,-1.176944375038147,-1.8356192111968994,-5.065621376037598
1772561451146105900,7.76010595703125,-1.2494255304336548,-1.1023364067077637,-5.092447757720947
1772561451156171800,7.770171875,-1.2354907989501953,-0.1303739845752716,-4.409395217895508
1772561451166238700,7.78023876953125,-1.1307505369186401,0.40453335642814636,-3.343735456466675
1772561451176304600,7.7903046875,-1.0813685655593872,0.35150715708732605,-2.322559118270874
1772561451186371800,7.800371826171875,-1.0267369747161865,-0.09576380997896194,-1.507932424545288
1772561451196437500,7.8104375,-0.9009916186332703,-0.7656412124633789,-0.9192028045654297
1772561451206504700,7.820504638671875,-0.7631890177726746,-1.4527740478515625,-0.5954082608222961
1772561451216572000,7.830572021484375,-0.6146527528762817,-1.9276622533798218,-0.45220449566841125
1772561451226637600,7.840637451171875,-0.45864588022232056,-2.1001994609832764,-0.43435731530189514
1772561451236704500,7.85070458984375,-0.3892439007759094,-1.9078760147094727,-0.5725939869880676
1772561451246770700,7.860770751953125,-0.3735775947570801,-1.4083930253982544,-0.7192716002464294
1772561451256837600,7.870837646484375,-0.3664991557598114,-0.7409102916717529,-0.7367411255836487
1772561451266903600,7.880903564453125,-0.4032507836818695,-0.12093999981880188,-0.5457631945610046
1772561451276970800,7.890970703125,-0.328605055809021,0.22903850674629211,-0.1564711034297943
1772561451287037700,7.90103759765625,-0.14214356243610382,0.279441773891449,0.22194251418113708
1772561451297103600,7.911103515625,0.128683939576149,0.21841995418071747,0.6488898396492004
1772561451307170600,7.921170654296875,0.3461906909942627,0.08344322443008423,1.2453926801681519
1772561451317236700,7.93123681640625,0.36339685320854187,0.15546122193336487,2.0494799613952637
1772561451327303700,7.9413037109375,0.4118781089782715,0.4388314187526703,2.9605329036712646
1772561451337370600,7.95137060546875,0.6336605548858643,0.5634633898735046,3.5420374870300293
1772561451347436500,7.9614365234375,0.6984414458274841,-0.1594434529542923,3.1500189304351807
1772561451357503700,7.971503662109375,0.3526632487773895,-0.8668783903121948,2.340909481048584
1772561451367569700,7.981569580078125,0.26855024695396423,0.08138567209243774,2.5462865829467773
1772561451377636600,7.99163671875,0.31420081853866577,1.1568822860717773,3.447387933731079
1772561451387702800,8.001702880859375,0.7231323719024658,1.8773847818374634,4.357463836669922
1772561451397769700,8.011769775390626,1.3403100967407227,1.7614187002182007,4.72517728805542
1772561451407836700,8.021836669921875,1.5987869501113892,0.9241573810577393,4.692875862121582
1772561451417902600,8.031902587890626,1.6240544319152832,0.11710505187511444,4.55878210067749
1772561451427969800,8.0419697265625,1.5853919982910156,-0.25729066133499146,4.259333610534668
1772561451438035700,8.05203564453125,1.3477821350097656,0.05653917416930199,3.6386237144470215
1772561451448102700,8.0621025390625,1.390574336051941,0.5168388485908508,2.6406829357147217
1772561451458169600,8.072169677734376,1.5950380563735962,0.5947773456573486,1.5566269159317017
1772561451468235800,8.08223583984375,1.6042975187301636,0.662453830242157,0.9652320742607117
1772561451478302700,8.092302734375,1.391454815864563,0.4381754696369171,0.7963874340057373
1772561451488368600,8.10236865234375,1.070459246635437,-0.061647649854421616,0.7272599935531616
1772561451498435800,8.112435791015624,0.7339389324188232,-0.6011356115341187,0.536476731300354
1772561451508501800,8.122501708984375,0.3498988747596741,-0.7361552715301514,0.3000221252441406
1772561451518568700,8.132568603515624,-0.01008033100515604,-0.5122763514518738,0.027419107034802437
1772561451528635600,8.1426357421875,-0.2687225341796875,-0.09662028402090073,-0.2257617563009262
1772561451538701800,8.152701904296874,-0.4607902467250824,0.22305545210838318,-0.42413875460624695
1772561451548768800,8.162768798828125,-0.555905818939209,0.4644307792186737,-0.4194659888744354
1772561451558834700,8.172834716796874,-0.46939998865127563,0.7729899287223816,-0.13137640058994293
1772561451568902000,8.18290185546875,-0.2774326801300049,0.9179812073707581,0.18841464817523956
1772561451578969000,8.192968994140625,-0.11301816254854202,0.7790545225143433,0.32367047667503357
1772561451589034800,8.20303466796875,-0.09358534216880798,0.5256749987602234,0.24870169162750244
1772561451599102000,8.21310205078125,-0.2231561243534088,0.21642445027828217,-0.06308256089687347
1772561451609168000,8.22316796875,-0.4061741530895233,-0.08329755067825317,-0.5437911152839661
1772561451619234800,8.23323486328125,-0.517037570476532,-0.20581041276454926,-1.0734269618988037
1772561451629300700,8.24330078125,-0.4311090409755707,-0.17634440958499908,-1.479561448097229
1772561451639368000,8.253367919921875,-0.1599063128232956,-0.09379892796278,-1.6354882717132568
1772561451649435000,8.263434814453126,0.21142596006393433,0.08352898061275482,-1.4789375066757202
1772561451659500800,8.273500732421875,0.5896680951118469,0.28199121356010437,-1.0778560638427734
1772561451669567700,8.283567626953126,0.8523880839347839,0.24728062748908997,-0.5775522589683533
1772561451679634000,8.293634033203125,0.960487425327301,-0.032112397253513336,-0.15093599259853363
1772561451689700900,8.303700927734376,0.9007295370101929,-0.4714950919151306,0.04378316551446915
1772561451699767800,8.313767822265625,0.6685543656349182,-0.910433828830719,0.001287904684431851
1772561451709834000,8.323833984375,0.37956702709198,-1.0020880699157715,-0.15756165981292725
1772561451719901000,8.33390087890625,0.12298557907342911,-0.7198125123977661,-0.3890465497970581
1772561451729966800,8.343966796875,-0.01835929974913597,-0.34421756863594055,-0.664387583732605
1772561451740033800,8.35403369140625,-0.027171965688467026,0.053890660405159,-0.9824219942092896
1772561451750100000,8.364099853515626,0.01834465190768242,0.38656049966812134,-1.2384846210479736
1772561451760167000,8.3741669921875,0.019685819745063782,0.510248064994812,-1.3720734119415283
1772561451770233900,8.38423388671875,-0.06161143258213997,0.5239324569702148,-1.26661217212677
1772561451780299800,8.3942998046875,-0.17466288805007935,0.4837818443775177,-0.9084321856498718
1772561451790367000,8.404366943359374,-0.26547908782958984,0.32089680433273315,-0.41404271125793457
1772561451800433000,8.414432861328125,-0.3574225902557373,-0.05771416425704956,0.0046730488538742065
1772561451810499800,8.424499755859374,-0.4796547591686249,-0.6367567777633667,0.23355549573898315
1772561451820566800,8.43456689453125,-0.5990447998046875,-1.282055377960205,0.2714677155017853
1772561451830633000,8.444633056640624,-0.7350289821624756,-1.8344175815582275,0.17551270127296448
1772561451840700000,8.454699951171875,-0.7796033620834351,-1.9549373388290405,0.056045424193143845
1772561451850765800,8.464765869140624,-0.7000438570976257,-1.57736337184906,-0.031745679676532745
1772561451860833000,8.4748330078125,-0.5384184718132019,-0.9194039106369019,-0.07153996080160141
1772561451870899000,8.48489892578125,-0.35830169916152954,-0.42441466450691223,-0.024597754701972008
1772561451880966000,8.4949658203125,-0.2956891655921936,-0.3762015998363495,0.2096666693687439
1772561451891032800,8.50503271484375,-0.4007665812969208,-0.897664487361908,0.6298186779022217
1772561451901099000,8.51509912109375,-0.6531623601913452,-1.5256099700927734,1.0847201347351074
1772561451911166000,8.525166015625,-0.8352538347244263,-1.7791812419891357,1.395868182182312
1772561451921232000,8.53523193359375,-0.8057790398597717,-0.9664957523345947,1.6452319622039795
1772561451931299000,8.545299072265625,-0.7707718014717102,0.8245096206665039,1.648560881614685
1772561451941366000,8.555365966796876,-0.5495597720146179,2.376756191253662,1.5810697078704834
1772561451951432000,8.565431884765625,-0.6475380063056946,2.467996597290039,0.8575721979141235
1772561451961499000,8.575498779296876,-0.825783908367157,2.1624248027801514,0.3756745457649231
1772561451971565000,8.58556494140625,-0.7687089443206787,1.7747329473495483,0.5269713997840881
1772561451981630700,8.595630615234375,-0.4890567660331726,1.0260509252548218,0.7755308747291565
1772561451991697700,8.60569775390625,-0.08200112730264664,0.49388134479522705,1.1151236295700073
1772561452001763800,8.615763916015625,0.18169710040092468,0.2513057291507721,1.5799245834350586
1772561452011830800,8.625830810546875,-0.025061678141355515,-0.021453626453876495,1.7373629808425903
1772561452021897700,8.635897705078126,-0.21105125546455383,0.030299315229058266,1.274823784828186
1772561452031964000,8.6459638671875,0.48577097058296204,0.297524094581604,0.43301481008529663
1772561452042030800,8.65603076171875,1.4979583024978638,0.35113245248794556,-0.39710792899131775
1772561452052096800,8.6660966796875,1.8071163892745972,-0.12489719688892365,-0.7961338758468628
1772561452062163700,8.676163818359376,1.3667407035827637,-0.9206491708755493,-0.7042534947395325
1772561452072231000,8.68623095703125,0.7511975765228271,-1.2981165647506714,-0.3103322982788086
1772561452082296800,8.696296875,0.5015888214111328,-1.319210410118103,-0.09189184010028839
1772561452092363800,8.70636376953125,0.42711323499679565,-1.1185886859893799,-0.3315989673137665
1772561452102430000,8.716429931640626,0.3087652921676636,-0.6609930992126465,-0.8327217102050781
1772561452112497000,8.726496826171875,0.2094442993402481,-0.11951281875371933,-1.2767356634140015
1772561452122562800,8.736562744140626,0.12218556553125381,0.4564168155193329,-1.44608473777771
1772561452132629800,8.746629638671875,0.015421832911670208,0.9837802052497864,-1.214452862739563
1772561452142697000,8.756697021484374,-0.03942037746310234,1.374283790588379,-0.6374614238739014
1772561452152763000,8.766762939453125,-0.04350300133228302,1.5332214832305908,0.039792418479919434
1772561452162829800,8.776829833984374,0.004859469830989838,1.5089439153671265,0.6192307472229004
1772561452172896000,8.78689599609375,0.0359225794672966,1.2160032987594604,0.840566098690033
1772561452182963000,8.796962890625,0.0031585090328007936,0.6991146802902222,0.6293624639511108
1772561452193030000,8.80702978515625,-0.07069893926382065,0.20293447375297546,0.08299341797828674
1772561452203095800,8.817095703125,-0.12544021010398865,-0.059185560792684555,-0.591981053352356
1772561452213163000,8.8271630859375,-0.11711516976356506,-0.08970911055803299,-1.2346185445785522
1772561452223229000,8.83722900390625,-0.09468256682157516,0.11198858916759491,-1.6892169713974
1772561452233296000,8.8472958984375,-0.015233813785016537,0.4566926956176758,-1.9270769357681274
1772561452243362000,8.857362060546874,0.11326290667057037,0.7643205523490906,-1.969176173210144
1772561452253429000,8.867428955078125,0.2285652607679367,0.9406085014343262,-1.8699125051498413
1772561452263496000,8.877495849609375,0.2497858703136444,0.9169117212295532,-1.8038772344589233
1772561452273561900,8.887561767578125,0.1489572525024414,0.7049328684806824,-1.9354379177093506
1772561452283629000,8.897629150390625,-0.02701910026371479,0.44578787684440613,-2.1963908672332764
1772561452293695000,8.907695068359375,-0.16929101943969727,0.2715170085430145,-2.4921936988830566
1772561452303762000,8.917761962890625,-0.25726747512817383,0.1011148989200592,-2.7430248260498047
1772561452313828900,8.927828857421876,-0.24078038334846497,-0.0707993358373642,-2.840064287185669
1772561452323895000,8.93789501953125,-0.18865565955638885,-0.23312193155288696,-2.736666440963745
1772561452333963000,8.947962890625,-0.17616358399391174,-0.44842439889907837,-2.451517343521118
1772561452344029000,8.95802880859375,-0.15075914561748505,-0.7293663024902344,-2.0134057998657227
1772561452354095900,8.968095947265626,-0.10879092663526535,-1.1189931631088257,-1.5708149671554565
1772561452364162000,8.978162109375,-0.08509252220392227,-1.554795742034912,-1.2574127912521362
1772561452374229000,8.98822900390625,-0.06307297199964523,-1.974105715751648,-1.0908774137496948
1772561452384296000,8.9982958984375,-0.046490270644426346,-2.1600022315979004,-1.01840341091156
1772561452394361900,9.00836181640625,-0.010134126991033554,-2.016005039215088,-1.0148729085922241
1772561452404429000,9.018428955078125,0.018665030598640442,-1.6775944232940674,-1.0487983226776123
1772561452414495000,9.028494873046874,0.11807524412870407,-1.2704987525939941,-1.0066187381744385
1772561452424562000,9.03856201171875,0.245297372341156,-0.9537219405174255,-0.8018155097961426
1772561452434628900,9.04862890625,0.29399967193603516,-0.7365208864212036,-0.3181665241718292
1772561452444695000,9.058695068359375,0.2279018759727478,-0.6492671966552734,0.4617612361907959
1772561452454762000,9.068761962890624,0.052922338247299194,-0.5906286835670471,1.2971397638320923
1772561452464828000,9.078827880859375,-0.1676633059978485,-0.1966339647769928,2.0767288208007812
1772561452474895000,9.08889501953125,-0.41924920678138733,0.49272608757019043,2.715540647506714
1772561452484960800,9.098960693359375,-0.6055359840393066,1.22866690158844,3.163982391357422
1772561452495028000,9.109028076171874,-0.5115676522254944,1.9578015804290771,3.8488006591796875
1772561452505095000,9.119094970703125,-0.422676682472229,2.2178730964660645,4.617839336395264
1772561452515160800,9.129160888671874,-0.5753828883171082,1.6582026481628418,4.93329381942749
1772561452525227800,9.139227783203125,-0.7890608310699463,1.1622660160064697,4.9319634437561035
1772561452535293700,9.149293701171874,-0.759351909160614,1.3578126430511475,4.979820251464844
1772561452545361000,9.15936083984375,-0.2624918222427368,1.6604374647140503,5.224366664886475
1772561452555427800,9.169427734375,0.273918092250824,1.1047420501708984,5.307857036590576
1772561452565493800,9.17949365234375,0.4864620566368103,0.059652943164110184,5.294628620147705
1772561452575560000,9.189559814453125,0.07705190777778625,-0.520710825920105,5.218034744262695
1772561452585625900,9.1996259765625,-0.6448072195053101,-0.13302941620349884,4.914580345153809
1772561452595692800,9.20969287109375,-0.8259509205818176,1.545690655708313,4.253729343414307
1772561452605759000,9.219759033203125,0.14124047756195068,3.184602737426758,3.1267945766448975
1772561452615826000,9.229825927734375,1.0683132410049438,3.730522632598877,1.8368178606033325
1772561452625892900,9.239892822265626,1.214521050453186,2.765883684158325,0.7106509208679199
1772561452635958800,9.249958740234375,1.1771491765975952,1.1851894855499268,0.27167731523513794
1772561452646026000,9.26002587890625,1.1959915161132812,-0.17751939594745636,0.4923231303691864
1772561452656092000,9.270091796875,1.16679048538208,-1.2694300413131714,0.9354129433631897
1772561452666158800,9.280158935546876,1.09821355342865,-2.040127754211426,1.1271635293960571
1772561452676225800,9.290225830078125,0.9132237434387207,-2.2831149101257324,0.8528112769126892
1772561452686292000,9.3002919921875,0.6493018269538879,-1.913900375366211,0.35425740480422974
1772561452696359000,9.31035888671875,0.37852761149406433,-1.2105199098587036,-0.1136607825756073
1772561452706424800,9.3204248046875,0.18567878007888794,-0.26574671268463135,-0.34479600191116333
1772561452716492000,9.330491943359375,0.08187249302864075,0.7194105982780457,-0.3000365197658539
1772561452726559000,9.34055908203125,0.03724537417292595,1.483967661857605,-0.150238499045372
1772561452736625000,9.350625,0.04363562911748886,1.9390126466751099,-0.11900442093610764
1772561452746691800,9.36069189453125,0.07638931274414062,2.041764736175537,-0.36696362495422363
1772561452756758000,9.370758056640625,0.06444183737039566,1.922115445137024,-0.8715599179267883
1772561452766825000,9.380824951171874,0.010755708441138268,1.6782397031784058,-1.469006896018982
1772561452776891000,9.390890869140625,-0.04742184281349182,1.390560269355774,-2.0259602069854736
1772561452786958000,9.4009580078125,-0.029081452637910843,1.0732706785202026,-2.4964113235473633
1772561452797025000,9.41102490234375,0.004028830211609602,0.7352713346481323,-2.8139665126800537
1772561452807091000,9.421091064453124,0.042935747653245926,0.39674681425094604,-2.8306355476379395
1772561452817158000,9.431157958984375,0.11955755949020386,0.04151841625571251,-2.5868079662323
1772561452827224000,9.44122412109375,0.22719666361808777,-0.2989499568939209,-2.3162577152252197
1772561452837291000,9.451291015625,0.34417256712913513,-0.6459816694259644,-2.2239437103271484
1772561452847358000,9.46135791015625,0.4771527051925659,-0.9674289226531982,-2.3356285095214844
1772561452857424100,9.471424072265625,0.5675880908966064,-1.2765647172927856,-2.5894529819488525
1772561452867491000,9.481490966796875,0.5259239673614502,-1.5251920223236084,-2.8851654529571533
1772561452877557000,9.491556884765625,0.3897312581539154,-1.6164056062698364,-3.060979127883911
1772561452887624000,9.5016240234375,0.2759934961795807,-1.4965007305145264,-3.0859689712524414
1772561452897691100,9.511691162109376,0.2484913021326065,-1.2522889375686646,-3.0090980529785156
1772561452907757000,9.521757080078125,0.32667478919029236,-0.9787596464157104,-2.8396055698394775
1772561452917824000,9.531823974609376,0.4320440888404846,-0.619259238243103,-2.594878673553467
1772561452927890000,9.541889892578125,0.5495352745056152,-0.18847030401229858,-2.325593948364258
1772561452937957000,9.55195703125,0.7127873301506042,0.16072097420692444,-2.0382914543151855
1772561452948022800,9.562022705078125,0.9068673253059387,0.23794491589069366,-1.6758625507354736
1772561452958089700,9.57208984375,1.140775442123413,-0.005278651602566242,-1.2312533855438232
1772561452968157000,9.582156982421875,1.3538373708724976,-0.7324401140213013,-0.7696327567100525
1772561452978222800,9.592222900390626,1.2948962450027466,-0.9342467784881592,-0.3579235076904297
1772561452988289800,9.602289794921875,0.8009510040283203,1.5029240846633911,-0.5734675526618958
1772561452998356000,9.61235595703125,-0.3741930425167084,1.2669059038162231,-0.5945035815238953
1772561453008423000,9.6224228515625,-0.8736129999160767,0.4722256064414978,-0.0337129570543766
1772561453018489900,9.63248974609375,-0.8579045534133911,-0.30544087290763855,0.490035742521286
1772561453028555800,9.6425556640625,-0.7300565838813782,-1.0907686948776245,0.7487969994544983
1772561453038623000,9.652623046875,-0.37036633491516113,-1.5682884454727173,0.7121021151542664
1772561453048689000,9.66268896484375,0.10899998992681503,-1.7093547582626343,0.3237040340900421
1772561453058755800,9.672755859375,0.3724382817745209,-0.2234453409910202,0.01095597818493843
1772561453068822800,9.68282275390625,0.47895461320877075,0.6213053464889526,-0.5691279172897339
1772561453078889000,9.692888916015624,0.4750264286994934,1.3697398900985718,-1.1714507341384888
1772561453088956000,9.702955810546875,0.2601200044155121,1.2743244171142578,-1.996451497077942
1772561453099021800,9.713021728515624,-0.3054688274860382,0.23990127444267273,-2.78005051612854
1772561453109089000,9.723089111328125,-0.5589826107025146,-0.7925508618354797,-3.231370687484741
1772561453119155000,9.733155029296874,-0.3428734540939331,-0.6202025413513184,-3.6686911582946777
1772561453129222000,9.743221923828125,-0.3016277551651001,0.8336564898490906,-3.411297082901001
1772561453139288800,9.753288818359374,-0.1956494003534317,1.3853816986083984,-2.391324520111084
1772561453149355000,9.76335498046875,0.052498895674943924,1.2352428436279297,-1.4179068803787231
1772561453159422000,9.773421875,0.09887651354074478,1.6939946413040161,-0.9874359369277954
1772561453169488000,9.78348779296875,-0.08029110729694366,2.1965200901031494,-1.1356794834136963
1772561453179554800,9.793554931640625,-0.3119214177131653,2.173490285873413,-1.562055230140686
1772561453189622000,9.8036220703125,-0.4896661043167114,1.7185524702072144,-1.9870688915252686
1772561453199688000,9.81368798828125,-0.6902961134910583,1.2936512231826782,-2.3790979385375977
1772561453209755000,9.8237548828125,-0.9262290596961975,0.9296368360519409,-2.6074118614196777
1772561453219821000,9.833821044921875,-1.029971957206726,0.5830442309379578,-2.611835241317749
1772561453229888000,9.843887939453126,-0.9617801308631897,0.25248417258262634,-2.443934202194214
1772561453239954000,9.853953857421875,-0.9578551650047302,0.023384684696793556,-2.1978423595428467
1772561453250020900,9.864020751953126,-0.9691914319992065,-0.11232920736074448,-1.982558012008667
1772561453260088000,9.874088134765625,-1.0404815673828125,0.9069837331771851,-1.1988499164581299
1772561453270154000,9.884154052734376,-1.0493730306625366,1.4751124382019043,-0.22757430374622345
1772561453280221000,9.894220947265625,-0.9808283448219299,0.7643749117851257,0.3276766836643219
1772561453290287000,9.904287109375,-0.6750780344009399,0.24675679206848145,0.49820205569267273
1772561453300354000,9.91435400390625,-0.2550695836544037,0.0759887769818306,0.6148770451545715
1772561453310421000,9.9244208984375,-0.00754926260560751,-0.1636163592338562,0.868890106678009
1772561453320487000,9.93448681640625,0.06841740757226944,-0.3719938099384308,1.1623880863189697
1772561453330554000,9.94455419921875,0.0015076154377311468,-0.9246420860290527,1.5072788000106812
1772561453340620000,9.9546201171875,-0.12761442363262177,-1.206299901008606,1.7548255920410156
1772561453350687000,9.96468701171875,-0.3452330231666565,-1.1318610906600952,1.8447221517562866
1772561453360754000,9.97475390625,-0.5335464477539062,-0.9763635993003845,1.8335163593292236
1772561453370820000,9.984820068359374,-0.6281406283378601,-0.7798776626586914,1.802412986755371
1772561453380887000,9.994886962890625,-0.6626346707344055,-0.5763485431671143,1.7315326929092407
1772561453390952700,10.00495263671875,-0.6412457823753357,-0.41611918807029724,1.6041041612625122
1772561453401020200,10.015020263671875,-0.5681909918785095,-0.3377727270126343,1.4193545579910278
1772561453411085800,10.0250859375,-0.47753673791885376,-0.4170406460762024,1.1849445104599
1772561453421152800,10.03515283203125,-0.409598171710968,-0.6545701026916504,0.9492526054382324
1772561453431220000,10.045219970703124,-0.372358113527298,-0.8819819688796997,0.7937365174293518
1772561453441286000,10.055285888671875,-0.36609703302383423,-0.8706076145172119,0.7815738320350647
1772561453451352800,10.065352783203124,-0.3810458779335022,-0.6684843301773071,0.8547399640083313
1772561453461418800,10.075418701171875,-0.4347669184207916,-0.46940556168556213,0.9294267296791077
1772561453471486000,10.08548583984375,-0.5167661905288696,-0.34983524680137634,0.9429709911346436
1772561453481553000,10.095552978515625,-0.5950021147727966,-0.24793390929698944,0.9010850787162781
1772561453491618800,10.105618896484375,-0.652053952217102,-0.12816356122493744,0.855591356754303
1772561453501685800,10.115685791015625,-0.6657630801200867,-0.03243809938430786,0.8430848717689514
1772561453511752000,10.125751953125,-0.6224044561386108,0.03833353891968727,0.8579647541046143
1772561453521819000,10.13581884765625,-0.531989574432373,0.07879121601581573,0.8948447704315186
1772561453531885800,10.1458857421875,-0.439374715089798,0.12245666980743408,0.92193603515625
1772561453541952000,10.155951904296876,-0.37093386054039,0.16613250970840454,0.89347243309021
1772561453552019000,10.16601904296875,-0.35092392563819885,0.21418899297714233,0.7775077223777771
1772561453562084900,10.1760849609375,-0.35594266653060913,0.2972300946712494,0.5795621871948242
1772561453572152600,10.186152587890625,-0.35289067029953003,0.42430415749549866,0.3727671802043915
1772561453582218800,10.19621875,-0.34886929392814636,0.5489382147789001,0.23732173442840576
1772561453592285700,10.20628564453125,-0.3587970435619354,0.6043679118156433,0.1787566989660263
1772561453602352600,10.2163525390625,-0.36856764554977417,0.6100835800170898,0.20090806484222412
1772561453612418600,10.22641845703125,-0.35861408710479736,0.6112514138221741,0.283443421125412
1772561453622485800,10.23648583984375,-0.3659689426422119,0.5866912007331848,0.4536638855934143
1772561453632551700,10.2465517578125,-0.40121933817863464,0.3740406930446625,0.5344336032867432
1772561453642618600,10.25661865234375,-0.35177427530288696,0.028431108221411705,0.3990909457206726
1772561453652685600,10.266685546875,-0.23213736712932587,-0.21595333516597748,0.22964011132717133
1772561453662751700,10.276751708984374,-0.1710529774427414,-0.3562963306903839,0.09125880897045135
1772561453672818700,10.286818603515625,-0.16533410549163818,-0.44105303287506104,-0.040586043149232864
1772561453682884400,10.29688427734375,-0.2183653563261032,-0.4952299892902374,-0.15299594402313232
1772561453692951600,10.30695166015625,-0.3098771572113037,-0.5334583520889282,-0.2613716721534729
