time,seconds_elapsed,z,y,x
1772561222244851700,0.077851806640625,-0.1721253298997879,-0.32340514790862795,-0.48316754758059977
1772561222254918700,0.087918701171875,-0.20863982782661913,-0.21034166330844162,-0.4056842026665807
1772561222264984600,0.097984619140625,-0.15527297929823397,-0.08704203137606382,-0.2428320933509618
1772561222275051500,0.108051513671875,0.05366846182346344,-0.0290483998298645,-0.041191330631449814
1772561222285117700,0.11811767578125,0.06748305216431617,0.03254354846924543,0.07546250661090016
1772561222295184600,0.1281845703125,-0.025775077247619627,0.06175678347200155,0.08046345670334994
1772561222305251600,0.13825146484375,-0.04905249246060848,0.09995470444113015,0.09801847568154334
1772561222315317500,0.1483173828125,0.06387596758306026,0.1178314296543598,0.13105338786430656
1772561222325384700,0.158384765625,0.2184703169673681,0.11722265010625123,0.17699425111040473
1772561222335451600,0.16845166015625,0.23289456363916397,0.11158142934888601,0.23341456892527637
1772561222345517600,0.178517578125,0.17362521306872367,0.1262523442581296,0.27699747086837884
1772561222355584500,0.18858447265625,0.08613631470799446,0.1698895336717367,0.26549188812226054
1772561222365651700,0.198651611328125,0.2707324191242456,0.18555588935911654,0.15820267607457936
1772561222375717600,0.208717529296875,0.46859015617370603,0.14694266558736563,0.09445048100166022
1772561222385784600,0.21878466796875,0.20651859788894653,0.34624329492151734,0.09549925940223038
1772561222395851500,0.2288515625,-0.5248568177968264,0.2620885094195604,-0.47298554158844053
1772561222405917700,0.238917724609375,-1.3363994106531143,-0.007208031682670116,-0.5088406257584691
1772561222415984600,0.248984619140625,-1.1989859131723641,0.0361766442745924,-0.565372952580452
1772561222426050600,0.259050537109375,-0.5947118597894907,-0.03889963949769735,-0.566813652908057
1772561222436117800,0.26911767578125,-0.2095394070148468,0.01968815854936838,-0.27735782861337066
1772561222446184700,0.279184814453125,-0.01584521938562393,0.07325549808591604,-0.15969956356883047
1772561222456250600,0.289250732421875,0.3447591938436031,0.27186551480740306,-0.050640053912997245
1772561222466317600,0.299317626953125,1.1137485931307076,0.46483752564191816,0.12072189039885997
1772561222476384500,0.309384521484375,1.8589795156896114,0.2457248191177845,0.30326296198144553
1772561222486450700,0.31945068359375,2.1082085435360667,0.12139204474538565,0.8383302081473171
1772561222496517600,0.329517578125,2.1880758609771727,0.32901421996206043,1.58046184951663
1772561222506584600,0.33958447265625,1.9651789597392082,0.3966828578263521,2.1573890462905165
1772561222516650500,0.349650390625,0.5527028560996056,-0.2494365331172943,1.9808084905475376
1772561222526717700,0.3597177734375,-0.5812655182391405,-0.5320446834743022,1.0479575857065617
1772561222536783400,0.369783447265625,-0.5610825619101524,-0.3270367824092507,0.010887596978247165
1772561222546850600,0.3798505859375,0.007782324439287185,-0.07443740134686232,-0.5236087539644911
1772561222556917800,0.389917724609375,0.5936439382970333,-0.159245390060544,-0.551254337791726
1772561222566983400,0.3999833984375,0.8680664441108703,-0.45271951008588074,-0.3608578400010243
1772561222577050400,0.41005029296875,0.32719957175552844,-0.5125850729838013,-0.1166721766166389
1772561222587117600,0.42011767578125,-0.5716308439314365,0.007164484801888466,-0.18569412878602742
1772561222597183500,0.43018359375,1.5645423958510158,0.8062757583692669,-0.03352671428769827
1772561222607250400,0.44025048828125,2.374839372560382,1.4419921209812163,0.6258487563312053
1772561222617317400,0.4503173828125,1.2648480861365794,1.0316212218031287,1.6790122401177883
1772561222627383600,0.460383544921875,-0.8482505675286054,-0.8524364749111235,1.2203951964259148
1772561222637450500,0.470450439453125,-1.5386673653602598,-1.6614790676452218,0.24654822779726235
1772561222647516400,0.480516357421875,-0.8498287766307592,-1.2004114159308372,-0.9035678194724023
1772561222657583400,0.490583251953125,0.1937970634818077,-0.7490002119645476,-1.8409671813979744
1772561222667650600,0.500650634765625,1.0853379066824913,-0.8280608891978859,-1.875490067116171
1772561222677716500,0.510716552734375,1.7476082219600677,-1.2138704708322883,-1.1975202975992112
1772561222687783400,0.520783447265625,1.7998919514268636,-1.2846172009676695,-0.315324498109892
1772561222697850400,0.530850341796875,1.8768723152548075,-1.1349369271099568,0.2606453248739242
1772561222707916500,0.54091650390625,1.642878265941143,-0.9782873987615108,0.32542342892847953
1772561222717983500,0.5509833984375,0.5994499942272902,-0.818207895964384,0.03819105283692479
1772561222728050400,0.561050537109375,-0.76357088136971,-0.8180687797546387,-0.4143485706374049
1772561222738116600,0.57111669921875,-1.920347884365916,-0.8747431453958153,-0.7071805203016847
1772561222748183600,0.58118359375,-1.7243810756295919,-0.6961626480072737,-0.8971909779168665
1772561222758250500,0.59125048828125,-0.4429232154756784,-0.4884601010307669,-1.096459970003739
1772561222768316400,0.60131640625,1.0960410870045423,0.32605273980796334,-1.461518220836669
1772561222778383600,0.611383544921875,0.8280144197076559,0.37232670746594665,-1.3709326716348529
1772561222788449500,0.621449462890625,-0.2915858220607042,0.20174393083304165,-0.8628591577913611
1772561222798516500,0.6315166015625,-0.6162579211652278,0.6673641312852502,-0.4212045740120113
1772561222808583400,0.64158349609375,-0.5992869126200676,1.601225236082077,0.17677520153224469
1772561222818649600,0.651649658203125,-0.8414952480494976,1.7093474648877978,0.7564712784975767
1772561222828716500,0.661716552734375,-0.9118933108776808,1.1553829182893036,1.007620972208306
1772561222838783500,0.671783447265625,-0.38425358436405654,0.4216881197452545,1.0118560524947942
1772561222848849400,0.681849365234375,-0.01125204637646675,0.04648994849622249,0.7357213359355926
1772561222858916600,0.69191650390625,0.18609657210707664,0.23053397198766468,0.48092499281819906
1772561222868983600,0.701983642578125,0.3665741352885961,0.16528817735612392,0.32528314367495476
1772561222879049500,0.712049560546875,0.5925649108886718,-0.24180764567404983,0.18559450433645397
1772561222889116400,0.722116455078125,0.534562803775072,-0.9708034727469086,-0.21712065592408178
1772561222899182600,0.7321826171875,-0.5149976870834827,-1.3592016095697879,-0.9167344672985375
1772561222909249500,0.74224951171875,-1.7537129685759543,-0.8195864908412098,-1.6129118744835256
1772561222919316500,0.75231640625,-2.0442174251407383,0.1784387508302927,-1.797931903400272
1772561222929382700,0.762382568359375,-1.8575041824400425,0.8210413658246397,-1.4085744200259447
1772561222939449600,0.77244970703125,-1.316649585044384,0.9947796838790177,-0.6694514589533209
1772561222949516500,0.7825166015625,-0.7203560090214014,0.623348463948071,-0.2369980534352362
1772561222959582500,0.79258251953125,-0.7298427992910146,-0.28318185859173534,-0.33885596114918587
1772561222969649700,0.802649658203125,-1.4961866525053977,-0.4630754844054579,-0.5604189834348857
1772561222979716600,0.812716552734375,-2.1154981160223483,0.028806407767534254,-0.5455534227363765
1772561222989782500,0.822782470703125,-2.1439538106560705,0.7385799402371048,-0.3097581692196429
1772561222999849500,0.832849365234375,-1.8048814302772282,0.9603352702245116,-0.07617372362017631
1772561223009915600,0.84291552734375,-1.4827251133859156,0.7123340306073427,0.05648527280986309
1772561223019982600,0.852982666015625,-1.6217168199688194,0.503695371824503,0.01591872301325202
1772561223030049500,0.863049560546875,-1.592066362592578,0.4645671842679381,-0.2097850523389876
1772561223040115700,0.87311572265625,-0.8477011169523,0.29379005410671233,-0.4314730161786079
1772561223050182700,0.8831826171875,-0.17356208470463752,-0.13846037618517876,-0.5771455156996846
1772561223060249600,0.89324951171875,0.17837153081297874,-0.5181827468603849,-0.7106055993795395
1772561223070315500,0.9033154296875,0.0834504366248846,-0.5625535112455486,-0.812672473669052
1772561223080382500,0.913382568359375,0.2553214995026588,-0.36181671162843704,-0.8918120613574981
1772561223090449700,0.92344970703125,0.5036819278210402,-0.16117226646989583,-0.9072717885568737
1772561223100515600,0.933515625,0.7921727064758539,-0.14110533773601056,-0.8532584588184953
1772561223110582500,0.94358251953125,1.2175865687459706,-0.23585458248853683,-0.815708772625029
1772561223120648700,0.953648681640625,2.1668208915024993,-0.2965112957641482,-0.7719622776180506
1772561223130715600,0.963715576171875,4.026948992705345,-0.7957251382604241,-0.3672334759801626
1772561223140782600,0.973782470703125,4.915398884153366,-1.5381123618260024,0.2498746322736144
1772561223150848500,0.9838486328125,3.3260043711185454,-0.5795452703177929,0.23030162453651426
1772561223160915700,0.993915771484375,2.280857605049014,0.3005424509763717,-0.1752016686052084
1772561223170982700,1.003982666015625,2.554887896674871,-0.17934359071552752,-0.593605359852314
1772561223181048600,1.014048583984375,3.1297488085687157,-0.7505182153120636,-0.7552960972383618
1772561223191115500,1.024115478515625,3.3382436749666926,-0.8452437869280576,-0.8383169102743268
1772561223201182700,1.0341826171875,3.1339667185246944,-0.5228559993684292,-0.8084758987620473
1772561223211248600,1.04424853515625,2.1842343831181523,0.11968728665411471,-0.5379080225497483
1772561223221315600,1.054315673828125,1.5710089615166187,0.6361503701150417,-0.17419687547683715
1772561223231381800,1.0643818359375,1.5144833566963671,0.36851036404818294,-0.1454156021505594
1772561223241448700,1.07444873046875,1.5433879641413688,-0.351564782205224,-0.3238245423644781
1772561223251515600,1.084515625,1.7835978192299604,-0.8140045990556478,-0.6893178966790438
1772561223261581600,1.09458154296875,2.295593401888013,-0.8357087736025453,-1.2032035308673976
1772561223271648800,1.104648681640625,3.4220816496044395,-0.38799043280482287,-1.7638976779818534
1772561223281715700,1.1147158203125,3.4292250916182994,-0.18468465948253868,-1.3452030409641562
1772561223291781600,1.12478173828125,2.282486083033681,-0.8528422792330383,-0.6664337185673416
1772561223301848600,1.1348486328125,0.46621816634535784,-1.430606803613901,-0.47739933944270013
1772561223311915500,1.14491552734375,-1.7073709041178224,-1.086284247621894,-0.8940691926345229
1772561223321981700,1.154981689453125,-2.247362162682414,-0.09437047456800937,-1.6911502755485475
1772561223332048600,1.165048583984375,-3.521360939002037,0.46335430134683847,-2.0144756362192333
1772561223342114600,1.175114501953125,-4.131213669300079,0.5772334862440824,-1.7688804348304867
1772561223352181800,1.185181640625,-3.7048406066089865,0.26052579014748334,-1.6832259122900664
1772561223362248400,1.19524853515625,-2.2586428506314755,0.522302457138896,-1.5318129694208502
1772561223372314400,1.205314453125,-0.2370446690559387,0.6302437764197587,-1.1578251968748867
1772561223382381300,1.21538134765625,0.8416261809527873,0.02630173147022724,-0.7704249850481748
1772561223392448500,1.225448486328125,0.13543313731849194,-0.6251721722438931,-0.3981071915410459
1772561223402514400,1.235514404296875,-4.905352121913433,-0.8439622226849198,1.4553000769741833
1772561223412581400,1.245581298828125,-7.25873311138153,-1.0905378134131432,1.9619915618747472
1772561223422648300,1.2556484375,-6.281079918870329,-1.462476106083393,1.993645614158362
1772561223432714500,1.265714599609375,-4.421671364113688,-2.230821946769953,2.9617314985096455
1772561223442781400,1.275781494140625,-4.9182040047019715,-4.077147148069739,4.491225961855053
1772561223452847400,1.285847412109375,-6.167642924782633,-5.920604100456833,5.579084911447763
1772561223462914600,1.29591455078125,-6.080315354463457,-6.6986524199903,6.229573018994927
1772561223472981500,1.3059814453125,-8.691647022894024,-5.655664293259382,6.554314676204323
1772561223483047400,1.31604736328125,-8.164241105136275,-4.044643054828048,6.614193683105706
1772561223493114400,1.3261142578125,-9.350206208693981,-4.183592091313004,8.021647574669123
1772561223503181600,1.336181640625,-11.420338411813974,-5.099143340176344,8.100220176124573
1772561223513247500,1.34624755859375,-11.485654056811333,-5.154793331205845,6.740796448236703
1772561223523314400,1.356314453125,-10.660852753931284,-3.8003479762524366,4.774784544804692
1772561223533381400,1.36638134765625,-7.217281741574406,-2.77292859005332,3.10961729016602
1772561223543447600,1.376447509765625,-7.596981900417804,-3.1719857757955787,1.7393731853172183
1772561223553514500,1.386514404296875,-8.174044706270099,-5.825485437870025,0.466483685413748
1772561223563581400,1.39658154296875,-8.882067887941002,-7.38766285815537,-0.35300993951223786
1772561223573647600,1.406647705078125,-8.277806109517812,-3.0209248612344264,0.4281596538469195
1772561223583714600,1.416714599609375,-7.279017774519324,1.7140332846164703,2.3908504500322043
1772561223593780500,1.426780517578125,-6.50273471109271,3.493376369011402,3.527224570338428
1772561223603847400,1.436847412109375,-4.874426237773895,4.069373006936908,3.1802672819286584
1772561223613914400,1.446914306640625,-3.9166637406468388,4.796595979118347,1.893308340140432
1772561223623980500,1.45698046875,-5.0192795298665756,4.802934534490108,0.7447168355569243
1772561223634047500,1.467047607421875,-6.3944666440755125,4.090982196676731,-0.12654518972486256
1772561223644114400,1.477114501953125,-6.807709007036686,3.6695600343912838,-0.8697776319429278
1772561223654180600,1.4871806640625,-5.335796379566192,3.2843414043873547,-1.6963509129315613
1772561223664247600,1.49724755859375,-2.5959973211765286,2.832839161136746,-2.576173845809698
1772561223674314500,1.507314453125,-0.9145037856370211,3.3621593880832195,-2.4774095201969146
1772561223684380400,1.51738037109375,0.3924111718565225,4.083360031235218,-0.7575922453515231
1772561223694447600,1.527447509765625,2.016808024689555,4.644467143064737,1.6219002137117087
1772561223704513300,1.53751318359375,3.3325814114212986,5.349315201830864,3.1114366145476695
1772561223714580500,1.54758056640625,3.6719501443982123,6.11777853141725,2.96488411732167
1772561223724647400,1.5576474609375,3.9538095222145317,7.833816141593456,2.5243422440245746
1772561223734713300,1.56771337890625,5.327485647338628,8.179811014711856,2.207921402045339
1772561223744780500,1.577780517578125,5.558994309577345,7.088598078516125,2.3533875653393563
1772561223754847500,1.587847412109375,5.496774292507768,5.5055584874659775,2.53231395355612
1772561223764913400,1.597913330078125,5.212799529972672,4.695326977208256,2.42268921123296
1772561223774980600,1.607980712890625,6.33833442248702,5.127849794700741,1.039701652406156
1772561223785047600,1.618047607421875,8.010544581374525,5.508107002905011,-0.6538745351150631
1772561223795113200,1.62811328125,8.691568112438917,5.742309726533294,-1.6935026838935912
1772561223805180400,1.638180419921875,8.692593948355317,6.784421070429683,-1.5483125610619783
1772561223815246300,1.648246337890625,8.382557108324766,7.145403669321537,-0.19909663119465112
1772561223825313300,1.658313232421875,8.025622323518991,5.331494882979989,1.6396619342431424
1772561223835380200,1.668380126953125,7.688560113918781,4.124229217240214,2.768478624907136
1772561223845446400,1.6784462890625,8.261431897822021,4.146089751392602,2.639670166425407
1772561223855513300,1.688513427734375,10.301270084965228,4.328609049534798,1.663627477850765
1772561223865580300,1.698580322265625,10.206958647108078,4.709440842756629,1.0094036178413779
1772561223875646500,1.708646484375,9.693521633470057,4.619714979124069,1.0263991032406687
1772561223885713400,1.71871337890625,9.417091294965147,3.747005677643418,0.18295838367920367
1772561223895780400,1.7287802734375,9.202341459825634,2.911686487880349,-1.3994059019252658
1772561223905846300,1.73884619140625,8.23414875409901,2.6589082431197166,-2.6077228302836417
1772561223915913200,1.748913330078125,7.17053694153428,3.5208781239211557,-3.4755753393828868
1772561223925980400,1.75898046875,6.08350041424036,4.591969478586316,-4.05000955029726
1772561223936046300,1.76904638671875,5.2510301841676235,5.650245775341987,-3.9428678569614886
1772561223946113300,1.77911328125,5.021278594729304,6.254187820291519,-3.3833307709276674
1772561223956179500,1.789179443359375,5.600322929787636,5.770377298632264,-3.1434026553899046
1772561223966246400,1.799246337890625,6.463466530543565,6.1136979841053485,-4.228592678034305
1772561223976313300,1.809313232421875,7.189741408219933,6.3106210706532,-5.971797112077474
1772561223986379300,1.819379150390625,8.700491423606872,5.805609940055012,-6.89949647937417
1772561223996446500,1.829446533203125,10.122686957228183,5.109281872352957,-7.932232676681876
1772561224006513400,1.839513427734375,10.251386986899375,4.58871661427021,-8.379310673749446
1772561224016579300,1.849579345703125,10.996221019095183,4.922409055176377,-7.767510316514969
1772561224026646300,1.859646240234375,11.725075391870737,5.303593899619579,-6.954511095109582
1772561224036713500,1.86971337890625,10.96177865126729,5.993353694847226,-6.479519255200028
1772561224046779400,1.879779296875,10.241763418507576,6.566577945449948,-5.9764101588308804
1772561224056846300,1.889846435546875,9.140014475250243,5.050269711413979,-4.942051913279295
1772561224066912500,1.89991259765625,4.974426242661476,2.781255104371905,-6.950118997630477
1772561224076979500,1.9099794921875,1.8085908061891793,2.646907424202561,-5.086379135671257
1772561224087046400,1.92004638671875,-3.1472505629897114,-1.4003513660818339,-0.9882733707249164
1772561224097112300,1.9301123046875,-10.00256770889759,-6.158104112064838,2.777995518054068
1772561224107179500,1.940179443359375,-11.768231812030077,-11.061627849507332,5.405332857128977
1772561224117246500,1.95024658203125,-5.4810833869010205,-15.377124904012678,5.968986146309971
1772561224127312400,1.9603125,-3.2541882581859825,-16.65495288323164,3.3758082664683458
1772561224137379300,1.97037939453125,-10.468459712028503,-18.84481971927881,1.8406002477817236
1772561224147446300,1.9804462890625,-13.434847511911391,-20.505752697348594,4.8477773003011935
1772561224157512400,1.990512451171875,-13.274239601325988,-19.822638331484793,9.279572583544255
1772561224167579400,2.000579345703125,-16.74993652126193,-19.562360086357593,11.869790152275561
1772561224177645600,2.0106455078125,-18.77683865446448,-18.871097485351562,11.744907050544024
1772561224187712500,2.02071240234375,-19.97214032616615,-17.034789235675333,7.596924032750725
1772561224197779500,2.030779541015625,-24.088553901219367,-15.410254435676336,4.188538023282587
1772561224207845400,2.040845458984375,-24.55433601423502,-13.207526949012278,1.6043072738759219
1772561224217912300,2.050912353515625,-20.335956102657317,-8.625822843852639,-0.6144841894909739
1772561224227979500,2.0609794921875,-15.754660578298568,-1.58932086327672,0.583394346961379
1772561224238045400,2.07104541015625,-12.498307835555076,2.0084166284412146,5.708778043809533
1772561224248112400,2.0811123046875,-9.792167301139235,3.92555782572031,9.243843098515272
1772561224258179300,2.091179443359375,-6.498195898619294,6.08573796403408,6.576781359556317
1772561224268245500,2.10124560546875,0.2735924847304821,7.443165549668669,1.0077822271846235
1772561224278312400,2.1113125,5.812964978992938,8.721408539429307,-1.8386817008093
1772561224288379400,2.12137939453125,7.7972309165179725,7.526147199738025,-0.28589776648692783
1772561224298445600,2.131445556640625,10.660963813090325,6.653852908799052,1.670376952110976
1772561224308512500,2.141512451171875,11.816764664530753,8.379950140696764,1.8111124336212872
1772561224318578400,2.151578369140625,9.542563594761491,8.826074782562255,1.2141828977823257
1772561224328645400,2.161645263671875,6.310186186367273,8.178419268092513,1.4137202584818005
1772561224338712600,2.171712646484375,3.2039620457708833,5.927702534285188,0.6942692354761064
1772561224348778500,2.181778564453125,1.9267998369842767,3.750659523975849,-0.7183474456779658
1772561224358845400,2.191845458984375,3.865566006094217,2.9050591786950823,-1.3772991379268467
1772561224368913200,2.2019130859375,6.9926377044081685,2.6794863362461325,-1.305879915357381
1772561224378979300,2.211979248046875,9.531810145556927,2.509408294264972,-0.9328888987638055
1772561224389046300,2.22204638671875,11.53519345600605,2.6057325332492587,-0.4724118333537131
1772561224399113200,2.23211328125,11.150192268145084,3.1897637168094515,0.3680072733642533
1772561224409179100,2.24217919921875,9.738505853578447,3.8855078471437094,1.9529653748542068
1772561224419246000,2.25224609375,6.9081713687390085,4.705612516640127,1.6454881561785935
1772561224429313300,2.262313232421875,3.289865136244893,5.338963319164514,-0.13775069354586303
1772561224439379200,2.272379150390625,1.37657944535017,5.528357763773203,-1.8716966661825776
1772561224449446100,2.282446044921875,1.6468378172218798,5.869283663064241,-1.9683144812859594
1772561224459512300,2.29251220703125,2.6836680058449507,5.7815071799337865,-1.4768364937387406
1772561224469579300,2.302579345703125,3.5292823796510695,5.109685192456841,-2.6468887195020914
1772561224479646200,2.312646240234375,4.443032716572285,4.375048144626617,-4.048485409469902
1772561224489712000,2.322712158203125,5.503870388248562,3.5051436714336273,-4.4185535243541
1772561224499779300,2.332779296875,5.653036282843351,3.035839521771669,-4.381472332455218
1772561224509846300,2.34284619140625,5.935653785550594,3.1376345933824776,-4.224780718530714
1772561224519912200,2.352912109375,6.749645525124668,3.076909783306718,-3.5335306847453114
1772561224529979100,2.362979248046875,7.2725021090149875,3.1079531563460825,-2.1226897810921073
1772561224540046300,2.37304638671875,7.058475911974907,3.24462548007071,-1.1913421204209327
1772561224550112300,2.3831123046875,6.691035515245795,3.006354484090209,-1.1756050375849008
1772561224560179200,2.39317919921875,6.837889041244983,2.7887422452569006,-1.6229612670719622
1772561224570245400,2.403245361328125,7.296567459735274,1.9610669943757355,-2.1887048065304753
1772561224580312300,2.413312255859375,8.483946521744132,0.06901742212474346,-2.737196766936779
1772561224590379300,2.423379150390625,9.3950583268553,-1.2810798206217586,-2.5578268727362152
1772561224600445200,2.433445068359375,8.880931577387452,-1.7504449066907166,-1.8237752235785125
1772561224610512400,2.443512451171875,7.134726207962632,-1.9924007286638021,-1.4452810795240103
1772561224620579300,2.453579345703125,6.333007674506306,-2.2973262170299886,-0.9880997677236795
1772561224630645200,2.463645263671875,6.4968333780944345,-2.722230083951354,-0.1458934487953782
1772561224640712200,2.473712158203125,6.134166187116503,-3.0662837598741053,0.40696942017152904
1772561224650779100,2.483779052734375,4.198343670243025,-3.154402188310027,0.29412863841131326
1772561224660845300,2.49384521484375,0.9879045374125242,-3.254504484528303,-0.5470933456547558
1772561224670912300,2.503912353515625,-2.315960482612252,-3.195678786072135,-1.5210776403948665
1772561224680979200,2.513979248046875,-5.677756882601976,-2.80310336356461,-2.0695126099169254
1772561224691045400,2.52404541015625,-10.28528458032608,-2.921680935411155,-2.7413205688685176
1772561224701112300,2.5341123046875,-14.516526311564444,-4.300712742349505,-2.594178289055824
1772561224711178000,2.544177978515625,-15.53149012081623,-7.373714412301778,-0.7478102715276181
1772561224721245200,2.5542451171875,-13.368672619736193,-11.520578070676326,1.837440030185133
1772561224731312400,2.5643125,-8.636658126121759,-13.783954379570483,2.208188966940343
1772561224741378000,2.5743779296875,-9.69868120819032,-12.943354619055986,1.5356648225434124
1772561224751445200,2.5844453125,-17.735116602146626,-11.633474966537952,4.668781792370975
1772561224761512200,2.59451220703125,-21.61756009328365,-10.145976647400856,8.247194698154926
1772561224771578000,2.604578125,-21.608750179362296,-6.731633483093977,8.613490601024031
1772561224781645300,2.614645263671875,-22.507106547796724,-4.321566437546909,7.313805594784021
1772561224791712300,2.624712158203125,-23.819617717862126,-3.622241233855486,5.1810746044099325
1772561224801778200,2.634778076171875,-22.869044839978216,-3.6460087706729767,2.5163392625719307
1772561224811845000,2.64484521484375,-20.40685626978874,-3.660155953969061,0.1848506636992097
1772561224821912300,2.654912353515625,-18.376900594234467,-4.479601282773912,-0.21730521871075034
1772561224831978000,2.66497802734375,-13.458520648443699,-3.6059836342766878,-0.6077446521028876
1772561224842045200,2.675045166015625,-7.222916532590985,-1.5002902884319425,-2.278080541551113
1772561224852111000,2.685111083984375,-2.9144413395464417,1.1872837849408386,-3.172626996308565
1772561224862178000,2.695177978515625,-1.2188643335968254,2.974801992484927,-1.9656534453831611
1772561224872245000,2.705244873046875,-0.424365230000019,4.497259104539454,0.5860293716400862
1772561224882311200,2.715311279296875,0.7792027502655983,5.6890884239554405,2.048609376489371
1772561224892378000,2.725378173828125,2.3789088139563797,6.212734696918726,0.900794116975367
1772561224902445000,2.735445068359375,4.041089161738753,6.23840806735754,-1.1350959901291877
1772561224912511200,2.74551123046875,5.7548290163666005,5.734404067975282,-2.080988528177142
1772561224922578200,2.755578125,6.603401655456423,5.076261646282672,-2.385776946160197
1772561224932645000,2.76564501953125,6.496582033681869,4.93812509522438,-1.6953940505981444
1772561224942711000,2.7757109375,7.219459670135379,4.911006202152371,-0.26299389729406686
1772561224952778000,2.785778076171875,7.763948824641108,5.602844557219743,0.7806393589399755
1772561224962845200,2.79584521484375,7.084128824147582,6.163202311986685,1.3418990309827028
1772561224972911000,2.8059111328125,6.682330815264582,5.405410598540306,1.958632168444246
1772561224982978000,2.81597802734375,7.97069947772026,3.710985685235262,2.1603250997424124
1772561224993044200,2.826044189453125,9.84562708864808,2.4859645825743675,1.133669318326935
1772561225003111200,2.836111083984375,11.654223155534266,1.6052182512409985,-0.6211189513303339
1772561225013178000,2.84617822265625,13.624080628478525,0.7230484629757702,-2.4615906042963265
1772561225023244000,2.856244140625,14.195433239990471,0.5274823439948261,-3.208731452129781
1772561225033311200,2.866311279296875,13.019507299888133,1.4749216000281273,-2.0038183408655224
1772561225043378200,2.876378173828125,11.17162785488367,2.360243860974908,0.4729963552433997
1772561225053444000,2.886444091796875,8.813874057158827,2.9144366633713243,2.4336150943949817
1772561225063511000,2.896510986328125,6.335345177543163,3.2357007075980304,2.217665235815942
1772561225073578200,2.906578125,4.527274011313915,3.28327786680907,0.4792435060046613
1772561225083644200,2.91664404296875,2.7893448873251674,2.9762884316504,-1.2904396235108375
1772561225093711000,2.926711181640625,1.3141145136088133,2.5475126917317508,-2.398622691468894
1772561225103778000,2.936778076171875,0.7087094103693962,2.0653395620159802,-2.81034032908082
1772561225113844200,2.94684423828125,1.163331246945262,1.561528600987792,-2.780277783772349
1772561225123911200,2.9569111328125,2.11044024811089,1.3136952652834355,-2.622629015253484
1772561225133977000,2.96697705078125,3.3099779499471187,0.8631204390760511,-2.246863565510511
1772561225144044300,2.977044189453125,4.730278463602065,0.2425442711192183,-1.7396707069590687
1772561225154111200,2.987111328125,5.968066693377494,-0.15770928480075672,-0.9676252811022102
1772561225164177200,2.99717724609375,6.522399196505546,-0.505692683121562,-0.2590066177561879
1772561225174244000,3.007244140625,6.590643880692124,-0.8820647935207933,0.45609263978078957
1772561225184311000,3.01731103515625,5.686002732899785,-1.2635226827517152,0.8963518967442214
1772561225194377200,3.027377197265625,4.250394175475836,-1.47593311515823,0.45068405873551964
1772561225204444200,3.037444091796875,3.1629221793740987,-1.8152341897264122,-0.5246593955285846
1772561225214511000,3.047510986328125,3.0008488724112508,-2.5786329293996095,-1.3422218331962823
1772561225224577300,3.057577392578125,4.0266140616625545,-3.3457331539392468,-1.3349189628370106
1772561225234644200,3.067644287109375,6.354924907281995,-4.471816035725176,-0.10768149930089711
1772561225244711200,3.077711181640625,8.352008240804075,-5.696124313941597,2.100491539417952
1772561225254777000,3.087777099609375,8.684426423990725,-6.213822492155432,4.405194276565313
1772561225264844300,3.09784423828125,7.635386742135882,-5.684129924765229,5.862352402496337
1772561225274911200,3.1079111328125,5.626009159708023,-5.036434078285097,5.946289745855331
1772561225284977200,3.11797705078125,2.3666928909838196,-4.219465076465904,4.54989646974951
1772561225295044000,3.128044189453125,-1.8104390644043682,-3.342484381276369,2.142300782752037
1772561225305110300,3.1381103515625,-6.361131360706686,-2.686266497905552,-0.6984371688105165
1772561225315177200,3.14817724609375,-9.688699912402033,-2.5386446178823707,-2.9222026211977004
1772561225325244200,3.158244140625,-11.828939086449145,-2.8025515749007464,-3.309779797026515
1772561225335310300,3.168310302734375,-12.131031689476966,-3.6875855204254386,-1.0792539105936885
1772561225345377300,3.178377197265625,-10.927402918934822,-6.29663287731111,2.9657573930248615
1772561225355444200,3.1884443359375,-8.019076847398281,-10.476563523507117,7.866132018786669
1772561225365509600,3.198509521484375,-5.302282232499122,-13.020721936374901,8.700528833007812
1772561225375576800,3.208576904296875,-15.239872150051593,-11.76089606231451,5.727106896704435
1772561225385643800,3.218643798828125,-29.456258161699772,-11.336709696012734,4.107917257125675
1772561225395709700,3.228709716796875,-30.021663847506044,-7.066251222151517,1.6469610052101313
1772561225405776600,3.238776611328125,-28.04898196479082,-3.50079307500869,2.148149947171658
1772561225415843800,3.24884375,-31.31203099030256,-0.7499082667201757,5.485993955296277
1772561225425909800,3.25890966796875,-32.11401138956547,0.9505503737911581,6.650007923808693
1772561225435976700,3.268976806640625,-26.06738027803898,1.0459561827562749,4.081823615448177
1772561225446043600,3.279043701171875,-21.126949828481674,0.7798940935306251,-0.0687692925825715
1772561225456109800,3.28910986328125,-17.853566455960273,1.7319819060221313,-4.281858404275774
1772561225466176800,3.2991767578125,-10.81492687883377,3.4796427349522707,-6.385211908996105
1772561225476243700,3.30924365234375,-3.3862902052551505,4.600500867827236,-1.4330769931197165
1772561225486310000,3.319309814453125,-0.02573357619345188,6.640868924063444,4.322317255914211
1772561225496376800,3.329376953125,2.9778450134426353,9.533752511796354,3.461456797659397
1772561225506442800,3.33944287109375,9.999030182421206,10.900315005522966,0.9994144310075789
1772561225516509700,3.349509765625,16.775324645018575,10.246542469477653,1.2891511911354958
1772561225526576600,3.35957666015625,18.99674747980237,7.802846418312192,2.065680776669085
1772561225536642800,3.369642822265625,19.832897859692572,6.764793409895897,1.2807041191771626
1772561225546709800,3.379709716796875,19.932163705086708,8.741002297693491,-0.10691935582198202
1772561225556776700,3.389776611328125,12.589402064931392,8.900916380795836,0.5504071829104795
1772561225566843000,3.3998427734375,3.2162200543195008,9.091104021608828,3.364713456480205
1772561225576909800,3.409909912109375,0.350009369456768,9.702822545778751,3.5210017503008246
1772561225586976800,3.419976806640625,2.8513451241642236,7.606630603250861,3.4247692812532184
1772561225597042700,3.430042724609375,8.049249867343901,4.568939316132664,3.3021967945516106
1772561225607110000,3.44010986328125,12.486758852058648,2.9147651646733284,2.395047609461099
1772561225617176800,3.4501767578125,14.807770188319683,1.0045543511793016,0.9874059402406216
1772561225627242800,3.46024267578125,15.365648401230573,0.15020809712409972,-0.09046831603031605
1772561225637309700,3.470309814453125,14.37680921331644,0.5129971609160304,-0.6929743002947419
1772561225647377000,3.480376953125,11.197491779458522,1.3457654971525073,-0.8567370216492562
1772561225657442800,3.49044287109375,5.168896675360203,0.747947488041222,0.6392480438694358
1772561225667509800,3.500509765625,2.4378555084437132,1.9396315537676214,0.8001889858014881
1772561225677576700,3.51057666015625,0.9579033669024706,3.2814731554746626,-0.5284900597326457
1772561225687643000,3.520642822265625,-0.5889397061288356,3.018809184254706,-1.3703084022566676
1772561225697709800,3.530709716796875,-0.4320575380682945,2.0107767817012965,-2.337721940304339
1772561225707775700,3.540775634765625,1.5008552288383246,1.4791655212081969,-2.950483836047351
1772561225717843000,3.550843017578125,3.7063422433435913,1.0616448964059353,-2.615966050232947
1772561225727910000,3.560909912109375,5.707555808538198,0.7135682485774159,-1.7980759880460797
1772561225737975800,3.570975830078125,7.4235226915657515,0.37923195680975913,-1.702595652540028
1772561225748042800,3.581042724609375,7.480141235366463,0.14684958047643304,-2.6053917569875717
1772561225758109700,3.591109619140625,5.548062581196427,0.036167291924357414,-4.062276618935168
1772561225768175900,3.60117578125,3.363778513717651,0.1498407251164317,-4.958442491587996
1772561225778242800,3.611242919921875,1.8123878603845833,0.4326581343099475,-4.840462593373656
1772561225788309800,3.621309814453125,1.3487585414886474,0.45677514215223486,-4.272300594596564
1772561225798376000,3.6313759765625,2.2583967669159173,-0.011009542857483028,-3.873978737391531
1772561225808443000,3.64144287109375,3.403870870131254,-0.10741466505825518,-3.576135900762677
1772561225818509800,3.651509765625,4.437549316725135,-0.18963625400792805,-2.9985090312868357
1772561225828575700,3.66157568359375,6.105512924084067,-0.7489028890699148,-2.1268483620762826
1772561225838643000,3.671642822265625,8.394771862253545,-1.4899235004574058,-1.423345434308797
1772561225848710000,3.6817099609375,10.16697033559084,-2.0910306142419577,-0.47315322630554435
1772561225858775800,3.69177587890625,10.953760179984569,-2.9980723934352396,0.8503377490662037
1772561225868842800,3.7018427734375,10.759888297700881,-4.090379554608464,2.1673096979327497
1772561225878910000,3.711909912109375,9.761785606878995,-4.849798284734785,2.684325300709903
1772561225888976000,3.721975830078125,8.282358950516581,-5.25752480688393,2.3071493996471166
1772561225899042800,3.732042724609375,6.98431703530848,-5.645135884982347,1.5864508607983587
1772561225909109800,3.74210986328125,5.559445560476184,-5.470350980484485,0.6306241540394723
1772561225919176000,3.752176025390625,2.4340765744268893,-4.780604629260301,-0.7556536054391414
1772561225929243000,3.762242919921875,-1.1076263108581303,-4.058929938855767,-1.6542710359625517
1772561225939308800,3.772308837890625,-3.1494629783421755,-5.007966693213581,-1.4860162638857959
1772561225949375700,3.782375732421875,-3.541300734224915,-6.901536460769176,-0.2875302630595863
1772561225959443000,3.79244287109375,-4.1654619758605955,-8.425923956364393,1.282316815070808
1772561225969508900,3.8025087890625,-7.997925922819972,-10.051638321536778,3.1407913038477298
1772561225979575800,3.812575927734375,-12.057996848404407,-11.76223695552945,4.914267249774933
1772561225989642800,3.822642822265625,-17.129453724753855,-11.372156272447109,4.037872245518863
1772561225999709000,3.832708984375,-28.30644515249729,-8.693266733050345,2.311729859305173
1772561226009775900,3.84277587890625,-38.40266028238535,-7.529417599710822,3.542474161918461
1772561226019842800,3.8528427734375,-37.38006729342937,-4.8072810392618175,4.079586357915401
1772561226029909000,3.862908935546875,-33.85037808654308,-2.4237338979803025,4.766280628092587
1772561226039976000,3.872975830078125,-33.807032281291484,-0.6769046975687146,6.758398155900836
1772561226050043000,3.88304296875,-32.75911312789917,1.4171772670678793,8.125340588855742
1772561226060108800,3.89310888671875,-29.137756860184666,2.153552244606614,7.760788314783572
1772561226070176000,3.903176025390625,-25.343223123168944,1.9578702441610394,6.574208294197916
1772561226080243000,3.913242919921875,-20.614223593461514,1.6905810973584652,5.027826993459463
1772561226090308900,3.923308837890625,-15.395724390542506,1.7917182895824313,3.9246927333235737
1772561226100375800,3.933375732421875,-10.58426285072565,3.7748882485643027,2.710629662528634
1772561226110442800,3.94344287109375,-6.004110651183128,5.1093222043633455,1.7788322122633455
1772561226120509000,3.953509033203125,-2.4967811601430174,5.608246124002337,0.26059750367682427
1772561226130576000,3.963575927734375,0.7480740370303391,7.303798580032587,-0.9990910442721098
1772561226140642800,3.973642822265625,4.608650564274192,8.268632038459181,-0.5850197196735069
1772561226150709000,3.983708984375,9.041041475322842,7.931677965408563,0.39791137670800086
1772561226160776000,3.99377587890625,13.242785309398174,7.874293697932362,0.5360064267121255
1772561226170841600,4.003841552734375,16.016499496871234,7.367579270547628,-0.7585054146736859
1772561226180908800,4.01390869140625,15.791760182636976,6.757762780606746,-2.4814757467225195
1772561226190976000,4.02397607421875,12.042871759986877,7.324985744968056,-3.276533360984921
1772561226201041700,4.034041748046875,8.086368176382779,8.47081991366744,-2.6031764190256594
1772561226211108900,4.04410888671875,6.128674603962898,9.003461978513002,-1.2228847482193261
1772561226221175800,4.05417578125,5.577286337593198,10.340332513809203,0.1898823742561042
1772561226231241700,4.06424169921875,4.330000211632251,10.985341897684336,1.571207991220057
1772561226241308700,4.07430859375,4.606048272821307,8.784131829845904,2.771020126083493
1772561226251375900,4.0843759765625,9.002031653448938,6.408349623477458,2.095637085124105
1772561226261441800,4.09444189453125,14.887587821400166,4.796724866195023,0.27285441624689843
1772561226271508700,4.1045087890625,18.25032004093528,3.5271599806696177,-0.06870981748029589
1772561226281576000,4.114575927734375,17.782170614266395,3.4604245320022105,1.1628468974944204
1772561226291641600,4.1246416015625,18.231487914693354,5.467284578651189,2.521242524443567
1772561226301708800,4.134708740234375,18.927524890494347,6.706204442805052,3.568838437230885
1772561226311776000,4.14477587890625,18.82669720261097,6.951804174238443,4.934623809105157
1772561226321841700,4.154841552734375,16.60030476272106,6.082373456037044,4.846606502956152
1772561226331908600,4.16490869140625,9.409750869074463,4.030039067675173,4.131067538827658
1772561226341975800,4.174975830078125,4.713872103202343,3.116493897937238,2.7557711190253493
1772561226352041700,4.185041748046875,4.7494624720215795,2.994695902739465,-1.6205312634460627
1772561226362109700,4.195109619140625,5.7602586401999,2.2121493950039146,-5.0351820323973895
1772561226372176600,4.2051767578125,5.195829105949402,2.1000962564900516,-5.1945823207587
1772561226382242600,4.21524267578125,2.551453246051073,3.257431185629964,-2.679981426286697
1772561226392309800,4.225309814453125,-0.16221593030393122,4.389210525491833,0.16514807476568966
1772561226402375400,4.23537548828125,0.07076689614057541,3.9155923120230436,1.513552067195624
1772561226412442400,4.2454423828125,2.8023516684144734,1.7944860007300971,0.5590183228567243
1772561226422509600,4.255509521484375,5.183348979082703,-0.07118395250886678,-1.270368164732307
1772561226432575500,4.265575439453125,4.403422590717673,-0.7446342718400061,-2.45835761372447
1772561226442642400,4.275642333984375,1.9887720167726277,-0.475251952150464,-2.317425148337334
1772561226452709400,4.28570947265625,-0.01858896513581276,-0.11522563107013702,-1.9068413370609283
1772561226462775600,4.295775634765625,-1.4711609323203563,0.18882994259372352,-2.113537921865284
1772561226472842500,4.305842529296875,-1.8196049521565436,-0.3950926660254597,-1.927426882841438
1772561226482909400,4.315909423828125,-0.18728899676203728,-1.6943835583813487,-0.36650684220604596
1772561226492975400,4.325975341796875,2.1455746898561716,-3.0591169369846583,2.1593764207154513
1772561226503042600,4.33604248046875,4.647670323020219,-4.386861332017183,4.478425516992807
1772561226513109500,4.346109619140625,7.036368125063181,-5.604841283994912,5.9845040334373705
1772561226523175400,4.356175537109375,8.391320260494947,-6.098232119426131,6.477531296253204
1772561226533242400,4.366242431640625,8.21775817579031,-5.702652254405617,6.617012247657775
1772561226543309600,4.3763095703125,6.595215426391363,-5.424796851533651,6.493855823588371
1772561226553375500,4.38637548828125,4.240791065350175,-5.8986126334011555,5.523191174790263
1772561226563442400,4.3964423828125,1.199204524359107,-6.131321319079399,3.3736306301683188
1772561226573509400,4.40650927734375,-4.220311756423116,-4.8487195495873685,0.48783342049978673
1772561226583575600,4.416575439453125,-11.262109505319595,-3.0601907036960125,-1.7387112142771481
1772561226593642500,4.426642578125,-17.01942916945815,-1.8217953018076716,-2.8065125874862074
1772561226603709400,4.43670947265625,-19.02264764473438,-0.9938967635646462,-3.373376363146305
1772561226613775600,4.446775634765625,-16.77937187458277,-1.7567358235284685,-3.3859213719427586
1772561226623842600,4.456842529296875,-12.808181593978404,-4.692172897091508,-1.5939270418979226
1772561226633909500,4.466909423828125,-7.408748900803923,-9.209432294869423,2.0613580911643803
1772561226643975400,4.476975341796875,-3.1169875266730784,-13.02872871721983,2.61135358800143
1772561226654042400,4.48704248046875,-13.288158236563206,-14.85344706686735,1.9629874410443007
1772561226664108500,4.497108642578125,-20.049675985789296,-13.92488026908636,1.3479203370988369
1772561226674175500,4.507175537109375,-22.150529490387438,-10.433469062668085,-1.8187056652292608
1772561226684242400,4.517242431640625,-34.67786000680923,-3.8710783397749062,-4.206394582490622
1772561226694308600,4.52730859375,-47.000867389559744,1.363966632014513,-5.460130030721426
1772561226704375600,4.53737548828125,-43.30457541558742,2.042206962101161,-6.07710457572341
1772561226714442500,4.5474423828125,-30.300981139624117,-0.5530816262841224,-6.426933327916264
1772561226724508400,4.55750830078125,-17.39677545865178,-1.819887860751152,-8.927100623366236
1772561226734575600,4.56757568359375,-9.509169274681806,-0.2362783608585596,-8.624038883045316
1772561226744642600,4.577642578125,-6.718283003133535,2.9365628627225755,-1.75327340811491
1772561226754708500,4.58770849609375,-5.416458646777272,4.954706812191009,5.73452038783133
1772561226764775400,4.597775390625,1.5847428878366947,7.779482493859529,5.316868391734362
1772561226774842600,4.607842529296875,11.382723259168863,8.764655560481549,2.3746954340450466
1772561226784908500,4.617908447265625,18.43481736115217,8.16038852136135,3.488978718574345
1772561226794975500,4.6279755859375,19.018801490700245,7.22533119251728,6.875972395923733
1772561226805042400,4.63804248046875,18.171839793938396,6.095667821896076,8.998381898769736
1772561226815108600,4.648108642578125,17.25228749274015,4.147986524924636,8.174370869484543
1772561226825175600,4.658175537109375,14.837300234186648,2.870837175619602,4.708434003801644
1772561226835242500,4.668242431640625,8.597699742174148,2.594253107857704,1.1968599339943378
1772561226845308400,4.678308349609375,3.2114977019727227,2.9234409308210014,-0.6233799550648779
1772561226855375600,4.688375732421875,5.208861606001854,2.7601293142348524,-1.9646797780454157
1772561226865442600,4.698442626953125,11.815555873262882,1.9258079033374784,-1.1853837965384124
1772561226875508500,4.708508544921875,16.112869620823858,1.817752310027182,1.8386695719800887
1772561226885575400,4.718575439453125,17.46791177262664,1.1288982314676046,3.9816923853963613
1772561226895642600,4.728642578125,18.921219068348407,1.772602377963066,2.9784654834285376
1772561226905708500,4.73870849609375,18.352409127056596,3.426299267299473,0.6746575762290508
1772561226915775500,4.748775390625,16.13841790357828,3.8917683688431977,-0.1018256859447807
1772561226925841700,4.758841552734375,8.1179411262542,3.6043472652465103,1.7415753715366125
1772561226935908600,4.76890869140625,0.9270417801707983,4.765196632248163,4.002879550331831
1772561226945975600,4.7789755859375,-0.3194032187908888,7.356556356751918,2.8472017407491803
1772561226956041500,4.78904150390625,0.8520552205085754,6.948064987710118,1.544395241487771
1772561226966108700,4.799108642578125,2.5138076982676982,5.547347126403451,1.1145300258319824
1772561226976175600,4.809175537109375,4.471114901718497,4.848974985653162,0.5374312353508547
1772561226986241500,4.819241455078125,6.216684311327338,4.477833396318554,0.17772795394612476
1772561226996308500,4.82930859375,7.878843031799793,3.7385283566772936,0.056144021624140436
1772561227006375400,4.83937548828125,9.611220366880296,2.693139598545432,-0.40966092427782713
1772561227016441600,4.849441650390625,11.00991402888298,2.1064555623888968,-1.1447747227743268
1772561227026508500,4.859508544921875,11.108116044437885,1.7244401123404502,-1.7681201179824768
1772561227036575500,4.869575439453125,9.549223052650689,1.3858645755678414,-2.253478015214205
1772561227046641700,4.8796416015625,6.8399068108081815,1.3682532232925295,-2.4810680427044627
1772561227056708600,4.88970849609375,5.180187884703278,1.0577959658928215,-2.8729309330284596
1772561227066775600,4.899775634765625,4.713571074429154,0.6133914258182048,-3.2056773252561688
1772561227076841500,4.909841552734375,4.491087430167198,0.32183859271164983,-3.1288547823384403
1772561227086908700,4.91990869140625,4.815822657635808,-0.32713476289100946,-2.615458685232699
1772561227096975600,4.9299755859375,5.946480299991369,-1.3360828920498489,-2.2377480927713216
1772561227107041500,4.94004150390625,7.0862757730484,-2.1548639117270705,-1.9911517515160142
1772561227117108500,4.9501083984375,7.691487984064221,-2.661075650286674,-1.7874473342649637
1772561227127175700,4.96017578125,7.846553458091616,-2.99978738065958,-1.4717140361584722
1772561227137241600,4.97024169921875,7.8757211003869765,-3.014369740502536,-0.5542385777669027
1772561227147308500,4.98030859375,6.432464074036479,-3.053343029758334,0.499653329892084
1772561227157374700,4.990374755859375,3.1522821274161337,-3.2246707795396445,1.0034103687759488
1772561227167441700,5.000441650390625,-0.9406523723721504,-3.3893671284824607,0.31599125492293384
1772561227177508600,5.010508544921875,-5.784948844820261,-3.4360318490236996,-1.4436692604131995
1772561227187574500,5.020574462890625,-10.912741940897703,-3.7484155444413423,-3.4407691066786645
1772561227197640700,5.030640625,-15.398057801926136,-4.299190355087816,-5.665267987906932
1772561227207707600,5.040707763671875,-18.530509439712763,-4.486007058162987,-7.658196539837122
1772561227217774600,5.050774658203125,-17.634602217996118,-5.60990090547204,-8.913785799241065
1772561227227840800,5.0608408203125,-13.559077118170261,-7.068864619520306,-8.208080831384658
1772561227237907700,5.07090771484375,-11.137101315903664,-8.345168750172853,-5.3375289024472234
1772561227247974700,5.080974609375,-15.527357551056145,-6.790339354562759,-2.754528133226931
1772561227258040600,5.09104052734375,-25.92412097713947,-3.3009400724887845,-0.8633853736225515
1772561227268107800,5.101107666015625,-29.233499207627773,1.205335355264321,-1.6025453787699342
1772561227278174700,5.1111748046875,-28.921002114963528,1.733649839234352,-3.2935680824160576
1772561227288240600,5.12124072265625,-33.55966495566368,3.9322827500611544,-5.385547960206866
1772561227298307600,5.1313076171875,-39.88574429221153,7.540224824929237,-7.856907094323635
1772561227308374500,5.14137451171875,-37.98619778833389,8.59290432459116,-9.263625072827935
1772561227318440400,5.1514404296875,-30.738720230460164,9.294805223989487,-8.151890742129087
1772561227328507600,5.161507568359375,-23.454829296946524,11.127263812500237,-5.918966854643822
1772561227338574600,5.17157470703125,-16.440019508218764,12.6226192748785,-1.6925900990933178
1772561227348640500,5.181640625,-14.469591541910171,14.057825096720457,5.337708935189247
1772561227358707700,5.191707763671875,-14.982448709833621,13.577710506969689,9.458598194351792
1772561227368773600,5.201773681640625,-9.703992758601903,11.983759061282873,6.39165509378612
1772561227378839600,5.211839599609375,-0.536321630141139,8.623910872751473,3.4651334403455256
1772561227388906500,5.221906494140625,7.8100097340703005,6.236649825513362,4.336476421909034
1772561227398972400,5.231972412109375,11.685469357669353,4.396983205319941,7.986935742250084
1772561227409039600,5.24203955078125,14.170930082374811,3.0981723515659567,12.350730086934567
1772561227419106600,5.2521064453125,16.412605431592464,2.644358324241638,14.421407064455746
1772561227429172500,5.26217236328125,16.34409712803364,2.5046502860829234,14.481684130764007
1772561227439239400,5.272239501953125,14.034384599900244,2.03382155720219,13.564832320696114
1772561227449306400,5.282306396484375,11.048878258049488,1.013673769441247,12.565898439747095
1772561227459372500,5.29237255859375,9.9806165738523,-0.6387929935783148,12.528581393265723
1772561227469439500,5.302439453125,11.935334929853678,-1.8649163583926855,11.422917322391271
1772561227479506400,5.31250634765625,14.591976397085189,-2.040317787353694,8.848563677746057
1772561227489572600,5.322572509765625,16.001335830008983,-0.9252250130724161,6.918920141768455
1772561227499639600,5.3326396484375,15.693171213591098,-0.7969274267222732,4.617572121876478
1772561227509706500,5.34270654296875,14.263019168007373,-1.5125351452380418,1.3693037552587688
1772561227519772400,5.3527724609375,12.381260834276675,-1.2313777782112358,-1.2102864018004387
1772561227529839600,5.362839599609375,10.74870054873228,0.053387818251177666,-1.1487008832421153
1772561227539906600,5.372906494140625,9.293232275584339,1.3036300906039773,0.5201167836628854
1772561227549972500,5.382972412109375,7.486409063589573,3.0790581935122607,2.000565914940834
1772561227560039400,5.393039306640625,5.745941945555805,5.307036733549833,2.8284897337555885
1772561227570106600,5.403106689453125,4.990450910267233,6.574789893478155,3.579977670882642
1772561227580172500,5.413172607421875,5.372684971502423,6.40325551520884,3.1500594829306006
1772561227590239500,5.423239501953125,6.648422115921973,5.621558025518059,0.6671083298932761
1772561227600306400,5.433306396484375,7.361845110809803,4.713341357326508,-2.686300692436099
1772561227610372600,5.44337255859375,6.5315750211298464,3.9230639630779622,-5.712693171426653
1772561227620439600,5.453439453125,5.165439812904596,3.4914264039874077,-7.817727761101723
1772561227630506500,5.463506591796875,4.151275045076012,3.188824390132725,-8.68540958980918
1772561227640572700,5.47357275390625,3.745999130949378,2.719898718394339,-8.743378379175066
1772561227650639600,5.4836396484375,4.721349891737103,2.2535635015405715,-8.310243567264079
1772561227660705500,5.49370556640625,6.309698110589385,1.7613598300673066,-7.567994290864467
1772561227670772500,5.5037724609375,7.841893065065145,1.0116802575364707,-6.474525100174546
1772561227680839400,5.51383935546875,9.288649623969198,-0.22354893540591,-5.189833080404997
1772561227690905600,5.523905517578125,10.82395540394187,-2.0574562614202496,-4.132214955297112
1772561227700972500,5.53397265625,12.845499809503554,-4.409238875780999,-3.2518291278392075
1772561227711039500,5.54403955078125,14.23909819419384,-6.286042509713768,-1.8740007053412495
1772561227721105700,5.554105712890625,13.790647155207395,-7.4537436423063275,-0.32903208441231396
1772561227731172600,5.564172607421875,12.153077517068386,-8.052706729799509,0.6505408606477081
1772561227741239600,5.574239501953125,9.65233680564463,-8.058547272521256,0.8742487129423767
1772561227751305500,5.584305419921875,6.6749576561480755,-8.022576379951834,0.6313297450255603
1772561227761372700,5.59437255859375,4.851715224272012,-8.790878966018557,0.07871795560973696
1772561227771439600,5.604439697265625,4.213893706074357,-9.827920751565694,0.0165018566634506
1772561227781505500,5.614505615234375,4.098583319330215,-10.68027524728179,0.9479474978163838
1772561227791572500,5.624572509765625,1.6319786862641572,-9.713237556809187,2.99093801151067
1772561227801639700,5.6346396484375,-4.770789922210574,-7.457413855251669,5.6149839078247545
1772561227811705600,5.64470556640625,-15.17079802930355,-4.680721821011603,6.5297583270967
1772561227821772500,5.6547724609375,-25.952407160425185,-1.7466124889209866,5.991156477063894
1772561227831839500,5.664839599609375,-29.828834752273558,-0.9648220602497458,4.212328356453776
1772561227841905700,5.67490576171875,-27.52522930884361,-4.020603715331852,1.8905267465978859
1772561227851972600,5.68497265625,-22.719982405757904,-7.670176900488138,2.1669695061929524
1772561227862039600,5.69503955078125,-17.362177608001232,-7.9340031934857365,3.8616555546522138
1772561227872105500,5.70510546875,-23.931541969299314,-6.554378389090299,6.385634518322348
1772561227882172700,5.715172607421875,-31.506155386042593,-5.429303515303134,10.824781917893885
1772561227892239600,5.725239501953125,-27.556980537891388,-2.5551386565655467,12.28796646450758
1772561227902305500,5.735305419921875,-30.341570339643955,-0.25393121418803927,11.809451126646994
1772561227912372500,5.74537255859375,-36.26246144034862,5.173704952424765,8.627676947286725
1772561227922438700,5.755438720703125,-32.38681944591999,9.057955785244703,1.9008606552161276
1772561227932505600,5.765505615234375,-25.38472885351181,8.703149829161166,-4.0081723960429425
1772561227942572500,5.775572509765625,-19.026673831510543,6.808522661507129,-4.733107549548149
1772561227952638700,5.785638671875,-11.43776534743309,4.447929548703134,-1.6887905606798828
1772561227962705700,5.79570556640625,-5.820207205206155,4.3294957692414515,0.08526917648464441
1772561227972772600,5.805772705078125,-1.5398399162709713,6.122859780204296,-1.7353746172003448
1772561227982838500,5.815838623046875,3.956730962619185,5.48192451390028,-4.433353034079075
1772561227992905700,5.82590576171875,10.278695849585533,3.585434474983811,-6.1661465487450355
1772561228002972700,5.83597265625,13.57651457518339,1.9270818687960505,-4.904191261440515
1772561228013038600,5.84603857421875,12.925160790717602,2.1309490753933784,-1.5955708635821937
1772561228023105500,5.85610546875,10.42758409628272,3.4440696095287797,0.7887482849851251
1772561228033172500,5.86617236328125,7.654579518383741,3.9050393538266417,0.7581991252034902
1772561228043238700,5.87623876953125,6.389058647552132,5.109430340912938,0.24733459240198133
1772561228053305600,5.8863056640625,5.58718463127315,7.124778229922056,0.7292752285361289
1772561228063372500,5.89637255859375,3.4185143125116824,8.314721589460968,1.6653411499008535
1772561228073438700,5.906438720703125,1.7156623471230268,7.212768648064136,1.0847381872236728
1772561228083505700,5.916505615234375,4.29552043440342,4.433373492345214,-2.2111285275235772
1772561228093572600,5.926572509765625,10.089078117614983,1.6195678252413868,-6.26255934279561
1772561228103638500,5.936638427734375,14.883609565418958,-0.48419221445322036,-7.916079998782276
1772561228113705700,5.946705810546875,16.734242108523844,-0.46348026581406593,-6.674878745692968
1772561228123772700,5.956772705078125,16.587396181309224,0.8574258076310157,-3.917805311897397
1772561228133838600,5.966838623046875,16.601712291431426,1.8141779586717486,-2.5704788490384813
1772561228143905500,5.976905517578125,15.345296518075465,3.315288331314921,-2.4748110281363127
1772561228153972700,5.98697265625,10.720402675008772,3.338861806865036,-1.7519836605653165
1772561228164038700,5.99703857421875,7.8247420237779615,3.236035346379876,-1.4417027826458215
1772561228174105600,6.007105712890625,7.6096707015991205,3.5755826507940887,-2.8233944564431903
1772561228184172500,6.017172607421875,8.430614744529128,3.794947578513622,-4.133547372944653
1772561228194238700,6.02723876953125,9.136094671458006,3.82436305809021,-4.450163883626461
1772561228204305700,6.0373056640625,9.07936857562959,3.524463581192493,-4.381671069897711
1772561228214371600,6.04737158203125,9.529329434657097,3.6433696543410417,-4.302070586699247
1772561228224438800,6.057438720703125,10.743079786241054,3.543296291956305,-4.241959816868603
1772561228234505700,6.067505615234375,12.435975590282679,3.0301752123996613,-4.429742150105536
1772561228244571600,6.077571533203125,14.27320738454461,2.186624200864136,-5.152528893405199
1772561228254638600,6.087638671875,15.44235988498926,1.0908367963597179,-5.844458433887362
1772561228264705500,6.09770556640625,16.25110437155962,0.9761451260358095,-5.907008705824613
1772561228274771700,6.107771728515625,17.314860561031104,2.589754335133731,-6.409609852671623
1772561228284838700,6.117838623046875,15.249460647130011,4.7891129298865796,-5.217431865948439
1772561228294905600,6.127905517578125,9.375632910895346,5.697130860635638,-2.209655532361567
1772561228304971800,6.1379716796875,4.824813773342966,6.235033037966489,-0.5065820331767201
1772561228315038700,6.148038818359375,2.9185242249459025,6.633031654566526,-1.897080406025052
1772561228325105700,6.158105712890625,2.244247245532274,6.163222185730934,-3.964485522268712
1772561228335171600,6.168171630859375,1.0051175380200148,5.493302817004919,-4.73235030144006
1772561228345238800,6.17823876953125,-0.2888461679637432,4.195546148478985,-4.004305783742666
1772561228355305700,6.1883056640625,-0.38615269598364826,2.8614895015597344,-2.957181580120325
1772561228365371600,6.19837158203125,-0.2953483894646168,1.899948654937744,-2.342172197711468
1772561228375439000,6.208439208984375,-0.96844171205163,0.2744123497460037,-2.225261974555254
1772561228385506000,6.218506103515625,-1.6135989799648522,-1.8454868507795035,-2.0982351387932896
1772561228395572200,6.228572265625,-2.3857775306820868,-3.7687902239501474,-1.9539228217095135
1772561228405639200,6.23863916015625,-4.000459045186639,-4.840562254355848,-1.564593395385891
1772561228415706000,6.2487060546875,-5.8080187547624105,-4.484918970665335,-0.7443820506446063
1772561228425772300,6.258772216796875,-8.66989228720367,-3.5734175817146894,0.005534253251552581
1772561228435839200,6.268839111328125,-11.22134728682041,-2.6511224115490912,0.037819443045556546
1772561228445906200,6.27890625,-12.016093643176555,-2.347778785546869,-1.2378823377996682
1772561228455972000,6.28897216796875,-11.023224761354923,-3.598968494817614,-2.6666128261476754
1772561228466039300,6.299039306640625,-8.149660206598043,-5.936096853142977,-2.939252832458913
1772561228476106200,6.309106201171875,-5.966406651210785,-7.85698951191008,-1.8404906499274074
1772561228486172200,6.319172119140625,-6.339111836600304,-9.788825589495897,-1.0227785015907138
1772561228496239000,6.329239013671875,-9.676177699959277,-11.829224333131313,-1.3209057811841367
1772561228506306000,6.33930615234375,-12.39770226598978,-12.296774040341376,-2.512058808773756
1772561228516372200,6.349372314453125,-15.925236925190687,-9.444992862847446,-5.067830502545833
1772561228526439200,6.359439208984375,-24.66130819622278,-5.533779204300045,-6.895357479873299
1772561228536505300,6.36950537109375,-33.72350877943039,-1.6523558499909936,-7.733092498606443
1772561228546572300,6.379572265625,-38.12888659586906,1.69840010054633,-7.9201266438245765
1772561228556639200,6.38963916015625,-36.179964358925815,2.568863230535388,-5.999224048185348
1772561228566705200,6.399705078125,-29.280553219747542,2.4870593920737503,-2.5297765440329907
1772561228576772000,6.409772216796875,-22.96525246684551,3.1964567847073075,1.6949899998418987
1772561228586839300,6.41983935546875,-19.7738003585577,4.357445852440596,5.72750787872076
1772561228596905200,6.4299052734375,-17.344080810296536,5.284467174345255,7.300121937346458
1772561228606972200,6.43997216796875,-15.210437965774535,5.089461319595575,6.008717852717638
1772561228617039000,6.4500390625,-12.94532328878045,3.8701004346534607,4.453946909296512
1772561228627105300,6.460105224609375,-9.679660865899919,1.889146398155391,4.038585946746171
1772561228637172200,6.470172119140625,-5.974812075984477,0.24026911099515855,4.261227411918342
1772561228647239200,6.4802392578125,-1.789568125811219,-0.6005823592580855,4.504896467550099
1772561228657305300,6.490305419921875,2.285200602689385,-0.8875322651464491,4.6461353685379025
1772561228667372300,6.500372314453125,4.277591394481063,-1.1341716418258845,5.848948731043935
1772561228677439200,6.510439208984375,4.437859697848558,-1.3509230260461569,8.28260211162269
1772561228687505200,6.520505126953125,3.0699177324622866,-0.39288901850134134,10.445576849091053
1772561228697572400,6.530572265625,1.2492933741301298,1.3219947454646228,10.621445457172394
1772561228707639300,6.540639404296875,2.1871868031829593,2.737815775617957,9.14679200656116
1772561228717705200,6.550705322265625,6.247885505276918,3.198651664403081,7.688930700796842
1772561228727772200,6.560772216796875,13.325892631673812,2.1336818613581356,7.31334148440361
1772561228737839000,6.570839111328125,19.482364758622644,-0.3572165243566036,7.495786548265814
1772561228747905300,6.5809052734375,20.430213764500618,-1.5228268221497534,8.062417976474762
1772561228757972200,6.59097216796875,21.467964575099945,0.5038596224755049,9.79051836488843
1772561228768039200,6.6010390625,21.233087313210962,1.8396742189779876,8.878458465272187
1772561228778105300,6.611105224609375,19.72232502286434,3.219626647892594,8.025033125454186
1772561228788172300,6.62117236328125,17.891836273121832,2.979811345079541,6.16354601085782
1772561228798239200,6.6312392578125,14.421602294766902,1.6515549088716506,4.189467413087189
1772561228808305200,6.64130517578125,9.975111546695231,1.3005816628187894,2.8816011462181805
1772561228818372400,6.651372314453125,8.95309372727871,2.857220738199353,-0.062372723413258786
1772561228828439300,6.661439208984375,9.112376526740192,3.9119627233490344,-2.5165672261089087
1772561228838505200,6.671505126953125,9.052962214741111,4.697304414761066,-1.7047092836931348
1772561228848572200,6.681572265625,9.379322413063049,4.978917708861828,0.5154628203772008
1772561228858639400,6.691639404296875,10.003098454773426,5.596876004204153,1.2790575210139155
1772561228868705300,6.701705322265625,9.840589679002761,6.450374409258365,-0.20104761913195252
1772561228878772200,6.711772216796875,7.51112440265119,7.2788921023130415,-2.9649083749800917
1772561228888838400,6.72183837890625,3.2292250818431376,8.570525319522618,-6.140190854233503
1772561228898905300,6.7319052734375,-1.3478256445527077,8.848810345983505,-9.893138196885586
1772561228908972300,6.74197216796875,-3.782578510805964,8.799317708539963,-13.434119197636843
1772561228919038200,6.7520380859375,-3.538542959949374,8.093338015395403,-15.41487098956108
1772561228929105400,6.76210546875,-0.33712007726728915,6.601286270737647,-14.527598325198888
1772561228939172400,6.77217236328125,5.197146033766866,5.097756269732117,-11.165507910698652
1772561228949238300,6.78223828125,10.824891808009147,4.02648166745454,-7.226467503070831
1772561228959305200,6.79230517578125,15.022669661062954,3.084841160827875,-3.71558616476804
1772561228969372200,6.8023720703125,17.566870159506795,1.7545760151460765,-1.3189961481705308
1772561228979438300,6.812438232421875,18.680779496157168,0.14151917923390864,-0.22225392715930936
1772561228989505300,6.82250537109375,18.429027087312935,-1.2503794158011674,-0.06727108991406858
1772561228999572200,6.832572265625,18.351574429798124,-2.5091668867245316,-0.895791340252012
1772561229009638400,6.842638427734375,17.721787164974213,-3.775203305862844,-2.2175458472199736
1772561229019705300,6.852705322265625,13.672386686486005,-5.368938770711422,-2.033141904374957
1772561229029772300,6.862772216796875,7.81538149023652,-5.877982517826557,-0.6171764242496341
1772561229039838200,6.872838134765625,0.9273030614554881,-5.220736168190837,0.05190057536810636
1772561229049905400,6.882905517578125,-7.209840777918696,-3.4085739332556724,-0.4197637275539338
1772561229059972400,6.892972412109375,-16.189839463257787,-1.0770948328636587,-1.6246940822139382
1772561229070038300,6.903038330078125,-24.504770896077154,0.8994362726256251,-2.7779940567493435
1772561229080105200,6.913105224609375,-30.36235359995365,2.9206799416750666,-3.3606241413399576
1772561229090172400,6.92317236328125,-31.356760943388938,2.862392880140245,-3.9993420238554473
1772561229100238300,6.93323828125,-25.25613637586832,-0.9540461069524288,-3.272583746576309
1772561229110305300,6.94330517578125,-13.637360965812205,-10.368373197901247,-0.7749905393980443
1772561229120372200,6.953372314453125,-9.591041502204536,-19.220031334531306,4.039630779623985
1772561229130438400,6.9634384765625,-11.600028624010084,-16.993531342613696,9.870947407865524
1772561229140505300,6.97350537109375,-21.711214528536797,-8.329329960528016,11.182362014865875
1772561229150572300,6.983572265625,-38.711858333504196,1.062638145226985,5.842680902820825
1772561229160638200,6.99363818359375,-49.010523788928985,8.51999866285622,-5.190245168337226
1772561229170705400,7.003705322265625,-45.096336083006854,9.650427757152915,-13.937408911269902
1772561229180772400,7.0137724609375,-36.30016076414585,5.614295925560593,-14.572944364356994
1772561229190838300,7.02383837890625,-25.94284905848503,1.8351298535466194,-9.90364906950593
1772561229200905200,7.0339052734375,-17.367803046667575,0.9206569014392793,-2.8902102768704294
1772561229210972400,7.043972412109375,-10.700188739019632,3.8530414555639028,2.1035671474710105
1772561229221038000,7.0540380859375,-5.135893984946608,5.964421030351519,4.76063385437727
1772561229231105300,7.064105224609375,1.372498898038268,3.76511124317646,4.427612736861407
1772561229241172200,7.074172119140625,8.081409092670679,-0.6584729688212275,1.4091224092975259
1772561229251238100,7.084238037109375,13.023982399475575,-2.6365879825010894,-1.3441311739489434
1772561229261305300,7.094305419921875,13.761084376114606,-2.6995801529869436,-0.9269365662306547
1772561229271371000,7.10437109375,13.78735278983712,-6.510251662594079,0.5794131683707237
1772561229281438200,7.114438232421875,16.00344478498697,-4.5824151760384435,0.3425228130936622
1772561229291505400,7.12450537109375,14.879794975566863,-1.552590969033539,-1.7091706470161676
1772561229301571000,7.134571044921875,13.113710016673803,-0.6804501150906086,-2.340828381887078
1772561229311638000,7.144637939453125,14.447060561150312,-1.1463163992583751,-0.28377266409173607
1772561229321705200,7.154705322265625,18.81210987433195,-1.4294959197625516,2.473675009843707
1772561229331771100,7.164771240234375,23.099337112164495,-0.3364981459766626,4.024790645627677
1772561229341838000,7.174838134765625,25.228883627283572,1.2784180540665984,4.342316672369837
1772561229351905000,7.184905029296875,25.45924838018417,3.092000677193701,4.9042993979901075
1772561229361971200,7.19497119140625,23.97182020367384,5.550341632044315,5.4060863058447834
1772561229372038000,7.205037841796875,20.783526851677895,7.892675157797336,6.417766855642199
1772561229382104800,7.215104736328125,17.856414246606825,9.924134223651885,9.00719531982243
1772561229392171000,7.2251708984375,6.755031309816241,10.465041428017615,11.915942831641434
1772561229402238000,7.235238037109375,-4.536068727666139,9.199775408729911,14.836229390084743
1772561229412305000,7.245304931640625,-3.7041415184289215,12.018015551149844,10.421458306878804
1772561229422370800,7.255370849609375,-1.299306820577383,13.031754202520846,2.7964672865509987
1772561229432438000,7.26543798828125,-2.2225451168119905,11.987452070581913,-0.557978860273771
1772561229442505000,7.2755048828125,-3.1720553339004516,10.966208158147335,-2.420790684135258
1772561229452571000,7.28557080078125,-4.067515396371483,10.835975512081385,-4.8568566788136955
1772561229462637800,7.295637939453125,-5.558125125527382,10.693706391263008,-7.143011805748939
1772561229472704800,7.305704833984375,-5.450664283239841,9.570524783876538,-8.532320968812703
1772561229482771000,7.31577099609375,-2.6130758817493915,7.959804574218392,-9.032535512784122
1772561229492838000,7.325837890625,1.1598626940518617,6.049150985392928,-9.189434047457576
1772561229502904800,7.33590478515625,5.162409066906571,4.253914750817418,-9.018910892057418
1772561229512970800,7.345970703125,8.68174989825785,2.3779662724092603,-8.104059315896034
1772561229523038000,7.356037841796875,11.79912847007513,0.9257907571963966,-5.593499221247434
1772561229533105000,7.36610498046875,14.245974509704112,0.05936002452857792,-1.2835630157396196
1772561229543170800,7.3761708984375,15.475881046319007,-1.4326083526946602,3.597578209502995
1772561229553238000,7.386238037109375,15.865983941233157,-3.9192268691331145,7.904242845994234
1772561229563305000,7.396304931640625,16.01952381312847,-6.005322365060448,11.447469579845666
1772561229573370600,7.40637060546875,15.92627386702299,-7.783000146591663,13.064129700946808
1772561229583437800,7.416437744140625,15.508537115252016,-9.22071882803738,13.227912734436988
1772561229593505000,7.426505126953125,13.552343426001071,-11.09807278932929,12.934518986171483
1772561229603570700,7.43657080078125,9.2694872428596,-13.09832890766859,12.21795009447336
1772561229613637600,7.4466376953125,5.019028185454011,-13.263752109581231,10.4215775493443
1772561229623704800,7.456704833984375,-0.023223054677248,-12.730988464182614,7.366891872805357
1772561229633770800,7.466770751953125,-5.6866819473356,-11.439234835463761,5.109554259553551
1772561229643837700,7.476837646484375,-11.345871492111682,-8.597184778389334,3.5526831289827823
1772561229653905000,7.48690478515625,-15.444494558930396,-5.739281318622827,1.7619044583380221
1772561229663970800,7.496970703125,-16.71723953579664,-3.253038503628969,-0.2189329112441279
1772561229674037800,7.507037841796875,-17.517513131141662,-2.180251304831356,-1.272212915816158
1772561229684105000,7.51710498046875,-16.533824750119447,-3.578051086734235,-0.5765940923620015
1772561229694170600,7.527170654296875,-12.792177384638785,-6.842136177295446,2.234712670598179
1772561229704237800,7.53723779296875,-6.590616992685199,-11.238439875918626,5.1453082945019
1772561229714303700,7.5473037109375,-3.8089679205596445,-14.90902457718253,4.88809674346894
1772561229724370700,7.55737060546875,-12.40102001223564,-16.915535079741478,3.8155034598082302
1772561229734437600,7.567437744140625,-16.823500939166546,-14.973269378077983,2.0075059433370828
1772561229744504600,7.577504638671875,-22.63844627832174,-10.247706837081909,0.2918384999138303
1772561229754570800,7.58757080078125,-33.342171374773976,-1.971547910249233,-0.4883035952948033
1772561229764637700,7.5976376953125,-36.91319329352378,5.096460969224572,-2.188933354589343
1772561229774703600,7.60770361328125,-32.39118699347973,7.060658516710996,-6.194671801483631
1772561229784770800,7.617770751953125,-29.25892123365402,8.417776890265941,-11.273676024472714
1772561229794837800,7.627837646484375,-26.778142529284953,9.38042072969377,-13.888842156499624
1772561229804903700,7.637903564453125,-21.445114445388317,8.97854848653078,-11.202655445832013
1772561229814970600,7.647970703125,-17.056641001999377,7.681665678229928,-5.0887061173141
1772561229825037800,7.658037841796875,-11.896485266977548,7.273464232045412,-1.5302248234465718
1772561229835103700,7.668103759765625,-4.182123772326111,7.721558128157257,-1.5268288973979651
1772561229845170700,7.678170654296875,3.3433366141915317,7.213426235190034,-2.231472665763646
1772561229855237600,7.688237548828125,7.872446608760953,5.9302674163371325,-1.5261602043561637
1772561229865303800,7.6983037109375,8.724937882599233,4.175824964442849,0.48015908647961913
1772561229875370800,7.708370849609375,7.814647330743074,3.5886475918114185,2.6507828043311834
1772561229885437700,7.718437744140625,6.630454497554898,3.669289985278249,2.9309266104012726
1772561229895504000,7.72850390625,7.0564388531893485,3.6639155987635252,1.6381575210295616
1772561229905570800,7.73857080078125,8.660382116058468,3.590185176642239,0.7256656597368418
1772561229915637800,7.7486376953125,9.447129290354251,4.067085772782564,0.9937309054784477
1772561229925703700,7.75870361328125,10.264024350154399,4.603462347981333,1.5426517588213084
1772561229935770600,7.7687705078125,12.516900307822226,4.315689946728945,1.6624653022035956
1772561229945837800,7.778837890625,15.494015253424644,3.405894484913349,1.7018556478276847
1772561229955903700,7.78890380859375,16.027328349399564,1.8865964214116333,2.3068897257976233
1772561229965970700,7.798970703125,17.008544202828407,2.123231340622902,3.0451430644288657
1772561229976037600,7.80903759765625,20.398619187319277,3.289244373998046,1.8532206599019467
1772561229986103800,7.819103759765625,21.917677012324333,4.021017849090695,0.6841925164893269
1772561229996170800,7.829170654296875,21.89543478537798,4.425656049835681,0.1563822557143867
1772561230006237700,7.83923779296875,21.111006409418582,4.625120053038001,0.4075146329641342
1772561230016303900,7.849303955078125,19.00306616142988,4.672834574893117,1.342161773572117
1772561230026370800,7.859370849609375,16.798491585594416,4.84040910962075,2.3352651948019862
1772561230036437800,7.869437744140625,15.107895290666818,5.064414556622505,2.986086772087216
1772561230046503700,7.879503662109375,14.278480941033363,5.315839633208513,2.8275173815920946
1772561230056571000,7.88957080078125,13.47927468265891,5.577268217414617,0.7777315086692571
1772561230066637800,7.899637939453125,8.648471313512324,5.909135196459293,-1.78153767182976
1772561230076703700,7.909703857421875,-1.5805372528403996,6.285323547789454,-2.896095535516739
1772561230086770700,7.919770751953125,-5.025771814495325,9.978573085325955,-6.654016574928164
1772561230096837600,7.929837646484375,-6.9123214741557835,12.584411417037249,-11.68336741695404
1772561230106903800,7.93990380859375,-10.30011273162365,12.782524590152502,-13.099605503475665
1772561230116970800,7.949970703125,-12.639300360566377,10.779482640486956,-12.047328154873847
1772561230127037700,7.96003759765625,-11.032374867016076,7.035527582585811,-11.479929249423742
1772561230137104000,7.970103759765625,-5.703665815362334,4.687205922333896,-11.393608225798607
1772561230147170800,7.9801708984375,-0.1305810211122036,2.5237507078722117,-10.091965655750036
1772561230157237800,7.99023779296875,4.256587184897065,-0.28152269320786,-6.926504313287139
1772561230167303700,8.0003037109375,8.060396699780226,-3.030077597244084,-3.0393080746650694
1772561230177371000,8.010370849609375,11.278898143035173,-4.660148988582193,0.8552806122958659
1772561230187437800,8.020437744140626,13.201036417949199,-6.2619222139358515,4.212828414930403
1772561230197503700,8.030503662109375,13.584413804000615,-8.790739849808812,7.302000006178021
1772561230207570700,8.04057080078125,13.585173682457208,-11.655218011790513,10.07285997326374
1772561230217638000,8.050637939453125,12.728582572084665,-13.64296419264674,12.574333090615271
1772561230227703800,8.060703857421874,9.184937905082107,-15.100547850513458,13.837639208006857
1772561230237770800,8.070770751953125,3.9908419065356253,-15.496714575511216,12.771717949455976
1772561230247837700,8.080837646484374,-1.5617343526929617,-14.973304449391364,10.129137740802765
1772561230257903900,8.09090380859375,-7.753606878846884,-13.177580723559856,7.117967380863428
1772561230267970800,8.100970703125,-13.442820390486716,-10.636737718850373,4.224922172828019
1772561230278036700,8.11103662109375,-17.478808429694176,-8.336168282115459,1.377142632190883
1772561230288104000,8.12110400390625,-19.901471629703043,-5.880079782366752,-0.9989343193404376
1772561230298171000,8.1311708984375,-19.711756867098806,-4.851860185700655,-1.8280998087793587
1772561230308236800,8.14123681640625,-14.830957002639769,-7.035429382908344,-0.35747488303184505
1772561230318303700,8.1513037109375,-7.073370114246011,-12.815213392311334,3.2840091036930676
1772561230328370700,8.16137060546875,-7.220564416506886,-16.55642002828717,4.721597144496441
1772561230338436900,8.171436767578125,-22.829093937861916,-11.579030259644984,3.949051806293428
1772561230348503800,8.18150390625,-35.987051092541215,-9.041713675495982,2.623785491812229
1772561230358570800,8.19157080078125,-34.61243096456528,-7.087503269016742,1.3531281348749995
1772561230368636400,8.201636474609375,-36.217284912538524,-2.6523829330042004,1.641760660088062
1772561230378703400,8.211703369140626,-37.59993637127876,2.8098089986830947,1.8696023242518305
1772561230388770300,8.221770263671875,-33.048919080805774,4.8501738400489085,0.0396871366135776
1772561230398836500,8.23183642578125,-26.41327227530479,6.982348950105905,-2.934687716500461
1772561230408903400,8.2419033203125,-20.514148769772053,9.970014515817164,-4.92687889406681
1772561230418970400,8.251970458984376,-12.520595655208826,9.47152606498599,-4.754966914656758
1772561230429036300,8.262036376953125,-6.856856776565313,7.152111058005691,-2.0349296645745634
1772561230439103500,8.272103515625,-4.829360769122839,6.624709816423058,0.39006533938273785
1772561230449170400,8.28217041015625,-2.2203671882510183,7.561962609484791,-0.5156657956033944
1772561230459236400,8.292236328125,0.424257093450427,8.177609705275296,-3.5155291641086337
1772561230469303300,8.30230322265625,1.4727946710020303,8.538496442577243,-5.398996639844775
1772561230479370200,8.312370361328124,1.830450755819678,8.890735763043164,-4.69828582701385
1772561230489436400,8.3224365234375,2.4468127218812703,8.590708275851608,-2.6357582536786794
1772561230499503400,8.33250341796875,4.165343317916989,7.741544685131311,-0.6566364010438323
1772561230509570300,8.3425703125,7.2481275462150565,7.141469252482056,0.8092620076384395
1772561230519636500,8.352636474609374,9.026925271686912,7.234221770459413,1.4989799364857375
1772561230529703400,8.362703369140625,9.12601576051414,7.6483561138242475,1.6373787917420266
1772561230539770400,8.372770263671875,9.112180127385258,8.0088968141675,1.723448470954597
1772561230549836300,8.382836181640625,10.125831684994697,7.341196290534734,1.2696294751942157
1772561230559903500,8.392903564453125,12.178555657196044,6.050589493763447,-0.015806275614723562
1772561230569970400,8.402970458984376,13.56088679794073,5.726749753829837,-0.7739224717751145
1772561230580036400,8.413036376953125,15.102334149408339,4.811465046948194,-0.5244843312226235
1772561230590103300,8.423103271484376,17.208595650529862,4.888103465470671,-1.1212576535865664
1772561230600170500,8.43317041015625,17.032778480374812,5.616880681356787,-1.1502215900033712
1772561230610236400,8.443236328125,16.145892769503593,5.785127708518504,-0.570958643758297
1772561230620303400,8.453303466796875,14.897823968732355,5.550971746641397,0.49733153588101264
1772561230630370300,8.463370361328124,13.783621202093363,4.94802981864512,1.4004546803258358
1772561230640436500,8.4734365234375,13.017793481707573,4.837715340492129,1.8034449677333235
1772561230650503400,8.48350341796875,12.449543512386082,5.068631882056594,1.6851109953843055
1772561230660570400,8.4935703125,10.663199024796485,5.119914325526357,1.3203960780963302
1772561230670636300,8.50363623046875,5.947632392635941,4.340000796642899,1.5912958166114985
1772561230680703500,8.513703369140625,3.8614322672903536,4.738388120299577,0.35018516441509123
1772561230690770400,8.5237705078125,3.959334423115849,5.119203546908498,-2.4916233389884233
1772561230700836400,8.53383642578125,4.811024317443371,4.396390792384744,-3.924994638879597
1772561230710903300,8.5439033203125,5.694569485715031,3.0141432382702824,-3.5831498711779712
1772561230720970500,8.553970458984375,5.804224038654565,2.5727666677147147,-2.9525811005875466
1772561230731036200,8.5640361328125,4.389069655716419,3.2089462639242408,-2.690124050116539
1772561230741103400,8.574103271484375,2.2377660668194292,3.4215468120753765,-3.135134593260288
1772561230751170300,8.58417041015625,1.074042021164298,3.158991854187846,-4.021162225997448
1772561230761236200,8.594236328125,0.8594704652011393,2.966804563990235,-4.58128354166001
1772561230771303400,8.604303466796875,0.4617956737279892,3.164437844634056,-4.455176743352413
1772561230781370400,8.614370361328126,0.7130483163565396,3.216643248167634,-3.7399060747712847
1772561230791436300,8.624436279296875,1.5658224987894296,3.113056616964936,-2.6689222721338273
1772561230801503500,8.63450341796875,2.801848395067453,2.9853105270177123,-1.592806367304921
1772561230811570400,8.6445703125,3.6851609236270186,2.9036551571160554,-0.9049932491656393
1772561230821636000,8.654635986328126,4.194014701128006,2.961971152484417,-0.17792495608925818
1772561230831703300,8.664703369140625,4.2655683637321,2.5009715975701807,0.746721307247132
1772561230841769200,8.674769287109376,4.055421053951979,1.8043056762158869,1.513364874060452
1772561230851836200,8.684836181640625,3.1267186470925807,1.0618991634279489,1.4453357323206961
1772561230861903000,8.694903076171874,1.3846166213333606,-0.19627660533785818,0.9460363304328173
1772561230871969300,8.70496923828125,-0.9064636870443821,-2.317873622757196,0.8492121060371398
1772561230882036200,8.7150361328125,-4.081553858596086,-4.831026071986556,1.0628384901046752
1772561230892103200,8.725103271484375,-7.528285380810499,-6.752726540005207,1.2535026623882353
1772561230902169300,8.73516943359375,-10.576996074593067,-8.115250571995974,1.3031935988828538
1772561230912236300,8.745236328125,-13.361132287359236,-8.779023693051935,0.6919203342624008
1772561230922303200,8.75530322265625,-14.388839842849968,-10.801527299034595,-0.29670458984654396
1772561230932369200,8.765369140625,-11.922600535964966,-14.872764346277712,-1.2423032229818403
1772561230942436000,8.77543603515625,-12.893077553236484,-16.72852548444271,-3.172648915879428
1772561230952503300,8.78550341796875,-21.24357363591194,-13.5870160954535,-2.6035873379141092
1772561230962569200,8.7955693359375,-26.790784568715093,-13.27311731929779,1.3078002158954738
1772561230972636200,8.80563623046875,-24.41197687704563,-13.129766832983494,3.914416253980994
1772561230982703000,8.815703125,-23.377066842830178,-10.714949085777997,4.376787681770325
1772561230992769300,8.825769287109376,-24.509526566171644,-8.901798424327373,4.12317298618555
1772561231002836200,8.835836181640625,-23.36601002676487,-7.3150599787592885,2.395791413565725
1772561231012903200,8.845903076171876,-20.439243458652495,-5.504086661347746,-0.42328649485260245
1772561231022969300,8.85596923828125,-14.404768064343928,-3.343476314923167,-3.7626954142063855
1772561231033036300,8.866036376953126,-7.113548395377397,0.2525380062639713,-4.820010756975412
1772561231043103200,8.876103271484375,-3.1704964140206573,3.9135400556683537,-1.6560621571630239
1772561231053169200,8.886169189453126,-1.6166098522186279,4.905798696637153,3.366301894715428
1772561231063236400,8.896236328125,1.238470366820693,4.949248546785116,5.567509624466299
1772561231073303300,8.90630322265625,6.2981906281471245,6.1614955080688,3.611103169247508
1772561231083369200,8.916369140625,11.238726291644573,7.389809222534298,1.0019421959195285
1772561231093436200,8.926436279296874,13.615951098036765,7.559109558141231,-0.3249511352416128
1772561231103503000,8.936503173828125,12.712279087537526,7.657170119398832,-0.5782086879517883
1772561231113569300,8.9465693359375,10.43228248323202,7.6425453817188735,-0.8090429580602795
1772561231123636200,8.95663623046875,8.324896361994742,7.362899003776907,-2.2286333506844938
1772561231133703200,8.966703125,6.048244391942024,7.158693359005451,-4.635057509684563
1772561231143769300,8.976769287109375,5.492184042108058,7.3433771417051545,-5.85515050829351
1772561231153836300,8.986836181640625,7.211758594238757,6.407734121927619,-4.928419693768024
1772561231163903200,8.9969033203125,10.080028549718856,4.763908930525184,-2.6791224713698027
1772561231173969200,9.00696923828125,12.142509361302851,3.7502258087337017,-0.24831816007923332
1772561231184036400,9.017036376953126,13.152369125413895,3.4787177290618416,1.9685114651627837
1772561231194103300,9.027103271484375,16.64788718262911,3.838057236921787,2.283151999596506
1772561231204169200,9.037169189453126,19.363510415661334,4.988882638037205,1.671378968760371
1772561231214236200,9.047236083984375,19.615843839263913,6.655182111576199,2.0141198085188865
1772561231224303400,9.057303466796874,18.051215518695116,7.913719114869832,3.498630051755905
1772561231234369300,9.067369384765625,14.887910477483272,8.061911195996403,5.241105002480745
1772561231244436200,9.077436279296874,7.41589643447101,6.67254358074367,7.097251925092936
1772561231254503200,9.087503173828125,-1.8612538903623819,4.825010757219792,8.918806257751584
1772561231264569300,9.0975693359375,-3.043024464839697,6.2032566744774575,5.298771594029665
1772561231274636300,9.10763623046875,-0.8628671219021081,8.108080241975188,-1.0789540508642792
1772561231284703200,9.117703125,-0.3123737585455179,7.084226439303159,-4.198005232068896
1772561231294769400,9.127769287109375,-0.5305108980357647,5.260706359529495,-3.46796866377145
1772561231304836400,9.13783642578125,0.15985446186959743,4.3696658670663835,-1.430946118570864
1772561231314903300,9.1479033203125,2.175053882318735,4.312419546756148,-0.02961467367680743
1772561231324969200,9.15796923828125,4.391551535660028,3.413555228799581,0.35518352069165554
1772561231335036200,9.1680361328125,5.750684171646833,2.279683300572634,-0.19512122475765645
1772561231345103400,9.178103271484375,5.171864292994141,2.1859274507716298,-1.4969503303542733
1772561231355169300,9.188169189453125,2.539076579558849,3.1878707426697015,-3.19265768468529
1772561231365236200,9.198236328125,-0.8528302965342998,4.114868975959718,-4.313280547499656
1772561231375304000,9.208303955078126,-3.369125719964504,4.429153244301676,-4.922769120660424
1772561231385370000,9.2183701171875,-3.3970676198571916,3.9657162331074476,-5.3052136097759
1772561231395437000,9.22843701171875,-1.0648685346275568,3.4271564686506983,-5.497227881494164
1772561231405504000,9.23850390625,1.8248855229079721,3.0268846464216708,-4.938887311768531
1772561231415570000,9.24856982421875,4.3530859036654235,2.9051158773183823,-3.619441374003887
1772561231425637000,9.25863720703125,5.984772913506626,2.886240496456623,-1.6693956859886645
1772561231435704000,9.2687041015625,7.0796508019506925,2.0286501459136606,0.25465192967802286
1772561231445770000,9.27877001953125,7.479359145078063,0.35759295645356176,1.51799370290488
1772561231455837000,9.2888369140625,7.59648622585535,-1.4307704697430133,2.000011495928466
1772561231465903000,9.298903076171875,7.375458625620603,-2.9363839990243314,2.202642730990052
1772561231475970000,9.308969970703124,4.824054479408264,-4.8696375421926374,2.7683281105205415
1772561231486037000,9.319037109375,0.6741647512108088,-8.420498424184322,3.2295857318490744
1772561231496103200,9.329103271484374,-4.973907187223434,-12.246107682943343,3.214699128362536
1772561231506170000,9.339170166015625,-11.448679540157318,-15.721762517303228,3.5812916760906575
1772561231516237000,9.349237060546875,-15.17948870075941,-19.68488055061102,5.770407109248638
1772561231526303000,9.359302978515625,-13.51631583480835,-24.745605605065823,8.329056988805531
1772561231536370000,9.369369873046875,-13.676267911833524,-26.772372129189968,6.900899331909418
1772561231546437000,9.37943701171875,-27.964322152376173,-21.39307095441818,4.451994606184959
1772561231556504000,9.389504150390625,-41.7349611232996,-11.64612168214321,7.210749709457159
1772561231566571000,9.399571044921874,-42.151089270830155,-5.636694219851494,13.745381780070066
1772561231576637000,9.409636962890625,-37.573263468408584,-4.469449306593835,20.04033298790455
1772561231586704100,9.4197041015625,-31.493373061358927,-5.896352871775627,20.594335820686815
1772561231596771000,9.42977099609375,-23.873398407888413,-6.287210968971252,14.392666123139858
1772561231606837000,9.4398369140625,-22.669900570249556,-4.148402412249148,8.966434270367026
1772561231616904000,9.449904052734375,-24.08984686363935,-2.7747292097344993,6.474172048953175
1772561231626971000,9.459970947265624,-20.441036771810055,-2.129939898350835,3.164799371422827
1772561231637037000,9.470037109375,-15.055386520272492,2.281774719893932,-1.0155176437422633
1772561231647104000,9.48010400390625,-9.719165777814387,7.05550478720963,-3.754652685265243
1772561231657171000,9.4901708984375,-2.2723294306784867,8.296426054313779,-5.798108770644665
1772561231667237000,9.500237060546874,8.333962296503781,9.294974735337496,-6.359415788960456
1772561231677304000,9.510303955078125,17.46561226351261,11.02626895135641,-3.2885829874798653
1772561231687371000,9.52037109375,20.496540632367132,12.150311559486388,1.4307190318167209
1772561231697437000,9.53043701171875,19.849792880392073,14.25053144235611,4.81712380336225
1772561231707504000,9.540504150390625,20.452170744764803,15.88313848965168,2.4328612072877585
1772561231717571000,9.550571044921876,20.108579425656796,17.590072171396017,-1.6371464442908763
1772561231727637000,9.560636962890625,18.055798170310258,17.35855824846029,-4.922333067330718
1772561231737704000,9.570703857421876,15.077276865041256,17.43353019507527,-6.097655196321011
1772561231747771100,9.580771240234375,11.735948668062687,17.518831812524795,-5.224535560473799
1772561231757837000,9.590837158203126,8.204580714309214,13.680204082238673,-3.920762992659211
1772561231767904000,9.600904052734375,9.044338178780674,10.409067611861229,-3.3954742131859064
1772561231777971000,9.610970947265624,12.051658293032645,10.959710612821578,-4.479580532246827
1772561231788037000,9.621037109375,12.625579293727874,10.676696804273128,-4.020230498105287
1772561231798104000,9.63110400390625,15.315086088728904,9.975270536649226,-3.3998131191730496
1772561231808171000,9.6411708984375,17.311348753517866,11.091729557782411,-2.3108247271589932
1772561231818237200,9.6512373046875,18.509653698688744,11.37948150076866,-1.3081012446686624
1772561231828304100,9.66130419921875,18.471646916377544,12.14445348110795,-0.7509852483019233
1772561231838371000,9.67137109375,17.002728210026024,13.034227899158001,-0.359818377418071
1772561231848437000,9.68143701171875,15.588890170383452,13.234681497919558,0.06889028861373662
1772561231858504000,9.69150390625,14.087104967218636,12.645686846733092,-0.010103899254649877
1772561231868571100,9.701571044921875,7.372979083764553,10.67971527531147,-1.0355750739954412
1772561231878637000,9.711636962890625,-0.44247547170817847,8.271642326191067,-2.033195534258336
1772561231888704000,9.7217041015625,-0.883572640800476,8.257247305613756,-6.730426445391774
1772561231898771000,9.73177099609375,0.4370774120569229,7.958077312034368,-11.366816080462932
1772561231908837000,9.741837158203126,-0.39832594885826106,7.9223525031805035,-10.635263554644585
1772561231918904000,9.751904052734375,-3.6023593062996864,7.563820804572105,-7.057236725568771
1772561231928971000,9.761970947265626,-5.006763747164607,6.936301484680175,-5.024924842277169
1772561231939037200,9.772037109375,-4.2245068700253965,5.8238996299833055,-5.295197827196121
1772561231949104000,9.782104248046876,-4.6448581882089375,3.7128152387499807,-6.12542583130002
1772561231959171000,9.792171142578125,-5.453970923569798,1.0597058911673725,-6.6463283585131165
1772561231969237000,9.802237060546876,-5.210309466722607,-1.577209569722414,-6.780550950998068
1772561231979304200,9.81230419921875,-3.4777129359334706,-3.8346570730894802,-5.560490101093054
1772561231989371100,9.82237109375,0.4523825332164764,-6.119667121642828,-2.609407714630663
1772561231999437000,9.83243701171875,5.462590283355117,-7.935340579569339,1.5036194328546524
1772561232009504000,9.84250390625,9.688157476088405,-9.925326648306847,5.845567856433988
1772561232019571000,9.852571044921875,12.682754886889457,-12.103692431652545,9.328411725515126
1772561232029637000,9.86263720703125,13.954527219331263,-11.0527711738348,11.307580632162093
1772561232039704000,9.8727041015625,13.357999250030517,-9.263255654993653,13.307349259245395
1772561232049771000,9.88277099609375,9.877070859181881,-7.09905225251317,16.288268273305892
1772561232059837200,9.892837158203125,4.273268270584941,-6.403340270882844,17.794478307175634
1772561232069904100,9.902904052734375,-0.5543868636637925,-5.55051874217689,18.029062139075993
1772561232079971000,9.91297119140625,-7.453153859719634,-5.476307258540392,17.47615119318366
1772561232090037000,9.923037109375,-16.312006876289843,-7.675833903336525,15.766029529052972
1772561232100104200,9.933104248046876,-21.870246568107603,-12.128380298185348,13.042090887618064
1772561232110171100,9.943171142578125,-23.936262568080423,-17.902315581560135,12.250602656275033
1772561232120237000,9.953237060546876,-21.311995430231093,-24.202601136159895,14.949242021280526
1772561232130304000,9.963303955078125,-21.657807932519912,-24.739444744348525,13.823320759797095
1772561232140371200,9.97337109375,-40.02038072619438,-18.019217621409894,9.175459298118948
1772561232150437000,9.98343701171875,-55.51260500454902,-9.391727136605978,4.73626542905718
1772561232160504000,9.993504150390624,-58.72454811220169,-0.5777648166418076,3.8169495669633147
1772561232170571000,10.003571044921875,-61.06114397108554,7.990680189475417,5.264198293298483
1772561232180637200,10.01363720703125,-57.84329485425949,15.72645622807741,2.7308997126191854
1772561232190704000,10.0237041015625,-46.44248999495506,16.653622511410713,-5.1953369385182855
1772561232200771000,10.03377099609375,-32.89818725206852,13.296854753237962,-11.907699903953075
1772561232210837200,10.043837158203125,-17.87110445073843,10.153791705065965,-12.598935616952181
1772561232220904200,10.053904296875,-5.572085846340656,8.973582973077892,-9.272582286265491
1772561232230971100,10.06397119140625,2.3872937804639336,8.61977830299139,-6.419205948534607
1772561232241037000,10.074037109375,11.47636951111555,9.36674934721589,-6.335055839207768
1772561232251104000,10.08410400390625,17.646355784153936,9.83824223909378,-6.986556923189759
1772561232261171200,10.094171142578125,19.317330848288535,11.201798536741732,-6.432395684975385
1772561232271237000,10.104237060546875,23.374349985086916,12.276669994467497,-8.599400116351246
1772561232281304000,10.114303955078125,25.329830557632445,13.26243225915432,-8.983816782322526
1772561232291371000,10.12437109375,23.914305587816237,13.919243139982223,-6.733795045042037
1772561232301437200,10.134437255859375,21.493964108753204,15.40036198721528,-2.4380565839737653
1772561232311504100,10.144504150390626,19.27381202455759,16.24566130372286,0.7202548867344856
1772561232321571000,10.154571044921875,18.14494360370636,15.214992560338974,1.5293084392540155
1772561232331637200,10.16463720703125,18.169823193418978,12.354314375162124,0.7098714398860931
1772561232341704200,10.1747041015625,19.624910942816733,9.02991159402132,-0.07705898202210665
1772561232351771100,10.184771240234374,21.787216402721405,7.862177143681049,-0.525081274202466
1772561232361837000,10.194837158203125,22.94419565029144,8.10803932544291,-1.1173705830201506
1772561232371904000,10.204904052734374,22.30523139179945,8.47270148963034,-1.2189077343471348
1772561232381971000,10.214970947265625,19.96921771671772,8.808342141994833,-0.6096000707112252
1772561232392036900,10.225036865234374,17.136393168628214,8.595913443279265,-0.4323601742766797
1772561232402103800,10.235103759765625,13.99373694769144,8.451545888876915,-0.6625469402618706
1772561232412171000,10.2451708984375,5.21368040446043,7.92744953405857,0.20846023347601295
1772561232422237000,10.25523681640625,-2.57486510129869,7.119169157868623,1.3814632718689739
1772561232432303900,10.265303955078124,-1.7608932354688642,7.837368865638971,-1.99369135299623
1772561232442370800,10.275370849609375,0.07585808179974556,7.190009703767299,-4.526339360812306
1772561232452437000,10.28543701171875,0.204410227432847,5.923228603741526,-2.4281762643419205
1772561232462504000,10.29550390625,0.7893477121829986,5.422214433825015,1.0381605604439974
1772561232472571000,10.30557080078125,2.739783276298642,4.918233815318346,2.6436206576168537
1772561232482637000,10.315636962890625,4.785694645875692,3.3158474265024065,2.70940625821352
1772561232492704000,10.3257041015625,5.272169418308138,1.2229761528298257,1.2567954203233123
1772561232502771000,10.33577099609375,4.977172911021113,-0.2088549318820238,-0.8592219703327864
1772561232512836900,10.3458369140625,4.3627129791885615,-0.8807650360338389,-2.3528188255406914
1772561232522903800,10.35590380859375,2.364792025798559,-1.2654437139421701,-2.867924210782349
1772561232532971000,10.365970947265625,0.1666869382381439,-1.5619696227535604,-2.680642228282988
1772561232543037000,10.376036865234376,-1.3346943603008985,-1.8989007533200084,-1.8637809246219694
1772561232553104000,10.386103759765625,-2.083362271571159,-2.545029642744362,-0.7662417080141604
1772561232563170800,10.3961708984375,-2.3008909237742423,-2.997534633296728,0.7690053275085985
1772561232573237000,10.406237060546875,-2.004085321238637,-3.4621997249811884,2.3194519779898224
1772561232583304000,10.416303955078124,-2.0875708291769026,-4.069072854946554,3.0670877697333694
1772561232593371000,10.426370849609375,-1.9000152904331682,-4.980549693977832,2.9742393901661037
1772561232603437000,10.43643701171875,-1.5822428877145052,-5.801905824840069,2.6797838578879833
1772561232613504000,10.44650390625,-1.654911233562231,-5.866051841536164,3.0109035256966945
1772561232623571000,10.456571044921875,-1.822899317526817,-5.888712001633643,3.5182547896802423
1772561232633636900,10.466636962890625,-1.7341542816251516,-5.8498073936998845,4.082645745486021
1772561232643704000,10.4767041015625,-1.472181507539749,-5.374212327200174,4.167163519081473
1772561232653771000,10.48677099609375,-2.42676420558691,-4.566557681693136,2.813111255098879
1772561232663837000,10.4968369140625,-4.793657003057003,-3.644999301369488,-0.024880247299745677
1772561232673903900,10.50690380859375,-5.574679954487085,-3.876235868668556,-2.238628528867662
1772561232683970800,10.516970703125,-2.18739080132246,-5.372711274987459,-3.0418893233299253
1772561232694037000,10.527037109375,4.029322736099362,-7.905726362550258,-2.4599054276883603
1772561232704104000,10.53710400390625,4.115697535738349,-9.32917043492794,-3.4016713142603634
1772561232714171000,10.5471708984375,-3.51505102520287,-8.161549966356159,-4.498422887621819
1772561232724236800,10.55723681640625,-13.125063769859075,-4.938459441745281,-4.201963322044909
1772561232734304000,10.567303955078126,-21.15223858351707,-0.6870920373231172,-5.501193862515688
1772561232744371000,10.577370849609375,-26.588390357279778,1.6813333765417335,-9.593865327453612
1772561232754436600,10.5874365234375,-27.899536084210872,1.9253209966033695,-13.354566937494278
1772561232764504000,10.597504150390625,-23.949893618547915,0.5587456433951854,-14.336389524644613
1772561232774571000,10.607571044921874,-17.972785540580748,-0.6681783702775835,-12.395097636449336
1772561232784636700,10.61763671875,-12.869352978777885,-0.8084449191018939,-9.231246651792526
1772561232794704000,10.627703857421874,-9.558394201099873,-0.5351686607137323,-6.85427026720345
1772561232804771000,10.63777099609375,-6.990009109470248,-0.29382863255143166,-5.370903933304548
1772561232814836700,10.647836669921874,-5.450981094104051,-0.5870210130259395,-4.725755433219671
1772561232824903700,10.657903564453125,-4.96725708168447,-1.6312994718283413,-5.20407437172532
1772561232834971000,10.667970947265625,-3.0891870810776947,-0.40421763724535703,-4.389367177358269
1772561232845036800,10.678036865234375,-2.4758149444818494,0.5486369218349456,-3.1479069810718294
1772561232855103700,10.688103759765625,-4.643303944504261,0.8823197181299328,-0.9656126261055469
1772561232865171000,10.6981708984375,-3.8979374128669497,3.118479811057448,-0.5510062813147902
1772561232875236900,10.70823681640625,-4.516600641608238,4.34971730401516,-1.0290276981785893
1772561232885303800,10.7183037109375,-5.822433649083972,3.4929531751632688,-1.9659896916002033
1772561232895371000,10.72837109375,0.22448037103712556,2.42415314630568,-1.2749036162048577
1772561232905436700,10.738436767578126,5.026386731523275,0.6433008263915777,1.3397754629574716
1772561232915503600,10.748503662109375,-2.958294509798288,-0.26002543940991163,1.656931779604405
1772561232925571000,10.758571044921876,-1.602176253196597,0.4749260811969638,1.0424828075572847
1772561232935636700,10.76863671875,-0.4042190985500812,0.7267939331144094,0.3691197281181812
1772561232945703700,10.77870361328125,-1.4721119494348764,0.5772852164313197,-0.3107996410965919
1772561232955770600,10.7887705078125,-1.0905652859419583,0.7836752195045351,-0.5126034854233265
1772561232965836800,10.7988369140625,0.18407704897820948,1.196501987402141,-0.19464944252744315
1772561232975903700,10.80890380859375,1.9418916076540946,1.3788356998443603,0.22535043186992407
1772561232985970700,10.818970703125,3.935059813559055,1.6194672874763607,0.3337124607808888
1772561232996036900,10.829036865234375,5.281539304199814,1.8231407250672578,0.4082406091511249
1772561233006103800,10.839103759765624,5.437075318348407,2.1303581237629055,0.7316917881585657
1772561233016170800,10.849170654296875,5.170792864370346,2.4418533459082243,1.1325411180146039
1772561233026236700,10.859236572265624,4.826946109196544,2.7818668065294623,1.3613048654593527
1772561233036304000,10.869303955078125,4.687335978454351,3.0895588369995353,1.3881746060758828
1772561233046370800,10.879370849609375,4.959947635453939,3.2276658697023985,1.4533458741664886
1772561233056436700,10.889436767578125,4.8737347483783955,3.0734228179737926,1.5352236546471714
1772561233066503700,10.899503662109375,4.68679646475017,2.8977646377727386,1.5423720650970936
1772561233076570600,10.909570556640626,3.9566578973829745,2.866545615905523,1.29337669987604
1772561233086636800,10.91963671875,2.8613001164674756,2.7892326591223475,0.6755240568652748
1772561233096703700,10.929703857421876,2.2430641732275483,2.6075252618849274,0.11912267504129558
1772561233106770700,10.939770751953125,1.900825437772274,2.5618068822830913,-0.2483213384170085
1772561233116837600,10.949837646484376,1.6282576199144123,2.57443489318788,-0.3937545127568766
1772561233126903800,10.95990380859375,1.4391642040789125,2.4387258615374563,-0.6339879313841462
1772561233136970800,10.969970703125,1.3518284504532814,2.1454455105185506,-0.9812719675302505
1772561233147037700,10.98003759765625,0.1087169798284769,2.2666952241837977,-1.07267657802999
1772561233157103900,10.990103759765624,-1.0664823995649815,2.420305238705873,-0.24801698517557233
1772561233167170800,11.0001708984375,-0.7717167784243821,1.9807845251500604,1.070280988130346
1772561233177237800,11.01023779296875,1.4908493831306695,1.4836089104831218,1.7360804273821413
1772561233187303700,11.0203037109375,3.317903482249379,0.9512678744107484,1.716715947829187
1772561233197371000,11.030370849609374,3.246046452784538,0.5103519071042537,1.5580343291312455
1772561233207437800,11.040437744140625,2.4856378348380326,0.5382727642089128,1.1991443916697055
1772561233217503700,11.050503662109374,1.4169640627086162,0.8884446307510137,0.873480139722675
1772561233227570700,11.06057080078125,0.07671031471490859,1.044597315493226,0.6194666540786623
1772561233237637600,11.0706376953125,-1.1235627156585455,1.3951011904686688,0.16064247044213115
1772561233247703800,11.080703857421875,-2.080111745342612,1.8226935658216474,-0.3877278728784993
1772561233257770800,11.090770751953125,-2.6695933032631873,2.0813234592199326,-0.7901816787891089
1772561233267837700,11.100837646484376,-2.980244475799799,1.985979755705595,-1.0579743911996484
1772561233277904000,11.11090380859375,-2.5914362968713043,1.7555717481851576,-1.2556141015842557
1772561233287970800,11.120970703125,-1.5752596046984195,1.456959388488531,-1.2194753781672567
1772561233298037800,11.131037841796875,-0.28740999768078324,0.9900561624884605,-0.8845836444739252
1772561233308103700,11.141103759765626,0.8765057711541652,0.6171294433027505,-0.5851571188502014
1772561233318171000,11.1511708984375,1.693505460372567,0.3841355109423399,-0.3550116347234696
1772561233328237800,11.16123779296875,1.8739695795506237,0.17900515254139898,-0.3215271521423012
1772561233338303700,11.1713037109375,1.450853472828865,0.13056056284606457,-0.3880242620091885
1772561233348370700,11.18137060546875,1.229493864160776,0.3221305979281664,-0.40843291685283184
1772561233358438000,11.19143798828125,1.538141295659542,0.5801105029851198,-0.18428309294432402
1772561233368503600,11.201503662109374,2.130492856058478,0.4251210168033838,0.41005861835852264
1772561233378570500,11.211570556640625,2.227111401814222,0.3202227184802294,1.049811104618758
1772561233388637400,11.221637451171874,2.7034067255377767,0.1475380011320114,1.336340812333673
1772561233398703600,11.23170361328125,3.1543297075957057,-0.11144377444386482,1.2205123930647968
1772561233408770600,11.2417705078125,3.1128917817920443,-0.32844460338056086,0.85568122898601
1772561233418837500,11.25183740234375,2.875941805282235,-0.5997808336168527,0.3975405706342309
1772561233428903700,11.261903564453124,3.214069013765454,-1.0547668273299933,0.013388766144216059
1772561233438970600,11.271970703125,3.298660437119007,-1.451498784995079,-0.17947182020507751
