time,seconds_elapsed,z,y,x
1772561222244851700,0.077851806640625,-0.17003729939460754,-0.09860645979642868,-0.12336622178554535
1772561222254918700,0.087918701171875,-0.19668062031269073,-0.060900621116161346,-0.09369860589504242
1772561222264984600,0.097984619140625,-0.20748351514339447,-0.06762225180864334,-0.06964198499917984
1772561222275051500,0.108051513671875,-0.2007257342338562,-0.1001700758934021,-0.04692894592881203
1772561222285117700,0.11811767578125,-0.18988198041915894,-0.10751163214445114,-0.02730685845017433
1772561222295184600,0.1281845703125,-0.1890244483947754,-0.09385174512863159,-0.010534536093473434
1772561222305251600,0.13825146484375,-0.19078919291496277,-0.07087766379117966,-0.0028776139952242374
1772561222315317500,0.1483173828125,-0.18805013597011566,-0.06190040707588196,-0.0036978675052523613
1772561222325384700,0.158384765625,-0.1712573915719986,-0.07682064920663834,-0.018693014979362488
1772561222335451600,0.16845166015625,-0.14215649664402008,-0.08148756623268127,-0.037570565938949585
1772561222345517600,0.178517578125,-0.11357365548610687,-0.036460764706134796,-0.04640238732099533
1772561222355584500,0.18858447265625,-0.09120869636535645,0.005120231769979,-0.06360214948654175
1772561222365651700,0.198651611328125,-0.07621174305677414,-0.012643231078982353,-0.11347643285989761
1772561222375717600,0.208717529296875,-0.035583626478910446,0.010833598673343658,-0.1705322563648224
1772561222385784600,0.21878466796875,0.020289484411478043,0.10888145118951797,-0.21615687012672424
1772561222395851500,0.2288515625,-0.02268754318356514,0.3653622567653656,-0.2271575927734375
1772561222405917700,0.238917724609375,-0.18639549612998962,0.6850184798240662,-0.1968134194612503
1772561222415984600,0.248984619140625,-0.3469524085521698,0.7837908267974854,-0.14235790073871613
1772561222426050600,0.259050537109375,-0.42175590991973877,0.6496286392211914,-0.08562027662992477
1772561222436117800,0.26911767578125,-0.4493046998977661,0.45432785153388977,-0.04933443292975426
1772561222446184700,0.279184814453125,-0.4375676214694977,0.2464526742696762,-0.0737079530954361
1772561222456250600,0.289250732421875,-0.3655379116535187,-0.10114363580942154,-0.1303645819425583
1772561222466317600,0.299317626953125,-0.26294800639152527,-0.639074444770813,-0.23437798023223877
1772561222476384500,0.309384521484375,-0.15481887757778168,-1.163253664970398,-0.3428182005882263
1772561222486450700,0.31945068359375,0.006110024638473988,-1.6580322980880737,-0.42115649580955505
1772561222496517600,0.329517578125,0.2600104808807373,-2.1048405170440674,-0.4980728328227997
1772561222506584600,0.33958447265625,0.3693368136882782,-2.0549774169921875,-0.604651689529419
1772561222516650500,0.349650390625,0.34196484088897705,-1.556860089302063,-0.6085702180862427
1772561222526717700,0.3597177734375,0.24994370341300964,-0.988725483417511,-0.5202392339706421
1772561222536783400,0.369783447265625,0.1491883248090744,-0.5629749894142151,-0.418030321598053
1772561222546850600,0.3798505859375,0.058203697204589844,-0.3844088613986969,-0.3229093551635742
1772561222556917800,0.389917724609375,-0.020456762984395027,-0.4039143919944763,-0.2640116810798645
1772561222566983400,0.3999833984375,-0.07235345989465714,-0.46272918581962585,-0.2524873912334442
1772561222577050400,0.41005029296875,-0.016677413135766983,-0.0910848006606102,-0.2864363193511963
1772561222587117600,0.42011767578125,0.2199544757604599,-0.23033124208450317,-0.2602400779724121
1772561222597183500,0.43018359375,0.612455427646637,-0.5080531239509583,-0.2871555685997009
1772561222607250400,0.44025048828125,0.9946373105049133,-0.5211867690086365,-0.28874877095222473
1772561222617317400,0.4503173828125,1.2031117677688599,-0.05654772371053696,-0.24450887739658356
1772561222627383600,0.460383544921875,1.19606351852417,0.6734941601753235,-0.14992839097976685
1772561222637450500,0.470450439453125,1.0458985567092896,1.35808265209198,-0.011159326881170273
1772561222647516400,0.480516357421875,0.8086012005805969,1.837344765663147,0.08100807666778564
1772561222657583400,0.490583251953125,0.5636169910430908,1.933349609375,0.0416092723608017
1772561222667650600,0.500650634765625,0.4075816571712494,1.5452269315719604,-0.035547468811273575
1772561222677716500,0.510716552734375,0.32787004113197327,1.0346752405166626,-0.00483323261141777
1772561222687783400,0.520783447265625,0.24932710826396942,0.5599691867828369,0.09583010524511337
1772561222697850400,0.530850341796875,0.16493526101112366,0.0966307669878006,0.21845215559005737
1772561222707916500,0.54091650390625,0.07399661839008331,-0.1765865981578827,0.38292762637138367
1772561222717983500,0.5509833984375,-0.059628017246723175,-0.18469512462615967,0.6119352579116821
1772561222728050400,0.561050537109375,-0.25232070684432983,0.09535437822341919,0.918498694896698
1772561222738116600,0.57111669921875,-0.4583822786808014,0.3167901039123535,1.2351776361465454
1772561222748183600,0.58118359375,-0.646348237991333,0.08503788709640503,1.4822666645050049
1772561222758250500,0.59125048828125,-0.8674521446228027,-0.545807957649231,1.6208927631378174
1772561222768316400,0.60131640625,-1.1103487014770508,-1.089028000831604,1.71625816822052
1772561222778383600,0.611383544921875,-1.3225464820861816,-1.3078380823135376,1.828709602355957
1772561222788449500,0.621449462890625,-1.424107313156128,-1.3906292915344238,1.9081227779388428
1772561222798516500,0.6315166015625,-1.284252643585205,-1.3371559381484985,1.8135366439819336
1772561222808583400,0.64158349609375,-1.0163366794586182,-1.1759912967681885,1.6993422508239746
1772561222818649600,0.651649658203125,-0.7328008413314819,-0.7822000980377197,1.4991517066955566
1772561222828716500,0.661716552734375,-0.5159385204315186,-0.44551995396614075,1.2152611017227173
1772561222838783500,0.671783447265625,-0.362023264169693,-0.2417284995317459,0.8759831190109253
1772561222848849400,0.681849365234375,-0.2174345701932907,-0.04719147831201553,0.5117623805999756
1772561222858916600,0.69191650390625,-0.10344593971967697,0.17150624096393585,0.16543585062026978
1772561222868983600,0.701983642578125,-0.023453667759895325,0.3397098183631897,-0.13771255314350128
1772561222879049500,0.712049560546875,-0.020386505872011185,0.3549090027809143,-0.4131001830101013
1772561222889116400,0.722116455078125,-0.08387501537799835,0.46314895153045654,-0.6232969164848328
1772561222899182600,0.7321826171875,-0.18360000848770142,0.8208516836166382,-0.7721817493438721
1772561222909249500,0.74224951171875,-0.28014084696769714,1.2724239826202393,-0.8861691951751709
1772561222919316500,0.75231640625,-0.3171904683113098,1.6687132120132446,-0.969911515712738
1772561222929382700,0.762382568359375,-0.2687247395515442,1.933268666267395,-1.0010294914245605
1772561222939449600,0.77244970703125,-0.17368264496326447,1.9999654293060303,-0.9765313267707825
1772561222949516500,0.7825166015625,-0.11579740047454834,1.8375732898712158,-0.9123045802116394
1772561222959582500,0.79258251953125,-0.10123524069786072,1.6285969018936157,-0.7656331062316895
1772561222969649700,0.802649658203125,-0.09960521757602692,1.4595599174499512,-0.5589953064918518
1772561222979716600,0.812716552734375,-0.07424873113632202,1.3427835702896118,-0.3544347286224365
1772561222989782500,0.822782470703125,-0.01790132001042366,1.231607437133789,-0.158084899187088
1772561222999849500,0.832849365234375,0.061980463564395905,1.084209680557251,0.025109153240919113
1772561223009915600,0.84291552734375,0.17127862572669983,1.0269825458526611,0.16485312581062317
1772561223019982600,0.852982666015625,0.31109297275543213,1.0720189809799194,0.2614284157752991
1772561223030049500,0.863049560546875,0.41073909401893616,1.1085388660430908,0.2867782413959503
1772561223040115700,0.87311572265625,0.42746880650520325,1.0673598051071167,0.2751692533493042
1772561223050182700,0.8831826171875,0.35537564754486084,1.0140639543533325,0.2282729148864746
1772561223060249600,0.89324951171875,0.2494627833366394,1.0923550128936768,0.18867917358875275
1772561223070315500,0.9033154296875,0.1456061750650406,1.2516422271728516,0.11219796538352966
1772561223080382500,0.913382568359375,0.07222117483615875,1.43253493309021,-0.010964183136820793
1772561223090449700,0.92344970703125,0.040277332067489624,1.5917619466781616,-0.1285930871963501
1772561223100515600,0.933515625,0.015610868111252785,1.6852716207504272,-0.21365737915039062
1772561223110582500,0.94358251953125,-0.030356107279658318,1.609970211982727,-0.24503205716609955
1772561223120648700,0.953648681640625,-0.10798538476228714,1.240779161453247,-0.24185144901275635
1772561223130715600,0.963715576171875,-0.1933862864971161,0.37407028675079346,-0.3452240526676178
1772561223140782600,0.973782470703125,-0.14630933105945587,-0.10695440322160721,-0.41908761858940125
1772561223150848500,0.9838486328125,-0.0555412620306015,-0.3022618591785431,-0.4532063603401184
1772561223160915700,0.993915771484375,-0.04975075274705887,-0.5209649205207825,-0.4663299024105072
1772561223170982700,1.003982666015625,-0.12936469912528992,-0.8510128259658813,-0.46335896849632263
1772561223181048600,1.014048583984375,-0.2291402965784073,-1.227728247642517,-0.4566507041454315
1772561223191115500,1.024115478515625,-0.28530755639076233,-1.5523000955581665,-0.4698098599910736
1772561223201182700,1.0341826171875,-0.20050795376300812,-1.5159037113189697,-0.5338333249092102
1772561223211248600,1.04424853515625,0.0047134459018707275,-1.1976090669631958,-0.6508570313453674
1772561223221315600,1.054315673828125,0.1600513607263565,-0.8607777953147888,-0.7385669350624084
1772561223231381800,1.0643818359375,0.2298549860715866,-0.6461294889450073,-0.7560129165649414
1772561223241448700,1.07444873046875,0.2158249169588089,-0.5822895169258118,-0.6980284452438354
1772561223251515600,1.084515625,0.13744895160198212,-0.7106344699859619,-0.634429395198822
1772561223261581600,1.09458154296875,-0.019536657258868217,-1.1807042360305786,-0.6474642753601074
1772561223271648800,1.104648681640625,-0.1499081701040268,-1.633336067199707,-0.7017404437065125
1772561223281715700,1.1147158203125,-0.10884728282690048,-1.8442978858947754,-0.6626862287521362
1772561223291781600,1.12478173828125,-0.0013293984811753035,-1.7843639850616455,-0.49025800824165344
1772561223301848600,1.1348486328125,0.07472595572471619,-1.274677038192749,-0.1460297852754593
1772561223311915500,1.14491552734375,0.059072721749544144,-0.8419343829154968,0.2787488102912903
1772561223321981700,1.154981689453125,-0.027740467339754105,-0.35767045617103577,0.806128978729248
1772561223332048600,1.165048583984375,-0.111759714782238,0.026302697136998177,1.429019570350647
1772561223342114600,1.175114501953125,-0.25547826290130615,0.1627257764339447,2.063307285308838
1772561223352181800,1.185181640625,-0.4428502321243286,0.030386907979846,2.635512351989746
1772561223362248400,1.19524853515625,-0.6656270623207092,-0.385721892118454,3.0008583068847656
1772561223372314400,1.205314453125,-0.9558154344558716,-0.9206509590148926,3.097259998321533
1772561223382381300,1.21538134765625,-1.2850457429885864,-1.379757285118103,3.0611302852630615
1772561223392448500,1.225448486328125,-1.3853232860565186,-0.9539807438850403,3.2263357639312744
1772561223402514400,1.235514404296875,-1.2493185997009277,-0.24426564574241638,3.41947078704834
1772561223412581400,1.245581298828125,-1.0759779214859009,0.30888915061950684,3.4412882328033447
1772561223422648300,1.2556484375,-0.9100105166435242,0.3697999119758606,3.1885316371917725
1772561223432714500,1.265714599609375,-0.675484299659729,0.3652247488498688,2.7977852821350098
1772561223442781400,1.275781494140625,-0.34797194600105286,0.5357192754745483,2.39375901222229
1772561223452847400,1.285847412109375,-0.08488848060369492,0.35432031750679016,1.8911120891571045
1772561223462914600,1.29591455078125,0.07597896456718445,1.403396725654602,1.0112923383712769
1772561223472981500,1.3059814453125,0.5533004403114319,2.2754967212677,0.0826796293258667
1772561223483047400,1.31604736328125,1.4226970672607422,2.5673410892486572,-0.5848938822746277
1772561223493114400,1.3261142578125,2.342270851135254,2.7419447898864746,-0.9211615324020386
1772561223503181600,1.336181640625,3.0704903602600098,2.552959442138672,-0.9847399592399597
1772561223513247500,1.34624755859375,3.6110260486602783,2.1320111751556396,-0.9596089124679565
1772561223523314400,1.356314453125,3.988516092300415,0.5649948120117188,-0.7412760853767395
1772561223533381400,1.36638134765625,4.0397491455078125,-0.9886149168014526,-0.4000270366668701
1772561223543447600,1.376447509765625,3.376533269882202,-2.431825637817383,0.03242185711860657
1772561223553514500,1.386514404296875,2.205430269241333,-3.21127986907959,0.29081210494041443
1772561223563581400,1.39658154296875,1.572529911994934,-3.608581066131592,0.24548617005348206
1772561223573647600,1.406647705078125,1.6734613180160522,-3.448336362838745,-0.29136520624160767
1772561223583714600,1.416714599609375,1.9188088178634644,-2.7775473594665527,-1.0874749422073364
1772561223593780500,1.426780517578125,2.074525833129883,-2.3478331565856934,-1.8955568075180054
1772561223603847400,1.436847412109375,2.1709799766540527,-2.3871636390686035,-2.43727970123291
1772561223613914400,1.446914306640625,2.0555660724639893,-2.421973943710327,-2.4043569564819336
1772561223623980500,1.45698046875,1.8093162775039673,-2.4017906188964844,-1.7593297958374023
1772561223634047500,1.467047607421875,1.4800916910171509,-2.4803295135498047,-0.7675901055335999
1772561223644114400,1.477114501953125,1.0594395399093628,-2.6305880546569824,0.38758739829063416
1772561223654180600,1.4871806640625,0.47423306107521057,-2.914961338043213,1.2460424900054932
1772561223664247600,1.49724755859375,-0.16108158230781555,-2.8514702320098877,1.7002512216567993
1772561223674314500,1.507314453125,-0.5571861863136292,-2.320502281188965,1.7890194654464722
1772561223684380400,1.51738037109375,-0.6303557753562927,-1.3739076852798462,1.5307258367538452
1772561223694447600,1.527447509765625,-0.48042580485343933,-0.30320101976394653,1.0683646202087402
1772561223704513300,1.53751318359375,-0.2714398205280304,0.567287266254425,0.7623270153999329
1772561223714580500,1.54758056640625,-0.08089739829301834,1.273545265197754,0.8104608654975891
1772561223724647400,1.5576474609375,0.07185965776443481,1.4058974981307983,1.19734525680542
1772561223734713300,1.56771337890625,0.1351551115512848,1.5900202989578247,1.4640504121780396
1772561223744780500,1.577780517578125,0.1956208497285843,1.7613863945007324,1.8036586046218872
1772561223754847500,1.587847412109375,0.3586961328983307,2.122915506362915,2.3442115783691406
1772561223764913400,1.597913330078125,0.3777744770050049,2.2784812450408936,2.8518307209014893
1772561223774980600,1.607980712890625,0.1012033224105835,2.049520254135132,3.0436038970947266
1772561223785047600,1.618047607421875,-0.4427361488342285,1.7434372901916504,2.955925464630127
1772561223795113200,1.62811328125,-0.9487236142158508,1.5429543256759644,2.816514253616333
1772561223805180400,1.638180419921875,-1.199512243270874,1.5432661771774292,2.6481990814208984
1772561223815246300,1.648246337890625,-1.2034281492233276,1.812299370765686,2.3763020038604736
1772561223825313300,1.658313232421875,-1.09529447555542,2.3801026344299316,1.9309027194976807
1772561223835380200,1.668380126953125,-0.8533107042312622,2.8623123168945312,1.4183682203292847
1772561223845446400,1.6784462890625,-0.6147889494895935,2.482644557952881,0.9632489681243896
1772561223855513300,1.688513427734375,-0.5014953017234802,2.1255908012390137,0.4352444112300873
1772561223865580300,1.698580322265625,-0.34268808364868164,2.0417673587799072,-0.10601697862148285
1772561223875646500,1.708646484375,-0.13633933663368225,2.0359015464782715,-0.6433947682380676
1772561223885713400,1.71871337890625,-0.12805505096912384,1.7247332334518433,-1.1275088787078857
1772561223895780400,1.7287802734375,-0.29975178837776184,1.391693115234375,-1.4948011636734009
1772561223905846300,1.73884619140625,-0.5060972571372986,1.0903961658477783,-1.6682767868041992
1772561223915913200,1.748913330078125,-0.7252262234687805,0.919951319694519,-1.6488088369369507
1772561223925980400,1.75898046875,-0.880443274974823,0.9303067326545715,-1.4296748638153076
1772561223936046300,1.76904638671875,-0.9116407036781311,1.0327708721160889,-1.1040809154510498
1772561223946113300,1.77911328125,-0.8383398652076721,1.0152180194854736,-0.7432998418807983
1772561223956179500,1.789179443359375,-0.8230398297309875,0.792218029499054,-0.40667492151260376
1772561223966246400,1.799246337890625,-0.9917430877685547,0.484260231256485,-0.03876853734254837
1772561223976313300,1.809313232421875,-1.1825335025787354,-0.1122056320309639,0.3451504707336426
1772561223986379300,1.819379150390625,-1.4677414894104004,-0.9967527389526367,0.5481869578361511
1772561223996446500,1.829446533203125,-1.849522590637207,-1.4941788911819458,0.513612687587738
1772561224006513400,1.839513427734375,-2.1614160537719727,-1.7949273586273193,0.29252102971076965
1772561224016579300,1.849579345703125,-2.332564353942871,-2.1286232471466064,-0.14473028481006622
1772561224026646300,1.859646240234375,-2.300093650817871,-1.988473653793335,-0.7661645412445068
1772561224036713500,1.86971337890625,-2.1656861305236816,-1.4614288806915283,-1.4494863748550415
1772561224046779400,1.879779296875,-1.7308987379074097,-2.646422863006592,-1.0113765001296997
1772561224056846300,1.889846435546875,-2.09500789642334,-2.3487837314605713,-1.3944159746170044
1772561224066912500,1.89991259765625,-2.2946205139160156,-1.123914361000061,-1.8303316831588745
1772561224076979500,1.9099794921875,-2.394735813140869,-0.740614652633667,-1.562610387802124
1772561224087046400,1.92004638671875,-1.9813339710235596,-0.7760016918182373,-0.2520989775657654
1772561224097112300,1.9301123046875,-1.6908646821975708,-0.9941021203994751,1.551010012626648
1772561224107179500,1.940179443359375,-1.6831114292144775,-2.6830224990844727,2.903048515319824
1772561224117246500,1.95024658203125,-1.9034901857376099,-4.812478542327881,3.262430429458618
1772561224127312400,1.9603125,-2.344245672225952,-4.7043137550354,2.87054443359375
1772561224137379300,1.97037939453125,-2.438288927078247,-3.3603663444519043,2.0053203105926514
1772561224147446300,1.9804462890625,-1.7017472982406616,-2.2632381916046143,0.869336724281311
1772561224157512400,1.990512451171875,-0.1960124671459198,-0.5180089473724365,-0.5922616124153137
1772561224167579400,2.000579345703125,1.492181420326233,1.8561344146728516,-2.399338722229004
1772561224177645600,2.0106455078125,2.544930934906006,2.7608189582824707,-3.586132526397705
1772561224187712500,2.02071240234375,2.8609700202941895,3.1341161727905273,-3.9465198516845703
1772561224197779500,2.030779541015625,2.528064727783203,2.5146169662475586,-3.2520225048065186
1772561224207845400,2.040845458984375,1.5861190557479858,1.0599740743637085,-2.251739740371704
1772561224217912300,2.050912353515625,0.6288685202598572,-0.542079746723175,-1.3203848600387573
1772561224227979500,2.0609794921875,0.20414865016937256,-1.9040110111236572,-0.5503270626068115
1772561224238045400,2.07104541015625,0.5459794402122498,-2.9457950592041016,0.04354681447148323
1772561224248112400,2.0811123046875,1.0339235067367554,-3.2866692543029785,0.5312978625297546
1772561224258179300,2.091179443359375,0.9344804883003235,-3.328840494155884,0.5370468497276306
1772561224268245500,2.10124560546875,0.47676804661750793,-3.2267048358917236,0.1435595005750656
1772561224278312400,2.1113125,0.10116606950759888,-2.635573625564575,-0.30980005860328674
1772561224288379400,2.12137939453125,-0.11889225989580154,-1.9907233715057373,-1.0384446382522583
1772561224298445600,2.131445556640625,-0.2267598658800125,-1.2341970205307007,-1.8940036296844482
1772561224308512500,2.141512451171875,-0.33061808347702026,-0.12674646079540253,-2.621720552444458
1772561224318578400,2.151578369140625,-0.36793601512908936,0.8470170497894287,-2.8452329635620117
1772561224328645400,2.161645263671875,-0.42833012342453003,1.2867038249969482,-2.35878586769104
1772561224338712600,2.171712646484375,-0.6430684328079224,1.325905680656433,-1.4267888069152832
1772561224348778500,2.181778564453125,-0.926934003829956,1.0626636743545532,-0.5526193380355835
1772561224358845400,2.191845458984375,-1.1514614820480347,0.7635037302970886,-0.19294686615467072
1772561224368913200,2.2019130859375,-1.2959721088409424,0.670447826385498,-0.3604535758495331
1772561224378979300,2.211979248046875,-1.325964093208313,0.6821266412734985,-0.9617577791213989
1772561224389046300,2.22204638671875,-1.2496479749679565,0.8706308007240295,-1.7424331903457642
1772561224399113200,2.23211328125,-0.9349924325942993,1.0379267930984497,-2.4442555904388428
1772561224409179100,2.24217919921875,-0.5807379484176636,1.2627202272415161,-2.905996084213257
1772561224419246000,2.25224609375,-0.27017179131507874,1.7061008214950562,-2.972323179244995
1772561224429313300,2.262313232421875,-0.1053043007850647,2.18967866897583,-2.7362420558929443
1772561224439379200,2.272379150390625,0.04309007152915001,2.445154905319214,-2.382140874862671
1772561224449446100,2.282446044921875,0.27111977338790894,2.425018787384033,-2.056302070617676
1772561224459512300,2.29251220703125,0.41516557335853577,2.225682020187378,-1.7394897937774658
1772561224469579300,2.302579345703125,0.35184624791145325,1.9182713031768799,-1.435151219367981
1772561224479646200,2.312646240234375,0.17955201864242554,1.368120789527893,-1.1602751016616821
1772561224489712000,2.322712158203125,0.01080880593508482,0.9420962929725647,-0.9489865899085999
1772561224499779300,2.332779296875,-0.09887126833200455,0.7676306962966919,-0.8331418633460999
1772561224509846300,2.34284619140625,-0.1434270292520523,0.6927162408828735,-0.8301085233688354
1772561224519912200,2.352912109375,-0.02410743199288845,0.6606369018554688,-0.9083763957023621
1772561224529979100,2.362979248046875,0.2454039305448532,0.7557479739189148,-1.023959994316101
1772561224540046300,2.37304638671875,0.531164824962616,0.9217353463172913,-1.0892317295074463
1772561224550112300,2.3831123046875,0.7625096440315247,0.9443657994270325,-1.0331023931503296
1772561224560179200,2.39317919921875,0.8976414799690247,0.7028753161430359,-0.7822842597961426
1772561224570245400,2.403245361328125,0.8009878993034363,-0.05441558361053467,-0.3798769414424896
1772561224580312300,2.413312255859375,0.554442822933197,-1.1542859077453613,0.012271418236196041
1772561224590379300,2.423379150390625,0.39039716124534607,-1.9734246730804443,0.23221416771411896
1772561224600445200,2.433445068359375,0.37289780378341675,-1.955029845237732,0.21652482450008392
1772561224610512400,2.443512451171875,0.46056851744651794,-1.3602194786071777,-0.014004800468683243
1772561224620579300,2.453579345703125,0.6059176325798035,-0.7245303988456726,-0.38820990920066833
1772561224630645200,2.463645263671875,0.7610923051834106,-0.3531448543071747,-0.8169820308685303
1772561224640712200,2.473712158203125,0.8742049336433411,-0.2049655318260193,-1.1370811462402344
1772561224650779100,2.483779052734375,0.9412233829498291,-0.15215104818344116,-1.1969513893127441
1772561224660845300,2.49384521484375,0.9488970637321472,-0.10527139902114868,-0.9822366237640381
1772561224670912300,2.503912353515625,0.9333111643791199,-0.0923827588558197,-0.5474329590797424
1772561224680979200,2.513979248046875,0.8743897676467896,0.09268821775913239,0.13896816968917847
1772561224691045400,2.52404541015625,0.7430447936058044,0.5315966010093689,1.13047456741333
1772561224701112300,2.5341123046875,0.5281720161437988,0.6284188032150269,2.2061102390289307
1772561224711178000,2.544177978515625,0.2735957205295563,0.10304796695709229,2.980588674545288
1772561224721245200,2.5542451171875,-0.11297206580638885,-1.1560574769973755,2.9473321437835693
1772561224731312400,2.5643125,-0.6752433776855469,-2.015753984451294,2.046530246734619
1772561224741378000,2.5743779296875,-0.7974721193313599,-1.1297523975372314,1.0849119424819946
1772561224751445200,2.5844453125,-0.28446024656295776,0.24421367049217224,0.32017430663108826
1772561224761512200,2.59451220703125,0.5149274468421936,1.1481269598007202,-0.38855433464050293
1772561224771578000,2.604578125,1.279335618019104,1.8571416139602661,-1.0124714374542236
1772561224781645300,2.614645263671875,1.8081177473068237,2.310298204421997,-1.2527425289154053
1772561224791712300,2.624712158203125,1.9586944580078125,2.2295315265655518,-1.0936143398284912
1772561224801778200,2.634778076171875,1.6573647260665894,1.6311428546905518,-0.7378673553466797
1772561224811845000,2.64484521484375,1.1341896057128906,0.8819079995155334,-0.12123074382543564
1772561224821912300,2.654912353515625,0.5624960660934448,-0.21502524614334106,0.5318226218223572
1772561224831978000,2.66497802734375,-0.055908020585775375,-1.4571017026901245,0.8579573631286621
1772561224842045200,2.675045166015625,-0.6093383431434631,-2.2095704078674316,0.6052087545394897
1772561224852111000,2.685111083984375,-1.0008704662322998,-2.1847329139709473,-0.03781517595052719
1772561224862178000,2.695177978515625,-1.0185880661010742,-1.7346208095550537,-0.6658415794372559
1772561224872245000,2.705244873046875,-0.7333502769470215,-1.3979933261871338,-1.0381107330322266
1772561224882311200,2.715311279296875,-0.5179194808006287,-1.2654169797897339,-1.139094352722168
1772561224892378000,2.725378173828125,-0.5756083726882935,-1.2738854885101318,-1.0398175716400146
1772561224902445000,2.735445068359375,-0.8189066648483276,-1.4812252521514893,-0.853117823600769
1772561224912511200,2.74551123046875,-1.1680666208267212,-1.8134554624557495,-0.6252098679542542
1772561224922578200,2.755578125,-1.4452173709869385,-1.9436967372894287,-0.38005584478378296
1772561224932645000,2.76564501953125,-1.5391361713409424,-1.85470449924469,-0.300260066986084
1772561224942711000,2.7757109375,-1.4331773519515991,-1.3928736448287964,-0.4920916259288788
1772561224952778000,2.785778076171875,-1.1825486421585083,-0.40899813175201416,-0.7884767055511475
1772561224962845200,2.79584521484375,-0.8661829829216003,0.7487182021141052,-0.9437699317932129
1772561224972911000,2.8059111328125,-0.5750949382781982,1.4321762323379517,-0.9162086248397827
1772561224982978000,2.81597802734375,-0.4276551604270935,1.4762263298034668,-0.7596502900123596
1772561224993044200,2.826044189453125,-0.47970879077911377,1.0785285234451294,-0.5655958652496338
1772561225003111200,2.836111083984375,-0.795744001865387,0.35444533824920654,-0.5103147625923157
1772561225013178000,2.84617822265625,-1.2562661170959473,-0.214183509349823,-0.7155624628067017
1772561225023244000,2.856244140625,-1.5541691780090332,-0.22038263082504272,-1.1749306917190552
1772561225033311200,2.866311279296875,-1.4884322881698608,0.15048491954803467,-1.7319880723953247
1772561225043378200,2.876378173828125,-1.062773585319519,0.6317058801651001,-2.1896870136260986
1772561225053444000,2.886444091796875,-0.523930549621582,1.1395411491394043,-2.4288249015808105
1772561225063511000,2.896510986328125,-0.1346624195575714,1.4993218183517456,-2.498063564300537
1772561225073578200,2.906578125,0.020372701808810234,1.6060816049575806,-2.346529245376587
1772561225083644200,2.91664404296875,-0.0013725983444601297,1.426681399345398,-1.9333964586257935
1772561225093711000,2.926711181640625,-0.1190454363822937,0.9831531643867493,-1.3133080005645752
1772561225103778000,2.936778076171875,-0.27211621403694153,0.36956587433815,-0.6653070449829102
1772561225113844200,2.94684423828125,-0.4139961302280426,-0.20132583379745483,-0.14365847408771515
1772561225123911200,2.9569111328125,-0.5169614553451538,-0.5466037392616272,0.15866497159004211
1772561225133977000,2.96697705078125,-0.5949854254722595,-0.691411554813385,0.21738021075725555
1772561225144044300,2.977044189453125,-0.6022531390190125,-0.7139143347740173,0.08883070945739746
1772561225154111200,2.987111328125,-0.5777454376220703,-0.5238072276115417,-0.23069880902767181
1772561225164177200,2.99717724609375,-0.5204439163208008,-0.2190455198287964,-0.6326902508735657
1772561225174244000,3.007244140625,-0.4034094512462616,0.1279129683971405,-0.9487882852554321
1772561225184311000,3.01731103515625,-0.30776041746139526,0.4756031036376953,-1.0292515754699707
1772561225194377200,3.027377197265625,-0.27895405888557434,0.8244673013687134,-0.865234375
1772561225204444200,3.037444091796875,-0.359083890914917,1.0655966997146606,-0.48553216457366943
1772561225214511000,3.047510986328125,-0.53831946849823,1.0642759799957275,0.013133274391293526
1772561225224577300,3.057577392578125,-0.7495110034942627,0.5986454486846924,0.500342071056366
1772561225234644200,3.067644287109375,-0.8942436575889587,-0.2806837260723114,0.8731294870376587
1772561225244711200,3.077711181640625,-0.8278425335884094,-1.1004902124404907,1.0439378023147583
1772561225254777000,3.087777099609375,-0.4717099368572235,-1.4669718742370605,0.9894905686378479
1772561225264844300,3.09784423828125,0.09186349809169769,-1.3770122528076172,0.7570916414260864
1772561225274911200,3.1079111328125,0.6887162327766418,-0.89122474193573,0.5200002193450928
1772561225284977200,3.11797705078125,1.186557650566101,-0.22325065732002258,0.4700717329978943
1772561225295044000,3.128044189453125,1.445015788078308,0.5352247953414917,0.7556300163269043
1772561225305110300,3.1381103515625,1.4665250778198242,1.26992928981781,1.3015663623809814
1772561225315177200,3.14817724609375,1.3196122646331787,1.9141913652420044,1.9722837209701538
1772561225325244200,3.158244140625,1.2438851594924927,2.2345612049102783,2.6521849632263184
1772561225335310300,3.168310302734375,1.2066251039505005,1.9540865421295166,3.213407516479492
1772561225345377300,3.178377197265625,1.2448999881744385,0.552143394947052,3.536233901977539
1772561225355444200,3.1884443359375,1.3032770156860352,-2.0554497241973877,2.9765520095825195
1772561225365509600,3.198509521484375,1.2490962743759155,-3.0977468490600586,1.8708958625793457
1772561225375576800,3.208576904296875,1.4638123512268066,-1.1137675046920776,1.1968368291854858
1772561225385643800,3.218643798828125,1.6628271341323853,0.9654219150543213,0.5477068424224854
1772561225395709700,3.228709716796875,1.7083017826080322,2.142158031463623,-0.37460383772850037
1772561225405776600,3.238776611328125,2.1186702251434326,3.0097451210021973,-0.8590989112854004
1772561225415843800,3.24884375,2.743683338165283,3.603543996810913,-0.6295490860939026
1772561225425909800,3.25890966796875,2.9245800971984863,3.015049695968628,-0.21498863399028778
1772561225435976700,3.268976806640625,2.395688533782959,1.4071331024169922,0.3919878304004669
1772561225446043600,3.279043701171875,1.3134609460830688,-0.5575200319290161,1.5574902296066284
1772561225456109800,3.28910986328125,-0.2066417783498764,-2.5977818965911865,2.7853338718414307
1772561225466176800,3.2991767578125,-1.3568426370620728,-4.238596439361572,3.3004980087280273
1772561225476243700,3.30924365234375,-1.3224862813949585,-4.865209102630615,3.289172649383545
1772561225486310000,3.319309814453125,-0.8029669523239136,-3.7582967281341553,2.8131208419799805
1772561225496376800,3.329376953125,-0.5521438121795654,-1.9063044786453247,1.736372470855713
1772561225506442800,3.33944287109375,-0.4690183699131012,-0.7045612931251526,0.2888801693916321
1772561225516509700,3.349509765625,-0.5184016823768616,-0.28504469990730286,-0.9225830435752869
1772561225526576600,3.35957666015625,-0.7772454023361206,-0.7089629173278809,-1.7861391305923462
1772561225536642800,3.369642822265625,-1.2067289352416992,-1.832578420639038,-2.4560866355895996
1772561225546709800,3.379709716796875,-1.5651495456695557,-2.3449926376342773,-2.687058687210083
1772561225556776700,3.389776611328125,-1.239654541015625,-1.5808603763580322,-2.161881446838379
1772561225566843000,3.3998427734375,-0.7460991740226746,-0.16128619015216827,-1.4024194478988647
1772561225576909800,3.409909912109375,-0.3350677192211151,0.7590242624282837,-0.565648078918457
1772561225586976800,3.419976806640625,-0.06584452092647552,0.5397066473960876,0.20144258439540863
1772561225597042700,3.430042724609375,0.02070794627070427,-0.1972704380750656,0.5876411199569702
1772561225607110000,3.44010986328125,-0.06729935854673386,-0.8765206933021545,0.5381780862808228
1772561225617176800,3.4501767578125,-0.294025182723999,-1.2991262674331665,0.030978547409176826
1772561225627242800,3.46024267578125,-0.4021535813808441,-1.1843341588974,-0.8203731775283813
1772561225637309700,3.470309814453125,-0.47760120034217834,-0.5519771575927734,-1.862762451171875
1772561225647377000,3.480376953125,-0.26601651310920715,0.5594955086708069,-2.40061354637146
1772561225657442800,3.49044287109375,0.061196498572826385,1.3171035051345825,-2.4876596927642822
1772561225667509800,3.500509765625,0.26075655221939087,1.6583536863327026,-2.277252197265625
1772561225677576700,3.51057666015625,0.3536582589149475,1.706917405128479,-1.7654497623443604
1772561225687643000,3.520642822265625,0.3122122585773468,1.3887056112289429,-1.085334062576294
1772561225697709800,3.530709716796875,0.14333617687225342,0.7623819708824158,-0.4725112318992615
1772561225707775700,3.540775634765625,-0.020868470892310143,0.08448167145252228,-0.059146955609321594
1772561225717843000,3.550843017578125,-0.058420371264219284,-0.4771265387535095,0.06952207535505295
1772561225727910000,3.560909912109375,-0.00865420512855053,-0.908417284488678,-0.14934660494327545
1772561225737975800,3.570975830078125,0.05373061075806618,-1.0201222896575928,-0.6452226638793945
1772561225748042800,3.581042724609375,0.04016207903623581,-0.5927371978759766,-1.211134672164917
1772561225758109700,3.591109619140625,-0.06117679178714752,0.18775995075702667,-1.6650832891464233
1772561225768175900,3.60117578125,-0.18489891290664673,1.04364013671875,-1.9126176834106445
1772561225778242800,3.611242919921875,-0.3133533000946045,1.6351399421691895,-1.8656728267669678
1772561225788309800,3.621309814453125,-0.48467060923576355,1.7103009223937988,-1.5720868110656738
1772561225798376000,3.6313759765625,-0.6801058650016785,1.4415264129638672,-1.136389136314392
1772561225808443000,3.64144287109375,-0.8427110314369202,1.0646072626113892,-0.6297410130500793
1772561225818509800,3.651509765625,-0.9407009482383728,0.637916624546051,-0.1646260768175125
1772561225828575700,3.66157568359375,-1.0158263444900513,0.07774458825588226,0.16585707664489746
1772561225838643000,3.671642822265625,-1.0482975244522095,-0.4551166594028473,0.29302942752838135
1772561225848710000,3.6817099609375,-0.9566338062286377,-0.8426710367202759,0.2478654831647873
1772561225858775800,3.69177587890625,-0.720414936542511,-1.030442237854004,0.10125179588794708
1772561225868842800,3.7018427734375,-0.39260026812553406,-0.9971103072166443,-0.09631521254777908
1772561225878910000,3.711909912109375,-0.09383673220872879,-0.8644824028015137,-0.17670325934886932
1772561225888976000,3.721975830078125,0.09226628392934799,-0.9358704686164856,-0.023717302829027176
1772561225899042800,3.732042724609375,0.19678044319152832,-1.294858694076538,0.31191158294677734
1772561225909109800,3.74210986328125,0.20407548546791077,-1.382436990737915,0.7702707052230835
1772561225919176000,3.752176025390625,0.14703883230686188,-1.0169402360916138,1.3712700605392456
1772561225929243000,3.762242919921875,0.07136782258749008,-0.4859708845615387,1.9503101110458374
1772561225939308800,3.772308837890625,-0.027669817209243774,-0.061864323914051056,2.2163021564483643
1772561225949375700,3.782375732421875,-0.13476677238941193,-0.010363686829805374,2.065342426300049
1772561225959443000,3.79244287109375,-0.2502574324607849,-0.0908697098493576,1.7492668628692627
1772561225969508900,3.8025087890625,-0.2307213544845581,-0.40582260489463806,1.3452215194702148
1772561225979575800,3.812575927734375,-0.12582184374332428,-0.8308148980140686,0.6038057208061218
1772561225989642800,3.822642822265625,-0.029579076915979385,0.12441711127758026,-0.08385913074016571
1772561225999709000,3.832708984375,0.2861977815628052,2.3907713890075684,-0.14870204031467438
1772561226009775900,3.84277587890625,0.6842718124389648,3.6709139347076416,0.03892676532268524
1772561226019842800,3.8528427734375,0.8829069137573242,3.8174774646759033,0.006415693089365959
1772561226029909000,3.862908935546875,1.1399301290512085,3.695605754852295,0.08999152481555939
1772561226039976000,3.872975830078125,1.603590726852417,3.391277313232422,0.5219905972480774
1772561226050043000,3.88304296875,2.0278499126434326,2.640662670135498,1.0689823627471924
1772561226060108800,3.89310888671875,2.2490971088409424,1.5199812650680542,1.8288275003433228
1772561226070176000,3.903176025390625,2.1051154136657715,0.05978403240442276,2.7083051204681396
1772561226080243000,3.913242919921875,1.7362885475158691,-1.730688214302063,3.559828281402588
1772561226090308900,3.923308837890625,1.2863003015518188,-3.3385658264160156,4.256591320037842
1772561226100375800,3.933375732421875,0.8893447518348694,-4.626632213592529,4.702773571014404
1772561226110442800,3.94344287109375,0.571734607219696,-5.121965408325195,4.707319736480713
1772561226120509000,3.953509033203125,0.3814549446105957,-4.434844970703125,4.168069362640381
1772561226130576000,3.963575927734375,0.3798893988132477,-3.0952095985412598,3.22194766998291
1772561226140642800,3.973642822265625,0.5002528429031372,-1.9796489477157593,2.1197807788848877
1772561226150709000,3.983708984375,0.6140981912612915,-1.5481497049331665,1.0482794046401978
1772561226160776000,3.99377587890625,0.4739453196525574,-1.792944073677063,0.09774288535118103
1772561226170841600,4.003841552734375,0.045929763466119766,-2.455967664718628,-0.609436571598053
1772561226180908800,4.01390869140625,-0.42656242847442627,-2.753427743911743,-0.9787470102310181
1772561226190976000,4.02397607421875,-0.7225748896598816,-2.3043150901794434,-1.1150541305541992
1772561226201041700,4.034041748046875,-0.8396948575973511,-1.2466974258422852,-1.2621519565582275
1772561226211108900,4.04410888671875,-0.7717759609222412,-0.007800813764333725,-1.4123947620391846
1772561226221175800,4.05417578125,-0.55600506067276,1.1678532361984253,-1.2225542068481445
1772561226231241700,4.06424169921875,-0.33626776933670044,1.8905810117721558,-0.5064640045166016
1772561226241308700,4.07430859375,-0.33693382143974304,1.6723791360855103,0.41460120677948
1772561226251375900,4.0843759765625,-0.7528911828994751,0.8206321001052856,1.0218228101730347
1772561226261441800,4.09444189453125,-1.385758638381958,-0.09748125076293945,1.1164071559906006
1772561226271508700,4.1045087890625,-1.8087621927261353,-0.3391941487789154,0.8141664266586304
1772561226281576000,4.114575927734375,-1.8687890768051147,0.04075584188103676,0.10528537631034851
1772561226291641600,4.1246416015625,-1.7664234638214111,0.5939589142799377,-0.9354806542396545
1772561226301708800,4.134708740234375,-1.4257197380065918,0.8138548135757446,-1.9853805303573608
1772561226311776000,4.14477587890625,-1.0098485946655273,0.7949087023735046,-2.8402554988861084
1772561226321841700,4.154841552734375,-0.6351394653320312,1.1915136575698853,-3.2227423191070557
1772561226331908600,4.16490869140625,-0.05001763254404068,1.5836076736450195,-2.869779348373413
1772561226341975800,4.174975830078125,0.0648205354809761,1.4223686456680298,-2.421525716781616
1772561226352041700,4.185041748046875,-0.31673136353492737,0.7011004686355591,-2.0324132442474365
1772561226362109700,4.195109619140625,-0.8465765714645386,-0.2854023277759552,-1.7124545574188232
1772561226372176600,4.2051767578125,-1.0319466590881348,-0.9820850491523743,-1.4082087278366089
1772561226382242600,4.21524267578125,-0.6881349682807922,-1.1091564893722534,-1.0651501417160034
1772561226392309800,4.225309814453125,-0.04967815428972244,-1.0886940956115723,-0.7625946402549744
1772561226402375400,4.23537548828125,0.4248902499675751,-1.302169919013977,-0.7328468561172485
1772561226412442400,4.2454423828125,0.5809927582740784,-1.7627707719802856,-1.0938167572021484
1772561226422509600,4.255509521484375,0.5330769419670105,-1.9017518758773804,-1.6717827320098877
1772561226432575500,4.265575439453125,0.5055586099624634,-1.611838459968567,-2.1306514739990234
1772561226442642400,4.275642333984375,0.5224385261535645,-1.183613896369934,-2.2983031272888184
1772561226452709400,4.28570947265625,0.4913303852081299,-0.6268284916877747,-2.1759212017059326
1772561226462775600,4.295775634765625,0.337739497423172,0.048415470868349075,-1.8287608623504639
1772561226472842500,4.305842529296875,0.11937364190816879,0.4576963782310486,-1.40415358543396
1772561226482909400,4.315909423828125,-0.05098850280046463,0.442052960395813,-0.895555853843689
1772561226492975400,4.325975341796875,-0.13966430723667145,0.020982559770345688,-0.3603213429450989
1772561226503042600,4.33604248046875,-0.17103661596775055,-0.6620974540710449,0.06925106793642044
1772561226513109500,4.346109619140625,-0.15598240494728088,-1.2051302194595337,0.24961131811141968
1772561226523175400,4.356175537109375,-0.04063503071665764,-1.2786486148834229,0.15555670857429504
1772561226533242400,4.366242431640625,0.21031337976455688,-0.9219020009040833,-0.08769020438194275
1772561226543309600,4.3763095703125,0.5066989660263062,-0.45960870385169983,-0.29185986518859863
1772561226553375500,4.38637548828125,0.6988319754600525,-0.06948720663785934,-0.4081105887889862
1772561226563442400,4.3964423828125,0.7308919429779053,0.4505903422832489,-0.2653353214263916
1772561226573509400,4.40650927734375,0.7225059866905212,1.2054604291915894,0.36889177560806274
1772561226583575600,4.416575439453125,0.7879398465156555,1.946919322013855,1.5079933404922485
1772561226593642500,4.426642578125,0.8628519177436829,2.294407367706299,2.9288642406463623
1772561226603709400,4.43670947265625,0.7655304074287415,1.8483835458755493,4.294860363006592
1772561226613775600,4.446775634765625,0.4552745819091797,0.7074723839759827,5.263269424438477
1772561226623842600,4.456842529296875,0.2573396861553192,-0.8975152373313904,5.477949619293213
1772561226633909500,4.466909423828125,0.2552279531955719,-2.8285365104675293,4.204930782318115
1772561226643975400,4.476975341796875,0.3587098717689514,-2.2856380939483643,2.3810062408447266
1772561226654042400,4.48704248046875,0.962812066078186,-0.8238801956176758,0.8790339827537537
1772561226664108500,4.497108642578125,1.314880609512329,-0.4148162603378296,-0.7653127312660217
1772561226674175500,4.507175537109375,1.7505061626434326,0.39808642864227295,-1.6413004398345947
1772561226684242400,4.517242431640625,2.410722494125366,2.4609534740448,-0.9833744168281555
1772561226694308600,4.52730859375,2.7846157550811768,3.6589725017547607,0.2983936369419098
1772561226704375600,4.53737548828125,2.57865571975708,2.824840545654297,1.411251425743103
1772561226714442500,4.5474423828125,1.5455223321914673,0.5618200302124023,2.0361714363098145
1772561226724508400,4.55750830078125,0.02602514810860157,-1.3940366506576538,2.1201322078704834
1772561226734575600,4.56757568359375,-0.8303565979003906,-2.194349527359009,1.8335282802581787
1772561226744642600,4.577642578125,-0.4455639123916626,-1.5760382413864136,1.5435974597930908
1772561226754708500,4.58770849609375,0.19793455302715302,-0.2705642879009247,0.9679243564605713
1772561226764775400,4.597775390625,0.10548371076583862,1.0087873935699463,-0.14415284991264343
1772561226774842600,4.607842529296875,-0.3123491406440735,1.2367721796035767,-1.3732668161392212
1772561226784908500,4.617908447265625,-0.47788429260253906,0.7957025766372681,-2.113316059112549
1772561226794975500,4.6279755859375,-0.3145141899585724,-0.07220467925071716,-2.2749929428100586
1772561226805042400,4.63804248046875,-0.0953698456287384,-1.0920538902282715,-2.247627019882202
1772561226815108600,4.648108642578125,-0.09784594178199768,-1.9311097860336304,-2.085038900375366
1772561226825175600,4.658175537109375,-0.37204766273498535,-1.986341118812561,-1.6342374086380005
1772561226835242500,4.668242431640625,-0.5588248372077942,-0.9790346622467041,-0.7333231568336487
1772561226845308400,4.678308349609375,-0.8684090971946716,0.20449751615524292,0.1472686380147934
1772561226855375600,4.688375732421875,-1.2507611513137817,0.6354038119316101,0.5448266267776489
1772561226865442600,4.698442626953125,-1.4677085876464844,0.49140483140945435,0.42812448740005493
1772561226875508500,4.708508544921875,-1.3194407224655151,0.2805345356464386,0.008189035579562187
1772561226885575400,4.718575439453125,-1.1872386932373047,-0.044881369918584824,-0.7802845239639282
1772561226895642600,4.728642578125,-1.2084457874298096,-0.14137612283229828,-1.8487337827682495
1772561226905708500,4.73870849609375,-1.293880820274353,-0.09323496371507645,-2.878384590148926
1772561226915775500,4.748775390625,-1.2740103006362915,0.4284747540950775,-3.4513139724731445
1772561226925841700,4.758841552734375,-0.7004385590553284,1.1911532878875732,-3.05928373336792
1772561226935908600,4.76890869140625,-0.2221124917268753,1.6170209646224976,-2.393467664718628
1772561226945975600,4.7789755859375,0.011100517585873604,1.372666358947754,-1.638330101966858
1772561226956041500,4.78904150390625,0.11754341423511505,0.5893716812133789,-0.8645907044410706
1772561226966108700,4.799108642578125,0.17561869323253632,-0.271079957485199,-0.2697238624095917
1772561226976175600,4.809175537109375,0.25753870606422424,-0.8149664998054504,0.002779505681246519
1772561226986241500,4.819241455078125,0.42414847016334534,-0.9652963876724243,-0.09364104270935059
1772561226996308500,4.82930859375,0.6179635524749756,-0.7898278832435608,-0.5725092887878418
1772561227006375400,4.83937548828125,0.784318208694458,-0.4283125400543213,-1.3670567274093628
1772561227016441600,4.849441650390625,0.8997839093208313,0.003645380726084113,-2.2601678371429443
1772561227026508500,4.859508544921875,0.9614952206611633,0.43040576577186584,-3.0352277755737305
1772561227036575500,4.869575439453125,0.9865593910217285,0.9269827604293823,-3.479689121246338
1772561227046641700,4.8796416015625,0.9307182431221008,1.2695666551589966,-3.5553717613220215
1772561227056708600,4.88970849609375,0.7682535648345947,1.2545397281646729,-3.3263447284698486
1772561227066775600,4.899775634765625,0.5666810274124146,1.04867422580719,-2.917750835418701
1772561227076841500,4.909841552734375,0.3920062780380249,0.7707515358924866,-2.4227843284606934
1772561227086908700,4.91990869140625,0.21198110282421112,0.36977559328079224,-1.9690923690795898
1772561227096975600,4.9299755859375,0.007695181295275688,-0.06572779268026352,-1.6168149709701538
1772561227107041500,4.94004150390625,-0.18794648349285126,-0.38629037141799927,-1.3859248161315918
1772561227117108500,4.9501083984375,-0.3588503897190094,-0.4839121997356415,-1.3159077167510986
1772561227127175700,4.96017578125,-0.4558081030845642,-0.4909977912902832,-1.4334367513656616
1772561227137241600,4.97024169921875,-0.39976540207862854,-0.49923548102378845,-1.614794373512268
1772561227147308500,4.98030859375,-0.20737706124782562,-0.3651120364665985,-1.717536211013794
1772561227157374700,4.990374755859375,0.054366499185562134,-0.1346987634897232,-1.6043752431869507
1772561227167441700,5.000441650390625,0.22583918273448944,0.11770018190145493,-1.2353259325027466
1772561227177508600,5.010508544921875,0.3049277067184448,0.336821049451828,-0.5665213465690613
1772561227187574500,5.020574462890625,0.284515917301178,0.5165897607803345,0.35043883323669434
1772561227197640700,5.030640625,0.22533242404460907,0.8159093856811523,1.4335453510284424
1772561227207707600,5.040707763671875,0.010011590085923672,1.000856876373291,2.346881628036499
1772561227217774600,5.050774658203125,-0.5228186845779419,0.42784929275512695,2.762763738632202
1772561227227840800,5.0608408203125,-1.1346452236175537,-0.9665608406066895,2.551098108291626
1772561227237907700,5.07090771484375,-1.355383038520813,-2.146777868270874,1.6991854906082153
1772561227247974700,5.080974609375,-0.876841127872467,-1.2758196592330933,0.7617155909538269
1772561227258040600,5.09104052734375,0.0016177736688405275,0.3129075765609741,-0.3343905508518219
1772561227268107800,5.101107666015625,0.630865216255188,1.1676908731460571,-1.7088732719421387
1772561227278174700,5.1111748046875,1.0317273139953613,1.802219033241272,-2.745265483856201
1772561227288240600,5.12124072265625,1.2274805307388306,2.922447919845581,-2.685211658477783
1772561227298307600,5.1313076171875,0.8453690409660339,3.2334115505218506,-1.8291189670562744
1772561227308374500,5.14137451171875,-0.02248907834291458,2.0522725582122803,-0.6411645412445068
1772561227318440400,5.1514404296875,-1.0930876731872559,0.010355805978178978,0.647699773311615
1772561227328507600,5.161507568359375,-2.0987112522125244,-2.248613119125366,1.5211840867996216
1772561227338574600,5.17157470703125,-2.3312644958496094,-3.9670541286468506,2.113171339035034
1772561227348640500,5.181640625,-1.7042616605758667,-4.628246307373047,2.9987547397613525
1772561227358707700,5.191707763671875,-1.2289652824401855,-4.672669410705566,3.898869514465332
1772561227368773600,5.201773681640625,-1.4401079416275024,-4.614241600036621,4.309199333190918
1772561227378839600,5.211839599609375,-1.8636456727981567,-4.662162780761719,4.0116143226623535
1772561227388906500,5.221906494140625,-2.055328130722046,-4.105724334716797,3.225686550140381
1772561227398972400,5.231972412109375,-1.7570682764053345,-2.9958817958831787,2.1626927852630615
1772561227409039600,5.24203955078125,-1.1880087852478027,-1.8308765888214111,0.9622098803520203
1772561227419106600,5.2521064453125,-0.6103885173797607,-0.6742088794708252,-0.07552071660757065
1772561227429172500,5.26217236328125,-0.12433924525976181,0.47269368171691895,-0.6895854473114014
1772561227439239400,5.272239501953125,0.21153247356414795,1.564559817314148,-0.6967869400978088
1772561227449306400,5.282306396484375,0.5199065208435059,2.374276876449585,-0.23910057544708252
1772561227459372500,5.29237255859375,0.832249104976654,2.414503335952759,0.34725871682167053
1772561227469439500,5.302439453125,0.9151607751846313,1.9621572494506836,0.7066991925239563
1772561227479506400,5.31250634765625,0.9051230549812317,1.5116010904312134,0.6649917960166931
1772561227489572600,5.322572509765625,0.8423939347267151,1.212164044380188,0.3731277287006378
1772561227499639600,5.3326396484375,0.5439363718032837,1.158070683479309,-0.053838662803173065
1772561227509706500,5.34270654296875,0.0143577940762043,1.4530775547027588,-0.48954033851623535
1772561227519772400,5.3527724609375,-0.4396788477897644,1.9379961490631104,-0.8645334839820862
1772561227529839600,5.362839599609375,-0.572776734828949,2.296175241470337,-1.1456913948059082
1772561227539906600,5.372906494140625,-0.35051584243774414,2.530876636505127,-1.3145151138305664
1772561227549972500,5.382972412109375,0.1205132007598877,2.764286756515503,-1.3295353651046753
1772561227560039400,5.393039306640625,0.7582458257675171,2.81866717338562,-1.1593738794326782
1772561227570106600,5.403106689453125,1.4183520078659058,2.525243043899536,-0.9102194309234619
1772561227580172500,5.413172607421875,1.855234980583191,1.8013968467712402,-0.6664329171180725
1772561227590239500,5.423239501953125,1.9581714868545532,0.7512632608413696,-0.47003570199012756
1772561227600306400,5.433306396484375,1.8059078454971313,-0.2296486645936966,-0.27316465973854065
1772561227610372600,5.44337255859375,1.5078668594360352,-0.7933983206748962,-0.0805526077747345
1772561227620439600,5.453439453125,1.2107963562011719,-0.8920601606369019,0.09792151302099228
1772561227630506500,5.463506591796875,0.9596487879753113,-0.5955637693405151,0.24775947630405426
1772561227640572700,5.47357275390625,0.7612462043762207,-0.08153003454208374,0.29846635460853577
1772561227650639600,5.4836396484375,0.595269501209259,0.537373960018158,0.18921229243278503
1772561227660705500,5.49370556640625,0.4723581075668335,1.1000531911849976,0.034174539148807526
1772561227670772500,5.5037724609375,0.37814879417419434,1.4324047565460205,-0.08752286434173584
1772561227680839400,5.51383935546875,0.21725793182849884,1.4606574773788452,-0.20804262161254883
1772561227690905600,5.523905517578125,-0.11363610625267029,0.9892070889472961,-0.3120209574699402
1772561227700972500,5.53397265625,-0.4517006278038025,0.04612790793180466,-0.41547346115112305
1772561227711039500,5.54403955078125,-0.6524034142494202,-0.9437075257301331,-0.4700632095336914
1772561227721105700,5.554105712890625,-0.7072445154190063,-1.6710765361785889,-0.4599369764328003
1772561227731172600,5.564172607421875,-0.6807412505149841,-1.9483230113983154,-0.3873288333415985
1772561227741239600,5.574239501953125,-0.6210656762123108,-1.5327787399291992,-0.3009604811668396
1772561227751305500,5.584305419921875,-0.6381780505180359,-0.5991149544715881,-0.2969313859939575
1772561227761372700,5.59437255859375,-0.7709836363792419,0.3875211477279663,-0.37438860535621643
1772561227771439600,5.604439697265625,-0.9569284915924072,0.8472916483879089,-0.5236513018608093
1772561227781505500,5.614505615234375,-1.0575780868530273,0.7173028588294983,-0.644750714302063
1772561227791572500,5.624572509765625,-0.8081552386283875,0.4895778298377991,-0.5449830889701843
1772561227801639700,5.6346396484375,-0.19170993566513062,0.8442624807357788,0.010619042441248894
1772561227811705600,5.64470556640625,0.6685925722122192,2.0941615104675293,1.243553638458252
1772561227821772500,5.6547724609375,1.4798868894577026,3.2112526893615723,2.8695573806762695
1772561227831839500,5.664839599609375,1.6575267314910889,3.2445831298828125,4.226460933685303
1772561227841905700,5.67490576171875,1.1498863697052002,2.159790515899658,5.046407222747803
1772561227851972600,5.68497265625,0.548269510269165,-0.10675636678934097,4.872112274169922
1772561227862039600,5.69503955078125,0.19564896821975708,-0.6980441212654114,3.9817662239074707
1772561227872105500,5.70510546875,0.6609631180763245,1.1564933061599731,3.1446828842163086
1772561227882172700,5.715172607421875,1.4497729539871216,2.066441059112549,1.7504619359970093
1772561227892239600,5.725239501953125,2.2216973304748535,2.195300817489624,0.4359906315803528
1772561227902305500,5.735305419921875,3.1053102016448975,2.542858839035034,0.3350142538547516
1772561227912372500,5.74537255859375,3.5328009128570557,1.992216944694519,1.036744475364685
1772561227922438700,5.755438720703125,3.0572853088378906,0.7918779253959656,1.864564061164856
1772561227932505600,5.765505615234375,2.0884182453155518,0.0145835280418396,2.5190937519073486
1772561227942572500,5.775572509765625,1.3525954484939575,-0.46892592310905457,2.513190746307373
1772561227952638700,5.785638671875,1.1725125312805176,-0.26474615931510925,1.7900625467300415
1772561227962705700,5.79570556640625,1.1755549907684326,1.09687077999115,0.5835169553756714
1772561227972772600,5.805772705078125,0.9327977299690247,2.7834558486938477,-0.8153510093688965
1772561227982838500,5.815838623046875,0.22061467170715332,3.3595330715179443,-2.0112082958221436
1772561227992905700,5.82590576171875,-0.6798669099807739,2.500788450241089,-2.655883550643921
1772561228002972700,5.83597265625,-1.304165244102478,0.9270272850990295,-2.6711339950561523
1772561228013038600,5.84603857421875,-1.4730863571166992,-0.6293285489082336,-2.1955668926239014
1772561228023105500,5.85610546875,-1.4275844097137451,-1.4844293594360352,-1.5233290195465088
1772561228033172500,5.86617236328125,-1.2877497673034668,-1.50849187374115,-0.9730502367019653
1772561228043238700,5.87623876953125,-0.9793696999549866,-0.9197103381156921,-0.7024688124656677
1772561228053305600,5.8863056640625,-0.3746475279331207,0.05786148086190224,-0.4055333137512207
1772561228063372500,5.89637255859375,0.37580928206443787,1.019844889640808,0.37654823064804077
1772561228073438700,5.906438720703125,0.811063826084137,1.3072353601455688,1.459989070892334
1772561228083505700,5.916505615234375,0.6153373122215271,0.6844058632850647,2.3473544120788574
1772561228093572600,5.926572509765625,-0.06424280256032944,-0.2000100165605545,2.6638545989990234
1772561228103638500,5.936638427734375,-0.7013012766838074,-0.6493799090385437,2.4408745765686035
1772561228113705700,5.946705810546875,-0.9465339183807373,-0.3497104048728943,1.7652461528778076
1772561228123772700,5.956772705078125,-0.8541986346244812,0.37766164541244507,0.7244606018066406
1772561228133838600,5.966838623046875,-0.721361517906189,1.2297309637069702,-0.4396872818470001
1772561228143905500,5.976905517578125,-0.4967646598815918,2.214205026626587,-1.098069667816162
1772561228153972700,5.98697265625,-0.1362011432647705,2.7499735355377197,-1.0380632877349854
1772561228164038700,5.99703857421875,0.07119360566139221,2.552231550216675,-0.6044437289237976
1772561228174105600,6.007105712890625,0.05715581774711609,1.7859785556793213,-0.04824787750840187
1772561228184172500,6.017172607421875,-0.02142847143113613,0.7073830962181091,0.5354734063148499
1772561228194238700,6.02723876953125,-0.0761396512389183,-0.16293209791183472,1.0009145736694336
1772561228204305700,6.0373056640625,-0.048132263123989105,-0.5955150723457336,1.2881115674972534
1772561228214371600,6.04737158203125,0.034246500581502914,-0.6956201195716858,1.3117246627807617
1772561228224438800,6.057438720703125,0.10721665620803833,-0.6383479237556458,1.0847679376602173
1772561228234505700,6.067505615234375,0.09864979982376099,-0.5845350623130798,0.6658344268798828
1772561228244571600,6.077571533203125,-0.07560987025499344,-0.5337200164794922,0.10772877186536789
1772561228254638600,6.087638671875,-0.3144165873527527,-0.5969927310943604,-0.5759126543998718
1772561228264705500,6.09770556640625,-0.6455613374710083,-0.8355167508125305,-1.5101910829544067
1772561228274771700,6.107771728515625,-0.9078658819198608,-0.8771328926086426,-2.5824053287506104
1772561228284838700,6.117838623046875,-0.7848765254020691,-0.442001610994339,-3.296142101287842
1772561228294905600,6.127905517578125,-0.28502675890922546,-0.019495371729135513,-3.4893875122070312
1772561228304971800,6.1379716796875,0.06798645108938217,0.04099905863404274,-3.3301069736480713
1772561228315038700,6.148038818359375,0.06130112335085869,-0.36144372820854187,-2.9988698959350586
1772561228325105700,6.158105712890625,-0.10953399538993835,-0.9834085702896118,-2.513028144836426
1772561228335171600,6.168171630859375,-0.2144968956708908,-1.4858511686325073,-1.9255677461624146
1772561228345238800,6.17823876953125,-0.233178973197937,-1.8582689762115479,-1.4429409503936768
1772561228355305700,6.1883056640625,-0.17824940383434296,-2.0231387615203857,-1.1573870182037354
1772561228365371600,6.19837158203125,-0.11455479264259338,-1.7247878313064575,-1.1001050472259521
1772561228375439000,6.208439208984375,-0.10042805969715118,-1.1471790075302124,-1.193803071975708
1772561228385506000,6.218506103515625,-0.15804144740104675,-0.6632962822914124,-1.260238528251648
1772561228395572200,6.228572265625,-0.2686161696910858,-0.3809567391872406,-1.1338129043579102
1772561228405639200,6.23863916015625,-0.2931022346019745,-0.5244536995887756,-0.7582042813301086
1772561228415706000,6.2487060546875,-0.15081778168678284,-0.7634649276733398,-0.07685692608356476
1772561228425772300,6.258772216796875,0.13944892585277557,-0.946053683757782,0.880232036113739
1772561228435839200,6.268839111328125,0.39608123898506165,-1.254866361618042,2.0028884410858154
1772561228445906200,6.27890625,0.4338819682598114,-1.7986199855804443,3.0935330390930176
1772561228455972000,6.28897216796875,0.2371417135000229,-2.6007840633392334,3.7609148025512695
1772561228466039300,6.299039306640625,0.007846217602491379,-3.309518575668335,3.6439242362976074
1772561228476106200,6.309106201171875,-0.03082527592778206,-3.5722715854644775,2.800931930541992
1772561228486172200,6.319172119140625,0.0036928257904946804,-3.1325201988220215,1.5386794805526733
1772561228496239000,6.329239013671875,0.041161637753248215,-2.5830912590026855,0.08454082161188126
1772561228506306000,6.33930615234375,-0.12711307406425476,-2.246842622756958,-1.6283900737762451
1772561228516372200,6.349372314453125,-0.4150039553642273,-1.4693467617034912,-2.93211030960083
1772561228526439200,6.359439208984375,-0.6655664443969727,-0.5151219367980957,-3.205901861190796
1772561228536505300,6.36950537109375,-0.9946556687355042,0.4197719395160675,-2.621835708618164
1772561228546572300,6.379572265625,-1.4105687141418457,1.0287984609603882,-1.763669490814209
1772561228556639200,6.38963916015625,-1.8489642143249512,0.865395724773407,-1.2244349718093872
1772561228566705200,6.399705078125,-2.097471237182617,0.14589014649391174,-1.0658321380615234
1772561228576772000,6.409772216796875,-1.8866446018218994,-0.6590076684951782,-0.9451555609703064
1772561228586839300,6.41983935546875,-1.3765263557434082,-1.4103118181228638,-0.703951895236969
1772561228596905200,6.4299052734375,-1.0087162256240845,-1.9808030128479004,-0.341638445854187
1772561228606972200,6.43997216796875,-0.9545062184333801,-2.301666498184204,0.13781286776065826
1772561228617039000,6.4500390625,-1.0987759828567505,-2.5034382343292236,0.5928469300270081
1772561228627105300,6.460105224609375,-1.3014029264450073,-2.4020869731903076,0.8524253964424133
1772561228637172200,6.470172119140625,-1.4867552518844604,-2.0329627990722656,0.86058509349823
1772561228647239200,6.4802392578125,-1.6818232536315918,-1.585662841796875,0.6088619232177734
1772561228657305300,6.490305419921875,-1.8264952898025513,-1.0369629859924316,0.2888231873512268
1772561228667372300,6.500372314453125,-1.8232791423797607,-0.5155981183052063,0.12591330707073212
1772561228677439200,6.510439208984375,-1.5741207599639893,-0.005680002272129059,0.2848488986492157
1772561228687505200,6.520505126953125,-1.1385200023651123,0.9285077452659607,0.8076373934745789
1772561228697572400,6.530572265625,-0.7166975736618042,2.079070568084717,1.6062251329421997
1772561228707639300,6.540639404296875,-0.45285913348197937,2.9959816932678223,2.4920499324798584
1772561228717705200,6.550705322265625,-0.3558659851551056,3.044617176055908,3.1818580627441406
1772561228727772200,6.560772216796875,-0.4841102957725525,2.1948282718658447,3.404306173324585
1772561228737839000,6.570839111328125,-0.7411782741546631,1.3295022249221802,3.3648033142089844
1772561228747905300,6.5809052734375,-0.5785626769065857,0.6192981600761414,3.053986072540283
1772561228757972200,6.59097216796875,-0.3529992997646332,0.5785019993782043,2.1548473834991455
1772561228768039200,6.6010390625,0.04321478679776192,1.090133547782898,1.0933427810668945
1772561228778105300,6.611105224609375,0.3943224847316742,1.8070826530456543,0.05518326535820961
1772561228788172300,6.62117236328125,0.5821601748466492,2.521602153778076,-0.679279088973999
1772561228798239200,6.6312392578125,0.7491635084152222,3.08432936668396,-0.7417020201683044
1772561228808305200,6.64130517578125,0.757226824760437,3.081281900405884,-0.49844834208488464
1772561228818372400,6.651372314453125,0.48938024044036865,2.6859819889068604,-0.2373347133398056
1772561228828439300,6.661439208984375,0.3671548068523407,2.0921618938446045,-0.027520284056663513
1772561228838505200,6.671505126953125,0.623241662979126,1.3302377462387085,0.025490738451480865
1772561228848572200,6.681572265625,1.1375017166137695,0.35544049739837646,-0.16913647949695587
1772561228858639400,6.691639404296875,1.6389131546020508,-0.8241680264472961,-0.5724405646324158
1772561228868705300,6.701705322265625,1.9584978818893433,-1.826729416847229,-1.0510303974151611
1772561228878772200,6.711772216796875,2.1668126583099365,-2.2936131954193115,-1.3278205394744873
1772561228888838400,6.72183837890625,2.1526243686676025,-1.940712809562683,-1.3104079961776733
1772561228898905300,6.7319052734375,1.8473654985427856,-0.9831026196479797,-1.047966718673706
1772561228908972300,6.74197216796875,1.2220594882965088,0.2993478775024414,-0.6363441348075867
1772561228919038200,6.7520380859375,0.4414994716644287,1.371109962463379,-0.16224686801433563
1772561228929105400,6.76210546875,-0.2174157053232193,1.6636534929275513,0.32049041986465454
1772561228939172400,6.77217236328125,-0.6117593050003052,1.184113621711731,0.6831285357475281
1772561228949238300,6.78223828125,-0.6927960515022278,0.36682888865470886,0.8383793234825134
1772561228959305200,6.79230517578125,-0.5486042499542236,-0.3461552560329437,0.7346372604370117
1772561228969372200,6.8023720703125,-0.3206978738307953,-0.7542405128479004,0.38226670026779175
1772561228979438300,6.812438232421875,-0.10428968816995621,-0.7752946615219116,-0.11131185293197632
1772561228989505300,6.82250537109375,-0.01842101849615574,-0.635701060295105,-0.7531338334083557
1772561228999572200,6.832572265625,-0.17753344774246216,-0.568305492401123,-1.566050410270691
1772561229009638400,6.842638427734375,-0.4301321506500244,-0.5223873257637024,-2.2239527702331543
1772561229019705300,6.852705322265625,-0.4901382327079773,-0.6794992089271545,-2.445909023284912
1772561229029772300,6.862772216796875,-0.3899686932563782,-0.9351192712783813,-2.281217575073242
1772561229039838200,6.872838134765625,-0.12420518696308136,-1.055591344833374,-1.8384768962860107
1772561229049905400,6.882905517578125,0.21040114760398865,-0.735586404800415,-1.1824426651000977
1772561229059972400,6.892972412109375,0.5533677935600281,-0.12515684962272644,-0.19461368024349213
1772561229070038300,6.903038330078125,0.9093548059463501,0.31484219431877136,1.238674521446228
1772561229080105200,6.913105224609375,1.0820424556732178,0.374409943819046,2.925762414932251
1772561229090172400,6.92317236328125,0.9392096996307373,0.023532506078481674,4.27912712097168
1772561229100238300,6.93323828125,0.3437729775905609,-1.4131238460540771,4.184416770935059
1772561229110305300,6.94330517578125,-0.4626941978931427,-2.6904218196868896,2.513239860534668
1772561229120372200,6.953372314453125,-0.13119082152843475,-3.55759334564209,0.11737380176782608
1772561229130438400,6.9634384765625,1.0426344871520996,-3.4384102821350098,-2.466628313064575
1772561229140505300,6.97350537109375,2.678407907485962,-2.0088558197021484,-3.974342107772827
1772561229150572300,6.983572265625,3.48958420753479,0.02631918340921402,-3.7564356327056885
1772561229160638200,6.99363818359375,2.893213987350464,0.8970085382461548,-2.6581602096557617
1772561229170705400,7.003705322265625,1.5121128559112549,0.4882585108280182,-1.2338672876358032
1772561229180772400,7.0137724609375,0.019038768485188484,-0.6670329570770264,-0.12958332896232605
1772561229190838300,7.02383837890625,-0.8932943940162659,-1.9442567825317383,0.3957776427268982
1772561229200905200,7.0339052734375,-0.9038873910903931,-2.7000784873962402,0.45779895782470703
1772561229210972400,7.043972412109375,-0.32047343254089355,-2.415996789932251,0.31341496109962463
1772561229221038000,7.0540380859375,0.2525373697280884,-2.0938992500305176,0.35188430547714233
1772561229231105300,7.064105224609375,0.205686554312706,-2.4990406036376953,0.6322822570800781
1772561229241172200,7.074172119140625,-0.3815862536430359,-3.23941707611084,0.9293757081031799
1772561229251238100,7.084238037109375,-1.0555698871612549,-3.0695853233337402,1.033551573753357
1772561229261305300,7.094305419921875,-1.4621176719665527,-2.374706745147705,1.1223994493484497
1772561229271371000,7.10437109375,-1.9137924909591675,-1.9428826570510864,0.9231792092323303
1772561229281438200,7.114438232421875,-2.485245704650879,-0.8655152916908264,0.6379882097244263
1772561229291505400,7.12450537109375,-3.097562074661255,0.8516741394996643,0.66739422082901
1772561229301571000,7.134571044921875,-3.6421830654144287,2.1601009368896484,1.0782133340835571
1772561229311638000,7.144637939453125,-4.0375189781188965,2.2646644115448,1.5005606412887573
1772561229321705200,7.154705322265625,-4.359368324279785,1.5145094394683838,1.4314393997192383
1772561229331771100,7.164771240234375,-4.673287391662598,0.6684522032737732,0.6673471331596375
1772561229341838000,7.174838134765625,-4.854167461395264,0.1430305391550064,-0.726165235042572
1772561229351905000,7.184905029296875,-4.778491973876953,0.04337445646524429,-2.5340471267700195
1772561229361971200,7.19497119140625,-4.465277194976807,0.4440041482448578,-4.368022441864014
1772561229372038000,7.205037841796875,-3.743887424468994,0.8189557194709778,-5.976766586303711
1772561229382104800,7.215104736328125,-2.737811326980591,1.9590917825698853,-7.010982990264893
1772561229392171000,7.2251708984375,-1.0793348550796509,3.616711378097534,-6.536370277404785
1772561229402238000,7.235238037109375,0.3868398368358612,3.7973365783691406,-5.527768611907959
1772561229412305000,7.245304931640625,0.8517184257507324,2.6628382205963135,-4.498310565948486
1772561229422370800,7.255370849609375,0.9043568968772888,0.8708261847496033,-3.2066338062286377
1772561229432438000,7.26543798828125,0.9434250593185425,-1.2921061515808105,-1.7140257358551025
1772561229442505000,7.2755048828125,1.0022603273391724,-3.1142845153808594,-0.3538244962692261
1772561229452571000,7.28557080078125,1.046953558921814,-3.687000274658203,0.7610543370246887
1772561229462637800,7.295637939453125,1.047864556312561,-3.2391350269317627,1.5412729978561401
1772561229472704800,7.305704833984375,1.0268514156341553,-2.5617523193359375,1.9796745777130127
1772561229482771000,7.31577099609375,0.8758633732795715,-1.7790189981460571,2.088749408721924
1772561229492838000,7.325837890625,0.527109682559967,-0.9783595204353333,1.9301997423171997
1772561229502904800,7.33590478515625,-0.05826167017221451,-0.30706608295440674,1.6761250495910645
1772561229512970800,7.345970703125,-0.7571465969085693,0.16350068151950836,1.3525381088256836
1772561229523038000,7.356037841796875,-1.2717292308807373,0.45185816287994385,0.9783307313919067
1772561229533105000,7.36610498046875,-1.4222115278244019,0.5457192063331604,0.6378337144851685
1772561229543170800,7.3761708984375,-1.2695649862289429,0.5025941133499146,0.39638805389404297
1772561229553238000,7.386238037109375,-0.8578044772148132,0.2654494047164917,0.2531866133213043
1772561229563305000,7.396304931640625,-0.3976973295211792,-0.13572944700717926,0.15627364814281464
1772561229573370600,7.40637060546875,-0.016874024644494057,-0.6330385208129883,0.028974786400794983
1772561229583437800,7.416437744140625,0.30492743849754333,-0.955165445804596,-0.15659961104393005
1772561229593505000,7.426505126953125,0.6120202541351318,-0.7047193050384521,-0.3134123980998993
1772561229603570700,7.43657080078125,0.9483751058578491,-0.09189344942569733,-0.4175705015659332
1772561229613637600,7.4466376953125,1.0934685468673706,0.4902419447898865,-0.3042829930782318
1772561229623704800,7.456704833984375,1.0825916528701782,1.0717138051986694,0.03620852530002594
1772561229633770800,7.466770751953125,1.141487717628479,1.7756291627883911,0.6823567152023315
1772561229643837700,7.476837646484375,1.262886643409729,2.5475234985351562,1.5983821153640747
1772561229653905000,7.48690478515625,1.3541357517242432,2.949065685272217,2.6371419429779053
1772561229663970800,7.496970703125,1.3142956495285034,2.9796645641326904,3.8394875526428223
1772561229674037800,7.507037841796875,1.085092306137085,2.5293736457824707,5.095184326171875
1772561229684105000,7.51710498046875,0.7840908765792847,1.4576765298843384,6.08063268661499
1772561229694170600,7.527170654296875,0.5906949639320374,-0.2947345972061157,6.149806976318359
1772561229704237800,7.53723779296875,0.4537477493286133,-2.002007484436035,4.699467658996582
1772561229714303700,7.5473037109375,0.48084378242492676,-1.031162977218628,2.561023235321045
1772561229724370700,7.55737060546875,0.7695125937461853,0.6979564428329468,0.25028735399246216
1772561229734437600,7.567437744140625,1.0729166269302368,1.904283881187439,-2.086252212524414
1772561229744504600,7.577504638671875,1.8462709188461304,3.160005807876587,-3.2877888679504395
1772561229754570800,7.58757080078125,2.681882619857788,3.8438117504119873,-3.2255399227142334
1772561229764637700,7.5976376953125,2.9063315391540527,2.829007863998413,-2.514744997024536
1772561229774703600,7.60770361328125,2.3034064769744873,1.2062832117080688,-1.2972853183746338
1772561229784770800,7.617770751953125,1.1101675033569336,0.20625071227550507,0.17089354991912842
1772561229794837800,7.627837646484375,-0.09953442960977554,-0.5385292172431946,1.1360094547271729
1772561229804903700,7.637903564453125,-0.6209113597869873,-0.9484248757362366,1.6964119672775269
1772561229814970600,7.647970703125,-0.5621622800827026,-0.8701669573783875,2.003593683242798
1772561229825037800,7.658037841796875,-0.4661382734775543,-0.603905439376831,1.8548001050949097
1772561229835103700,7.668103759765625,-0.6095775961875916,-0.4829578697681427,1.2862138748168945
1772561229845170700,7.678170654296875,-0.8491840362548828,-0.7128550410270691,0.6527566313743591
1772561229855237600,7.688237548828125,-1.0088127851486206,-1.017810583114624,0.1916249543428421
1772561229865303800,7.6983037109375,-0.8767759799957275,-1.1553364992141724,0.029077572748064995
1772561229875370800,7.708370849609375,-0.5866602063179016,-0.7814677953720093,0.09875704348087311
1772561229885437700,7.718437744140625,-0.4460413455963135,-0.07238628715276718,0.24890658259391785
1772561229895504000,7.72850390625,-0.5191429853439331,0.5489368438720703,0.3731010854244232
1772561229905570800,7.73857080078125,-0.6024104356765747,1.0789247751235962,0.6106774806976318
1772561229915637800,7.7486376953125,-0.5526837110519409,1.5374338626861572,1.0756618976593018
1772561229925703700,7.75870361328125,-0.4989528954029083,1.8179411888122559,1.7019171714782715
1772561229935770600,7.7687705078125,-0.5220655798912048,1.777374267578125,2.2862870693206787
1772561229945837800,7.778837890625,-0.6078784465789795,1.761439561843872,2.7650442123413086
1772561229955903700,7.78890380859375,-0.5096170902252197,1.8978188037872314,3.033313512802124
1772561229965970700,7.798970703125,-0.45321929454803467,1.7807257175445557,2.7306182384490967
1772561229976037600,7.80903759765625,-0.5647585988044739,1.6329139471054077,1.8743162155151367
1772561229986103800,7.819103759765625,-0.6657240986824036,1.63624107837677,0.6667028665542603
1772561229996170800,7.829170654296875,-0.7261678576469421,1.716485857963562,-0.7352842092514038
1772561230006237700,7.83923779296875,-0.6115214824676514,1.9813741445541382,-2.0656604766845703
1772561230016303900,7.849303955078125,-0.2963540554046631,2.2026164531707764,-3.182177782058716
1772561230026370800,7.859370849609375,0.12212788313627243,2.1039042472839355,-3.988487720489502
1772561230036437800,7.869437744140625,0.6061000227928162,1.3119242191314697,-4.447098255157471
1772561230046503700,7.879503662109375,0.9711733460426331,-0.12351755797863007,-4.597619533538818
1772561230056571000,7.88957080078125,1.181545615196228,-1.5871495008468628,-4.470076560974121
1772561230066637800,7.899637939453125,1.4534647464752197,-2.263612985610962,-3.568866014480591
1772561230076703700,7.909703857421875,1.8732060194015503,-3.0782389640808105,-2.4138150215148926
1772561230086770700,7.919770751953125,1.7768797874450684,-3.555598020553589,-1.7677488327026367
1772561230096837600,7.929837646484375,1.5336310863494873,-3.1715087890625,-1.419809341430664
1772561230106903800,7.93990380859375,1.4490115642547607,-2.142463207244873,-0.9732110500335693
1772561230116970800,7.949970703125,1.2751652002334595,-1.0639125108718872,-0.45792922377586365
1772561230127037700,7.96003759765625,0.8191340565681458,-0.42278173565864563,-0.06187617406249046
1772561230137104000,7.970103759765625,0.10321104526519775,-0.1736682951450348,0.17492935061454773
1772561230147170800,7.9801708984375,-0.5911682844161987,-0.22800424695014954,0.431449294090271
1772561230157237800,7.99023779296875,-1.0878398418426514,-0.4292895495891571,0.6412619948387146
1772561230167303700,8.0003037109375,-1.3267706632614136,-0.5592427253723145,0.6095059514045715
1772561230177371000,8.010370849609375,-1.342919111251831,-0.5000994801521301,0.4039354920387268
1772561230187437800,8.020437744140626,-1.1982187032699585,-0.16645652055740356,0.09639417380094528
1772561230197503700,8.030503662109375,-0.9649066925048828,0.08183856308460236,-0.24570202827453613
1772561230207570700,8.04057080078125,-0.6058588027954102,-0.05750468373298645,-0.5352688431739807
1772561230217638000,8.050637939453125,-0.04657251387834549,-0.19558975100517273,-0.678777813911438
1772561230227703800,8.060703857421874,0.5703796148300171,-0.1045309528708458,-0.5737254619598389
1772561230237770800,8.070770751953125,1.0618492364883423,0.10383745282888412,-0.24556048214435577
1772561230247837700,8.080837646484374,1.3840738534927368,0.5019099712371826,0.3146602213382721
1772561230257903900,8.09090380859375,1.5846630334854126,1.0533185005187988,1.1552627086639404
1772561230267970800,8.100970703125,1.6178665161132812,1.5343040227890015,2.162346601486206
1772561230278036700,8.11103662109375,1.4769878387451172,1.8603218793869019,3.248725414276123
1772561230288104000,8.12110400390625,1.2147016525268555,2.0022425651550293,4.318766117095947
1772561230298171000,8.1311708984375,0.8085787892341614,1.3254584074020386,5.0220489501953125
1772561230308236800,8.14123681640625,0.46676182746887207,-0.7962040901184082,4.874549388885498
1772561230318303700,8.1513037109375,0.15927793085575104,-2.773421287536621,3.156975269317627
1772561230328370700,8.16137060546875,0.49841949343681335,-1.281053066253662,1.0979417562484741
1772561230338436900,8.171436767578125,1.055324912071228,2.674685478210449,0.10200762748718262
1772561230348503800,8.18150390625,1.1899093389511108,3.8343026638031006,-0.2589591145515442
1772561230358570800,8.19157080078125,1.1995854377746582,3.1219239234924316,0.12760166823863983
1772561230368636400,8.201636474609375,1.4901245832443237,2.1573128700256348,1.1865270137786865
1772561230378703400,8.211703369140626,1.6264055967330933,1.0133450031280518,2.1864864826202393
1772561230388770300,8.221770263671875,1.4494636058807373,-0.1936129331588745,2.7720067501068115
1772561230398836500,8.23183642578125,1.1100833415985107,-0.6846185922622681,3.1336417198181152
1772561230408903400,8.2419033203125,0.5913355350494385,-0.984905481338501,3.0270602703094482
1772561230418970400,8.251970458984376,0.2223733812570572,-1.27678382396698,2.348546028137207
1772561230429036300,8.262036376953125,0.32940077781677246,-1.021220326423645,1.4853544235229492
1772561230439103500,8.272103515625,0.5408793687820435,-0.4252016544342041,0.525648832321167
1772561230449170400,8.28217041015625,0.4236541986465454,0.01155170239508152,-0.3780363202095032
1772561230459236400,8.292236328125,-0.02591017633676529,0.2511821985244751,-0.897355318069458
1772561230469303300,8.30230322265625,-0.5189360976219177,0.23152941465377808,-0.8835428357124329
1772561230479370200,8.312370361328124,-0.8253232836723328,-0.03602138161659241,-0.4043954014778137
1772561230489436400,8.3224365234375,-0.9572759866714478,-0.4017980396747589,0.28684431314468384
1772561230499503400,8.33250341796875,-0.9962364435195923,-0.9302005767822266,0.8424035906791687
1772561230509570300,8.3425703125,-0.9344969391822815,-1.1789058446884155,1.0449131727218628
1772561230519636500,8.352636474609374,-0.7909736633300781,-0.800777792930603,1.0159837007522583
1772561230529703400,8.362703369140625,-0.5437612533569336,-0.07974342256784439,0.9910444617271423
1772561230539770400,8.372770263671875,-0.2774858772754669,0.5111914873123169,1.1059215068817139
1772561230549836300,8.382836181640625,-0.18697115778923035,0.807738721370697,1.248240351676941
1772561230559903500,8.392903564453125,-0.266011118888855,0.8492665886878967,1.3468987941741943
1772561230569970400,8.402970458984376,-0.3444044589996338,0.6674333810806274,1.3091305494308472
1772561230580036400,8.413036376953125,-0.5459911823272705,0.14865663647651672,0.8964197635650635
1772561230590103300,8.423103271484376,-0.7550346255302429,-0.020374469459056854,0.24726466834545135
1772561230600170500,8.43317041015625,-0.823462188243866,0.2024398148059845,-0.5036118626594543
1772561230610236400,8.443236328125,-0.7502540349960327,0.6796755790710449,-1.2444071769714355
1772561230620303400,8.453303466796875,-0.5609623193740845,1.1150038242340088,-1.8325631618499756
1772561230630370300,8.463370361328124,-0.32510265707969666,1.2818872928619385,-2.246577024459839
1772561230640436500,8.4734365234375,-0.10775087028741837,1.031192421913147,-2.455271005630493
1772561230650503400,8.48350341796875,0.05239832028746605,0.47382476925849915,-2.4648079872131348
1772561230660570400,8.4935703125,0.28479015827178955,0.14097432792186737,-2.0313823223114014
1772561230670636300,8.50363623046875,0.6091133952140808,-0.2206384688615799,-1.3193516731262207
1772561230680703500,8.513703369140625,0.6386522650718689,-0.64383864402771,-0.6774355173110962
1772561230690770400,8.5237705078125,0.44892042875289917,-1.1516484022140503,-0.18628178536891937
1772561230700836400,8.53383642578125,0.26674652099609375,-1.7174876928329468,0.05269381403923035
1772561230710903300,8.5439033203125,0.17935943603515625,-2.013284683227539,-0.08280222117900848
1772561230720970500,8.553970458984375,0.28246909379959106,-1.7150267362594604,-0.48088520765304565
1772561230731036200,8.5640361328125,0.484439492225647,-0.8425703644752502,-0.9326624870300293
1772561230741103400,8.574103271484375,0.5672928094863892,0.12901371717453003,-1.279924988746643
1772561230751170300,8.58417041015625,0.45772504806518555,0.678492546081543,-1.3940882682800293
1772561230761236200,8.594236328125,0.2535485327243805,0.8713669180870056,-1.203059196472168
1772561230771303400,8.604303466796875,0.05691405013203621,0.7499446272850037,-0.7783869504928589
1772561230781370400,8.614370361328126,-0.09220024943351746,0.4019392132759094,-0.28277841210365295
1772561230791436300,8.624436279296875,-0.16222833096981049,-0.026038479059934616,0.13266831636428833
1772561230801503500,8.63450341796875,-0.1958387941122055,-0.36297035217285156,0.3840429186820984
1772561230811570400,8.6445703125,-0.17903956770896912,-0.5665671825408936,0.4683530032634735
1772561230821636000,8.654635986328126,-0.10446202754974365,-0.7413381934165955,0.4803425371646881
1772561230831703300,8.664703369140625,0.05702593922615051,-0.9660911560058594,0.49042126536369324
1772561230841769200,8.674769287109376,0.2569294571876526,-1.1639386415481567,0.47492343187332153
1772561230851836200,8.684836181640625,0.40173324942588806,-1.2283985614776611,0.4596869647502899
1772561230861903000,8.694903076171874,0.45839357376098633,-1.2247908115386963,0.46630650758743286
1772561230871969300,8.70496923828125,0.46191003918647766,-1.1079884767532349,0.5193873047828674
1772561230882036200,8.7150361328125,0.48337239027023315,-0.8379910588264465,0.6149815917015076
1772561230892103200,8.725103271484375,0.5513586401939392,-0.512403130531311,0.7207043170928955
1772561230902169300,8.73516943359375,0.6840065717697144,-0.15009230375289917,0.8597851991653442
1772561230912236300,8.745236328125,0.7145828604698181,0.2220676839351654,1.0088342428207397
1772561230922303200,8.75530322265625,0.469304621219635,-0.10497419536113739,0.8100091218948364
1772561230932369200,8.765369140625,-0.13695627450942993,-0.513346254825592,0.03481752425432205
1772561230942436000,8.77543603515625,-0.6026760339736938,0.5621259808540344,-0.5213518142700195
1772561230952503300,8.78550341796875,-0.5786002278327942,2.291416883468628,-0.5045880675315857
1772561230962569200,8.7955693359375,-0.2722013592720032,2.7323594093322754,-0.4326007068157196
1772561230972636200,8.80563623046875,0.08323848992586136,2.437437057495117,-0.4618544578552246
1772561230982703000,8.815703125,0.4901619553565979,2.1841609477996826,-0.2510294020175934
1772561230992769300,8.825769287109376,0.7653290629386902,1.7179569005966187,0.2499106377363205
1772561231002836200,8.835836181640625,0.7515369057655334,1.1515823602676392,0.9157896637916565
1772561231012903200,8.845903076171876,0.32853612303733826,0.4552347660064697,1.4795401096343994
1772561231022969300,8.85596923828125,-0.3560445010662079,-0.5012181997299194,1.6830044984817505
1772561231033036300,8.866036376953126,-0.7563724517822266,-1.254936933517456,1.6752821207046509
1772561231043103200,8.876103271484375,-0.5577823519706726,-1.5056387186050415,1.6005390882492065
1772561231053169200,8.886169189453126,0.0811438262462616,-1.4067538976669312,1.4511840343475342
1772561231063236400,8.896236328125,0.5708610415458679,-1.2475626468658447,1.045261263847351
1772561231073303300,8.90630322265625,0.6989470720291138,-1.3529894351959229,0.42904192209243774
1772561231083369200,8.916369140625,0.611892819404602,-1.8315284252166748,-0.1268802434206009
1772561231093436200,8.926436279296874,0.5559659004211426,-2.4497952461242676,-0.38597598671913147
1772561231103503000,8.936503173828125,0.5906484127044678,-2.9395880699157715,-0.29624539613723755
1772561231113569300,8.9465693359375,0.5874672532081604,-3.171128749847412,0.017364991828799248
1772561231123636200,8.95663623046875,0.41132238507270813,-2.606955051422119,0.36476635932922363
1772561231133703200,8.966703125,0.06072787940502167,-1.3788968324661255,0.6418679356575012
1772561231143769300,8.976769287109375,-0.3405311703681946,-0.09512466192245483,0.8437934517860413
1772561231153836300,8.986836181640625,-0.6824634671211243,0.7623804211616516,0.9930707812309265
1772561231163903200,8.9969033203125,-0.8881136178970337,1.2303959131240845,1.0526686906814575
1772561231173969200,9.00696923828125,-0.9342328906059265,1.5266441106796265,1.0493195056915283
1772561231184036400,9.017036376953126,-0.9542591571807861,1.1467041969299316,0.7881960868835449
1772561231194103300,9.027103271484375,-1.2020432949066162,0.3540195822715759,0.00407545967027545
1772561231204169200,9.037169189453126,-1.4233753681182861,-0.25723329186439514,-1.1680145263671875
1772561231214236200,9.047236083984375,-1.3953781127929688,-0.4516376554965973,-2.5588018894195557
1772561231224303400,9.057303466796874,-1.050125002861023,-0.25968366861343384,-3.8139986991882324
1772561231234369300,9.067369384765625,-0.514094352722168,0.5390841364860535,-4.558991432189941
1772561231244436200,9.077436279296874,0.39317789673805237,1.5531514883041382,-4.123084545135498
1772561231254503200,9.087503173828125,1.231709361076355,1.6270720958709717,-3.072282314300537
1772561231264569300,9.0975693359375,1.234487771987915,0.9714930057525635,-2.152391195297241
1772561231274636300,9.10763623046875,0.7225687503814697,0.11489841341972351,-1.3270429372787476
1772561231284703200,9.117703125,0.23801057040691376,-0.6234609484672546,-0.5650107264518738
1772561231294769400,9.127769287109375,0.05269849672913551,-0.9817340970039368,-0.04453317075967789
1772561231304836400,9.13783642578125,0.12328404933214188,-1.0530309677124023,0.10095661878585815
1772561231314903300,9.1479033203125,0.2825794219970703,-1.0441029071807861,-0.09699561446905136
1772561231324969200,9.15796923828125,0.3848678469657898,-1.019046664237976,-0.6021455526351929
1772561231335036200,9.1680361328125,0.3844177722930908,-0.7937397956848145,-1.2871664762496948
1772561231345103400,9.178103271484375,0.2821914255619049,-0.1850532442331314,-1.897446870803833
1772561231355169300,9.188169189453125,0.14081379771232605,0.7658089995384216,-2.1895911693573
1772561231365236200,9.198236328125,-0.04732636362314224,1.6419774293899536,-1.9973955154418945
1772561231375304000,9.208303955078126,-0.3113369643688202,1.9316470623016357,-1.335959792137146
1772561231385370000,9.2183701171875,-0.699225664138794,1.490363597869873,-0.45717328786849976
1772561231395437000,9.22843701171875,-1.137203574180603,0.7068558931350708,0.38605165481567383
1772561231405504000,9.23850390625,-1.4950913190841675,-0.04475998505949974,0.9782537221908569
1772561231415570000,9.24856982421875,-1.634028434753418,-0.5257366895675659,1.3108255863189697
1772561231425637000,9.25863720703125,-1.5291094779968262,-0.6721292734146118,1.4009746313095093
1772561231435704000,9.2687041015625,-1.2629458904266357,-0.44515496492385864,1.2941291332244873
1772561231445770000,9.27877001953125,-0.9346501231193542,0.05875147879123688,1.0668671131134033
1772561231455837000,9.2888369140625,-0.704095184803009,0.4508955776691437,0.7265926003456116
1772561231465903000,9.298903076171875,-0.5432230234146118,0.7512299418449402,0.4739595651626587
1772561231475970000,9.308969970703124,-0.4292985796928406,0.996997058391571,0.37567374110221863
1772561231486037000,9.319037109375,-0.4561891257762909,1.4736801385879517,0.3059048056602478
1772561231496103200,9.329103271484374,-0.55567467212677,2.2860376834869385,0.33540305495262146
1772561231506170000,9.339170166015625,-0.6079530119895935,3.0375163555145264,0.39994364976882935
1772561231516237000,9.349237060546875,-0.6803395748138428,2.588540554046631,0.05229726806282997
1772561231526303000,9.359302978515625,-1.0405948162078857,0.82734215259552,-1.039475440979004
1772561231536370000,9.369369873046875,-1.6522784233093262,1.3906159400939941,-2.2976255416870117
1772561231546437000,9.37943701171875,-1.5597119331359863,4.793165683746338,-2.656853675842285
1772561231556504000,9.389504150390625,-0.7141958475112915,7.525382995605469,-2.3712551593780518
1772561231566571000,9.399571044921874,0.636222243309021,8.061023712158203,-1.751372218132019
1772561231576637000,9.409636962890625,1.9790838956832886,6.884946346282959,-0.9342083930969238
1772561231586704100,9.4197041015625,2.423522710800171,4.259732246398926,-0.26724451780319214
1772561231596771000,9.42977099609375,2.273625135421753,1.6084858179092407,0.5040093660354614
1772561231606837000,9.4398369140625,2.2090368270874023,-0.17375798523426056,1.7244842052459717
1772561231616904000,9.449904052734375,2.1151041984558105,-1.54058837890625,2.9090006351470947
1772561231626971000,9.459970947265624,1.9635788202285767,-2.406266927719116,3.8560988903045654
1772561231637037000,9.470037109375,1.8609951734542847,-2.8771328926086426,4.870565891265869
1772561231647104000,9.48010400390625,1.5910524129867554,-3.270380973815918,5.7790327072143555
1772561231657171000,9.4901708984375,0.9045949578285217,-3.4150102138519287,5.950432300567627
1772561231667237000,9.500237060546874,0.3487115204334259,-3.680433511734009,5.2752485275268555
1772561231677304000,9.510303955078125,0.36022332310676575,-3.6915347576141357,4.113008975982666
1772561231687371000,9.52037109375,1.0137197971343994,-3.0939643383026123,2.826267957687378
1772561231697437000,9.53043701171875,1.73873770236969,-2.4455373287200928,1.526715874671936
1772561231707504000,9.540504150390625,1.9604815244674683,-1.8197014331817627,0.22934623062610626
1772561231717571000,9.550571044921876,1.770424723625183,-1.2545832395553589,-0.8203110098838806
1772561231727637000,9.560636962890625,1.3573858737945557,-0.6147955060005188,-1.5485291481018066
1772561231737704000,9.570703857421876,1.0833617448806763,0.033281538635492325,-1.7344383001327515
1772561231747771100,9.580771240234375,0.8222225904464722,0.4682169556617737,-1.239248514175415
1772561231757837000,9.590837158203126,0.576491117477417,0.05666777864098549,-0.23778705298900604
1772561231767904000,9.600904052734375,0.11683828383684158,-0.6669132113456726,0.4998709261417389
1772561231777971000,9.610970947265624,-0.30458590388298035,-0.7226718068122864,0.8360238671302795
1772561231788037000,9.621037109375,-0.6138790249824524,-0.8103386163711548,0.6968960762023926
1772561231798104000,9.63110400390625,-0.8819898366928101,-0.5849089622497559,-0.08310090750455856
1772561231808171000,9.6411708984375,-0.9450344443321228,-0.21465367078781128,-1.2836129665374756
1772561231818237200,9.6512373046875,-0.9139673113822937,0.250706285238266,-2.737055778503418
1772561231828304100,9.66130419921875,-0.7884972095489502,0.7513567805290222,-4.107787609100342
1772561231838371000,9.67137109375,-0.6323440670967102,0.8304614424705505,-5.198193073272705
1772561231848437000,9.68143701171875,-0.48849523067474365,0.259982705116272,-5.938399314880371
1772561231858504000,9.69150390625,-0.38233762979507446,-0.3319131135940552,-6.087061405181885
1772561231868571100,9.701571044921875,-0.16230334341526031,-0.694597601890564,-5.225484371185303
1772561231878637000,9.711636962890625,-0.2842028737068176,-1.3455485105514526,-4.2641282081604
1772561231888704000,9.7217041015625,-1.0631271600723267,-2.0112144947052,-3.73449969291687
1772561231898771000,9.73177099609375,-1.8423347473144531,-2.6560001373291016,-3.51827073097229
1772561231908837000,9.741837158203126,-2.0347952842712402,-2.8870129585266113,-3.2899882793426514
1772561231918904000,9.751904052734375,-1.780592679977417,-2.7706987857818604,-3.0325207710266113
1772561231928971000,9.761970947265626,-1.4673339128494263,-2.670649290084839,-2.8982913494110107
1772561231939037200,9.772037109375,-1.2793102264404297,-2.5347537994384766,-2.689159631729126
1772561231949104000,9.782104248046876,-1.2719303369522095,-2.3529086112976074,-2.2226765155792236
1772561231959171000,9.792171142578125,-1.5382920503616333,-2.208639621734619,-1.496219515800476
1772561231969237000,9.802237060546876,-2.0007565021514893,-2.0552256107330322,-0.6018062829971313
1772561231979304200,9.81230419921875,-2.5125603675842285,-1.9550641775131226,0.20016951858997345
1772561231989371100,9.82237109375,-2.891737937927246,-1.9447088241577148,0.7279580235481262
1772561231999437000,9.83243701171875,-3.0062179565429688,-1.8768922090530396,0.8922953009605408
1772561232009504000,9.84250390625,-2.879049777984619,-1.5004017353057861,0.6170486807823181
1772561232019571000,9.852571044921875,-2.677269220352173,-1.0822468996047974,0.24969996511936188
1772561232029637000,9.86263720703125,-2.4599013328552246,-0.7126485109329224,-0.20261390507221222
1772561232039704000,9.8727041015625,-1.9101516008377075,-0.1840459406375885,-0.5901813507080078
1772561232049771000,9.88277099609375,-1.1421788930892944,0.6761385798454285,-0.6981093287467957
1772561232059837200,9.892837158203125,-0.339363157749176,1.1109931468963623,-0.4942331314086914
1772561232069904100,9.902904052734375,0.36125168204307556,1.0046191215515137,0.06344196200370789
1772561232079971000,9.91297119140625,0.9032009243965149,0.9529519081115723,1.117593765258789
1772561232090037000,9.923037109375,1.0783854722976685,1.111820101737976,2.1249983310699463
1772561232100104200,9.933104248046876,0.8852378129959106,1.5989760160446167,2.577711343765259
1772561232110171100,9.943171142578125,0.8103518486022949,1.2182358503341675,2.1456594467163086
1772561232120237000,9.953237060546876,0.9216551780700684,-0.4522143006324768,0.3651701807975769
1772561232130304000,9.963303955078125,1.245283842086792,0.6567428112030029,-1.6286234855651855
1772561232140371200,9.97337109375,1.6751518249511719,4.1866455078125,-2.652369976043701
1772561232150437000,9.98343701171875,2.059508800506592,6.470426559448242,-2.995223045349121
1772561232160504000,9.993504150390624,2.90543270111084,6.740485191345215,-2.1843297481536865
1772561232170571000,10.003571044921875,3.9946036338806152,5.473970890045166,-0.01878112182021141
1772561232180637200,10.01363720703125,4.2523908615112305,2.7461202144622803,2.720176935195923
1772561232190704000,10.0237041015625,3.394275665283203,-0.03178402781486511,5.261000633239746
1772561232200771000,10.03377099609375,1.9993101358413696,-2.420487880706787,6.992923259735107
1772561232210837200,10.043837158203125,0.9861758351325989,-4.098304271697998,7.608990669250488
1772561232220904200,10.053904296875,0.7147434949874878,-3.732698678970337,7.188413619995117
1772561232230971100,10.06397119140625,0.8550244569778442,-1.9452478885650635,5.784858703613281
1772561232241037000,10.074037109375,0.919678270816803,0.10535959154367447,3.9593963623046875
1772561232251104000,10.08410400390625,0.921133279800415,1.71806001663208,2.5056967735290527
1772561232261171200,10.094171142578125,0.43747979402542114,1.9108827114105225,1.3449327945709229
1772561232271237000,10.104237060546875,-0.5665146112442017,1.078176498413086,0.38136205077171326
1772561232281304000,10.114303955078125,-1.4181476831436157,0.2426730841398239,-0.2606765627861023
1772561232291371000,10.12437109375,-1.670562505722046,0.00461359228938818,-0.6855555772781372
1772561232301437200,10.134437255859375,-1.311598777770996,0.28319355845451355,-0.8641769886016846
1772561232311504100,10.144504150390626,-0.7465081214904785,0.7469236850738525,-0.8683278560638428
1772561232321571000,10.154571044921875,-0.36046531796455383,0.8767032623291016,-0.6786566972732544
1772561232331637200,10.16463720703125,-0.24718275666236877,0.42645013332366943,-0.3824084401130676
1772561232341704200,10.1747041015625,-0.30863091349601746,-0.4707046449184418,-0.3388393819332123
1772561232351771100,10.184771240234374,-0.4462462067604065,-1.3251996040344238,-0.7828670740127563
1772561232361837000,10.194837158203125,-0.5519925951957703,-1.7259472608566284,-1.772309422492981
1772561232371904000,10.204904052734374,-0.473611980676651,-1.511802077293396,-3.0486178398132324
1772561232381971000,10.214970947265625,-0.3076310157775879,-0.9887313842773438,-4.298055648803711
1772561232392036900,10.225036865234374,-0.19156114757061005,-0.5149684548377991,-5.29472541809082
1772561232402103800,10.235103759765625,-0.11487863212823868,0.2262156903743744,-5.6623430252075195
1772561232412171000,10.2451708984375,0.31729891896247864,0.9145228266716003,-4.777395248413086
1772561232422237000,10.25523681640625,0.31513136625289917,0.521917462348938,-3.652582883834839
1772561232432303900,10.265303955078124,-0.1813277304172516,-0.49986302852630615,-2.6123359203338623
1772561232442370800,10.275370849609375,-0.5266254544258118,-1.5696953535079956,-1.6321930885314941
1772561232452437000,10.28543701171875,-0.4106924831867218,-2.286463737487793,-0.9231230020523071
1772561232462504000,10.29550390625,-0.005497864447534084,-2.5854828357696533,-0.6170045733451843
1772561232472571000,10.30557080078125,0.42913517355918884,-2.7442588806152344,-0.6535117626190186
1772561232482637000,10.315636962890625,0.7810932397842407,-2.569892406463623,-0.9377288818359375
1772561232492704000,10.3257041015625,0.9359741806983948,-1.9627870321273804,-1.3851593732833862
1772561232502771000,10.33577099609375,0.8884969353675842,-1.1950571537017822,-1.9327601194381714
1772561232512836900,10.3458369140625,0.7501929402351379,-0.4050837755203247,-2.3354873657226562
1772561232522903800,10.35590380859375,0.5699217319488525,0.22732029855251312,-2.449746608734131
1772561232532971000,10.365970947265625,0.41069871187210083,0.6471022367477417,-2.3254804611206055
1772561232543037000,10.376036865234376,0.291024774312973,0.8037158250808716,-1.9978876113891602
1772561232553104000,10.386103759765625,0.26128843426704407,0.7835279107093811,-1.5432785749435425
1772561232563170800,10.3961708984375,0.34441259503364563,0.6131178140640259,-1.0821024179458618
1772561232573237000,10.406237060546875,0.528661847114563,0.4846298396587372,-0.6277358531951904
1772561232583304000,10.416303955078124,0.6983773708343506,0.3490491211414337,-0.17540676891803741
1772561232593371000,10.426370849609375,0.7613098621368408,0.11656566709280014,0.2441585808992386
1772561232603437000,10.43643701171875,0.7912698984146118,-0.22566011548042297,0.6586114764213562
1772561232613504000,10.44650390625,0.8257491588592529,-0.7115254998207092,1.1436635255813599
1772561232623571000,10.456571044921875,0.8718964457511902,-1.3397765159606934,1.7004226446151733
1772561232633636900,10.466636962890625,0.9219832420349121,-2.1505074501037598,2.263150215148926
1772561232643704000,10.4767041015625,0.907713770866394,-2.9427030086517334,2.8024299144744873
1772561232653771000,10.48677099609375,0.7701228260993958,-3.1987266540527344,3.293853759765625
1772561232663837000,10.4968369140625,0.5286846160888672,-2.7688827514648438,3.6158156394958496
1772561232673903900,10.50690380859375,0.19914142787456512,-2.270618200302124,3.5276858806610107
1772561232683970800,10.516970703125,-0.08279518038034439,-2.474749803543091,2.654588460922241
1772561232694037000,10.527037109375,-0.4378092586994171,-2.9616050720214844,1.0806543827056885
1772561232704104000,10.53710400390625,-0.7638267874717712,-2.644261598587036,-0.3883686363697052
1772561232714171000,10.5471708984375,-0.7988794445991516,-2.0050361156463623,-1.177006721496582
1772561232724236800,10.55723681640625,-0.5460482239723206,-1.7156089544296265,-1.0797529220581055
1772561232734304000,10.567303955078126,-0.4166608154773712,-1.596056342124939,-0.3955479860305786
1772561232744371000,10.577370849609375,-0.6193037033081055,-1.4494816064834595,0.5680177807807922
1772561232754436600,10.5874365234375,-1.090570092201233,-1.533968210220337,1.3321024179458618
1772561232764504000,10.597504150390625,-1.5889354944229126,-1.864575743675232,1.613724946975708
1772561232774571000,10.607571044921874,-1.83929443359375,-2.2005481719970703,1.4425309896469116
1772561232784636700,10.61763671875,-1.755456805229187,-2.296663999557495,0.9395501017570496
1772561232794704000,10.627703857421874,-1.4675036668777466,-2.127419948577881,0.24893446266651154
1772561232804771000,10.63777099609375,-1.0684058666229248,-1.684964895248413,-0.5728731155395508
1772561232814836700,10.647836669921874,-0.8813737034797668,-0.9528641104698181,-1.279412031173706
1772561232824903700,10.657903564453125,-0.8141411542892456,-0.40560901165008545,-1.747116208076477
1772561232834971000,10.667970947265625,-0.8596854209899902,-0.1487804353237152,-2.0940661430358887
1772561232845036800,10.678036865234375,-0.9319039583206177,0.8721622824668884,-2.0233829021453857
1772561232855103700,10.688103759765625,-0.984904408454895,1.9963175058364868,-1.8039363622665405
1772561232865171000,10.6981708984375,-1.0028586387634277,2.9345643520355225,-1.463759183883667
1772561232875236900,10.70823681640625,-1.0579246282577515,3.9215476512908936,-0.9620639085769653
1772561232885303800,10.7183037109375,-0.9604787826538086,2.6878161430358887,-0.7375043034553528
1772561232895371000,10.72837109375,-0.45369952917099,-1.7119592428207397,-1.0052624940872192
1772561232905436700,10.738436767578126,-0.1481689065694809,-2.379084825515747,-0.23029087483882904
1772561232915503600,10.748503662109375,-0.1959696114063263,-1.856078028678894,0.29877302050590515
1772561232925571000,10.758571044921876,-0.2852105498313904,-1.2575818300247192,0.4487963616847992
1772561232935636700,10.76863671875,-0.3164067566394806,-0.33406591415405273,0.6499917507171631
1772561232945703700,10.77870361328125,-0.26743707060813904,0.6035579442977905,0.8863092064857483
1772561232955770600,10.7887705078125,-0.20741234719753265,1.3512506484985352,1.1114007234573364
1772561232965836800,10.7988369140625,-0.2408701777458191,1.8525546789169312,1.2757470607757568
1772561232975903700,10.80890380859375,-0.36233797669410706,2.0476884841918945,1.3214092254638672
1772561232985970700,10.818970703125,-0.49188876152038574,2.0046770572662354,1.3009237051010132
1772561232996036900,10.829036865234375,-0.5313165187835693,1.8766355514526367,1.325451374053955
1772561233006103800,10.839103759765624,-0.46081167459487915,1.7357633113861084,1.4283548593521118
1772561233016170800,10.849170654296875,-0.3434388041496277,1.6599379777908325,1.5514546632766724
1772561233026236700,10.859236572265624,-0.21294526755809784,1.6611928939819336,1.6422721147537231
1772561233036304000,10.869303955078125,-0.08784254640340805,1.5580074787139893,1.701172947883606
1772561233046370800,10.879370849609375,0.017071351408958435,1.3703603744506836,1.7339143753051758
1772561233056436700,10.889436767578125,0.10141197592020035,1.1690618991851807,1.7666093111038208
1772561233066503700,10.899503662109375,0.19433286786079407,1.062716007232666,1.8220006227493286
1772561233076570600,10.909570556640626,0.29438844323158264,1.1217987537384033,1.9174041748046875
1772561233086636800,10.91963671875,0.38259342312812805,1.1291751861572266,1.999692440032959
1772561233096703700,10.929703857421876,0.4254802465438843,1.12588632106781,2.0203065872192383
1772561233106770700,10.939770751953125,0.4316345453262329,1.1797466278076172,2.018805742263794
1772561233116837600,10.949837646484376,0.38026994466781616,1.2269846200942993,1.9470444917678833
1772561233126903800,10.95990380859375,0.2577669322490692,1.0768736600875854,1.7802940607070923
1772561233136970800,10.969970703125,0.126982644200325,1.1395951509475708,1.5924121141433716
1772561233147037700,10.98003759765625,0.04836426302790642,1.55892014503479,1.4681096076965332
1772561233157103900,10.990103759765624,0.07248125225305557,2.1078577041625977,1.4426082372665405
1772561233167170800,11.0001708984375,0.1923259049654007,2.1960198879241943,1.2683138847351074
1772561233177237800,11.01023779296875,0.3311150372028351,1.7358009815216064,0.8484703302383423
1772561233187303700,11.0203037109375,0.42808738350868225,1.291858196258545,0.33380916714668274
1772561233197371000,11.030370849609374,0.4767012298107147,0.9923549294471741,-0.18418431282043457
1772561233207437800,11.040437744140625,0.517516016960144,0.7769249081611633,-0.6176363825798035
1772561233217503700,11.050503662109374,0.5685056447982788,0.6653323173522949,-0.9090996384620667
1772561233227570700,11.06057080078125,0.6411426067352295,0.6773620843887329,-1.0277466773986816
1772561233237637600,11.0706376953125,0.7266701459884644,0.8016716241836548,-0.9865872859954834
1772561233247703800,11.080703857421875,0.7963557839393616,0.9912106394767761,-0.8147510886192322
1772561233257770800,11.090770751953125,0.817673921585083,1.2765486240386963,-0.5391097664833069
1772561233267837700,11.100837646484376,0.8010483384132385,1.5805630683898926,-0.23061367869377136
1772561233277904000,11.11090380859375,0.7490300536155701,1.757169485092163,0.06562066078186035
1772561233287970800,11.120970703125,0.6787324547767639,1.7301051616668701,0.29081836342811584
1772561233298037800,11.131037841796875,0.5772165060043335,1.5388286113739014,0.44969162344932556
1772561233308103700,11.141103759765626,0.4814321994781494,1.2865487337112427,0.5337759256362915
1772561233318171000,11.1511708984375,0.3836657702922821,1.0583891868591309,0.5646376609802246
1772561233328237800,11.16123779296875,0.2845889925956726,1.0275297164916992,0.5860020518302917
1772561233338303700,11.1713037109375,0.19997967779636383,1.1045527458190918,0.6040909290313721
1772561233348370700,11.18137060546875,0.13589656352996826,1.0982773303985596,0.6510826945304871
1772561233358438000,11.19143798828125,0.11421431601047516,0.8612434267997742,0.6206371188163757
1772561233368503600,11.201503662109374,0.18142318725585938,0.6287321448326111,0.603726863861084
1772561233378570500,11.211570556640625,0.3117964565753937,0.35128021240234375,0.5598626732826233
1772561233388637400,11.221637451171874,0.4165162146091461,0.01936056837439537,0.4530627131462097
1772561233398703600,11.23170361328125,0.4598836600780487,-0.30929529666900635,0.29773595929145813
1772561233408770600,11.2417705078125,0.45125770568847656,-0.5370675325393677,0.13498833775520325
1772561233418837500,11.25183740234375,0.384304404258728,-0.7773739099502563,-0.041230183094739914
1772561233428903700,11.261903564453124,0.29284903407096863,-1.052525281906128,-0.23019742965698242
1772561233438970600,11.271970703125,0.2139960527420044,-1.2146257162094116,-0.39719974994659424
