time,seconds_elapsed,z,y,x
1772713698301081900,0.086081787109375,-0.0040794298984110355,0.07178843766450882,0.03249562531709671
1772713698311057200,0.09605712890625,-0.000922519015148282,0.02165069989860058,0.00640783179551363
1772713698321031200,0.10603125,-0.0011885687708854675,-0.034382209181785583,-0.018268752843141556
1772713698331006000,0.116005859375,0.0005704491049982607,-0.05902337282896042,-0.029878802597522736
1772713698340981000,0.12598095703125,-0.0032266860362142324,-0.040172986686229706,-0.022905316203832626
1772713698350955000,0.135955078125,-0.0027771443128585815,-0.0019837887957692146,-0.0054882424883544445
1772713698360930000,0.145929931640625,-0.0026040389202535152,0.03069532848894596,0.01121989730745554
1772713698370904000,0.155904052734375,-0.001582982949912548,0.03271932899951935,0.012870791368186474
1772713698380878800,0.16587890625,-0.003310841741040349,0.01167689636349678,0.001119060325436294
1772713698390854000,0.17585400390625,-0.00021145498612895608,-0.015033810399472713,-0.007952732034027576
1772713698400832000,0.18583203125,0.00040852889651432633,-0.027243072167038918,-0.012260394170880318
1772713698410806800,0.195806884765625,-0.0006468818173743784,-0.022461898624897003,-0.013248959556221962
1772713698420780800,0.20578076171875,-0.0036826191935688257,-0.0032684975303709507,-0.005504753906279802
1772713698430755800,0.215755859375,-0.00361817074008286,0.012892895378172398,0.001085504423826933
1772713698440729900,0.225729736328125,0.0002567287301644683,0.016446085646748543,0.002273007994517684
1772713698450705000,0.235704833984375,-0.0016977651976048946,0.004481833893805742,-0.0044019389897584915
1772713698460679700,0.2456796875,-0.00216514989733696,-0.007463242392987013,-0.010029198601841927
1772713698470653700,0.25565380859375,-0.002499376656487584,-0.015749135985970497,-0.013257482089102268
1772713698480629000,0.26562890625,-0.0026112294290214777,-0.01085664238780737,-0.010466755367815495
1772713698490603000,0.27560302734375,-0.002567287301644683,-0.004724713973701,-0.007685083895921707
1772713698500578000,0.285578125,-0.00478277076035738,0.002028796123340726,-0.006549512036144733
1772713698510552800,0.295552734375,-0.003350256709381938,0.008347411639988422,-0.004799282643944025
1772713698520526800,0.30552685546875,-0.002046372974291444,-0.0021286646369844675,-0.00803342554718256
1772713698530502000,0.315501953125,-0.0007243797881528735,-0.0017249294323846698,-0.007065366487950087
1772713698540476000,0.325475830078125,-0.0016586167039349675,-0.008470715954899788,-0.007407848723232746
1772713698550450700,0.33545068359375,-0.0016753945965319872,-0.00395745737478137,-0.00827843602746725
1772713698560424700,0.3454248046875,-0.0035113778430968523,-0.0022354573011398315,-0.0054855793714523315
1772713698570399700,0.355399658203125,-0.0018722022650763392,0.001332645770162344,-0.005558816250413656
1772713698580375000,0.365375,-0.004777444526553154,0.002043177140876651,-0.005913282744586468
1772713698590349000,0.37534912109375,-0.0024623586796224117,0.001547030289657414,-0.003067162586376071
1772713698600323800,0.38532373046875,-0.000996821210719645,-0.005601959303021431,-0.004797950852662325
1772713698610297900,0.3952978515625,-0.0006428870838135481,-0.003067428944632411,-0.0073593794368207455
1772713698620273000,0.40527294921875,-0.0033936661202460527,-0.003507116809487343,-0.004260791465640068
1772713698630248000,0.415248046875,-0.0027300063520669937,0.0011880361707881093,-0.005371063016355038
1772713698640222000,0.425221923828125,-0.0010626012226566672,-0.0007629956235177815,-0.001980859087780118
1772713698650196700,0.43519677734375,-0.0015480954898521304,-0.0032149681355804205,-0.0014333132421597838
1772713698660170800,0.445170654296875,-0.0030956584960222244,-0.0013108078856021166,-0.004150536376982927
1772713698670145800,0.455145751953125,0.0001917476038215682,-0.0020058928057551384,-0.0054613444954156876
1772713698680119800,0.465119873046875,-0.0010133327450603247,-0.0031289479229599237,-0.003329750383272767
1772713698690094800,0.4750947265625,-0.0019678096286952496,-0.002127865795046091,-0.0017843178939074278
1772713698700070000,0.48506982421875,-0.0023315974976867437,-0.0010729875648394227,-0.004801679402589798
1772713698710044000,0.4950439453125,-0.003359045134857297,-0.0002311623829882592,-0.0019651465117931366
1772713698720019000,0.50501904296875,-0.0015390408225357533,0.0003757720405701548,-0.0036706349346786737
1772713698729993000,0.514992919921875,-0.0014652712270617485,-0.0031907332595437765,-0.004058923572301865
1772713698739967700,0.5249677734375,-0.0032205607276409864,-0.0026437200140208006,-0.0034908715169876814
1772713698749941800,0.534941650390625,-0.0044440170750021935,-0.0044112601317465305,-0.004594485275447369
1772713698759916800,0.544916748046875,-0.002557966159656644,-0.0027475832030177116,-0.004304733593016863
1772713698769892000,0.55489208984375,-0.003026682650670409,0.00013608753215521574,-0.003910053055733442
1772713698779865900,0.564865966796875,-0.001675128354690969,-0.0003685815026983619,-0.0017632789677008986
1772713698789841000,0.5748408203125,-0.00478516798466444,-0.0023576964158564806,-0.004323908127844334
1772713698799815000,0.58481494140625,-0.0006732470938004553,-0.0012948289513587952,-0.0036972665693610907
1772713698809790000,0.5947900390625,-0.001088700257241726,-0.0021635519806295633,-0.004206995479762554
1772713698819764700,0.6047646484375,-0.0021851237397640944,-0.003087136195972562,-0.002945456188172102
1772713698829738800,0.61473876953125,-0.0036639769095927477,-0.0041705104522407055,-0.006596117280423641
1772713698839713800,0.6247138671875,-0.0013994910987094045,-0.0007938882918097079,-0.0049223206005990505
1772713698849687800,0.634687744140625,-0.0016439693281427026,-0.0026935210917145014,-0.0038093857001513243
1772713698859662800,0.644662841796875,-0.001023186487145722,-0.000592020689509809,-0.004181162919849157
1772713698869636900,0.654636962890625,-0.0028913940768688917,-0.0017355820164084435,-0.005694104824215174
1772713698879612000,0.66461181640625,-0.0029025792609900236,-0.0031302794814109802,-0.003049319377169013
1772713698889587000,0.6745869140625,-0.0017486315919086337,-0.0016343819443136454,-0.00242187874391675
1772713698899561000,0.68456103515625,-0.003712446428835392,-0.0032743564806878567,-0.0013587448047474027
1772713698909536000,0.694535888671875,-0.002948385663330555,-0.0024921861477196217,-0.0037526602391153574
1772713698919509800,0.704509765625,-0.0018101505702361465,-0.0015725966077297926,-0.006661098450422287
1772713698929484800,0.71448486328125,-0.001785116852261126,-0.003911118488758802,-0.0032980586402118206
1772713698939458800,0.724458740234375,-0.0018192053539678454,0.0013648699969053268,-0.0021025657188147306
1772713698949433900,0.734433837890625,-0.0022274679504334927,-0.0036312201991677284,-0.003093794221058488
1772713698959408600,0.74440869140625,0.0008594020619057119,-0.0021489046048372984,-0.0016519587952643633
1772713698969382700,0.754382568359375,-0.002162220422178507,0.0001549959706608206,-0.002264219569042325
1772713698979358000,0.76435791015625,-0.0031787490006536245,-0.0041579934768378735,-0.0019715381786227226
1772713698989332000,0.77433203125,-0.002160090021789074,0.00021758026559837162,-0.0036932716611772776
1772713698999307000,0.78430712890625,-0.002537992550060153,-0.0015315839555114508,-0.005368133541196585
1772713699009281800,0.79428173828125,-0.0026671558152884245,-0.004449076950550079,-0.005769205745309591
1772713699019255800,0.804255859375,-0.0032802154310047626,-0.00029587719473056495,-0.004050401505082846
1772713699029230800,0.81423095703125,-0.0013962953817099333,-0.003165965899825096,-0.0009643306257203221
1772713699039204900,0.824204833984375,0.00007856325100874528,-0.0007712514488957822,-0.0015744607662782073
1772713699049180000,0.834179931640625,-0.0003371562052052468,0.0003235740587115288,-0.003668770659714937
1772713699059154000,0.84415380859375,-0.0024535702541470528,-0.0018317222129553556,-0.004824582487344742
1772713699069128700,0.854128662109375,-0.00239231763407588,-0.0023646207991987467,-0.004823783412575722
1772713699079104000,0.86410400390625,-0.002499376656487584,-0.002356098499149084,-0.0060115535743534565
1772713699089078000,0.874078125,-0.00009054747351910919,-0.0034996599424630404,-0.003989947959780693
1772713699099052800,0.884052734375,-0.0016231966437771916,-0.0009835053933784366,-0.004779042676091194
1772713699109026800,0.89402685546875,-0.0020514330826699734,-0.0035870117135345936,-0.005264004226773977
1772713699119001900,0.904001953125,-0.0014703312190249562,-0.0013827132061123848,-0.0035574506036937237
1772713699128976000,0.913975830078125,-0.0006849650526419282,-0.0004090615548193455,-0.0036613137926906347
1772713699138951000,0.923950927734375,-0.003177950158715248,-0.00376064982265234,-0.0031036478467285633
1772713699148925700,0.93392578125,-0.002996056107804179,-0.0013028184184804559,-0.004644286818802357
1772713699158899700,0.943899658203125,-0.003084206720814109,-0.0016559535870328546,-0.003334543900564313
1772713699168874800,0.953874755859375,-0.0011044129496440291,-0.0015707324491813779,-0.003251187037676573
1772713699178848800,0.963848876953125,-0.002865028567612171,-0.003615241264924407,-0.002712429501116276
1772713699188824000,0.973823974609375,-0.0038892803713679314,-0.003194994293153286,-0.005918076727539301
1772713699198797800,0.9837978515625,-0.0002511360798962414,-0.002112152986228466,-0.005532717332243919
1772713699208772900,0.99377294921875,-0.0005997438565827906,-0.001606152392923832,-0.004779575392603874
1772713699218748000,1.003747802734375,-0.0014804512029513717,-0.002570216776803136,-0.0032796829473227262
1772713699228722000,1.013721923828125,-0.004113518632948399,-0.0007041397620923817,-0.002525741932913661
1772713699238696700,1.02369677734375,-0.0031907332595437765,-0.0008133294177241623,-0.0019406455103307962
1772713699248670700,1.033670654296875,0.0007960188668221235,-0.002879942301660776,-0.0019824570044875145
1772713699258645800,1.043645751953125,-0.00199390877969563,-0.0036812876351177692,-0.0022237394005060196
1772713699268619800,1.053619873046875,-0.00270710326731205,-0.0008918926469050348,-0.003096990054473281
1772713699278595000,1.063594970703125,-0.0006593986763618886,-0.001970472978428006,-0.002633866388350725
1772713699288569900,1.07356982421875,-0.0016650082543492317,-0.0035201662685722113,-0.0028847360517829657
1772713699298543900,1.0835439453125,0.0002585929469205439,-0.00023435817274730653,-0.0036690370179712772
1772713699308519000,1.093518798828125,-0.0021824603900313377,-0.0011736550368368626,-0.0024168186355382204
1772713699318493000,1.103492919921875,-0.0032314795535057783,0.0012681973166763783,-0.002635996788740158
1772713699328468000,1.113468017578125,-0.0010335728293284774,-0.0010833739070221782,-0.0033864756114780903
1772713699338442800,1.12344287109375,-0.0013574132462963462,-0.004421646241098642,-0.0016013587592169642
1772713699348416800,1.133416748046875,-0.004581436049193144,0.000185888638952747,-0.004244545940309763
1772713699358391800,1.143391845703125,-0.0032898029312491417,-0.0006330333999358118,-0.0006937534781172872
1772713699368365800,1.15336572265625,-0.0004316983977332711,-0.0009536779834888875,-0.0014058827655389905
1772713699378340900,1.1633408203125,-0.0014282532501965761,-0.0001102548703784123,0.0023880566004663706
1772713699388315000,1.17331494140625,-0.004751878324896097,0.0015912387752905488,-0.00012889699428342283
1772713699398285800,1.183285888671875,0.00016538229829166085,-0.000060986389144090936,-0.0008450209861621261
1772713699408259800,1.193259765625,0.0015904398169368505,-0.00033582461765035987,-0.0032772859558463097
1772713699418235000,1.20323486328125,-0.00046631949953734875,-0.005111671518534422,-0.005013667047023773
1772713699428210000,1.2132099609375,-0.001888980157673359,-0.0041007352992892265,-0.005253884010016918
1772713699438183700,1.22318359375,-0.0026200178544968367,-0.0046781087294220924,-0.0033910030033439398
1772713699448159000,1.233158935546875,0.00041571943438611925,0.0014474280178546906,-0.00395825644955039
1772713699458133000,1.243133056640625,-0.0006293049664236605,-0.0032061797101050615,-0.0010306433541700244
1772713699468108000,1.25310791015625,-0.004885302856564522,-0.0005211806274019182,-0.0022005699574947357
1772713699478082000,1.26308203125,-0.000764593540225178,-0.003573429537937045,-0.002153698354959488
1772713699488056800,1.273056884765625,-0.0006018743733875453,-0.003178216516971588,0.0008325041271746159
1772713699498031900,1.283031982421875,-0.0032021848019212484,0.0017025588313117623,-0.0033683660440146923
1772713699508006000,1.293005859375,-0.0026072347536683083,-0.0022679478861391544,-0.0010181264951825142
1772713699517981000,1.30298095703125,-0.003695135936141014,-0.0003856257244478911,-0.004777710884809494
1772713699527955000,1.312954833984375,-0.0014170679496601224,-0.002281263703480363,-0.005344165489077568
1772713699537930000,1.322929931640625,-0.0024804682470858097,-0.003659183392301202,-0.002639725338667631
1772713699547904000,1.332904052734375,-0.0031188279390335083,-0.004731105640530586,-0.0018271948210895061
1772713699557879000,1.342879150390625,-0.0019358517602086067,-0.0009123989730142057,-0.003918841481208801
1772713699567853800,1.352853759765625,-0.001844505313783884,-0.0011163970921188593,-0.004502073861658573
1772713699577827800,1.362827880859375,-0.0016160061350092292,0.0005853627808392048,-0.005861351266503334
1772713699587803000,1.372802978515625,-0.0029108349699527025,-0.001142496126703918,-0.0023883229587227106
1772713699597777000,1.38277685546875,-0.002814961364492774,-0.0028394623659551144,-0.004342816770076752
1772713699607752000,1.392751953125,-0.00173744629137218,0.0006841660942882299,-0.0028969866689294577
1772713699617726700,1.402726806640625,-0.0009153284481726587,-0.0035297537688165903,-0.002290052128955722
1772713699627700700,1.41270068359375,-0.003625893732532859,-0.000696150294970721,-0.0075577846728265285
1772713699637676000,1.422676025390625,-0.0040855552069842815,-0.005572930909693241,-0.003373958868905902
1772713699647650000,1.432650146484375,-0.0004897553008049726,-0.0046237800270318985,-0.0041273669339716434
1772713699657624800,1.442624755859375,-0.0032088428270071745,-0.0011574097443372011,-0.0007366303470917046
1772713699667598800,1.452598876953125,-0.004643754102289677,-0.0024000408593565226,-0.0008202536264434457
1772713699677574000,1.462573974609375,-0.005181978922337294,0.0008016114588826895,-0.004432831425219774
1772713699687548000,1.4725478515625,-0.0009752495680004358,-0.0019976370967924595,-0.0046690539456903934
1772713699697523000,1.48252294921875,-0.0013558153295889497,-0.0029800771735608578,-0.0025188177824020386
1772713699707497700,1.492497802734375,-0.0051811798475682735,-0.0006149238906800747,-0.0027808728627860546
1772713699717471700,1.5024716796875,-0.0011978897964581847,-0.004572114907205105,-0.004973187111318111
1772713699727446800,1.51244677734375,-0.0005842975224368274,-0.0028447885997593403,0.0002247707889182493
1772713699737420800,1.5224208984375,-0.001996039180085063,-0.00036671728594228625,-0.0046629286371171474
1772713699747396000,1.53239599609375,-0.003236806020140648,-0.0030660973861813545,-0.0037710361648350954
1772713699757370000,1.5423701171875,-0.0007475492893718183,0.0012538161827251315,-0.0051992894150316715
1772713699767345000,1.552344970703125,0.00023568976030219346,-0.005455485545098782,-0.0043862261809408665
1772713699777320000,1.56231982421875,-0.0024852619972079992,-0.0005464806454256177,-0.0035960664972662926
1772713699787294000,1.5722939453125,-0.005288239102810621,-0.0013664679136127234,-0.006193980108946562
1772713699797269000,1.58226904296875,-0.002377137541770935,-0.0034258903469890356,-0.002779008587822318
1772713699807242800,1.59224267578125,-0.0017419736832380295,0.0005696501466445625,-0.0028807413764297962
1772713699817217800,1.6022177734375,-0.0035843485966324806,-0.005218197591602802,-0.002326803747564554
1772713699827191800,1.61219189453125,-0.0035742283798754215,-0.00033875409280881286,-0.0019228023011237383
1772713699837166800,1.622166748046875,-0.0037199032958596945,-0.0022682142443954945,-0.0009065400226972997
1772713699847142000,1.632141845703125,-0.000913197931367904,-0.0007813714328221977,-0.004746818449348211
1772713699857116000,1.642115966796875,-0.0011379687348380685,0.000333161442540586,-0.002019741339609027
1772713699867091000,1.652091064453125,-0.002799781272187829,-0.004771851934492588,-0.004090082831680775
1772713699877065000,1.66206494140625,-0.0016000272007659078,0.0008583368035033345,-0.001767273643054068
1772713699887040000,1.6720400390625,0.0004572647449094802,-0.002147306688129902,-0.0049132658168673515
1772713699897014000,1.682013916015625,-0.001273257308639586,-0.0024706146214157343,-0.0024567660875618458
1772713699906988800,1.69198876953125,-0.0017917747609317303,-0.0005813680472783744,-0.004802744835615158
1772713699916962800,1.701962890625,-0.002367816399782896,0.00018508969515096396,-0.004090615548193455
1772713699926937900,1.711937744140625,-0.0026383937802165747,-0.002216282533481717,-0.006356433033943176
1772713699936913000,1.721912841796875,-0.0011709919199347496,-0.0020777983590960503,-0.0023813985753804445
1772713699946887000,1.731886962890625,0.000026897927455138415,-0.002120675053447485,-0.0031675638165324926
1772713699956862000,1.741862060546875,-0.0032860743813216686,-0.003719104453921318,-0.003543602069839835
1772713699966836000,1.7518359375,-0.0029883331153541803,-0.0024501082953065634,-0.004479703027755022
1772713699976811000,1.76181103515625,-0.0014572817599400878,-0.001401355373673141,-0.003270095447078347
1772713699986785000,1.771784912109375,-0.001062334980815649,-0.00012490226072259247,-0.0017419736832380295
1772713699996759800,1.781759765625,-0.003718838095664978,-0.004027764778584242,-0.001413339632563293
1772713700006734800,1.79173486328125,-0.0006442186422646046,-0.000529702752828598,-0.0016495619202032685
1772713700016708900,1.801708984375,0.0011677960865199566,-0.0027414578944444656,-0.0019683423452079296
1772713700026684000,1.811683837890625,-0.0020903151016682386,-0.0021377194207161665,-0.0013345100451260805
1772713700036658000,1.821657958984375,-0.0028519791085273027,-0.0014154701493680477,-0.0024551681708544493
1772713700046633000,1.831633056640625,-0.000666322885081172,-0.0032288164366036654,-0.00430260319262743
1772713700056607000,1.84160693359375,-0.0012114719720557332,-0.002049302449449897,0.00005805691034765914
1772713700066582000,1.85158203125,-0.0030892668291926384,-0.0008426241693086922,-0.002214152133092284
1772713700076556800,1.861556884765625,-0.0036365464329719543,-0.0018008295446634293,-0.002843723399564624
1772713700086530800,1.87153076171875,-0.0020306603983044624,-0.0003683151735458523,-0.0018716695485636592
1772713700096505900,1.881505859375,0.0009169263648800552,-0.0029108349699527025,-0.0075905416160821915
1772713700106479900,1.89147998046875,-0.0016319850692525506,-0.002941727638244629,-0.00376011710613966
1772713700116455000,1.901454833984375,-0.003922836389392614,-0.004518585279583931,-0.005335110705345869
1772713700126429000,1.911428955078125,-0.0021784657146781683,-0.0011914982460439205,-0.002725212834775448
1772713700136403700,1.92140380859375,-0.0029819414485245943,0.0010719223646447062,-0.0067756143398582935
1772713700146377700,1.931377685546875,0.00032091091270558536,-0.002935868687927723,-0.004099670331925154
1772713700156353000,1.94135302734375,-0.004562261048704386,-0.00321896281093359,-0.007482417393475771
1772713700166328000,1.951328125,-0.0009635316673666239,-0.0008625978953205049,-0.0038898130878806114
1772713700176302000,1.961302001953125,-0.0009358347742818296,-0.0035273567773401737,-0.0019837887957692146
1772713700186276900,1.97127685546875,-0.0023315974976867437,-0.002034388715401292,-0.0013928331900388002
1772713700196251000,1.9812509765625,-0.0026671558152884245,-0.003349990351125598,-0.0016644756542518735
1772713700206226000,1.991225830078125,-0.0010692591313272715,-0.0015193333383649588,-0.003996605984866619
1772713700216200000,2.001199951171875,-0.0014940333785489202,0.00026525085559114814,-0.005113002844154835
1772713700226174700,2.0111748046875,-0.0005491438205353916,-0.002606702037155628,-0.005686647724360228
1772713700236149800,2.021149658203125,-0.0038402783684432507,-0.003352919826284051,-0.0070643010549247265
1772713700246123800,2.031123779296875,-0.0035811527632176876,-0.004254133440554142,-0.001996305538341403
1772713700256099000,2.04109912109375,-0.0005635248962789774,-0.0014881744282320142,-0.004385161213576794
1772713700266073000,2.051072998046875,-0.0014154701493680477,0.0022280006669461727,-0.002695651724934578
1772713700276048000,2.0610478515625,-0.003290868131443858,0.001306014135479927,-0.004307929426431656
1772713700286022000,2.07102197265625,-0.0031076427549123764,-0.0037862160243093967,-0.0036903421860188246
1772713700295997000,2.080996826171875,-0.0006191849242895842,-0.0019560917280614376,-0.0036187032237648964
1772713700305971000,2.090970947265625,-0.0007198524544946849,-0.00526799913495779,-0.006342317909002304
1772713700315946000,2.100946044921875,-0.003734018187969923,-0.001835716888308525,-0.00410499656572938
1772713700325920800,2.110920654296875,-0.0008516788948327303,-0.0005249090609140694,-0.004926315508782864
1772713700335894800,2.120894775390625,-0.000699079770129174,-0.0015877765836194158,-0.0038312235847115517
1772713700345870000,2.1308701171875,-0.002234658459201455,-0.001528920722194016,-0.005115665961056948
1772713700355843800,2.14084375,-0.00207673292607069,-0.0020961740519851446,-0.004004328977316618
1772713700365819000,2.15081884765625,-0.0026911243330687284,-0.003576625371351838,-0.0065465825609862804
1772713700375793000,2.16079296875,-0.0026048377621918917,-0.00464668357744813,-0.004860002547502518
1772713700385768000,2.170767822265625,0.000030360035452758893,-0.0021140172611922026,-0.004607002250850201
1772713700395743200,2.1807431640625,-0.002133724745362997,-0.0006514092092402279,-0.001885784324258566
1772713700405717200,2.19071728515625,-0.001910019083879888,-0.0035204326268285513,-0.0013078784104436636
1772713700415692000,2.200692138671875,0.0002109223569277674,0.00025779398856684566,-0.004315386060625315
1772713700425666000,2.210666015625,-0.0020572920329868793,-0.005043228156864643,-0.0051958272233605385
1772713700435641000,2.22064111328125,-0.003358778776600957,-0.002787264296784997,-0.004463990684598684
1772713700445615000,2.230614990234375,-0.00418276060372591,-0.0011171960504725575,-0.0005898901727050543
1772713700455590000,2.24058984375,-0.0021342572290450335,-0.0015180017799139023,-0.004840828012675047
1772713700465564000,2.25056396484375,-0.00133903743699193,-0.0005874933558516204,-0.0015696671325713396
1772713700475539200,2.260539306640625,-0.005101284943521023,-0.00310497940517962,-0.00475320965051651
1772713700485514200,2.27051416015625,-0.0016700683627277613,0.0004732437082566321,-0.003319896524772048
1772713700495488300,2.28048828125,-0.004017910920083523,-0.0022027005907148123,-0.0046629286371171474
1772713700505463000,2.290463134765625,-0.002459961920976639,-0.005697300657629967,-0.002641855739057064
1772713700515437000,2.30043701171875,-0.0035113778430968523,-0.001119060325436294,-0.008050469681620598
1772713700525412000,2.310412109375,-0.0036013927310705185,-0.001794171635992825,-0.004808071069419384
1772713700535386000,2.32038623046875,-0.0027739484794437885,-0.0010913633741438389,-0.004126834217458963
1772713700545361200,2.330361083984375,-0.0020069582387804985,-0.0023875238839536905,-0.007334079127758741
1772713700555336000,2.3403359375,-0.004327103961259127,-0.003966245800256729,-0.0033004553988575935
1772713700565310000,2.35031005859375,-0.0026373283471912146,-0.003840544493868947,-0.003221892286092043
1772713700575285200,2.36028515625,0.0004410194815136492,-0.00436065997928381,-0.0030423952266573906
1772713700585259300,2.37025927734375,-0.0037023264449089766,0.000011185276889591478,-0.0049337721429765224
1772713700595234000,2.380234130859375,-0.0017033577896654606,-0.0041521345265209675,-0.0016026903176680207
1772713700605208000,2.3902080078125,-0.002161954063922167,-0.00481206551194191,-0.00415453128516674
1772713700615183000,2.40018310546875,-0.002359827049076557,0.0014849785948172212,-0.006884803995490074
1772713700625157000,2.4101572265625,-0.00013528858835343271,-0.004054662771522999,-0.003948136232793331
1772713700635132200,2.420132080078125,-0.0007627293234691024,-0.0030743530951440334,-0.003522030543535948
1772713700645107000,2.43010693359375,-0.004221376497298479,0.0011523497523739934,-0.002520682057365775
1772713700655081000,2.4400810546875,-0.0023188143968582153,-0.0035380094777792692,-0.0016375777777284384
1772713700665056300,2.45005615234375,-0.0007419566973112524,-0.001955559244379401,-0.0021877868566662073
1772713700675030000,2.460030029296875,-0.0007494135061278939,-0.0010247844038531184,-0.0020602215081453323
1772713700685005300,2.47000537109375,-0.0006831008358858526,-0.0012650014832615852,-0.0006242449744604528
1772713700694979000,2.47997900390625,-0.0024746092967689037,-0.003251187037676573,-0.0013800500892102718
1772713700704954000,2.4899541015625,-0.001514273346401751,-0.0009563411585986614,-0.004670917987823486
1772713700714928000,2.49992822265625,-0.0029087045695632696,0.0008551410282962024,-0.005404352676123381
1772713700724903200,2.509903076171875,-0.0013576794881373644,0.0032613070216029882,-0.004850681405514479
1772713700734878000,2.5198779296875,-0.0011113371001556516,-0.005407015793025494,-0.003686613868921995
1772713700744852000,2.52985205078125,-0.0016607472207397223,-0.00170815153978765,-0.0057412427850067616
1772713700754827000,2.539826904296875,-0.0026434536557644606,-0.003704989794641733,-0.00395772373303771
1772713700764801000,2.549801025390625,-0.004308462142944336,-0.0024381240364164114,-0.003665308468043804
1772713700774776300,2.5597763671875,-0.0027561055030673742,-0.00033688987605273724,-0.005401955917477608
1772713700784750300,2.569750244140625,-0.0008372978190891445,-0.0023989754263311625,-0.007153517100960016
1772713700794725000,2.57972509765625,-0.0008412926108576357,-0.0012394351651892066,-0.007428355049341917
1772713700804699100,2.58969921875,-0.005792375188320875,-0.0012570120161399245,-0.010848652571439743
1772713700814674200,2.599674072265625,-0.0015124091878533363,-0.0026253440883010626,-0.004168113227933645
1772713700824649200,2.609649169921875,-0.003565173828974366,-0.003442135639488697,-0.006000102031975985
1772713700834623000,2.619623046875,-0.0013219931861385703,0.00030413299100473523,-0.0067636300809681416
1772713700844598000,2.629597900390625,0.0004748416249640286,0.001466869143769145,-0.00720438314601779
1772713700854572000,2.639572021484375,0.0006242449744604528,0.002682868391275406,-0.00808881875127554
1772713700864547000,2.649547119140625,0.0007637945818714797,-0.0035028557758778334,-0.0054517569951713085
1772713700874521000,2.65952099609375,-0.001112668658606708,-0.0001978728687390685,-0.005565473809838295
1772713700884496100,2.66949609375,-0.004307396709918976,-0.002281530061736703,-0.009897638112306595
1772713700894470100,2.67947021484375,-0.0038631814531981945,-0.0007946872501634061,-0.006783337332308292
1772713700904445200,2.689445068359375,-0.00259418529458344,-0.002406965009868145,-0.00731304008513689
1772713700914420200,2.699420166015625,-0.002990197157487273,-0.0021457087714225054,-0.0067846691235899925
1772713700924394200,2.709394287109375,-0.004086620640009642,-0.001832787413150072,-0.008710401132702827
1772713700934369000,2.719369140625,-0.0022655511274933815,-0.0006239786162041128,-0.006195045076310635
1772713700944343000,2.729343017578125,-0.0005038700764998794,0.000027164242055732757,-0.003885285696014762
1772713700954318000,2.739318115234375,-0.001311873085796833,0.0004444815858732909,-0.007164968643337488
1772713700964292000,2.7492919921875,-0.002287122653797269,-0.00443869037553668,-0.006931675598025322
1772713700974267000,2.759266845703125,-0.000996554852463305,-0.00210682675242424,-0.0029947245493531227
1772713700984241000,2.769240966796875,-0.0010743191232904792,-0.005282113794237375,-0.0034408040810376406
1772713700994216200,2.77921630859375,-0.0022453111596405506,0.0013201289111748338,-0.003921770956367254
1772713701004191200,2.789191162109375,-0.0019504991360008717,-0.0016042882343754172,-0.0029443909879773855
1772713701014165200,2.799165283203125,-0.0009952232940122485,-0.001891909632831812,-0.0020474381744861603
1772713701024140000,2.80914013671875,-0.0007123955874703825,-0.0023699470330029726,-0.0008274441352114081
1772713701034114000,2.819114013671875,-0.0024588967207819223,-0.003254915354773402,-0.003261040663346648
1772713701044089000,2.829089111328125,-0.0010396981379017234,-0.0017060210229828954,-0.0028423918411135674
1772713701054063000,2.83906298828125,-0.0028306739404797554,-0.003585147438570857,-0.0041675809770822525
1772713701064038100,2.8490380859375,-0.0015667376574128866,-0.003984089009463787,-0.003501524217426777
1772713701074012200,2.85901220703125,-0.0011385013349354267,-0.003019491909071803,-0.002546248259022832
1772713701083987000,2.868987060546875,-0.0018738001817837358,-0.002118278294801712,-0.0029585056472569704
1772713701093962200,2.878962158203125,0.000360059377271682,-0.0031734227668493986,-0.0035324168857187033
1772713701103936300,2.888936279296875,-0.0003376888344064355,-0.0003515372518450022,-0.0033923345617949963
1772713701113911000,2.8989111328125,-0.0027925907634198666,0.00035499935620464385,-0.0009089368977583945
1772713701123885000,2.908885009765625,-0.0025300029665231705,-0.001651692553423345,-0.0022953785955905914
1772713701133860000,2.918860107421875,-0.0012918994762003422,-0.001261805766262114,-0.0041281660087406635
1772713701143834000,2.928834228515625,-0.0028578380588442087,-0.003677559085190296,-0.004268248099833727
1772713701153809200,2.93880908203125,-0.0036993969697505236,0.003481017891317606,-0.0036796897184103727
1772713701163783200,2.948783203125,-0.0034171019215136766,-0.0009832390351220965,-0.0029824741650372744
1772713701173758000,2.958758056640625,-0.0007728493656031787,-0.0012207929976284504,-0.003838414093479514
1772713701183732000,2.96873193359375,-0.0015752597246319056,-0.0019979034550487995,-0.0031486554071307182
1772713701193707300,2.978707275390625,-0.005506617948412895,-0.0038184402510523796,-0.004563859198242426
1772713701203682300,2.988682373046875,-0.0018546254141256213,-0.0016892430139705539,-0.005593437235802412
1772713701213656000,2.998656005859375,-0.002838397165760398,-0.0006072007236070931,-0.00250496924854815
1772713701223631000,3.008631103515625,-0.0009238505735993385,-0.0019861855544149876,-0.0016948357224464417
1772713701233605000,3.018605224609375,-0.0024405207950621843,0.0011177286505699158,-0.004863997455686331
1772713701243580200,3.028580078125,-0.0005627259379252791,-0.004765726625919342,-0.0028716865926980972
1772713701253554200,3.03855419921875,-0.0025595640763640404,-0.0012772521004080772,-0.0033984598703682423
1772713701263529000,3.048529052734375,-0.003209375310689211,-0.0007281082216650248,-0.003923634998500347
1772713701273503000,3.0585029296875,-0.0008135957177728415,-0.0029084382113069296,-0.003846403444185853
1772713701283478000,3.06847802734375,-0.00535455159842968,-0.0002495381922926754,-0.004904477391391993
1772713701293453300,3.078453369140625,-0.00027057717670686543,-0.000928377965465188,-0.0028016455471515656
1772713701303427300,3.08842724609375,-0.0015579492319375277,0.0007872303831391037,-0.005134574603289366
1772713701313402000,3.098402099609375,0.0008769789128564298,-0.003811249742284417,-0.004671717062592506
1772713701323376000,3.108376220703125,0.00034700988908298314,-0.0007179882377386093,-0.003555852686986327
1772713701333351200,3.11835107421875,-0.0007379619055427611,0.000050600061513250694,-0.0044261738657951355
1772713701343325200,3.1283251953125,-0.0031169636640697718,-0.0017427726415917277,-0.003719104453921318
1772713701353300000,3.138300048828125,0.0022218753583729267,-0.0018572885310277343,-0.005765477195382118
1772713701363274000,3.14827392578125,-0.0016796556301414967,-0.002356364857405424,-0.0012884372845292091
1772713701373249000,3.1582490234375,-0.0020221380982548,-0.002895122393965721,-0.0032437301706522703
1772713701383223000,3.16822314453125,-0.000675377668812871,-0.002314020646736026,-0.003680488560348749
1772713701393198000,3.178197998046875,-0.0010104032699018717,-0.004631769843399525,-0.0022951122373342514
1772713701403172600,3.188172607421875,-0.001592037733644247,-0.0005374259199015796,-0.003177151083946228
1772713701413146600,3.198146728515625,-0.003163036424666643,-0.0012506204657256603,-0.0028101676143705845
1772713701423121700,3.20812158203125,-0.0005707154050469398,-0.002724946476519108,-0.002242914168164134
1772713701433095700,3.218095703125,-0.0015928366919979453,-0.0009691243176348507,-0.004536162130534649
1772713701443070700,3.22807080078125,-0.004504470620304346,-0.0021965752821415663,-0.0037771612405776978
1772713701453044700,3.238044677734375,-0.0009856359101831913,0.0014564828015863895,-0.0012399677652865648
1772713701463019800,3.248019775390625,-0.0010186590952798724,-0.002058357233181596,-0.004344947170466185
1772713701472993800,3.257993896484375,-0.00003009372085216455,-0.00192200334277004,-0.0075513930059969425
1772713701482968800,3.26796875,-0.0016929714474827051,-0.0011310444679111242,-0.0035095135681331158
1772713701492944000,3.27794384765625,-0.003132942598313093,-0.0022770026698708534,-0.0031696942169219255
1772713701502918000,3.28791796875,-0.0026413232553750277,-0.0008444883860647678,-0.0023790018167346716
1772713701512892700,3.297892578125,-0.0013409015955403447,-0.002805640222504735,-0.0030778152868151665
1772713701522866700,3.30786669921875,-0.0013888385146856308,-0.0036999296862632036,-0.003078347770497203
1772713701532841700,3.317841796875,-0.0035981968976557255,-0.0010876349406316876,-0.0020008329302072525
1772713701542815700,3.327815673828125,-0.002805640222504735,-0.004566788673400879,-0.00427304208278656
1772713701552790500,3.33779052734375,-0.0019912454299628735,-0.003087136195972562,-0.0028959212359040976
1772713701562764500,3.3477646484375,-0.0018319884547963738,-0.005856025032699108,0.00016058860637713224
1772713701572739800,3.35773974609375,-0.0016000272007659078,-0.00447038235142827,-0.003100185887888074
1772713701582713900,3.3677138671875,-0.0002109223569277674,-0.0009345032158307731,-0.004257329273968935
1772713701592689000,3.37768896484375,-0.0022482406347990036,-0.0019539613276720047,-0.002424275502562523
1772713701602663700,3.38766357421875,-0.00046312372433021665,-0.0032530513126403093,-0.003935619257390499
1772713701612637700,3.3976376953125,-0.0019417107105255127,0.0011584750609472394,-0.0016855146968737245
1772713701622612700,3.40761279296875,-0.0015672702575102448,-0.0009853695519268513,-0.0044261738657951355
1772713701632586800,3.417586669921875,-0.0020993698853999376,-0.003471164032816887,-0.0029912625905126333
1772713701642561800,3.427561767578125,-0.0016919062472879887,-0.0007792409160174429,-0.0015646071406081319
1772713701652535600,3.43753564453125,-0.002127333078533411,-0.002320678671821952,-0.0036762275267392397
1772713701662510600,3.447510498046875,0.0007893609581515193,0.0003733751946128905,-0.0033867419697344303
1772713701672484600,3.457484619140625,-0.001332912128418684,-0.0062885223887860775,-0.002898584585636854
1772713701682460000,3.4674599609375,-0.0027180220931768417,-0.0030341395176947117,-0.002359827049076557
1772713701692434700,3.4774345703125,-0.0009531453251838684,-0.0033159018494188786,-0.0028306739404797554
1772713701702408700,3.48740869140625,-0.0005954828229732811,-0.00010040117194876075,-0.00376011710613966
1772713701712383700,3.4973837890625,-0.0012293151812627912,-0.002234924817457795,-0.003215500619262457
1772713701722357800,3.507357666015625,-0.001243962557055056,-0.0032431974541395903,-0.002828809665516019
1772713701732332800,3.517332763671875,-0.003385676769539714,-0.003221359569579363,-0.004055461846292019
1772713701742306800,3.527306884765625,-0.0011289139511063695,0.00025832661776803434,-0.004281564150005579
1772713701752281600,3.537281494140625,0.0013294500531628728,-0.0041579934768378735,-0.003817641409114003
1772713701762255600,3.547255615234375,-0.001865277998149395,-0.0010077401529997587,-0.0031308121979236603
1772713701772230700,3.557230712890625,-0.0035396073944866657,-0.0023307986557483673,-0.004062918480485678
1772713701782204700,3.56720458984375,-0.005846171174198389,-0.002445580903440714,-0.0022980417124927044
1772713701792179700,3.5771796875,0.0006945523782633245,-0.0032048479188233614,-0.0034786208998411894
1772713701802153700,3.58715380859375,-0.0034163030795753,-0.0011640676530078053,-0.003999801818281412
1772713701812128800,3.597128662109375,-0.0019560917280614376,-0.0018546254141256213,-0.0047177900560200214
1772713701822103800,3.607103759765625,-0.0027515781112015247,-0.006364422384649515,-0.000841825210954994
1772713701832077800,3.617077880859375,-0.001347559504210949,-0.0006087986403144896,0.000050600061513250694
1772713701842052600,3.627052490234375,-0.0032439965289086103,-0.0010663296561688185,-0.0017907095607370138
1772713701852026600,3.637026611328125,-0.006807305850088596,-0.0027449200861155987,-0.0021638183388859034
1772713701862001700,3.647001708984375,-0.0006061354652047157,-0.0016069513512775302,-0.0007403587806038558
1772713701871975700,3.6569755859375,-0.0005195827106945217,-0.0011286477092653513,-0.0018050905782729387
1772713701881950700,3.66695068359375,-0.005741775035858154,-0.002579005202278495,-0.0027332021854817867
1772713701891924700,3.6769248046875,-0.001998968655243516,-0.000559263804461807,-0.0021726067643612623
1772713701901899800,3.686899658203125,0.0020066918805241585,-0.0018016285030171275,-0.0015422365395352244
1772713701911874800,3.696874755859375,-0.00004261057620169595,-0.002314287004992366,-0.006657369900494814
1772713701921848800,3.706848876953125,-0.002267149044200778,-0.0018636800814419985,-0.0036794233601540327
1772713701931823600,3.71682373046875,-0.002002697205170989,-0.0005840312223881483,-0.004806472919881344
1772713701941797600,3.726797607421875,-0.0015664712991565466,-0.0008721852791495621,-0.0062363240867853165
1772713701951772700,3.736772705078125,-0.002237587934359908,-0.0025329324416816235,-0.0009052084642462432
1772713701961746700,3.74674658203125,-0.0019204054260626435,-0.0021667478140443563,-0.006631004624068737
1772713701971721700,3.7567216796875,-0.0013222594279795885,0.0005779059720225632,0.00024740767548792064
1772713701981695700,3.76669580078125,-0.0005643238546326756,-0.004477039910852909,-0.003608050523325801
1772713701991670800,3.7766708984375,0.0002668487431947142,-0.0011829761788249016,-0.00443869037553668
1772713702001644800,3.786644775390625,-0.0018074874533340335,-0.0026234800461679697,-0.004081294406205416
1772713702011619800,3.796619873046875,-0.0005358280031941831,-0.0025121597573161125,-0.003058906877413392
1772713702021593900,3.80659375,-0.00036245622322894633,-0.0013339773286134005,-0.004318848252296448
1772713702031568600,3.816568603515625,-0.0015486282063648105,-0.004640025552362204,-0.0018373148050159216
1772713702041543700,3.826543701171875,-0.002826412906870246,-0.0015755260828882456,-0.0024463797453790903
1772713702051517700,3.836517578125,-0.0002378202771069482,-0.0014745922526344657,0.0009054747642949224
1772713702061492700,3.84649267578125,-0.003620567498728633,-0.003964914008975029,0.0009539442835375667
1772713702071466800,3.856466796875,0.0015787219163030386,-0.002636795863509178,-0.0018224010709673166
1772713702081441500,3.866441650390625,-0.0024461133871227503,-0.0030543794855475426,0.00019467707898002118
1772713702091415600,3.87641552734375,-0.002267415402457118,0.0000876179983606562,-0.005079979542642832
1772713702101390800,3.886390869140625,-0.0015534218400716782,-0.001847701147198677,-0.0018554243724793196
1772713702111364900,3.89636474609375,0.000218645524000749,-0.0035867453552782536,-0.002609365154057741
1772713702121340000,3.90633984375,-0.002695119008421898,-0.0006996124284341931,-0.007907457649707794
1772713702131314000,3.91631396484375,-0.004580104257911444,-0.005774531979113817,-0.0038013961166143417
1772713702141288700,3.926288818359375,-0.0020540961995720863,0.000018109494703821838,-0.001680454588495195
1772713702151263700,3.936263671875,-0.0023390543647110462,-0.0014988270122557878,-0.0031758195254951715
1772713702161237800,3.94623779296875,-0.0013813816476613283,-0.0002412823960185051,0.0015694007743149996
1772713702171212800,3.956212890625,-0.005571332760155201,0.00043063313933089375,0.0023907197173684835
1772713702181186600,3.9661865234375,-0.0011078750248998404,0.0008229167433455586,0.00018855179951060563
1772713702191161600,3.97616162109375,-0.002959304489195347,0.0006862966110929847,-0.0013550163712352514
1772713702201135600,3.986135498046875,-0.00395719101652503,0.0031787490006536245,-0.005885053426027298
1772713702211111000,3.99611083984375,-0.002323608146980405,-0.002094576135277748,-0.00894076470285654
1772713702221085000,4.0060849609375,-0.0025960493367165327,-0.0041792988777160645,-0.010282997973263264
1772713702231059700,4.016059814453125,-0.0015140071045607328,-0.006446980405598879,-0.009558085352182388
1772713702241033700,4.02603369140625,-0.0019254654180258512,-0.0008253136184066534,-0.008218781091272831
1772713702251008800,4.0360087890625,-0.003707120195031166,0.004530303180217743,-0.005633384454995394
1772713702260983800,4.04598388671875,-0.003254116512835026,-0.000035686356568476185,-0.0019350528018549085
1772713702270957800,4.055957763671875,-0.0007954862085171044,0.0028093685396015644,-0.003877029987052083
1772713702280932600,4.0659326171875,-0.0019600866362452507,-0.0018431737553328276,-0.0030362699180841446
1772713702290906600,4.07590673828125,-0.0035987296141684055,0.00030306773260235786,-0.007130879908800125
1772713702300881700,4.085881591796875,-0.001817341079004109,-0.004035221878439188,-0.004174238536506891
1772713702310855700,4.095855712890625,0.0018096179701387882,-0.004188087303191423,-0.0011259844759479165
1772713702320830700,4.105830810546875,-0.0015923039754852653,-0.0022913836874067783,0.002222674200311303
1772713702330804700,4.1158046875,-0.003043194068595767,0.003765709698200226,-0.00455666845664382
1772713702340779800,4.12577978515625,-0.0010346380295231938,-0.0026383937802165747,-0.0008743157959543169
1772713702350753800,4.13575390625,-0.0017259946325793862,-0.0005547364708036184,-0.006090649403631687
1772713702360728800,4.145728759765625,-0.0020652813836932182,-0.005403819959610701,-0.00646562222391367
1772713702370702800,4.155702880859375,-0.0035145736765116453,-0.002814961364492774,-0.008373244665563107
1772713702380677600,4.165677734375,-0.000815193576272577,-0.004028563853353262,-0.004282629117369652
1772713702390652700,4.175652587890625,-0.0034091125708073378,-0.0033774208277463913,-0.002739860210567713
1772713702400627200,4.185627197265625,-0.001876995898783207,0.0009912285022437572,-0.003409378696233034
1772713702410602200,4.195602294921875,-0.000480434246128425,-0.001537975505925715,-0.0026405241806060076
1772713702420576300,4.205576171875,-0.0017619474092498422,-0.002240251051262021,0.0002466087171342224
1772713702430551300,4.21555126953125,-0.0027483822777867317,-0.0019097528420388699,-0.000627707049716264
1772713702440525300,4.225525390625,-0.003329750383272767,-0.002675145398825407,-0.004403803031891584
1772713702450500400,4.235500244140625,-0.002722017001360655,-0.0021936458069831133,-0.002294047037139535
1772713702460474400,4.245474365234375,-0.0032751555554568768,0.0004082625964656472,0.0005848301807418466
1772713702470449200,4.25544921875,-0.0008633967954665422,0.00004340952364145778,-0.0016365124611184
1772713702480423200,4.265423095703125,-0.000675377668812871,-0.00042796999332495034,-0.0021875204984098673
1772713702490398200,4.275398193359375,-0.006069344002753496,-0.0030088394414633512,-0.002374474424868822
1772713702500372200,4.285372314453125,-0.001669269404374063,-0.002288188086822629,-0.0036993969697505236
1772713702510347000,4.295346923828125,-0.0018453042721375823,-0.0016176040517166257,-0.002115082461386919
1772713702520322300,4.305322265625,-0.002429601736366749,-0.0021252024453133345,-0.0034975295420736074
1772713702530296300,4.31529638671875,-0.004388622939586639,-0.0008327704854309559,-0.003049319377169013
1772713702540271400,4.325271240234375,-0.001088700257241726,-0.003980893176048994,-0.005144162103533745
1772713702550245400,4.335245361328125,0.0014817827614024282,0.0008551410282962024,-0.0018610169645398855
1772713702560220200,4.34522021484375,-0.002030926523730159,-0.0010479538468644023,-0.0008575378451496363
1772713702570194200,4.355194091796875,-0.0046450854279100895,-0.0005973470397293568,-0.003859186777845025
1772713702580169200,4.365169189453125,-0.00029827404068782926,-0.0033933997619897127,-0.0030594393610954285
1772713702590143200,4.375143310546875,-0.0019859191961586475,-0.0010482202051207423,-0.00481472909450531
1772713702600118300,4.3851181640625,-0.0014988270122557878,-0.0032431974541395903,-0.0014122743159532547
1772713702610092300,4.39509228515625,-0.0037023264449089766,-0.002216548891738057,-0.002305232221260667
1772713702620067000,4.405067138671875,0.0008290420519188046,-0.005540173966437578,-0.00021544973424170166
1772713702630041000,4.415041015625,-0.0008663262706249952,-0.004352670628577471,-0.0001994707708945498
1772713702640016400,4.425016357421875,-0.0009715211344882846,-0.023453660309314728,0.02460521087050438
1772713702649991200,4.4349912109375,-0.012050271034240723,-0.024049144238233566,0.023302925750613213
1772713702659965200,4.444965087890625,-0.004581436049193144,0.027482490986585617,-0.021290108561515808
1772713702669940200,4.454940185546875,0.004327903036028147,0.030406374484300613,-0.02857838198542595
1772713702679914200,4.464914306640625,0.0001102548703784123,-0.011855860240757465,-0.0031547807157039642
1772713702689889300,4.47488916015625,-0.004878112114965916,-0.029700370505452156,-0.0025987126864492893
1772713702699863300,4.48486328125,-0.0000021305288555595325,-0.012033759616315365,-0.008550344966351986
1772713702709838000,4.494838134765625,-0.0001960086519829929,0.0020754013676196337,-0.003242132253944874
1772713702719812000,4.50481201171875,-0.00395719101652503,0.014400244690477848,-0.0018815232906490564
1772713702729787400,4.514787353515625,-0.0020277309231460094,0.011053450405597687,-0.00020479709201026708
1772713702739761400,4.524761474609375,-0.0022176143247634172,-0.007427290081977844,0.0044075315818190575
1772713702749736200,4.534736083984375,-0.002351038623601198,-0.012381568551063538,-0.0035507925786077976
1772713702759710200,4.544710205078125,-0.0019076223252341151,-0.0017438378417864442,-0.012167450040578842
1772713702769685200,4.554685302734375,-0.0015398397808894515,-0.005878661759197712,-0.0021291973534971476
1772713702779659300,4.5646591796875,-0.0008740494376979768,-0.006899717729538679,0.003704723436385393
1772713702789634300,4.57463427734375,-0.0029971215408295393,0.0054453653283417225,0.0004748416249640286
1772713702799609000,4.584609130859375,-0.0002825613773893565,0.001689509372226894,-0.0016801883466541767
1772713702809583000,4.5945830078125,-0.003784085623919964,0.00039015308720991015,-0.0003616572648752481
1772713702819558100,4.60455810546875,-0.0014362427173182368,-0.00851439218968153,-0.002481267089024186
1772713702829532200,4.6145322265625,-0.0007624630234204233,-0.0054906392470002174,-0.005399825517088175
1772713702839507500,4.624507568359375,-0.003129480639472604,-0.002017078222706914,-0.003965446725487709
1772713702849481500,4.6344814453125,-0.003724963404238224,-0.0007989483419805765,-0.0008114652009680867
1772713702859456300,4.644456298828125,-0.0008402272942475975,-0.0014879080699756742,-0.0008647284121252596
1772713702869430300,4.65443017578125,-0.0013856426812708378,-0.0037987329997122288,-0.003424292430281639
1772713702879405300,4.6644052734375,-0.0018809906905516982,-0.00122558674775064,-0.0024772724136710167
1772713702889379300,4.67437939453125,-0.0033627734519541264,-0.007063501980155706,-0.00398781755939126
1772713702899354000,4.68435400390625,-0.0044259075075387955,-0.004473578184843063,-0.0031201594974845648
1772713702909328100,4.694328125,-0.002026133006438613,-0.002537459833547473,-0.0010069411946460605
1772713702919303200,4.70430322265625,-0.0033340114168822765,0.0016793893883004785,-0.0013558153295889497
1772713702929278200,4.7142783203125,-0.0018817896489053965,-0.001586178783327341,-0.0032439965289086103
1772713702939252200,4.724252197265625,-0.0032583775464445353,-0.0008325041271746159,-0.0015076154377311468
1772713702949227300,4.734227294921875,-0.0017243968322873116,-0.0030242856591939926,-0.00398728484287858
1772713702959201300,4.744201171875,-0.0028786107432097197,-0.0016996293561533093,-0.0023094932548701763
1772713702969176300,4.75417626953125,-0.004477572627365589,-0.0017222663154825568,-0.002150502521544695
1772713702979150300,4.764150390625,-0.002286856295540929,-0.0022125542163848877,-0.0036421390250325203
1772713702989125400,4.77412548828125,-0.00026764770154841244,-0.0025481125339865685,-0.0014378406340256333
1772713702999099100,4.78409912109375,-0.0008886968716979027,-0.004495682194828987,-0.0014418354257941246
1772713703009074200,4.79407421875,-0.002356098499149084,-0.005718073341995478,-0.0028543761000037193
1772713703019048200,4.804048095703125,-0.0028101676143705845,-0.0007582019316032529,-0.00267674308270216
1772713703029023200,4.814023193359375,-0.0019630161114037037,-0.004806739278137684,0.000696150294970721
1772713703038997200,4.823997314453125,-0.0027662254869937897,0.0006231797160580754,-0.004504204262048006
1772713703048972000,4.833971923828125,-0.0007994809420779347,-0.004032824654132128,-0.0016812535468488932
1772713703058946000,4.843946044921875,-0.004749215207993984,-0.0005912217311561108,-0.0028277444653213024
1772713703068921300,4.85392138671875,-0.00029827404068782926,-0.0003909520455636084,-0.0051958272233605385
1772713703078895400,4.863895263671875,-0.0006317017832770944,-0.004051200579851866,-0.0019361181184649467
1772713703088870400,4.873870361328125,-0.0036016590893268585,-0.00021891183860134333,-0.007840879261493683
1772713703098845200,4.88384521484375,-0.0003201119543518871,-0.0024434502702206373,-0.0025680861435830593
1772713703108819200,4.893819091796875,-0.0019917781464755535,-0.0016207997687160969,-0.0032088428270071745
1772713703118794200,4.903794189453125,-0.0034165694378316402,-0.0013110742438584566,-0.004233094397932291
1772713703128768300,4.913768310546875,-0.0007398261222988367,-0.0027614317368716,-0.0040456079877913
1772713703138743000,4.923742919921875,-0.0034413367975503206,-0.0011467571603134274,-0.003909520339220762
1772713703148717000,4.933717041015625,0.0002884203568100929,-0.0006285060080699623,-0.0008426241693086922
1772713703158692000,4.943692138671875,-0.0019710054621100426,-0.0019225359428673983,-0.00296250032261014
1772713703168666000,4.953666015625,-0.0016847157385200262,-0.0015006912872195244,-0.002403769176453352
1772713703178641400,4.963641357421875,-0.003394465195015073,-0.001820270554162562,-0.0026378610637038946
1772713703188615400,4.973615478515625,-0.002217081608250737,-0.00213532242923975,0.00042290997225791216
1772713703198590200,4.983590087890625,-0.0008727178792469203,-0.005399825517088175,-0.001341434195637703
1772713703208564200,4.993564208984375,-0.0018405106384307146,-0.00196434766985476,-0.005033374298363924
1772713703218539300,5.003539306640625,0.0001203748834086582,-0.000630636524874717,-0.0029411951545625925
1772713703228513300,5.01351318359375,0.0006042712484486401,-0.002231462625786662,-0.0019747340120375156
1772713703238488300,5.02348828125,-0.0012756541837006807,-0.004735100548714399,-0.003450924064964056
1772713703248463000,5.033463134765625,-0.0019145464757457376,-0.0020242687314748764,-0.0027422569692134857
1772713703258437000,5.04343701171875,-0.0018674085149541497,-0.005844573490321636,-0.004525776021182537
1772713703268412400,5.053412353515625,0.00032144354190677404,-0.0033007217571139336,-0.0054818508215248585
1772713703278386200,5.06338623046875,-0.000059921123465755954,-0.0014892396284267306,-0.003322825999930501
1772713703288361200,5.073361328125,-0.0009201221400871873,-0.005285841878503561,-0.003266633255407214
1772713703298335200,5.083335205078125,-0.005711415316909552,-0.0015550197567790747,-0.003204581793397665
1772713703308310300,5.093310302734375,-0.004316717851907015,-0.0035481294617056847,-0.0007352987886406481
1772713703318284300,5.1032841796875,-0.0007331682136282325,0.00026791400159709156,-0.0049217878840863705
1772713703328259300,5.11325927734375,-0.0008607336785644293,-0.0035055188927799463,-0.0027688886038959026
1772713703338233300,5.1232333984375,-0.0018437063554301858,-0.003172091208398342,-0.006336991675198078
1772713703348208000,5.1332080078125,-0.002001631772145629,-0.0006271744496189058,-0.002005360322073102
1772713703358182100,5.14318212890625,-0.0020303940400481224,-0.0007960188668221235,-0.004852013196796179
1772713703368157200,5.1531572265625,-0.002763828495517373,-0.0027574370615184307,-0.004986769054085016
1772713703378131200,5.163131103515625,-0.0021936458069831133,-0.0012604740913957357,-0.0028360001742839813
1772713703388106200,5.173106201171875,-0.0036698358599096537,-0.002033855998888612,-0.0006831008358858526
1772713703398080300,5.183080322265625,-0.0005166532355360687,-0.00022397184511646628,-0.0006250438746064901
1772713703408054800,5.1930546875,-0.004701544530689716,-0.0019078885670751333,-0.002019741339609027
1772713703418029800,5.20302978515625,-0.00207726564258337,-0.0012628709664568305,-0.0030977888964116573
1772713703428003800,5.21300390625,-0.0015515576815232635,-0.0049436260014772415,-0.003172091208398342
1772713703437978600,5.222978515625,-0.001326786819845438,-0.0018679412314668298,-0.003531351685523987
1772713703447952600,5.23295263671875,-0.0028104339726269245,-0.0017712684348225594,-0.0037414750549942255
1772713703457927700,5.242927734375,-0.003629089565947652,-0.0024559672456234694,-0.00538464542478323
1772713703467901700,5.252901611328125,-0.002121207769960165,-0.0023960459511727095,-0.004837632179260254
1772713703477876700,5.262876708984375,-0.0005376922199502587,-0.003680488560348749,-0.0017869811272248626
1772713703487850800,5.272850830078125,-0.001344896387308836,-0.0037950044497847557,-0.0019955066964030266
1772713703497825500,5.282825439453125,-0.004623514134436846,-0.00010972223390126601,-0.0046695866622030735
1772713703507799600,5.292799560546875,-0.002590723102912307,0.00018216021999251097,-0.006412093061953783
1772713703517774800,5.30277490234375,0.0001901497016660869,-0.0046573360450565815,-0.001315335277467966
1772713703527748900,5.312748779296875,-0.002921221312135458,-0.0010298443958163261,-0.0036876790691167116
1772713703537720600,5.322720458984375,-0.0015659386990591884,-0.0032439965289086103,-0.005793440621346235
1772713703547695600,5.332695556640625,-0.0044011399149894714,-0.001933721243403852,-0.005230714567005634
1772713703557669600,5.342669677734375,-0.001172323478385806,0.0002668487431947142,-0.0017781927017495036
1772713703567645000,5.35264501953125,-0.00355878216214478,-0.002413356676697731,-0.0026495789643377066
1772713703577619700,5.36261962890625,-0.004293282050639391,-0.0017936390358954668,-0.004037085920572281
1772713703587593700,5.37259375,0.0000476705827168189,-0.00443922309204936,-0.0043563987128436565
1772713703597568800,5.38256884765625,-0.0010634001810103655,-0.002344380598515272,-0.0019025622168555856
1772713703607542800,5.392542724609375,-0.0006860303110443056,-0.0005755090969614685,-0.0010005496442317963
1772713703617517800,5.402517822265625,-0.0021899172570556402,-0.0031158984638750553,-0.0035167040769010782
1772713703627491800,5.412491943359375,-0.0023638217244297266,-0.0013600763631984591,-0.005794771946966648
1772713703637466600,5.422466552734375,-0.0019443739438429475,-0.0011973571963608265,-0.0025534387677907944
1772713703647440600,5.432440673828125,-0.002124137245118618,-0.00063356600003317,-0.003567836945876479
1772713703657415700,5.442415771484375,-0.003938815090805292,-0.0034967304673045874,-0.0031193606555461884
1772713703667389700,5.4523896484375,-0.0009214537567459047,-0.0016737966798245907,-0.0014343785587698221
1772713703677364700,5.46236474609375,0.00040772996726445854,-0.00009108010999625549,-0.0025768745690584183
1772713703687338800,5.4723388671875,-0.002666090615093708,-0.00264798104763031,-0.004192880820482969
1772713703697313800,5.482313720703125,-0.0031244205310940742,-0.0035289546940475702,-0.0037465349305421114
1772713703707287800,5.492287841796875,-0.003531085327267647,-0.002406432293355465,-0.0036464000586420298
1772713703717262800,5.502262939453125,-0.002448244020342827,-0.003026682650670409,-0.004175303969532251
1772713703727236900,5.51223681640625,-0.0011118697002530098,0.00009081379539566115,-0.0017475662752985954
1772713703737211600,5.522211669921875,-0.000892425247002393,-0.0035430695861577988,-0.0014735270524397492
1772713703747186700,5.532186767578125,-0.002686596941202879,-0.001805889536626637,-0.006800381932407618
1772713703757160700,5.54216064453125,0.0008045409340411425,-0.003724430687725544,-0.0032900692895054817
1772713703767135700,5.5521357421875,-0.0008048072922974825,-0.003025617217645049,-0.002740392694249749
1772713703777109500,5.562109619140625,-0.0037145770620554686,-0.0014615427935495973,-0.003480485174804926
1772713703787084800,5.572084716796875,-0.00435986090451479,-0.002118278294801712,-0.006672283634543419
1772713703797058800,5.582058837890625,-0.003192331176251173,-0.0019590212032198906,-0.005083974450826645
1772713703807033900,5.592033935546875,-0.0018439727136865258,-0.001282312092371285,-0.0007574030314572155
1772713703817007900,5.6020078125,-0.005142297595739365,-0.0013957626651972532,-0.0026040389202535152
1772713703826982700,5.611982666015625,-0.0032945964485406876,-0.0008692557457834482,-0.0021840583067387342
1772713703836956700,5.621956787109375,0.00016831177345011383,-0.0006996124284341931,-0.0018104169284924865
1772713703846931700,5.631931640625,-0.0032519858796149492,-0.002086054068058729,-0.003260774305090308
1772713703856905700,5.64190576171875,-0.0022423816844820976,-0.0036487970501184464,-0.005332447588443756
1772713703866880800,5.651880859375,-0.00028575718170031905,-0.002013882389292121,-0.005626993253827095
1772713703876854800,5.661854736328125,-0.0013622068800032139,-0.0025720810517668724,-0.005791310220956802
1772713703886829800,5.671829833984375,-0.000988032785244286,-0.00039015308720991015,-0.0023094932548701763
1772713703896803600,5.681803466796875,-0.002511094557121396,-0.0020383833907544613,-0.006043777801096439
1772713703906779000,5.69177880859375,-0.002496979897841811,-0.0006258428329601884,-0.005628058221191168
1772713703916753000,5.7017529296875,-0.0026043052785098553,-0.003067961661145091,-0.0028812738601118326
1772713703926727700,5.711727783203125,-0.0019592875614762306,-0.00227886694483459,-0.004160123877227306
1772713703936701700,5.72170166015625,-0.005277852527797222,0.0013222594279795885,-0.005360410548746586
1772713703946676700,5.7316767578125,-0.002625077962875366,-0.0021963089238852262,-0.005183043889701366
1772713703956650800,5.741650634765625,-0.002258360618725419,-0.0008117315010167658,-0.006637396290898323
1772713703966625800,5.751625732421875,-0.00227860058657825,-0.0016698020044714212,-0.0030128341168165207
1772713703976600600,5.7616005859375,-0.0014298511669039726,-0.001264468883164227,-0.004858671221882105
1772713703986574600,5.77157470703125,-0.0024977787397801876,-0.0035838158801198006,-0.005005144979804754
1772713703996550000,5.7815498046875,0.0010546117555350065,-0.004463990684598684,-0.001972603378817439
1772713704006524000,5.79152392578125,-0.0015081481542438269,-0.0014389059506356716,-0.006539658177644014
1772713704016498700,5.801498779296875,-0.00012516857532318681,-0.0023992417845875025,-0.005350024439394474
1772713704026472700,5.81147265625,-0.0005408879951573908,-0.0009057410643436015,-0.0022367890924215317
1772713704036447700,5.82144775390625,-0.000895621080417186,0.0002687129599507898,-0.005673864856362343
1772713704046421800,5.831421875,-0.0014745922526344657,-0.0026375947054475546,-0.004622981417924166
1772713704056396800,5.841396728515625,-0.0037207023706287146,-0.002398176584392786,-0.001719869440421462
1772713704066370800,5.851370849609375,-0.0018969696247950196,-0.0002902845444623381,-0.0034961977507919073
1772713704076345600,5.861345703125,-0.0005222458858042955,-0.0035092474427074194,-0.004275438841432333
1772713704086319600,5.871319580078125,-0.0035087147261947393,-0.0015835155500099063,-0.005830192007124424
1772713704096294700,5.881294677734375,-0.0024780714884400368,-0.0025800704024732113,-0.007237672805786133
1772713704106268700,5.8912685546875,-0.003063700394704938,-0.0007123955874703825,-0.0006807039608247578
1772713704116243700,5.90124365234375,-0.0019449065439403057,-0.0005044027348048985,-0.002853044541552663
1772713704126217700,5.9112177734375,-0.0026349315885454416,-0.002302569104358554,-0.005417136009782553
1772713704136192800,5.92119287109375,-0.0022213426418602467,0.0014149374328553677,-0.001969673903658986
1772713704146166800,5.931166748046875,-0.001427987008355558,-0.003534547286108136,-0.003084206720814109
1772713704156141800,5.941141845703125,-0.001609614584594965,0.00042051312630064785,-0.0035273567773401737
1772713704166115800,5.95111572265625,-0.0008442220860160887,-0.0035960664972662926,-0.005525260232388973
1772713704176090600,5.961090576171875,-0.004713262431323528,0.0001840244367485866,-0.004172907210886478
1772713704186066700,5.971066650390625,-0.0009797769598662853,-0.0006122607155703008,-0.0030770162120461464
1772713704196041700,5.981041748046875,-0.0008559399866499007,-0.00361683894880116,-0.0026229473296552896
1772713704206015700,5.991015625,-0.0032730249222368,-0.0000601874417043291,-0.00021891183860134333
1772713704215990800,6.00099072265625,-0.0018607506062835455,-0.003608050523325801,-0.005799565929919481
1772713704225964800,6.01096484375,-0.0001174454009742476,-0.00039734362508170307,-0.0024676851462572813
1772713704235939800,6.02093994140625,-0.0034029872622340918,0.0014748586108908057,-0.004714594222605228
1772713704245913900,6.030913818359375,-0.0014538196846842766,-0.0023393207229673862,-0.004826180636882782
1772713704255888600,6.040888671875,-0.0025832662358880043,-0.0033510555513203144,-0.0032091091852635145
1772713704265862700,6.050862548828125,-0.002584597794339061,-0.0012756541837006807,-0.0031427964568138123
1772713704275837700,6.060837646484375,-0.0005241101025603712,0.00011052118497900665,-0.002853044541552663
1772713704285811700,6.070811767578125,-0.0005904228310100734,-0.0024311996530741453,-0.0022828616201877594
1772713704295786500,6.080786376953125,-0.004503937903791666,-0.0047060721553862095,-0.003597398055717349
1772713704305760500,6.090760498046875,-0.0025957829784601927,-0.0018359832465648651,-0.002183525823056698
1772713704315735800,6.10073583984375,-0.0026261431630700827,-0.0026378610637038946,-0.0002854908525478095
1772713704325709800,6.110709716796875,-0.0007984156836755574,-0.0037175065372139215,-0.0033398703671991825
1772713704335684900,6.120684814453125,-0.002569950418546796,-0.001645300886593759,-0.0028756812680512667
1772713704345659000,6.130658935546875,-0.0033004553988575935,-0.00019574233738239855,-0.0036043222062289715
1772713704355633700,6.140633544921875,-0.001365668955259025,-0.00185036426410079,-0.005194495897740126
1772713704365608700,6.150608642578125,-0.0023252058308571577,0.00012650014832615852,-0.004832572303712368
1772713704375582700,6.160582763671875,-0.003719104453921318,-0.0046544065698981285,-0.005145227070897818
1772713704385557800,6.170557861328125,-0.0026732811238616705,-0.0006311691831797361,-0.00574843306094408
1772713704395531800,6.18053173828125,-0.001996571896597743,-0.004618453793227673,-0.004628574009984732
1772713704405507000,6.190507080078125,-0.00395585922524333,-0.0024615598376840353,-0.005269863177090883
1772713704415481000,6.200481201171875,-0.003084739437326789,-0.0014623417519032955,-0.002999251941218972
1772713704425456000,6.2104560546875,-0.004809402395039797,-0.002383529208600521,-0.000811997801065445
1772713704435430100,6.22043017578125,-0.0028533106669783592,-0.001243696198798716,-0.004295945167541504
1772713704445405000,6.230405029296875,-0.00213532242923975,-0.0027720844373106956,-0.0028605014085769653
1772713704455379000,6.24037890625,-0.0022956449538469315,-0.003878894029185176,-0.006143912672996521
1772713704465354000,6.25035400390625,-0.0010165285784751177,0.0007629956235177815,-0.0015683355741202831
1772713704475328000,6.260327880859375,-0.0007339671719819307,-0.0009805759182199836,-0.002026133006438613
1772713704485303000,6.270302978515625,-0.0010548781137913465,0.0003201119543518871,-0.003930026665329933
1772713704495276800,6.28027685546875,-0.002938798163086176,-0.0029619678389281034,-0.002757703186944127
1772713704505251800,6.290251953125,-0.0020722055342048407,-0.004478638060390949,-0.004249339923262596
1772713704515225900,6.300225830078125,-0.0008285093936137855,0.00022929816623218358,-0.0008988168556243181
1772713704525201200,6.310201171875,-0.0016460998449474573,-0.0029286781791597605,-0.003011502558365464
1772713704535175200,6.320175048828125,-0.0012535499408841133,-0.0034314829390496016,-0.004427505191415548
1772713704545150000,6.33014990234375,-0.0040978058241307735,-0.0018524948973208666,-0.0017680726014077663
1772713704555124000,6.3401240234375,-0.0020178770646452904,-0.0024487765040248632,-0.0029875340405851603
1772713704565099000,6.35009912109375,-0.0015017564874142408,-0.0009361011325381696,-0.0034815503749996424
1772713704575073000,6.360072998046875,-0.0032083101104944944,-0.0022423816844820976,-0.0029678267892450094
1772713704585048000,6.370048095703125,-0.00449941074475646,-0.003629089565947652,-0.0035979305393993855
1772713704595022000,6.38002197265625,-0.0011779161868616939,-0.00035926041891798377,-0.0015712650492787361
1772713704604996900,6.389996826171875,-0.0008277104352600873,-0.0019683423452079296,-0.003385676769539714
1772713704614971000,6.399970947265625,-0.004259459674358368,-0.001383245806209743,-0.0035167040769010782
1772713704624946000,6.40994580078125,-0.0030091057997196913,-0.00046924897469580173,-0.0038242992013692856
1772713704634920000,6.419919921875,-0.0013012205017730594,-0.0015907060587778687,-0.003400590270757675
1772713704644895000,6.42989501953125,-0.0015512913232669234,-0.0004362257895991206,-0.004571315832436085
1772713704654870000,6.4398701171875,-0.003171292133629322,-0.003930825740098953,-0.002008023438975215
1772713704664844000,6.449843994140625,-0.0007358313887380064,-0.001752093667164445,0.00044821001938544214
1772713704674819000,6.459819091796875,0.00017736652807798237,-0.0012311793398112059,-0.0030652983114123344
1772713704684793000,6.46979296875,-0.0013930995482951403,-0.0008655273704789579,-0.003994475118815899
1772713704694767900,6.479767822265625,-0.0028807413764297962,0.0005957491230219603,-0.005107942968606949
1772713704704742000,6.489741943359375,-0.0015843145083636045,-0.003410177771002054,-0.004954278469085693
1772713704714717000,6.499717041015625,-0.002779541304334998,-0.0006652576266787946,-0.004308994393795729
1772713704724691000,6.50969091796875,-0.0006716492353007197,-0.0024596955627202988,-0.002953711897134781
1772713704734666000,6.519666015625,-0.003524960018694401,0.00039601203752681613,-0.004399808589369059
1772713704744640000,6.529639892578125,-0.0006769755273126066,-0.003229881636798382,-0.004833903629332781
1772713704754615000,6.539614990234375,-0.0023792681749910116,-0.001312405802309513,-0.0024202808272093534
1772713704764589000,6.549589111328125,-0.002350239548832178,-0.0009257147903554142,-0.006057359743863344
1772713704774564000,6.559564208984375,-0.0022772690281271935,-0.0017827199772000313,-0.002823217073455453
1772713704784538000,6.5695380859375,0.00010892329009948298,-0.00048123320448212326,-0.004117513541132212
1772713704794513000,6.579512939453125,-0.005334045272320509,-0.002296976512297988,-0.003964115399867296
1772713704804487000,6.58948681640625,-0.0026493126060813665,-0.0034264230635017157,-0.0043771713972091675
1772713704814462000,6.5994619140625,-0.0027475832030177116,-0.002416019793599844,-0.002930009737610817
1772713704824436000,6.60943603515625,-0.0021904499735683203,0.0018074874533340335,-0.006434197071939707
1772713704834411000,6.619410888671875,0.00009454221435589716,-0.0031246868893504143,-0.003910319413989782
1772713704844385000,6.629385009765625,-0.0024501082953065634,-0.0001805623178370297,-0.005660282447934151
1772713704854360000,6.639360107421875,-0.0043505397625267506,-0.001698564155958593,-0.003739877138286829
1772713704864333800,6.649333740234375,-0.0057620154693722725,-0.002764893928542733,-0.004874916281551123
1772713704874309000,6.65930908203125,-0.002909769769757986,-0.0010048106778413057,-0.00433029979467392
1772713704884283100,6.669283203125,-0.0020367854740470648,-0.001669269404374063,-0.004766525700688362
1772713704894258000,6.6792578125,-0.0021638183388859034,-0.0014969628537073731,-0.0052205948159098625
1772713704904232000,6.68923193359375,-0.004080228973180056,-0.0032053806353360415,-0.004763862583786249
1772713704914207000,6.69920703125,-0.0021917815320193768,0.0019387812353670597,-0.0038059235084801912
1772713704924181000,6.709180908203125,-0.0032019184436649084,-0.0013100089272484183,-0.0024429175537079573
1772713704934156000,6.719156005859375,-0.0034852789249271154,-0.0017267935909330845,-0.00475534051656723
1772713704944130000,6.729130126953125,-0.0036666402593255043,-0.0034176346380263567,-0.00123783724848181
1772713704954104800,6.739104736328125,-0.003096990054473281,-0.0027382622938603163,-0.0032980586402118206
1772713704964078800,6.749078857421875,-0.0017361147329211235,-0.002561161993071437,-0.0032527849543839693
1772713704974054100,6.75905419921875,-0.0032732912804931402,-0.0024141555186361074,-0.005342833697795868
1772713704984029000,6.76902880859375,-0.0033838124945759773,-0.0017651431262493134,-0.002739860210567713
1772713704994003000,6.7790029296875,-0.003308977698907256,0.0025015072897076607,-0.0041643851436674595
1772713705003978000,6.78897802734375,0.00020772656716872007,-0.004252269398421049,-0.006627808790653944
1772713705013952000,6.798951904296875,-0.0017744642682373524,-0.00130947632715106,-0.006992661859840155
1772713705023927000,6.808927001953125,-0.004080495331436396,-0.0005486111622303724,-0.0033832797780632973
1772713705033901000,6.818901123046875,-0.0001257012045243755,-0.0007235808880068362,-0.0036735644098371267
1772713705043875800,6.828875732421875,-0.0031372036319226027,-0.00259418529458344,-0.002001898130401969
1772713705053849900,6.838849853515625,-0.004054662771522999,0.00003888214996550232,-0.005161472596228123
1772713705063825000,6.848824951171875,-0.002380333375185728,-0.0016173376934602857,-0.0016439693281427026
1772713705073799000,6.858798828125,-0.0014820491196587682,-0.00159443449229002,-0.005260542035102844
1772713705083774200,6.868774169921875,-0.001677791471593082,-0.0008420915110036731,-0.0034471957478672266
1772713705093748000,6.878748046875,-0.0032858080230653286,-0.00025513084256090224,-0.005819805897772312
1772713705103723000,6.888722900390625,-0.004237355664372444,-0.0015630092239007354,-0.0038067223504185677
1772713705113697000,6.898697021484375,-0.0007693872321397066,-0.0024442493449896574,-0.005290103144943714
1772713705123672000,6.908672119140625,-0.0015385081060230732,-0.0018141453620046377,-0.002909237053245306
1772713705133646000,6.91864599609375,-0.003084206720814109,-0.002659432590007782,-0.002511360915377736
1772713705143620900,6.928620849609375,-0.0020485036075115204,-0.0023241406306624413,-0.004260791465640068
1772713705153595000,6.938594970703125,-0.00020160128769930452,-0.0010807107901200652,-0.0016498282784596086
1772713705163570000,6.94856982421875,-0.00008255799184553325,-0.001722798915579915,-0.0029025792609900236
1772713705173544000,6.9585439453125,-0.003364637726917863,-0.000928377965465188,-0.0006378270918503404
1772713705183519000,6.96851904296875,-0.0011856392957270145,-0.0033657029271125793,-0.0016458334866911173
1772713705193493000,6.978492919921875,-0.0026027073618024588,-0.0014080132823437452,-0.0025814019609242678
1772713705203468000,6.988468017578125,-0.0033241575583815575,-0.004166249185800552,-0.002299905987456441
1772713705213442000,6.998442138671875,-0.0017182715237140656,-0.0026647590566426516,-0.004443218000233173
1772713705223417000,7.0084169921875,-0.0022093583829700947,-0.0014945659786462784,-0.0021409152541309595
1772713705233391000,7.01839111328125,-0.0007592672482132912,-0.003828826593235135,-0.004765460267663002
1772713705243366000,7.028365966796875,-0.0002210423699580133,-0.001017327536828816,-0.004543619230389595
1772713705253340000,7.03833984375,-0.0038005972746759653,-0.0005512743373401463,-0.004582767374813557
1772713705263315000,7.04831494140625,0.001341966912150383,-0.0010034791193902493,-0.004503671545535326
1772713705273289000,7.0582890625,-0.0021310613956302404,-0.003230680711567402,0.00044288369826972485
1772713705283264000,7.068263916015625,-0.004712463356554508,0.001383778522722423,-0.003746002446860075
1772713705293238000,7.078238037109375,-0.002281263703480363,-0.0005320995696820319,-0.0046938215382397175
1772713705303212800,7.088212890625,-0.001401355373673141,-0.00045380264054983854,-0.005182511638849974
1772713705313186800,7.098186767578125,-0.0027409254107624292,-0.004238953348249197,-0.0013014868600293994
1772713705323162000,7.108162109375,-0.0023555660154670477,-0.00043835630640387535,-0.0031198931392282248
1772713705333136100,7.11813623046875,-0.0029433255549520254,-0.0018197379540652037,-0.000919323181733489
1772713705343111000,7.12811083984375,-0.0019286612514406443,-0.003537476761266589,-0.0024168186355382204
1772713705353085000,7.1380849609375,-0.002426672261208296,-0.00290391081944108,-0.005314338020980358
1772713705363060000,7.14806005859375,0.00027377295191399753,-0.0028304075822234154,-0.0018666095566004515
1772713705373034000,7.158033935546875,-0.003454119898378849,0.0007491472060792148,-0.004993693437427282
1772713705383009000,7.168009033203125,-0.002913498319685459,-0.003436543047428131,-0.0016756609547883272
1772713705392983000,7.177983154296875,-0.0012210593558847904,-0.0036075180396437645,-0.0012484899489209056
1772713705402957800,7.187957763671875,-0.0014961638953536749,-0.0026181535795331,-0.004735100548714399
1772713705412931800,7.197931884765625,-0.0006383596919476986,-0.0014239922165870667,-0.0023121563717722893
1772713705422907000,7.207906982421875,-0.00015046859334688634,-0.0003129214164800942,-0.0028852687682956457
1772713705432881000,7.217880859375,-0.0010223875287920237,-0.002150768879801035,-0.004327103961259127
1772713705442856000,7.22785595703125,-0.0015600797487422824,-0.0010831075487658381,-0.003835218260064721
1772713705452830700,7.237830810546875,-0.0010626012226566672,0.0010229201288893819,-0.0021976404823362827
1772713705462804700,7.2478046875,-0.0016346483025699854,-0.0014245248166844249,-0.0035955337807536125
1772713705472779800,7.25777978515625,-0.003549993736669421,-0.0022983080707490444,-0.0035233621019870043
1772713705482753800,7.26775390625,-0.0025305356830358505,-0.0032346753869205713,-0.005588111001998186
1772713705492728800,7.277728759765625,-0.003153448924422264,-0.0038165762089192867,-0.003950799349695444
1772713705502702800,7.287702880859375,-0.00042983421008102596,-0.0010282464791089296,-0.005747634451836348
1772713705512678000,7.297677978515625,-0.0006231797160580754,-0.0038871499709784985,-0.004191549029201269
1772713705522652000,7.30765185546875,-0.0034354778472334146,-0.0033478597179055214,-0.0025723471771925688
1772713705532627000,7.317626953125,-0.0010634001810103655,-0.0006623281515203416,-0.0026546388398855925
1772713705542601000,7.32760107421875,-0.004983573220670223,-0.0034642398823052645,-0.0024985778145492077
1772713705552575700,7.33757568359375,-0.0012639362830668688,-0.0005091963685117662,-0.0022919164039194584
1772713705562549800,7.3475498046875,-0.003878627670928836,-0.0033968619536608458,-0.005845638457685709
1772713705572524800,7.35752490234375,-0.002031991956755519,-0.0021869877818971872,-0.006310360040515661
1772713705582498800,7.367498779296875,-0.0019204054260626435,-0.00041092574247159064,-0.004690092988312244
1772713705592473900,7.377473876953125,-0.002552373567596078,-0.0019329222850501537,-0.005084773525595665
1772713705602448000,7.38744775390625,-0.0014769891276955605,-0.0016160061350092292,-0.0031065773218870163
1772713705612423000,7.3974228515625,-0.004698348697274923,-0.0025888588279485703,-0.0034384073223918676
1772713705622397000,7.40739697265625,-0.0028759476263076067,-0.0029262814205139875,-0.002073803450912237
1772713705632372000,7.4173720703125,-0.0025803367607295513,-0.0015981629258021712,-0.0038157771341502666
1772713705642346000,7.427345947265625,-0.0005608617211692035,-0.001716673607006669,-0.005232844967395067
1772713705652320800,7.43732080078125,-0.001442900625988841,-0.001910285442136228,-0.0013670006301254034
1772713705662294800,7.447294677734375,-0.0005121259018778801,-0.003570766421034932,-0.0018881811993196607
1772713705672269800,7.457269775390625,-0.0030399984680116177,-0.0020642161834985018,-0.0032919333316385746
1772713705682243800,7.467243896484375,0.00014567491598427296,-0.0029734193813055754,-0.005935387220233679
1772713705692219000,7.477218994140625,-0.0034107104875147343,-0.0007773766992613673,-0.002969158347696066
1772713705702193000,7.48719287109375,-0.0029531794134527445,-0.0035864789970219135,-0.0026021746452897787
1772713705712168000,7.49716796875,-0.0013044163351878524,-0.0027654264122247696,-0.004945490043610334
1772713705722141700,7.5071416015625,-0.0024626250378787518,-0.0007661914569325745,-0.004637895151972771
1772713705732117000,7.517116943359375,-0.003492735791951418,-0.000556334329303354,-0.005305283237248659
1772713705742091000,7.527091064453125,-0.0002671150432433933,-0.001425057533197105,-0.002579537918791175
1772713705752065800,7.537065673828125,-0.002251702593639493,-0.0015683355741202831,-0.0062616243958473206
1772713705762039800,7.547039794921875,-0.0018500980222597718,-0.0001323590986430645,-0.003507116809487343
1772713705772014800,7.557014892578125,-0.0022620889358222485,-0.003353186184540391,-0.005378520116209984
1772713705781988900,7.56698876953125,-0.0044168527238070965,-0.002400839701294899,-0.002969424705952406
1772713705791964000,7.5769638671875,-0.0018519621808081865,0.0008910936885513365,-0.0028064390644431114
1772713705801938000,7.58693798828125,0.0001994707708945498,-0.0020754013676196337,-0.004429901950061321
1772713705811912700,7.59691259765625,-0.0018575548892840743,-0.000027696874894900247,-0.0046426886692643166
1772713705821886700,7.60688671875,-0.0018247979460284114,-0.0029145635198801756,-0.005409945268183947
1772713705831862000,7.616862060546875,-0.0011744539951905608,-0.003425357863306999,-0.001814944320358336
1772713705841836000,7.6268359375,-0.00019148127466905862,-0.00001997370782191865,-0.0021230720449239016
1772713705851810800,7.636810791015625,-0.0027204190846532583,-0.0007121292874217033,-0.001796834752894938
1772713705861784800,7.646784912109375,-0.003379551460966468,0.0005677859298884869,-0.004372377879917622
1772713705871760000,7.656759765625,0.0008290420519188046,-0.002423742786049843,-0.003922037314623594
1772713705881734000,7.66673388671875,-0.003692739177495241,-0.00012836436508223414,-0.005013667047023773
1772713705891709000,7.676708984375,-0.002752110594883561,-0.0011941614793613553,-0.005181978922337294
1772713705901683000,7.686682861328125,0.0002767024270724505,-0.0035175031516700983,-0.005870139691978693
1772713705911657700,7.69665771484375,0.000480434246128425,-0.00014540860138367862,-0.003625893732532859
1772713705921631700,7.7066318359375,-0.001702026231214404,-0.002674612682312727,-0.004608067683875561
1772713705931606800,7.716606689453125,-0.004850149154663086,0.00018748654110822827,-0.004619519226253033
1772713705941580800,7.726580810546875,-0.004579572007060051,-0.0031033814884722233,-0.0034258903469890356
1772713705951555800,7.736555908203125,-0.0006532734259963036,-0.0031103058718144894,-0.004516188520938158
1772713705961529900,7.74652978515625,-0.00014807176194153726,0.0005291700945235789,-0.004809402395039797
1772713705971505000,7.7565048828125,-0.0023180153220891953,-0.0028706213925033808,-0.0016972325975075364
1772713705981479000,7.76647900390625,-0.0037324202712625265,-0.0008703210623934865,-0.001047154888510704
1772713705991454000,7.776453857421875,-0.0011848403373733163,-0.005667473189532757,-0.002159024588763714
1772713706001428000,7.786427978515625,-0.0019345202017575502,-0.0013049489352852106,-0.003531884169206023
1772713706011402800,7.79640283203125,-0.002502572489902377,-0.0021081583108752966,-0.0054818508215248585
1772713706021376800,7.806376708984375,-0.0007621967233717442,-0.0015755260828882456,-0.004592621233314276
1772713706031351800,7.816351806640625,-0.001698830397799611,-0.0011848403373733163,-0.00247594085521996
1772713706041325800,7.826325927734375,-0.0002561961009632796,-0.0018010957865044475,-0.0014484933344647288
1772713706051300900,7.83630078125,-0.002162486780434847,-0.0014215953415259719,-0.0012873720843344927
1772713706061275000,7.84627490234375,-0.0034855452831834555,-0.00016405072528868914,-0.0037385455798357725
1772713706071250000,7.85625,-0.0000900148443179205,0.0013941648649051785,-0.00418435875326395
1772713706081224000,7.866223876953125,-0.0018607506062835455,-0.0007890945998951793,-0.003191798459738493
1772713706091199000,7.876198974609375,-0.0020743361674249172,-0.00045833003241568804,-0.0027438548859208822
1772713706101173000,7.886173095703125,-0.001689509372226894,-0.0006258428329601884,-0.002811765531077981
1772713706111147800,7.896147705078125,0.0008471515611745417,-0.0006258428329601884,-0.0029553098138421774
1772713706121121800,7.906121826171875,-0.0035305526107549667,-0.0012452941155061126,-0.0016796556301414967
1772713706131096800,7.916096923828125,-0.004635232035070658,-0.002837598090991378,-0.001883121207356453
1772713706141070800,7.92607080078125,-0.0031707596499472857,-0.0014719291357323527,-0.0016626114957034588
1772713706151046000,7.9360458984375,0.00043649208964779973,-0.00390312890522182,-0.006158826407045126
1772713706161020000,7.94602001953125,-0.001561944023706019,-0.0003371562052052468,-0.003026149934157729
1772713706170994700,7.95599462890625,-0.003439738880842924,-0.0017121462151408195,-0.002575809368863702
1772713706180968700,7.96596875,-0.002284459536895156,-0.00061279337387532,-0.002329200739040971
1772713706190944000,7.975944091796875,0.0009289105655625463,-0.0027079021092504263,-0.005438175052404404
1772713706200918000,7.98591796875,-0.002924417145550251,-0.0008530105114914477,-0.0052235242910683155
1772713706210892800,7.995892822265625,-0.0022746059112250805,-0.0025864620693027973,-0.0028306739404797554
1772713706220866800,8.00586669921875,-0.0024474449455738068,0.000014114753867033869,-0.004366785287857056
1772713706230841900,8.015841796875,-0.003433347214013338,-0.0036069853231310844,-0.0024170849937945604
1772713706240815900,8.02581591796875,0.00034914040588773787,-0.00021491710504051298,-0.0028005801141262054
1772713706250791000,8.035791015625,-0.003108441596850753,-0.002656503114849329,-0.0008633967954665422
1772713706260765000,8.045764892578125,0.00041252365917898715,-0.004354001954197884,-0.00410526292398572
1772713706270739700,8.05573974609375,-0.0008604673203080893,-0.0012929646763950586,-0.0041121868416666985
1772713706280713700,8.065713623046875,-0.0014857775531709194,-0.0012543488992378116,-0.005517270881682634
1772713706290688800,8.075688720703125,-0.0018671422731131315,0.0011835087789222598,-0.004315119702368975
1772713706300662800,8.085662841796875,-0.0016109461430460215,-0.0008511462947353721,-0.003367300843819976
1772713706310637800,8.095637939453125,-0.0014242585748434067,-0.0010018812026828527,-0.003650128608569503
1772713706320611800,8.10561181640625,-0.0004215783847030252,-0.001865277998149395,-0.005619536153972149
1772713706330587000,8.1155869140625,-0.0030362699180841446,-0.0026264095213264227,-0.005677859298884869
1772713706340561000,8.125560791015625,-0.00318966805934906,-0.0023307986557483673,-0.00632074661552906
1772713706350536000,8.135535888671875,-0.0011709919199347496,-0.002394714392721653,-0.004354268312454224
1772713706360510000,8.145510009765625,-0.001936384360305965,-0.0031561122741550207,-0.004879177547991276
1772713706370484700,8.155484619140625,-0.0036940707359462976,-0.002615490462630987,-0.003984089009463787
1772713706380458800,8.165458740234374,-0.0032748891972005367,-0.002412291243672371,-0.005372128449380398
1772713706390433800,8.175433837890624,-0.0014306501252576709,-0.002826412906870246,-0.003168629016727209
1772713706400407800,8.18540771484375,0.0003539340978022665,-0.004551342222839594,-0.005043494515120983
1772713706410383600,8.195383544921874,-0.0036019254475831985,-0.0022117553744465113,-0.00358834327198565
1772713706420357600,8.205357666015624,-0.002111886627972126,-0.000681236619129777,-0.006174272391945124
1772713706430332700,8.215332763671874,-0.0019347865600138903,-0.004335360135883093,-0.006458698306232691
1772713706440306700,8.225306640625,0.00023995080846361816,-0.0028096348978579044,-0.0077458037994802
1772713706450281700,8.23528173828125,-0.0019342538435012102,-0.0025931198615580797,-0.008843292482197285
1772713706460255700,8.245255859375,-0.0038344194181263447,-0.004975583869963884,-0.004509796854108572
1772713706470230500,8.25523046875,-0.0024778051301836967,-0.0014032195322215557,-0.006368949543684721
1772713706480204500,8.26520458984375,-0.0010783139150589705,-0.003817108692601323,-0.0030043120495975018
1772713706490179600,8.2751796875,-0.0018335863715037704,0.0008487494196742773,-0.005058408249169588
1772713706500153600,8.285153564453125,-0.004613393917679787,-0.004447745159268379,-0.004914597608149052
1772713706510128400,8.29512841796875,-0.0033039175905287266,-0.0022628880105912685,-0.0012269183062016964
1772713706520102400,8.305102294921875,0.0003246393462177366,-0.001520665013231337,-0.006354834884405136
1772713706530077700,8.31507763671875,-0.004413124173879623,0.00041731735109351575,-0.005357481073588133
1772713706540051700,8.3250517578125,-0.004546815063804388,-0.0013957626651972532,-0.008840629830956459
1772713706550026800,8.33502685546875,-0.0018037590198218822,-0.002670884132385254,-0.004555603489279747
1772713706560000800,8.345000732421875,-0.0019949739798903465,0.002442651428282261,-0.004288488067686558
1772713706569975600,8.3549755859375,-0.002132925670593977,-0.002484729280695319,0.0004191815387457609
1772713706579949600,8.364949462890625,-0.0029228192288428545,-0.00007829693640815094,-0.005365470424294472
1772713706589924600,8.374924560546875,-0.0007153250626288354,-0.0023875238839536905,-0.003245860803872347
1772713706599898600,8.384898681640625,-0.002016811864450574,-0.0000023968450477696024,-0.00478516798466444
1772713706609873400,8.394873291015625,-0.0019006980583071709,-0.0027366643771529198,-0.006804909091442823
1772713706619847400,8.404847412109374,-0.003281813347712159,-0.0014136058744043112,-0.007815845310688019
1772713706629822500,8.414822509765624,0.0004013383586425334,-0.004303401801735163,-0.004885036498308182
1772713706639796500,8.42479638671875,-0.00037683729897253215,-0.0022327941842377186,-0.0026823359075933695
1772713706649771800,8.434771728515624,-0.00381471193395555,-0.0009435579413548112,-0.0031965922098606825
1772713706659745800,8.444745849609374,-0.003531617810949683,-0.004052532371133566,-0.00455693481490016
1772713706669720600,8.454720458984376,-0.0012668657582253218,-0.003373159794136882,-0.00395745737478137
1772713706679694600,8.464694580078126,0.0003448793722782284,-0.002540655666962266,-0.0030605047941207886
1772713706689669600,8.474669677734376,-0.002796585438773036,-0.002201901515945792,-0.004854409955441952
1772713706699643600,8.4846435546875,-0.0003454120014794171,-0.000630902883131057,-0.0030341395176947117
1772713706709618700,8.49461865234375,-0.0010410296963527799,-0.0034413367975503206,-0.002788329729810357
1772713706719592400,8.504592529296875,-0.0036786242853850126,-0.00011078749957960099,-0.004068244714289904
1772713706729567500,8.5145673828125,-0.00005299690383253619,-0.002496713539585471,-0.007821171544492245
1772713706739541500,8.52454150390625,0.00037257623625919223,-0.0009944243356585503,-0.004991562571376562
1772713706749516800,8.534516845703125,-0.003611512714996934,-0.0036637107841670513,-0.0025249430909752846
1772713706759490800,8.54449072265625,-0.0008175904513336718,-0.001972869737073779,0.0009094694978557527
1772713706769465600,8.554465576171875,-0.0027393274940550327,-0.0007805725326761603,-0.0015366439474746585
1772713706779439600,8.564439697265625,-0.0008535431115888059,-0.0030546458438038826,0.002999251941218972
1772713706789414700,8.57441455078125,-0.0019736685790121555,0.0008974852971732616,0.0007243797881528735
1772713706799388700,8.584388671875,-0.0005808354471810162,-0.0037324202712625265,0.009801497682929039
1772713706809363700,8.59436376953125,-0.004156661685556173,-0.0022024342324584723,0.0073255570605397224
1772713706819337700,8.604337646484375,-0.00003328951424919069,0.026017751544713974,-0.023972177878022194
1772713706829312500,8.6143125,-0.0007219829712994397,-0.025305090472102165,-0.00805952399969101
1772713706839286500,8.62428662109375,-0.006803844124078751,-0.002650910522788763,-0.02020886540412903
1772713706849261600,8.634261474609374,0.0008005462004803121,-0.022669360041618347,0.004085821565240622
1772713706859235600,8.644235595703124,-0.002749713836237788,0.013225523754954338,-0.009081379510462284
1772713706869210600,8.654210693359374,-0.001275920425541699,0.0029582392890006304,0.007469900418072939
1772713706879184600,8.6641845703125,-0.0004468784318305552,0.010010822676122189,-0.001281779375858605
1772713706889159700,8.67415966796875,-0.002049835165962577,-0.00586587842553854,-0.0006442186422646046
1772713706899133700,8.6841337890625,-0.0031396006233990192,-0.008775115944445133,-0.0017776599852368236
1772713706909108700,8.694108642578126,-0.0023912524338811636,-0.006863498594611883,-0.004685565363615751
1772713706919082800,8.704082763671876,-0.00013635384675581008,-0.0016591493040323257,-0.0010455570882186294
1772713706929057500,8.7140576171875,-0.0009614011505618691,0.0008412926108576357,0.0015180017799139023
1772713706939031600,8.724031494140625,-0.0043563987128436565,0.002094842493534088,0.0007283745799213648
1772713706949006600,8.734006591796875,-0.001980859087780118,0.0026322684716433287,-0.0017270599491894245
1772713706958980600,8.743980712890625,-0.0005494101205840707,-0.0028884646017104387,-0.0037675739731639624
1772713706968955400,8.753955322265625,-0.0027294738683849573,-0.0073021212592720985,-0.005768673028796911
1772713706978929400,8.763929443359375,-0.0012282498646527529,-0.0036165728233754635,-0.007800398860126734
1772713706988904700,8.77390478515625,0.0018956380663439631,-0.0038637141697108746,-0.005872003734111786
1772713706998878700,8.783878662109375,-0.0018908443162217736,-0.00019973708549514413,-0.0063196811825037
1772713707008853800,8.793853759765625,-0.004539890680462122,-0.002575809368863702,-0.0031292142812162638
1772713707018827800,8.803827880859375,-0.0038029940333217382,-0.00016245282313320786,-0.0019233349012210965
1772713707028802600,8.813802490234375,-0.00017177389236167073,0.0006649913266301155,0.00025752768851816654
1772713707038776600,8.823776611328125,-0.0007166566210798919,-0.003980360459536314,-0.0036333505995571613
1772713707048751600,8.833751708984375,-0.0022125542163848877,-0.002719087526202202,-0.00686110183596611
1772713707058725600,8.8437255859375,-0.002615490462630987,-0.0015867113834246993,-0.0019883159548044205
1772713707068700700,8.85370068359375,-0.0029284118209034204,-0.002031991956755519,-0.004062918480485678
1772713707078674400,8.86367431640625,-0.0014050838071852922,-0.0013677994720637798,-0.004514856729656458
1772713707088649500,8.8736494140625,-0.003485811408609152,-0.0013488910626620054,-0.0012061456218361855
1772713707098623500,8.88362353515625,-0.002868224401026964,-0.0029137644451111555,-0.0025033713318407536
1772713707108598800,8.893598876953124,-0.0030573089607059956,-0.0013036173768341541,-0.0025308020412921906
1772713707118572800,8.90357275390625,-0.002701510675251484,-0.0046544065698981285,-0.0021811288315802813
1772713707128547600,8.913547607421876,-0.0026349315885454416,-0.001612011343240738,-0.0037412086967378855
1772713707138521600,8.923521484375,-0.001336107961833477,-0.002436526119709015,-0.00307648372836411
1772713707148496600,8.93349658203125,-0.002472212305292487,-0.0000756337758502923,-0.0029971215408295393
1772713707158470700,8.943470703125,0.00019361180602572858,-0.003087402554228902,-0.0033214944414794445
1772713707168445700,8.95344580078125,-0.0011504855938255787,-0.0018945727497339249,-0.005573729984462261
1772713707178419700,8.963419677734375,-0.003281813347712159,0.0017805894603952765,-0.004771585576236248
1772713707188393500,8.9733935546875,-0.06987734884023666,0.27698445320129395,0.23362873494625092
1772713707198368500,8.983368408203125,-0.3237231969833374,0.3526232838630676,0.7000467777252197
1772713707208342500,8.993342529296875,-0.5975334644317627,0.12545299530029297,1.0935133695602417
1772713707218317600,9.003317626953125,-0.5863273739814758,-0.9584615230560303,0.6618013978004456
1772713707228291600,9.01329150390625,-0.5926343202590942,-1.0452311038970947,0.27669230103492737
1772713707238266600,9.0232666015625,-0.538422703742981,0.10470430552959442,0.13440068066120148
1772713707248240600,9.03324072265625,-0.3443422019481659,0.401309609413147,-0.34337228536605835
1772713707258215700,9.043215576171875,-0.2957749366760254,0.6443840265274048,-0.8742902278900146
1772713707268189700,9.053189697265625,-0.26198500394821167,0.40540608763694763,-1.3563390970230103
1772713707278164700,9.063164794921875,-0.06113552674651146,-1.272210955619812,-0.7672466039657593
