time,seconds_elapsed,z,y,x
1772563508820616200,0.0616162109375,0.0003744303248822689,0.020673345774412155,0.007023855112493038
1772563508830684200,0.07168408203125,0.0020719291642308235,0.002797143068164587,-0.007841643877327442
1772563508840752000,0.081752197265625,0.0002569458447396755,-0.02176196686923504,-0.0005032557528465986
1772563508850820000,0.091820068359375,0.0001400329638272524,-0.01875419169664383,0.0020856033079326153
1772563508860888300,0.101888427734375,0.00039562233723700047,0.0031264089047908783,-0.0018047741614282131
1772563508870956300,0.111956298828125,0.000051808077841997147,0.018170339986681938,-0.0014042347902432084
1772563508881025000,0.12202490234375,0.0008011844474822283,0.01391304936259985,0.0055768960155546665
1772563508891093200,0.13209326171875,-0.0011349334381520748,-0.0049589090049266815,0.001365638803690672
1772563508901161200,0.1421611328125,0.0006877915002405643,-0.014056846499443054,-0.005339096300303936
1772563508911229200,0.152229248046875,0.0013652998022735119,-0.007360594347119331,-0.002218670444563031
1772563508921297200,0.162297119140625,-0.0032062118407338858,0.0026176569517701864,0.003908627200871706
1772563508931365400,0.172365478515625,-0.0005459801759570837,0.008103502914309502,0.0029767872765660286
1772563508941433000,0.18243310546875,-0.001143189612776041,0.008306562900543213,-0.0011057744268327951
1772563508951501000,0.1925009765625,0.0001258067786693573,0.001996735343709588,-0.0008604973554611206
1772563508961569000,0.202569091796875,-0.0002742973156273365,-0.006743649486452341,-0.001650504069402814
1772563508971637200,0.21263720703125,0.0011768590193241835,-0.009117059409618378,0.0013620639219880104
1772563508981706200,0.222706298828125,-0.0009278925135731697,0.0017273810226470232,0.0022075758315622807
1772563508991774200,0.232774169921875,0.0012409859336912632,0.005885906983166933,0.0009327209554612637
1772563509001842000,0.242842041015625,0.00045199436135590076,0.006936424877494574,0.002266149502247572
1772563509011910100,0.25291015625,0.0005289597902446985,-0.0007699644193053246,0.0003318958915770054
1772563509021978000,0.26297802734375,-0.00027504866011440754,-0.008802058175206184,0.0025183511897921562
1772563509032046000,0.273046142578125,-0.0002872960176318884,-0.006553817540407181,-0.0015235284809023142
1772563509042114300,0.2831142578125,0.0017896046629175544,-0.0028889314271509647,-0.0014176468830555677
1772563509052182300,0.293182373046875,0.0005624201148748398,0.004834235180169344,0.0021794848144054413
1772563509062250200,0.303250244140625,0.0006881910376250744,0.0045148637145757675,0.0028816633857786655
1772563509072319000,0.313319091796875,0.00005089654587209225,0.0027393342461436987,0.001744227483868599
1772563509082387200,0.32338720703125,-0.0008395570330321789,-0.0014520580880343914,-0.0009768775198608637
1772563509092455200,0.333455078125,0.0006512806285172701,-0.005172493867576122,-0.0011153619270771742
1772563509102523100,0.343523193359375,-0.000669373432174325,-0.004419884644448757,0.0007195561192929745
1772563509112591000,0.353591064453125,0.0008201326709240675,0.0025309654884040356,-0.0012397314421832561
1772563509122659300,0.363659423828125,0.001231206813827157,0.005405433010309935,0.00018099043518304825
1772563509132727000,0.37372705078125,0.0013132321182638407,0.00356572144664824,-0.002187358681112528
1772563509142795000,0.383794921875,0.0017918801167979836,-0.002217392437160015,0.0011697262525558472
1772563509152863000,0.393863037109375,-0.0005120204295963049,-0.0045127710327506065,-0.0010633342899382114
1772563509162932200,0.40393212890625,-0.000384544488042593,0.00007729697972536087,-0.0023654659744352102
1772563509173000200,0.414000244140625,-0.002323059132322669,0.00039874063804745674,0.001936604268848896
1772563509183068200,0.424068115234375,0.0012503499165177345,0.0023170451167970896,0.00038189953193068504
1772563509193136000,0.43413623046875,-0.0006404942832887173,0.0024384851567447186,0.0007353010587394238
1772563509203204000,0.4442041015625,-0.00020495615899562836,-0.0014237193390727043,0.0015080049633979797
1772563509213272000,0.45427197265625,0.00237165205180645,-0.001770196482539177,-0.0008912368211895227
1772563509223340000,0.464340087890625,0.0016247262246906757,-0.0012123547494411469,-0.0020385037641972303
1772563509233408300,0.474408203125,0.0019272612407803535,0.0003703623078763485,0.00066353939473629
1772563509243476200,0.484476318359375,0.001618312206119299,-0.0007598334923386574,-0.0011492162011563778
1772563509253545000,0.494544921875,-0.0003114142455160618,-0.000005093403160572052,-0.00027676462195813656
1772563509263613200,0.50461328125,0.000572440680116415,-0.00010064244270324707,0.0012674322351813316
1772563509273681200,0.51468115234375,-0.0012150730472058058,-0.0005661631003022194,0.0012732911854982376
1772563509283749000,0.5247490234375,0.004208480939269066,0.0024416011292487383,-0.00008639087900519371
1772563509293817000,0.534817138671875,0.00024543097242712975,-0.0009089219383895397,0.0023538637906312943
1772563509303885300,0.54488525390625,0.00015370757319033146,0.001076879445463419,-0.0014490559697151184
1772563509313953300,0.554953369140625,0.0011241633910685778,-0.0019580586813390255,0.0007893308065831661
1772563509324021000,0.56502099609375,-0.000093469163402915,0.0016639209352433681,-0.0023754648864269257
1772563509334089000,0.5750888671875,-0.0002007945440709591,0.0003323405981063843,0.0010546864941716194
1772563509344158200,0.585158203125,0.0005306226667016745,0.0005953800864517689,0.000441255746409297
1772563509354226200,0.59522607421875,0.0002097119577229023,-0.0002696146257221699,-0.0015744908014312387
1772563509364294100,0.605294189453125,-0.0026598097756505013,0.00011788634583353996,0.0032467669807374477
1772563509374362000,0.615362060546875,-0.001685891766101122,0.001966919284313917,-0.0006616881582885981
1772563509384430000,0.62543017578125,-0.0002855758648365736,-0.000056492630392313004,0.00016638543456792831
1772563509394498000,0.635498046875,0.0008542572613805532,-0.0004466455429792404,-0.0016618745867162943
1772563509404566000,0.64556591796875,-0.0014018760994076729,0.00019573792815208435,0.00011278479360044003
1772563509414634200,0.65563427734375,0.0014722070191055536,0.002102561527863145,0.0019088205881416798
1772563509424702200,0.6657021484375,-0.00016146618872880936,0.0005091745406389236,-0.001551032648421824
1772563509434771000,0.67577099609375,0.0011216448619961739,0.0009009251371026039,0.0012966853100806475
1772563509444839200,0.685839111328125,-0.0016398788429796696,0.0009364625439047813,0.0015745032578706741
1772563509454907100,0.6959072265625,-0.0011639720760285854,-0.002936572302132845,0.0001238791737705469
1772563509464975000,0.70597509765625,0.002493375912308693,-0.0003549042157828808,0.0020715047139674425
1772563509475043000,0.71604296875,-0.0013237330131232738,-0.0006760815158486366,0.00002806144766509533
1772563509485111300,0.726111328125,-0.0013543828390538692,0.0030997879803180695,0.0010764719918370247
1772563509495179300,0.73617919921875,-0.0002217404544353485,0.001881125383079052,-0.0015267678536474705
1772563509505247200,0.746247314453125,-0.0010994167532771826,-0.0007469216361641884,-0.0013142109382897615
1772563509515315000,0.75631494140625,0.000384763116016984,-0.0008252188563346863,-0.002284666756168008
1772563509525384200,0.76638427734375,-0.0006069480441510677,-0.0008234428241848946,-0.000695427879691124
1772563509535453000,0.776452880859375,0.0000583096407353878,0.0032599822152405977,0.00011443952098488808
1772563509545521000,0.78652099609375,-0.0010610781610012054,0.00006821285933256149,0.0008846807759255171
1772563509555588600,0.796588623046875,0.0010241768322885036,-0.000876144040375948,-0.0011276036966592073
1772563509565656800,0.80665673828125,0.00038014957681298256,-0.00178232928737998,-0.0016798971919342875
1772563509575724800,0.816724853515625,0.00039453059434890747,-0.000025175977498292923,0.0005483697168529034
1772563509585792800,0.826792724609375,-0.0009757829830050468,0.0006719916127622128,-0.0020347083918750286
1772563509595860700,0.83686083984375,0.0008724506478756666,0.0001611975021660328,-0.00048581394366919994
1772563509605929000,0.846928955078125,-0.0012604906223714352,-0.0012992233969271183,0.0003222122322767973
1772563509615997700,0.856997802734375,-0.0030757011845707893,0.0008715190924704075,0.0022727111354470253
1772563509626065700,0.867065673828125,0.0003093674313277006,0.00001731235533952713,0.0002617593854665756
1772563509636134000,0.8771337890625,-0.00003098440356552601,0.0008322396315634251,0.0025371641386300325
1772563509646201900,0.887201904296875,-0.0028520822525024414,-0.0002599181607365608,-0.000690521439537406
1772563509656269800,0.897269775390625,0.0003658151254057884,0.00023383181542158127,-0.0014567128382623196
1772563509666337800,0.907337890625,-0.0017872995231300592,-0.0008805948309600353,-0.0011289110407233238
1772563509676406000,0.917406005859375,-0.0012179154437035322,0.0013782985042780638,-0.002507629571482539
1772563509686473700,0.9274736328125,-0.0016314396634697914,0.0022578900679945946,0.0023102303966879845
1772563509696541700,0.937541748046875,0.0004341078456491232,0.00022696331143379211,0.0003418878186494112
1772563509706611000,0.94761083984375,-0.0012163857463747263,0.0010733213275671005,-0.0010404568165540695
1772563509716679000,0.957678955078125,-0.0014491460751742125,0.0018618835601955652,0.00026182900182902813
1772563509726747000,0.967746826171875,0.001543179270811379,0.003974849358201027,0.01027633249759674
1772563509736814800,0.97781494140625,0.004304877482354641,-0.06994464248418808,-0.018568364903330803
1772563509746882800,0.9878828125,0.004135942552238703,-0.12930800020694733,-0.029077311977744102
1772563509756950800,0.99795068359375,0.0017039439408108592,-0.0635891705751419,0.009164350107312202
1772563509767018800,1.008018798828125,-0.003950206097215414,0.10894210636615753,0.018775027245283127
1772563509777086700,1.018086669921875,-0.007980899885296822,0.20639702677726746,0.016414666548371315
1772563509787155000,1.028155029296875,-0.004362991079688072,0.12344381958246231,0.012585575692355633
1772563509797223700,1.0382236328125,0.0020810598507523537,-0.06225014477968216,-0.008460854180157185
1772563509807291600,1.048291748046875,0.004943887237459421,-0.16508269309997559,-0.015255667269229889
1772563509817360000,1.05835986328125,0.001653019106015563,-0.10794536769390106,-0.007996955886483192
1772563509827427800,1.068427734375,-0.0019339192658662796,0.04279213026165962,-0.0005545902531594038
1772563509837495800,1.078495849609375,-0.0029573719948530197,0.1298905462026596,0.010491402819752693
1772563509847563800,1.088563720703125,-0.002434625755995512,0.08610501885414124,0.01635506935417652
1772563509857632000,1.098632080078125,0.00022107851691544056,-0.02560259960591793,-0.004404536448419094
1772563509867700000,1.108699951171875,0.003397697117179632,-0.09447140246629715,-0.010790394619107246
1772563509877768700,1.118768798828125,0.0022221780382096767,-0.07329501211643219,-0.011117164976894855
1772563509887836700,1.128836669921875,-0.0013902646023780107,0.01135689951479435,0.00033382978290319443
1772563509897905000,1.13890478515625,-0.003016124712303281,0.07153128832578659,0.010757708922028542
1772563509907972900,1.148972900390625,-0.0033046358730643988,0.06254959106445312,0.006268428638577461
1772563509918040800,1.159040771484375,0.0019146270351484418,-0.004401215352118015,-0.0004451344721019268
1772563509928108800,1.16910888671875,0.0003880350850522518,-0.06069450452923775,-0.004527390003204346
1772563509938176800,1.1791767578125,0.0013451750855892897,-0.050558511167764664,-0.006593470461666584
1772563509948244700,1.18924462890625,-0.0009367156308144331,0.006303528323769569,0.0017101459670811892
1772563509958312700,1.199312744140625,-0.0006144733633846045,0.05443963408470154,0.0025857931468635798
1772563509968382000,1.2093818359375,-0.0022573352325707674,0.04101778194308281,0.002163890516385436
1772563509978450000,1.219449951171875,-0.0014549244660884142,-0.008333787322044373,-0.0013363021425902843
1772563509988518000,1.229517822265625,0.0025112840812653303,-0.040057577192783356,-0.0025567705743014812
1772563509998585600,1.239585693359375,-0.00006186217069625854,-0.03069603443145752,-0.0033602463081479073
1772563510008653800,1.24965380859375,0.001591796288266778,0.007404380477964878,-0.000858222832903266
1772563510018721800,1.2597216796875,-0.0008420664817094803,0.033469535410404205,0.00390111212618649
1772563510028789800,1.269789794921875,-0.001151825301349163,0.029461253434419632,0.0030890333000570536
1772563510038857700,1.279857666015625,0.0017459603259339929,-0.0025784377939999104,-0.0016053204890340567
1772563510048926000,1.289926025390625,-0.0004992850590497255,-0.031115319579839706,-0.0031230191234499216
1772563510058994700,1.29999462890625,0.001090888399630785,-0.026597801595926285,-0.004214116372168064
1772563510069062700,1.310062744140625,0.0011718200985342264,-0.0006620562635362148,0.0012516696006059647
1772563510079131000,1.320130859375,-0.0003248765133321285,0.026453718543052673,0.005909005645662546
1772563510089198800,1.33019873046875,-0.003429057076573372,0.026666514575481415,0.003474212484434247
1772563510099266800,1.340266845703125,0.0011499817483127117,0.003308195387944579,-0.003319511190056801
1772563510109334800,1.350334716796875,0.00021414924412965775,-0.02276388555765152,-0.0035770388785749674
1772563510119403000,1.360403076171875,-0.00023246300406754017,-0.024778831750154495,-0.004524591378867626
1772563510129470700,1.370470703125,-0.0014264227356761694,-0.007090847473591566,-0.0011117833200842142
1772563510139538700,1.38053857421875,-0.0007340006995946169,0.018110912293195724,0.005186859518289566
1772563510149608000,1.39060791015625,-0.0012255834881216288,0.024626296013593674,0.00232883682474494
1772563510159676000,1.400676025390625,-0.002209621714428067,0.009657465852797031,0.003325657919049263
1772563510169744000,1.410743896484375,-0.0023951337207108736,-0.013405906036496162,-0.001884710742160678
1772563510179811800,1.420811767578125,0.0010680409613996744,-0.019026240333914757,-0.0014767145039513707
1772563510189879800,1.4308798828125,0.0017039671074599028,-0.008705642074346542,0.0019015625584870577
1772563510199947800,1.44094775390625,-0.00030831736512482166,0.0072866398841142654,0.004343681037425995
1772563510210015700,1.451015625,0.0014600215945392847,0.01712781935930252,-0.0003123232163488865
1772563510220083700,1.461083740234375,0.0005800502840429544,0.009011894464492798,0.006730502471327782
1772563510230152000,1.47115185546875,0.0005568473134189844,-0.003743275534361601,0.0013838601298630238
1772563510240220700,1.481220703125,-0.000782722607254982,-0.013449432328343391,-0.0018452226649969816
1772563510250288600,1.49128857421875,-0.00003474391996860504,-0.007875315845012665,-0.0008209496736526489
1772563510260356900,1.50135693359375,-0.0020531537011265755,0.0038535119965672493,0.0013663044665008783
1772563510270424800,1.5114248046875,-0.0005789936985820532,0.008583187125623226,0.002847538096830249
1772563510280492800,1.521492919921875,-0.0010141541715711355,0.007812734693288803,0.0001540172379463911
1772563510290560800,1.531560791015625,-0.0002445974387228489,-0.0015814783982932568,0.0013107755221426487
1772563510300629000,1.54162890625,-0.0013119922950863838,-0.005754118785262108,0.0006846662145107985
1772563510310697000,1.551697021484375,-0.0011355211026966572,-0.0057167476043105125,0.0026630086358636618
1772563510320765700,1.561765625,-0.0001807776279747486,0.0002727014943957329,0.0007612453773617744
1772563510330834000,1.571833984375,0.0015814986545592546,0.0018311368767172098,0.0014734126161783934
1772563510340902000,1.58190185546875,-0.0008305264636874199,0.0009666746482253075,0.002363707637414336
1772563510350969900,1.591969970703125,0.0028271269984543324,-0.002522935625165701,-0.002585478127002716
1772563510361037800,1.602037841796875,-0.000010471092537045479,-0.0012459498830139637,0.0010904832743108273
1772563510371105800,1.612105712890625,-0.0010803579352796078,0.0019656443037092686,-0.0004169854801148176
1772563510381173800,1.622173828125,-0.0014846259728074074,-0.0017497316002845764,-0.0015107457293197513
1772563510391241700,1.63224169921875,-0.0015694834291934967,0.0006006862968206406,-0.0023074441123753786
1772563510401309700,1.642309814453125,-0.00018943310715258121,-0.0012193182483315468,-0.0012712081661447883
1772563510411379000,1.65237890625,0.0018249514978379011,0.00018126796931028366,-0.0004796676803380251
1772563510421447000,1.662447021484375,0.00020335265435278416,-0.0016525848768651485,-0.0009427915792912245
1772563510431514600,1.6725146484375,-0.002247252268716693,-0.002930142916738987,0.0023404352832585573
1772563510441582800,1.682582763671875,-0.0003593370784074068,0.001123720547184348,0.0022786499466747046
1772563510451650800,1.69265087890625,-0.0020159247796982527,0.0005041016265749931,0.0011737204622477293
1772563510461718800,1.70271875,-0.0008968648035079241,-0.0027079368010163307,-0.0018058239948004484
1772563510471786800,1.712786865234375,0.0012091216631233692,-0.0008735000155866146,-0.001172204501926899
1772563510481855000,1.72285498046875,-0.0003285873681306839,-0.002390969078987837,0.00041903438977897167
1772563510491923700,1.732923828125,0.00020364578813314438,-0.0008856453932821751,-0.001379338908009231
1772563510501991700,1.74299169921875,0.0004225578159093857,0.003847057931125164,-0.0036411616019904613
1772563510512060000,1.753059814453125,-0.001288434024900198,0.003809420159086585,0.0005212135147303343
1772563510522128000,1.7631279296875,0.0007925599347800016,0.0009840726852416992,-0.001746201771311462
1772563510532195800,1.77319580078125,0.0017442021053284407,-0.0028387275524437428,0.0026828849222511053
1772563510542263800,1.783263916015625,0.0005103596486151218,-0.004869920667260885,-0.0035960497334599495
1772563510552331800,1.793331787109375,-0.0011573093943297863,-0.0023114322684705257,0.0005580782890319824
1772563510562399700,1.803399658203125,0.0002562964800745249,0.0032077026553452015,-0.00090080127120018
1772563510572467500,1.813467529296875,-0.00041143596172332764,0.002040797146037221,-0.00022438541054725647
1772563510582536700,1.82353662109375,0.0015944569604471326,0.0032083268743008375,-0.0017248103395104408
1772563510592604700,1.833604736328125,-0.0009785480797290802,0.0009620664641261101,-0.0007349832449108362
1772563510602672600,1.843672607421875,0.0013160316739231348,-0.0018584872595965862,-0.0016721495194360614
1772563510612740900,1.853740966796875,-9.972136467695236e-7,-0.0013305502943694592,-0.0023858603090047836
1772563510622808600,1.86380859375,-0.00036212196573615074,-0.00027753598988056183,0.0035521897953003645
1772563510632876500,1.87387646484375,0.0021155662834644318,0.0011204667389392853,0.00023537478409707546
1772563510642944500,1.883944580078125,-0.0001603711862117052,0.00387097941711545,0.000453221146017313
1772563510653012700,1.8940126953125,0.0010696365498006344,0.0010270476341247559,-0.0013941737124696374
1772563510663081700,1.904081787109375,0.0006922667380422354,0.0000968053936958313,-0.0006753865163773298
1772563510673149700,1.914149658203125,-0.0008977781981229782,-0.003047224134206772,0.001552630215883255
1772563510683217400,1.924217529296875,0.00030916626565158367,-0.000001366250216960907,0.0004607343580573797
1772563510693285600,1.93428564453125,-0.0010390395764261484,0.0008415933698415756,0.0006955924909561872
1772563510703353600,1.944353515625,-0.0015996352303773165,-0.00041861413046717644,-0.0007656840607523918
1772563510713421600,1.954421630859375,0.0014464317355304956,0.00013505667448043823,-0.0004869478289037943
1772563510723489500,1.964489501953125,0.0017271289834752679,0.0018842210993170738,-0.0006994681898504496
1772563510733557800,1.974557861328125,-0.0005502114072442055,-0.0008649197407066822,-0.0016856810543686152
1772563510743625700,1.984625732421875,-0.0006412914954125881,-0.0018295170739293098,-0.00021827919408679008
1772563510753694500,1.994694580078125,-0.0009758477099239826,-0.002659398131072521,-0.0005611854139715433
1772563510763762700,2.0047626953125,0.001754691475071013,-0.001349389087408781,-0.00029433658346533775
1772563510773830700,2.01483056640625,-0.0025066721718758345,0.0015640219207853079,0.0014156424440443516
1772563510783898600,2.024898681640625,0.0034553464502096176,0.0019666918087750673,0.00016981572844088078
1772563510793966600,2.034966552734375,-0.00038094399496912956,-0.00006755907088518143,-0.0013253313954919577
1772563510804034800,2.045034912109375,0.0013834002893418074,0.0018126326613128185,-0.001260616583749652
1772563510814102500,2.0551025390625,0.0012427198234945536,-0.0010895230807363987,0.0006323470734059811
1772563510824170500,2.06517041015625,0.00026826909743249416,-0.0010884576477110386,-0.0035349673125892878
1772563510834239700,2.07523974609375,0.002113058464601636,-0.0017006779089570045,-0.004397413693368435
1772563510844307700,2.0853076171875,0.00039558601565659046,-0.00007535051554441452,-0.0011142685543745756
1772563510854375700,2.095375732421875,0.0012380010448396206,0.000440145842730999,-0.0007420761976391077
1772563510864443600,2.105443603515625,-0.00015563121996819973,0.002691315719857812,-0.0002720281481742859
1772563510874511600,2.11551171875,-0.001980352681130171,0.0002414635382592678,0.0016702068969607353
1772563510884579600,2.12557958984375,0.0005437915679067373,-0.002189735881984234,0.000581240514293313
1772563510894647600,2.1356474609375,0.0007109132129698992,0.0001747715286910534,0.0012675009202212095
1772563510904715500,2.145715576171875,-0.001047305529937148,-0.0015972955152392387,0.0017023950349539518
1772563510914783700,2.15578369140625,0.001805613748729229,0.0011931601911783218,0.0020388495177030563
1772563510924852700,2.165852783203125,-0.00015740236267447472,0.00020326348021626472,0.00021485029719769955
1772563510934920400,2.17592041015625,-0.0005845848936587572,0.000648893415927887,0.0002650860697031021
1772563510944988700,2.18598876953125,-0.00006926339119672775,0.004131508991122246,0.001835019327700138
1772563510955056600,2.196056640625,-0.0014502820558845997,-0.0024386784061789513,0.0009630278218537569
1772563510965124600,2.20612451171875,0.001043235883116722,0.0010007941164076328,-0.0006495162378996611
1772563510975192600,2.216192626953125,0.002070195972919464,0.0006853272207081318,-0.001821807585656643
1772563510985260800,2.2262607421875,-0.0008885760325938463,-0.0011842120438814163,0.0033026468008756638
1772563510995328800,2.236328857421875,-0.00027055246755480766,0.0017412283923476934,-0.00033375853672623634
1772563511005397500,2.2463974609375,0.0015609035035595298,0.001808073604479432,0.00103590521030128
1772563511015465700,2.2564658203125,0.0003572979476302862,0.0009728195145726204,0.0023967050947248936
1772563511025533700,2.26653369140625,0.0012273527681827545,0.0015387411694973707,-0.0021644909866154194
1772563511035601700,2.2766015625,0.0013463967479765415,0.0013404078781604767,0.00042572314850986004
1772563511045669600,2.286669677734375,0.000663029495626688,-0.001133402343839407,0.0010318588465452194
1772563511055737900,2.29673779296875,-0.0011274090502411127,-0.0006451993249356747,-0.0003724563866853714
1772563511065805600,2.3068056640625,0.0023275099229067564,0.0027474018279463053,0.001151937060058117
1772563511075873500,2.31687353515625,-0.0009555337019264698,0.0007937313057482243,0.0012890123762190342
1772563511085942800,2.32694287109375,0.00047165434807538986,0.0008959965780377388,-0.0000926353968679905
1772563511096010800,2.3370107421875,0.0007754662074148655,-0.0002981475554406643,0.00134384841658175
1772563511106078700,2.34707861328125,0.002287609037011862,0.00045552710071206093,-0.0017310373950749636
1772563511116146700,2.357146728515625,-0.0019135319162160158,0.0008264239877462387,-0.002084920881316066
1772563511126214700,2.367214599609375,0.000924332533031702,0.0000820704735815525,0.0019321911968290806
1772563511136282600,2.37728271484375,0.0027152705006301403,0.0019955758471041918,-0.0004784415941685438
1772563511146350600,2.3873505859375,0.0010883454233407974,0.0018744019325822592,0.000028624199330806732
1772563511156418600,2.39741845703125,-0.0010979026556015015,0.0014027610886842012,0.00342389615252614
1772563511166486800,2.40748681640625,0.0015319687081500888,0.0011039543896913528,-0.00009174272418022156
1772563511176555500,2.417555419921875,-0.0032539034727960825,-0.000713900662958622,0.001215680269524455
1772563511186623500,2.42762353515625,-0.0010631869081407785,-0.0010728947818279266,0.0015594942960888147
1772563511196691700,2.437691650390625,-0.0032648073974996805,-0.001059770118445158,0.0023489093873649836
1772563511206759700,2.447759765625,-0.0011127071920782328,0.00013545667752623558,-0.00015872297808527946
1772563511216827600,2.45782763671875,0.0017747142119333148,0.003868197789415717,-0.0017443865071982145
1772563511226895600,2.4678955078125,-0.0014863263349980116,-0.00003413204103708267,0.003523878753185272
1772563511236963800,2.4779638671875,0.0003310958854854107,0.001704370602965355,-0.0010456913150846958
1772563511247031800,2.48803173828125,-0.0011589429341256618,0.0009837192483246326,0.00010186457075178623
1772563511257100500,2.4981005859375,0.0002083315048366785,-0.00007239915430545807,-0.0023526446893811226
1772563511267168800,2.508168701171875,-0.00013015628792345524,0.0001422516070306301,0.0010013405699282885
1772563511277236700,2.51823681640625,-0.0019906230736523867,0.00009056134149432182,-0.0002574783284217119
1772563511287304700,2.5283046875,-0.0024750519078224897,0.0010125478729605675,0.00098062539473176
1772563511297372700,2.53837255859375,-0.0010295447427779436,0.0019632598850876093,-0.00031929067336022854
1772563511307440600,2.548440673828125,-0.0002732067368924618,-0.00043864501640200615,-0.0005842752289026976
1772563511317508600,2.558508544921875,0.0001254903618246317,-0.0019153053872287273,0.00013442966155707836
1772563511327576600,2.56857666015625,0.0014296404551714659,0.0007260176353156567,-0.0013883659848943353
1772563511337645600,2.5786455078125,-0.000687464838847518,-0.0002245865762233734,0.0018331070896238089
1772563511347713800,2.5887138671875,0.0007272062357515097,0.000987684354186058,0.001349743688479066
1772563511357781800,2.59878173828125,-0.002098183613270521,0.0022986542899161577,-0.0023562107235193253
1772563511367849500,2.608849365234375,0.0009836263488978148,0.001400902634486556,-0.0013346221530809999
1772563511377917400,2.61891748046875,-0.00041089882142841816,-0.0006144903600215912,-0.0011875052005052567
1772563511387985700,2.628985595703125,0.00013052183203399181,0.00014504324644804,0.0015270549338310957
1772563511398053600,2.6390537109375,0.0007719926070421934,-0.0017071203328669071,0.0021999627351760864
1772563511408121600,2.64912158203125,0.0001578677911311388,0.000013281591236591339,-0.001338312984444201
1772563511418190600,2.659190673828125,0.0008624473121017218,0.000044090207666158676,0.0007193323690444231
1772563511428258600,2.669258544921875,0.00029146578162908554,-0.0007862835191190243,-0.0003669711295515299
1772563511438326500,2.679326416015625,0.0006158531177788973,0.0014807658735662699,-0.0016124951653182507
1772563511448394500,2.68939453125,0.0009072029497474432,-0.0011027664877474308,-0.0011893188348039985
1772563511458462700,2.699462646484375,0.0022628731094300747,-0.0009581218473613262,-0.0011106736492365599
1772563511468530700,2.70953076171875,0.000579755287617445,0.0014147546608000994,0.0015309159643948078
1772563511478598700,2.7195986328125,-0.0004554707556962967,-0.002614506520330906,0.00010316562838852406
1772563511488666600,2.72966650390625,-0.0007292437367141247,-0.0006229942664504051,-0.001297657028771937
1772563511498735600,2.739735595703125,-0.002718774601817131,-0.001341275405138731,0.000032250769436359406
1772563511508803600,2.749803466796875,-0.00039117177948355675,-0.00047734612599015236,-0.0005672266706824303
1772563511518871600,2.75987158203125,0.002435756381601095,0.0011927296873182058,-0.00219762627966702
1772563511528939800,2.769939697265625,-0.00011342158541083336,0.0009125652723014355,-0.0003235598560422659
1772563511539007700,2.7800078125,-0.0021870427299290895,0.00016309693455696106,0.00255953730084002
1772563511549076000,2.790075927734375,0.0005834437906742096,-0.0015274775214493275,-0.00035609141923487186
1772563511559143700,2.800143798828125,-0.000574836041778326,0.0002527041360735893,0.000433510635048151
1772563511569211600,2.810211669921875,-0.0008233091793954372,0.0014340823981910944,0.002460442716255784
1772563511579281000,2.820281005859375,0.0021119872108101845,0.0006575696170330048,0.0011104140430688858
1772563511589348900,2.830348876953125,0.00024298089556396008,-0.0006055673584342003,-0.0005213045515120029
1772563511599416800,2.840416748046875,0.000245111295953393,-0.000715556088835001,0.0013122819364070892
1772563511609484800,2.85048486328125,-0.0008243904449045658,0.00013310415670275688,0.0025260308757424355
1772563511619552800,2.860552734375,0.0006945254281163216,0.00021432433277368546,0.00020141946151852608
1772563511629620700,2.870620849609375,0.0016202402766793966,-0.0005454756319522858,-0.0015554678393527865
1772563511639688700,2.880688720703125,0.0006280660163611174,-0.0016578761860728264,0.0014639976434409618
1772563511649756700,2.890756591796875,0.001822759979404509,0.0005797115154564381,0.0005340217612683773
1772563511659825000,2.900824951171875,0.0010027892421931028,-0.0008890288881957531,0.0023606293834745884
1772563511669893600,2.9108935546875,0.0017548658652231097,-0.002207559999078512,0.0010215919464826584
1772563511679961600,2.920961669921875,0.0012367961462587118,-0.0006733667105436325,0.00022035627625882626
1772563511690029800,2.93102978515625,-0.00023886142298579216,-0.0006962697952985764,-0.0028531979769468307
1772563511700097800,2.941097900390625,0.0014597191475331783,-0.0001471247524023056,-0.0014196820557117462
1772563511710165800,2.951165771484375,0.0008309467229992151,-0.0017186561599373817,-0.00034269969910383224
1772563511720233700,2.961233642578125,-0.0000876744743436575,0.0014092668425291777,0.001925657968968153
1772563511730302000,2.971302001953125,-0.00005331961438059807,0.0007599880918860435,0.0018638726323843002
1772563511740370000,2.981369873046875,-0.0015382666606456041,-0.0011077290400862694,-0.0006206717807799578
1772563511750438700,2.991438720703125,-0.0000594134908169508,-0.0007583224214613438,-0.00234054122120142
1772563511760507000,3.0015068359375,-0.0014442845713347197,-0.0038292943499982357,-0.0024107075296342373
1772563511770574800,3.011574951171875,0.00039249774999916553,0.0012557455338537693,0.0010439450852572918
1772563511780642800,3.021642822265625,0.0012568184174597263,0.0002471967600286007,0.0009054855909198523
1772563511790710800,3.031710693359375,-0.0003634486347436905,-0.00017358269542455673,0.0003355692606419325
1772563511800778800,3.04177880859375,-0.0006705464329570532,-0.0012162714265286922,0.0003463218454271555
1772563511810846700,3.0518466796875,-0.00025509297847747803,-0.00004368182271718979,0.000195586821064353
1772563511820914700,3.061914794921875,-0.0005591637454926968,0.0010403660126030445,-0.0016688599716871977
1772563511830984000,3.07198388671875,0.0011886691208928823,-0.00007603084668517113,-0.0008832274470478296
1772563511841052000,3.082052001953125,0.0008589443750679493,0.0021186438389122486,-0.0003014467656612396
1772563511851119900,3.092119873046875,0.000006200280040502548,0.0019607185386121273,0.0000919019803404808
1772563511861187600,3.1021875,-0.001601464580744505,0.001817499054595828,0.00008022156544029713
1772563511871255800,3.112255859375,-0.0029066801071166992,0.00006087822839617729,-0.0003405578900128603
1772563511881323800,3.12232373046875,-0.00016613327898085117,-0.00031297653913497925,0.0009606289677321911
1772563511891391700,3.132391845703125,0.0007220308762043715,0.0009142081253230572,-0.0003736147191375494
1772563511901459700,3.142459716796875,0.0003306632861495018,-0.0010181036777794361,0.00003085983917117119
1772563511911528700,3.15252880859375,-0.0009575076401233673,-0.002127043902873993,0.00014377804473042488
1772563511921596700,3.1625966796875,-0.001826128689572215,-0.0010139737278223038,0.0012225965037941933
1772563511931664600,3.17266455078125,-0.0010817751754075289,0.0010417206212878227,0.002092118840664625
1772563511941732900,3.18273291015625,-0.0019928915426135063,0.000047678593546152115,0.0009157322347164154
1772563511951800800,3.19280078125,-0.0003164317458868027,-0.00022103451192378998,0.0011269208043813705
1772563511961868800,3.202868896484375,-0.0007294816896319389,-0.0001705777831375599,0.001317846355959773
1772563511971936800,3.212936767578125,0.001856181537732482,0.00009094458073377609,-0.0021200282499194145
1772563511982005000,3.2230048828125,0.00040869577787816525,-0.0004942808300256729,0.0010916711762547493
1772563511992073700,3.23307373046875,0.0017868817085400224,0.0004162536934018135,-0.0019267554162070155
1772563512002141700,3.2431416015625,-0.0022887110244482756,-0.001475390512496233,0.004555134102702141
1772563512012209700,3.253209716796875,-0.000039937905967235565,-0.000671648420393467,0.0022235370706766844
1772563512022278000,3.26327783203125,-0.0005238850135356188,0.0015017087571322918,-0.0007499074563384056
1772563512032345900,3.273345947265625,0.0018449965864419937,-0.0015263054519891739,0.001857859781011939
1772563512042413800,3.283413818359375,0.0003217216581106186,-0.0012774351052939892,-0.0014380902284756303
1772563512052481500,3.2934814453125,-0.00020292098633944988,0.00042858580127358437,-0.0018021443393081427
1772563512062549800,3.3035498046875,-0.0005609053187072277,-0.000519411638379097,0.0007827542722225189
1772563512072618800,3.31361865234375,0.000288376584649086,0.0008324091322720051,0.0018592039123177528
1772563512082686700,3.323686767578125,0.000050459057092666626,-0.00001221848651766777,0.0037105355877429247
1772563512092755000,3.3337548828125,0.0007772357203066349,0.0018922078888863325,0.0007885152008384466
1772563512102822700,3.34382275390625,0.0007636460941284895,0.0019294279627501965,0.002473212080076337
1772563512112890600,3.353890625,0.0013876247685402632,0.001912649953737855,-0.00035586394369602203
1772563512122958600,3.36395849609375,0.0011034458875656128,0.0001794407144188881,0.001542949816212058
1772563512133026800,3.37402685546875,-0.000832938589155674,0.0012883811723440886,-0.001001168042421341
1772563512143094800,3.3840947265625,-0.001072225160896778,0.0003008502535521984,0.0018878874834626913
1772563512153163800,3.394163818359375,0.0016284865560010076,0.0003016488626599312,0.0023201184812933207
1772563512163231700,3.404231689453125,-0.0008599553257226944,-0.00039802584797143936,-0.00349043938331306
1772563512173299700,3.4142998046875,0.000309172086417675,-0.0002161315642297268,-0.002151668071746826
1772563512183367700,3.42436767578125,0.0007274863310158253,-0.0000758548267185688,-0.0007153903134167194
1772563512193435600,3.434435546875,0.0005043135024607182,0.0001848689280450344,-0.0016280555864796042
1772563512203503900,3.44450390625,-0.0010126037523150444,0.0012499084696173668,-6.824266165494919e-7
1772563512213571800,3.45457177734375,0.0001533282920718193,0.0010336600244045258,0.0007929394487291574
1772563512223639800,3.464639892578125,0.0003303533885627985,-0.0002650120295584202,0.000656260410323739
1772563512233708800,3.474708740234375,0.0013631272595375776,-0.0017340118065476418,0.0006597226019948721
1772563512243776800,3.48477685546875,0.0012510402593761683,-0.00041907932609319687,-0.000621546758338809
1772563512253844700,3.4948447265625,0.001880877884104848,0.0007833377458155155,0.0024671873543411493
1772563512263912700,3.50491259765625,0.002844839124009013,-0.0007329056970775127,-0.0006829050835222006
1772563512273981000,3.51498095703125,-0.003356597851961851,-0.0022849957458674908,0.0006295004859566689
1772563512284049000,3.525048828125,-0.00201559835113585,-0.0035429755225777626,0.004111757501959801
1772563512294116600,3.53511669921875,0.0005823154933750629,0.0001265942119061947,0.0023066671565175056
1772563512304184600,3.5451845703125,-0.00007416633889079094,0.0012646527029573917,0.0006198205519467592
1772563512314253800,3.55525390625,0.00013063079677522182,-0.001264018937945366,-0.00008511822670698166
1772563512324321800,3.56532177734375,0.00013492675498127937,-0.0024349954910576344,0.0014175903052091599
1772563512334389800,3.5753896484375,0.0005383957177400589,-0.0009457562118768692,0.004178223200142384
1772563512344458000,3.5854580078125,0.000514201819896698,0.0006326944567263126,0.0001099857036024332
1772563512354525700,3.595525634765625,0.0003733204212039709,0.0002931412309408188,-0.0014887098222970963
1772563512364593700,3.60559375,0.00012528733350336552,-0.0010783113539218903,0.000934068113565445
1772563512374661600,3.61566162109375,0.0002933328505605459,0.0004854965955018997,-0.0035043559037148952
1772563512384729900,3.625729736328125,0.00042269867844879627,-0.0015368973836302757,-0.0017193681560456753
1772563512394798800,3.635798828125,0.0008804961107671261,0.001696180086582899,0.0006417904514819384
1772563512404866800,3.64586669921875,0.0004853538703173399,-0.001657669898122549,-0.0023364091757684946
1772563512414934800,3.655934814453125,-0.0023628969211131334,-0.0007335529662668705,0.0008013271726667881
1772563512425002800,3.666002685546875,0.0007859067991375923,0.0019836225546896458,0.00027439696714282036
1772563512435070700,3.67607080078125,-0.0009033363312482834,-0.0004989760927855968,0.0002967675682157278
1772563512445138700,3.686138671875,0.000814853934571147,0.0003240206278860569,0.00021280557848513126
1772563512455207000,3.69620703125,0.000367975328117609,0.001104859635233879,-0.0034775366075336933
1772563512465275000,3.70627490234375,-0.0000749735627323389,0.000174020417034626,0.0009729210287332535
1772563512475343600,3.716343505859375,0.0023479703813791275,0.0019546097610145807,-0.0014971611090004444
1772563512485411800,3.726411865234375,0.0008424092084169388,-0.0010520769283175468,-0.002155055059120059
1772563512495479800,3.736479736328125,0.002078382298350334,-0.0014440938830375671,-0.0010554357431828976
1772563512505547800,3.7465478515625,-0.0011425272095948458,-0.0013409443199634552,0.0012818623799830675
1772563512515615700,3.75661572265625,0.00022979965433478355,-0.0003126980736851692,-0.0019869012758135796
1772563512525684000,3.76668408203125,0.001177468802779913,0.0022510401904582977,0.0019621991086751223
1772563512535752000,3.776751953125,-0.0006169688422232866,-0.0003183777444064617,0.0021576753351837397
1772563512545820000,3.78681982421875,-0.00034833955578505993,-0.0004387609660625458,0.00276294001378119
1772563512555889000,3.796888916015625,0.0016061544883996248,-0.0004986817948520184,0.0007866083178669214
1772563512565956900,3.806956787109375,-0.0012334538623690605,0.0015979104209691286,-0.0003153898287564516
1772563512576025000,3.817025146484375,-0.0003615347668528557,-0.00106338644400239,-0.0006056744605302811
1772563512586093000,3.827093017578125,0.0006320024840533733,-0.0003254595212638378,0.0008592563681304455
1772563512596160800,3.837160888671875,-0.0008804064709693193,0.0006452626548707485,-0.0009948364458978176
1772563512606228700,3.847228759765625,-0.0022423884365707636,0.0007912511937320232,0.0009641374927014112
1772563512616297000,3.857296875,0.0003784282598644495,-0.0017805634997785091,-0.0015645339153707027
1772563512626365000,3.867364990234375,-0.0009461732115596533,-0.001334823202341795,-0.0011009646113961935
1772563512636434000,3.877433837890625,-0.0010124857071787119,-0.0029257950372993946,-0.0008511601481586695
1772563512646502000,3.887501953125,0.0005478085950016975,-0.0004294426180422306,-0.0022531321737915277
1772563512656569900,3.89756982421875,-0.00003329315222799778,0.00025312555953860283,0.0023027374409139156
1772563512666637800,3.907637939453125,-0.00125209242105484,0.00009167706593871117,0.004457287490367889
1772563512676705800,3.917705810546875,0.00027602934278547764,0.001286637270823121,0.0005605504848062992
1772563512686773800,3.927773681640625,-0.0007474883459508419,-0.0015614344738423824,0.0006933053955435753
1772563512696842000,3.937842041015625,-0.001174392644315958,0.0009469971992075443,-0.00018420605920255184
1772563512706910000,3.947909912109375,-0.0015129162929952145,-0.0010145553387701511,-0.0009125364013016224
1772563512716978700,3.957978759765625,0.0018224266823381186,-0.0001109447330236435,-0.0010707282926887274
1772563512727047000,3.968046875,0.001226987224072218,0.0015134250279515982,0.0008094427175819874
1772563512737115000,3.978114990234375,0.00018968596123158932,-0.0008807568810880184,0.00010157446376979351
1772563512747182800,3.988182861328125,-0.002097740536555648,-0.0011271936818957329,0.000028223497793078423
1772563512757250800,3.998250732421875,0.00020003481768071651,-0.001179658342152834,0.0022221356630325317
1772563512767319000,4.008319091796875,0.00020585465244948864,0.0012772080954164267,-0.0034540239721536636
1772563512777387000,4.018386962890625,-0.0011781903449445963,0.00024496670812368393,0.0012973216362297535
1772563512787454700,4.028454833984375,0.0014327776152640581,-0.000722548458725214,0.0010485202074050903
1772563512797524000,4.03852392578125,0.002777407644316554,-0.0007217493839561939,-0.002799214795231819
1772563512807592000,4.048592041015625,-0.0034423363395035267,0.0007063066586852074,0.001298703020438552
1772563512817660000,4.058659912109375,0.001064264914020896,-0.0001373826526105404,-0.0023367779795080423
1772563512827728000,4.068727783203125,-0.0004970554728060961,-0.0036743744276463985,-0.00006346846930682659
1772563512837796000,4.078796142578125,-0.0012659099884331226,-0.0014192094095051289,-0.0002432316541671753
1772563512847863800,4.08886376953125,-0.0009496908169239759,-0.00020578643307089806,0.0011790255084633827
1772563512857931800,4.098931884765625,0.0004716380499303341,-0.00012589199468493462,-0.002325694542378187
1772563512867999700,4.108999755859375,0.00100419158115983,-0.0015335306525230408,-0.0016812849789857864
1772563512878069000,4.119069091796875,0.002096087671816349,0.0005538547411561012,0.002829577075317502
1772563512888137000,4.129136962890625,0.0006180987693369389,-0.0017842380329966545,0.0033901731949299574
1772563512898205000,4.139204833984375,0.0014245039783418179,0.0009393766522407532,0.0004905234090983868
1772563512908273000,4.14927294921875,-0.0033139020670205355,-0.0025234860368072987,0.003356431145220995
1772563512918340900,4.1593408203125,-0.00028855097480118275,0.001152741489931941,-0.0013083616504445672
1772563512928408800,4.169408935546875,-0.001976537983864546,-0.0006798361428081989,0.0006375745870172977
1772563512938476800,4.179476806640625,0.0014107364695519209,-0.0012952927500009537,0.0004929648712277412
1772563512948545000,4.189544921875,0.0009990748949348927,0.0006032916717231274,-0.000059649115428328514
1772563512958613800,4.19961376953125,0.0007367534562945366,-0.0013088579289615154,-0.0023001665249466896
1772563512968681700,4.209681640625,0.00012305518612265587,0.0006357333622872829,-0.001880504540167749
1772563512978750000,4.21975,0.0008144117891788483,-0.0009142267517745495,-0.0006341452244669199
1772563512988818000,4.22981787109375,-0.0028012769762426615,-0.0016742157749831676,0.00032799760811030865
1772563512998886000,4.239885986328125,0.0015649758279323578,-0.0005293227732181549,-0.0010283503215759993
1772563513008953900,4.249953857421875,0.002206878736615181,0.0014294839929789305,0.00019478006288409233
1772563513019022000,4.26002197265625,-0.00044562993571162224,-0.001254982315003872,-0.002173835411667824
1772563513029090000,4.270090087890625,-0.0007088335696607828,-0.0002379198558628559,0.00046895258128643036
1772563513039158800,4.28015869140625,0.0001553623005747795,0.00005928892642259598,-0.0012834074441343546
1772563513049227000,4.29022705078125,0.003059922717511654,0.00032286252826452255,-0.0012277934001758695
1772563513059295000,4.300294921875,0.0010218056850135326,-0.00008646538481116295,-0.0036193120758980513
1772563513069363000,4.310363037109375,0.0006692670285701752,-0.00010755937546491623,0.0006595782469958067
1772563513079431000,4.320430908203125,-0.0003315489739179611,-0.001246327068656683,-0.0008709405083209276
1772563513089499000,4.330498779296875,0.0001546845305711031,0.0013695911038666964,-0.0016874618595466018
1772563513099566800,4.34056689453125,0.0015187555691227317,-0.00024268636479973793,0.00007128971628844738
1772563513109634800,4.350634765625,-0.0013261560816317797,-0.00161838810890913,0.0015558490995317698
1772563513119704000,4.3607041015625,0.00152289355173707,0.0003345077857375145,-0.0014023900730535388
1772563513129772000,4.37077197265625,0.0010622960980981588,-0.0028823143802583218,0.0007249538321048021
1772563513139840000,4.380840087890625,-0.0022104624658823013,0.000013073906302452087,0.0003246807027608156
1772563513149907700,4.39090771484375,0.000460948096588254,-0.0017712856642901897,-0.002200676593929529
1772563513159976000,4.400975830078125,0.0015845358138903975,-0.0023462623357772827,0.00196264311671257
1772563513170044000,4.4110439453125,-0.0019868684466928244,0.0007926942780613899,-0.0005471131298691034
1772563513180112000,4.42111181640625,-0.000008139526471495628,0.00048137083649635315,-0.002087219152599573
1772563513190179800,4.431179931640625,-0.00242033414542675,-0.0008829436264932156,0.0009454938117414713
1772563513200248800,4.441248779296875,0.0019118300406262279,0.0004291958175599575,0.00023203319869935513
1772563513210316800,4.45131689453125,0.000163971446454525,0.00037964293733239174,0.0004842362832278013
1772563513220384800,4.461384765625,-0.0013524321839213371,-0.00011943327262997627,-0.0014239185256883502
1772563513230452700,4.47145263671875,-0.00038128835149109364,-0.00011269887909293175,0.00007415749132633209
1772563513240521000,4.48152099609375,0.0023447233252227306,-0.0012890174984931946,-0.0012901799054816365
1772563513250589000,4.4915888671875,0.0006007805932313204,0.0007103485986590385,0.0016803040634840727
1772563513260657000,4.501656982421875,0.0014569868799299002,0.0023212945088744164,-0.001975150778889656
1772563513270724900,4.511724853515625,0.000895919743925333,0.0032943468540906906,0.00045062415301799774
1772563513280792800,4.521792724609375,0.002853875746950507,-0.0013166503049433231,0.0017848678398877382
1772563513290861800,4.53186181640625,0.0010014923755079508,0.00007202150300145149,-0.002846700372174382
1772563513300929800,4.5419296875,0.0002262461930513382,-0.00043051689863204956,-0.00024106353521347046
1772563513310998000,4.551998046875,-0.001202683662995696,0.0009343614801764488,0.0012662983499467373
1772563513321066000,4.56206591796875,0.0019289272604510188,0.0005157124251127243,-0.0012597099412232637
1772563513331134000,4.572134033203125,-0.0001554552000015974,-0.003974254708737135,0.004217325709760189
1772563513341201700,4.58220166015625,0.0013465676456689835,0.00128362444229424,-0.0006067240610718727
1772563513351270000,4.592269775390625,-0.0006653021555393934,0.0019177207723259926,-0.0014565690653398633
1772563513361339000,4.6023388671875,0.0004620139952749014,0.0014391506556421518,-0.0011071623302996159
1772563513371406800,4.61240673828125,-0.0006114281713962555,-0.0019105840474367142,0.00032190349884331226
1772563513381475000,4.62247509765625,0.00024397904053330421,0.00005402974784374237,-0.0018341916147619486
1772563513391542800,4.632542724609375,-0.0007652784697711468,0.002354233991354704,-0.00034866156056523323
1772563513401610800,4.64261083984375,0.0008845499251037836,-0.00009986897930502892,-0.00048767845146358013
1772563513411678700,4.6526787109375,0.0006396416574716568,0.000007081311196088791,0.00003463984467089176
1772563513421747000,4.662746826171875,-0.000008838018402457237,-0.00041875848546624184,0.0010969745926558971
1772563513431815000,4.67281494140625,0.0020817932672798634,0.00014982465654611588,0.0012922112364321947
1772563513441883000,4.6828828125,0.0000229033175855875,-0.002267260104417801,-0.00021460559219121933
1772563513451951900,4.692951904296875,0.0009353801142424345,9.355135262012482e-7,0.0006411757785826921
1772563513462019800,4.703019775390625,-0.000028151553124189377,-0.0007487442344427109,-0.0018667230615392327
1772563513472087800,4.713087890625,-0.0030173861887305975,-0.00013801828026771545,0.0024092206731438637
1772563513482155800,4.72315576171875,0.0011557871475815773,0.0012265853583812714,0.0021897763945162296
1772563513492224000,4.73322412109375,-0.0006718332879245281,-0.0031560445204377174,0.00002694176509976387
1772563513502292000,4.7432919921875,0.0005718630272895098,0.0017564224544912577,0.0018072649836540222
1772563513512360000,4.75335986328125,-0.0009480677545070648,0.0021277086343616247,0.003605054458603263
1772563513522428000,4.763427978515625,0.00006446614861488342,0.00016149692237377167,-0.0019300593994557858
1772563513532497000,4.773496826171875,0.00016716890968382359,-0.000496456865221262,0.0023623129818588495
1772563513542564900,4.78356494140625,0.0005677083972841501,-0.0017164507880806923,0.0008736059535294771
1772563513552632800,4.7936328125,-0.00014024414122104645,-0.0016674865037202835,-0.00038785976357758045
1772563513562700800,4.80370068359375,0.0007995853666216135,0.0009221713989973068,0.0010057725012302399
1772563513572768800,4.813768798828125,-0.00028977240435779095,-0.0002627633512020111,-0.0003356549423187971
1772563513582837000,4.8238369140625,0.002584843896329403,-0.00006489036604762077,0.0000646181870251894
1772563513592904700,4.83390478515625,0.001405892544426024,0.0006782915443181992,-0.00018818187527358532
1772563513602972700,4.84397265625,0.00003303308039903641,-0.0007845829240977764,0.000023273052647709846
1772563513613042000,4.8540419921875,-0.0015086231287568808,-0.001684584654867649,-0.0014097903622314334
1772563513623110000,4.86410986328125,-0.0004390978720039129,-0.0009804447181522846,0.0015207519754767418
1772563513633177900,4.874177734375,0.0008091987110674381,0.0009091077372431755,0.0006608671974390745
1772563513643245800,4.884245849609375,0.00037110853008925915,-0.0020659095607697964,0.00017057918012142181
1772563513653313800,4.894313720703125,-0.0004852160345762968,-0.0003896295092999935,0.0012032031081616879
1772563513663381800,4.9043818359375,-0.0009073268156498671,0.0007035979069769382,-0.0020344017539173365
1772563513673449700,4.91444970703125,-0.0005959435366094112,0.0011093933135271072,0.0011493563652038574
1772563513683517700,4.924517578125,0.00024028890766203403,-0.00041579874232411385,0.003097725100815296
1772563513693587000,4.9345869140625,0.002366133499890566,0.0009972956031560898,-0.00011362996883690357
1772563513703654700,4.944654541015625,-0.0015551052056252956,0.0015459065325558186,-0.0016308327903971076
1772563513713722600,4.95472265625,0.0008471745532006025,-0.0008312715217471123,0.00046484172344207764
1772563513723790800,4.964790771484375,-0.001175496494397521,0.002161322394385934,0.0009620538912713528
1772563513733858800,4.97485888671875,-0.0011281545739620924,0.0010846341028809547,-0.0027998441364616156
1772563513743926800,4.9849267578125,0.0004452408757060766,0.00010325899347662926,-0.003404648043215275
1772563513753994800,4.994994873046875,0.000621813116595149,-0.0014829384163022041,0.0009498032741248608
1772563513764063000,5.00506298828125,-0.001071158330887556,-0.0007098228670656681,0.0007412778213620186
1772563513774131700,5.015131591796875,-0.0010315279942005873,0.0007920735515654087,-0.00008560088463127613
1772563513784199700,5.02519970703125,0.001306993653997779,0.0023494900669902563,0.0010568953584879637
1772563513794267600,5.035267578125,-0.001113726757466793,-0.0019056382589042187,0.000982474535703659
1772563513804333600,5.04533349609375,0.0017164143500849605,0.0012717791832983494,-0.0018684392562136054
1772563513814402800,5.05540283203125,0.0026196097023785114,-0.00005219317972660065,-0.0011653788387775421
1772563513824470800,5.065470703125,-0.0009373081848025322,-0.0013946928083896637,-0.0021030777134001255
1772563513834538800,5.075538818359375,-0.0012870121281594038,0.0002541239373385906,0.0020996052771806717
1772563513844607000,5.08560693359375,-0.002017517341300845,-0.0007544150575995445,0.002067115157842636
1772563513854675000,5.095675048828125,-0.0009714278858155012,-0.0017597582191228867,0.0032189320772886276
1772563513864742700,5.10574267578125,0.0012202637735754251,-0.0005476614460349083,0.00010975683107972145
1772563513874810600,5.115810546875,-0.002311758929863572,-0.0004561268724501133,0.0018630013801157475
1772563513884878800,5.12587890625,0.002520280657336116,0.0008621378801763058,0.0002717624884098768
1772563513894946800,5.13594677734375,0.00016728416085243225,0.0010121245868504047,-0.0021172594279050827
1772563513905015800,5.146015869140625,-0.00005642138421535492,0.00030665332451462746,0.0015459188725799322
1772563513915083800,5.156083740234375,-0.0019488336984068155,-0.000010339077562093735,0.00008643977344036102
1772563513925151700,5.16615185546875,0.0008227177895605564,-0.00035175634548068047,0.0014941866975277662
1772563513935219700,5.1762197265625,-0.0001936652697622776,0.00008283834904432297,-0.003599858609959483
1772563513945287700,5.18628759765625,0.0006699978839606047,0.0010263961739838123,-0.0012924958718940616
1772563513955356000,5.19635595703125,0.0014813857851549983,0.000202166847884655,0.0007347362115979195
1772563513965423900,5.206423828125,0.0002281020861119032,-0.0011893347837030888,0.0036370493471622467
1772563513975491800,5.216491943359375,-0.001124753151088953,-0.0014309221878647804,0.0013539039064198732
1772563513985560600,5.226560546875,0.0022036656737327576,-0.0014775274321436882,-0.0013108551502227783
1772563513995628800,5.23662890625,-0.00032551493495702744,0.00013496214523911476,-0.0015214434824883938
1772563514005696800,5.24669677734375,0.0014058061642572284,-0.0015710587613284588,-0.0015147855738177896
1772563514015764700,5.2567646484375,0.0002988646738231182,0.0016779543366283178,-0.0012454234529286623
1772563514025832700,5.266832763671875,-0.0006124689243733883,-0.001668840181082487,0.00033968989737331867
1772563514035901000,5.27690087890625,0.0030941313598304987,0.0015288370195776224,0.0004991763271391392
1772563514045969000,5.286968994140625,0.001880528754554689,0.0014630570076406002,-0.003356814617291093
1772563514056036600,5.29703662109375,0.0011367315892130136,0.001221157144755125,0.000012834090739488602
1772563514066105900,5.30710595703125,-0.0014401432126760483,-0.002164253033697605,0.0006996633019298315
1772563514076173800,5.317173828125,0.0015455220127478242,0.0014375366736203432,-0.00306712300516665
1772563514086241800,5.32724169921875,0.002225160598754883,-0.00041469186544418335,-0.0012804082361981273
1772563514096309800,5.337309814453125,-0.0019463624339550734,-0.0014198292046785355,0.0033322428353130817
1772563514106377700,5.347377685546875,0.00029628537595272064,0.0009053768590092659,-0.0002262729685753584
1772563514116445700,5.35744580078125,0.00046165590174496174,-0.00007583294063806534,-0.00018235016614198685
1772563514126513700,5.367513671875,0.0005295663140714169,0.00040247058495879173,-0.002050823997706175
1772563514136581600,5.37758154296875,0.0009604594670236111,-0.0002719252370297909,0.00029298802837729454
1772563514146651000,5.38765087890625,0.0013870978727936745,-0.00133479293435812,-0.000005552312359213829
1772563514156718800,5.39771875,0.0024696839973330498,0.0013752877712249756,-0.001221278216689825
1772563514166786600,5.40778662109375,0.0005476805381476879,-0.0031733913347125053,0.0001936592161655426
1772563514176854800,5.417854736328125,0.0026297399308532476,-0.0013850787654519081,-0.0018031789222732186
1772563514186924800,5.4279248046875,0.0011560674756765366,0.0011993767693638802,-0.0008136632386595011
1772563514196992800,5.43799267578125,0.002076556207612157,-0.0017150696367025375,-0.0003465008921921253
1772563514207060700,5.448060791015625,0.0013700195122510195,0.000058329664170742035,-0.0007837919984012842
1772563514217128700,5.458128662109375,-0.0004752050153911114,-0.0014640404842793941,0.0008160674478858709
1772563514227196700,5.46819677734375,-0.0004147512372583151,-0.0026587345637381077,0.00032657827250659466
1772563514237265000,5.478264892578125,0.0016092007281258702,0.0019840544555336237,-0.0011512960772961378
1772563514247332900,5.488332763671875,0.0020869718864560127,0.0010820417664945126,0.0008506018202751875
1772563514257400800,5.49840087890625,-0.0014266334474086761,0.001409243792295456,-0.0011839056387543678
1772563514267469800,5.5084697265625,0.0010048325639218092,0.0001359866000711918,0.0012414348311722279
1772563514277537800,5.518537841796875,-0.001051963772624731,-0.0014673219993710518,-0.0025460466276854277
1772563514287605800,5.528605712890625,0.0026799235492944717,-0.0009618536569178104,0.0016516279429197311
1772563514297673700,5.538673828125,-0.0018143588677048683,-0.00011969683691859245,0.0012841399293392897
1772563514307742000,5.548741943359375,0.002083443570882082,0.0009250612929463387,0.00009583728387951851
1772563514317810000,5.558809814453125,-0.000028961803764104843,-0.00029380153864622116,0.0003349788021296263
1772563514327877600,5.568877685546875,-0.0004449477419257164,0.0005395011976361275,-0.0013015336589887738
1772563514337945600,5.578945556640625,-0.0010650008916854858,-0.003048758953809738,0.0003618737682700157
1772563514348014800,5.589014892578125,-0.00041971681639552116,0.00012386497110128403,0.002653790172189474
1772563514358082800,5.599082763671875,0.0003374123480170965,-0.0027590403333306313,-0.0006327093578875065
1772563514368150800,5.60915087890625,0.0009123887866735458,-0.000252739991992712,-0.0011174047831445932
1772563514378218800,5.61921875,-0.0007487817201763391,-0.0011298670433461666,0.0006546666845679283
1772563514388286700,5.62928662109375,0.0006062346510589123,0.0007316824048757553,-0.0016886487137526274
1772563514398354700,5.639354736328125,-0.0003795209340751171,-0.00012407870963215828,-0.0012806617887690663
1772563514408422700,5.649422607421875,-0.0008602214511483908,-0.00105245690792799,-0.00179092341568321
1772563514418490600,5.65949072265625,0.0003642668016254902,-0.002473878674209118,0.0033859326504170895
1772563514428560000,5.669559814453125,-0.0018911643419414759,-0.00083150714635849,0.0007834918797016144
1772563514438627800,5.6796279296875,0.0020583425648510456,0.0006381249986588955,-0.0003835724201053381
1772563514448695600,5.689695556640625,0.0013850955292582512,0.002307394053786993,0.0019640042446553707
1772563514458763800,5.699763671875,-0.00009049149230122566,0.00011200550943613052,-0.0015565329231321812
1772563514468831700,5.709831787109375,-0.0006923656910657883,-0.00021183444187045097,-0.00014638924039900303
1772563514478899700,5.719899658203125,-0.0013077573385089636,0.0013792731333523989,0.001980374800041318
1772563514488967700,5.7299677734375,-0.0008409053552895784,-0.0004356713034212589,-0.0018231520662084222
1772563514499036000,5.740035888671875,0.0005522605497390032,0.0034923632629215717,-0.0037101060152053833
1772563514509104600,5.750104736328125,0.00039779720827937126,0.002372504211962223,0.0006521516479551792
1772563514519172600,5.760172607421875,0.0010606010910123587,-0.00021405471488833427,-0.0006277165375649929
1772563514529240800,5.77024072265625,0.000665387837216258,-0.0032846792601048946,0.0007664484437555075
1772563514539308800,5.780308837890625,0.00040839938446879387,0.00036508915945887566,-0.0012180308112874627
1772563514549377000,5.790376953125,0.0001428821124136448,0.0001301984302699566,0.0005465797148644924
1772563514559445000,5.800445068359375,-0.00036976858973503113,0.0006445939652621746,0.0012504246551543474
1772563514569513000,5.810512939453125,-0.000904264859855175,-0.0006014993414282799,-0.0016004894860088825
1772563514579581000,5.820580810546875,-0.001077909953892231,-0.0007871980778872967,-0.0001005630474537611
1772563514589649000,5.83064892578125,0.002551978686824441,0.002183824311941862,0.00007200962863862514
1772563514599718100,5.84071826171875,0.0010166156571358442,-0.000677943229675293,-0.000763273099437356
1772563514609786000,5.8507861328125,-0.00011309725232422352,-0.0015709013678133488,-0.00035074958577752113
1772563514619854000,5.86085400390625,-0.00014257244765758514,0.0005800877697765827,-0.00009329104796051979
1772563514629921800,5.870921875,0.0011328156106173992,0.0022267200984060764,-0.001393712591379881
1772563514639990000,5.880989990234375,0.00006389152258634567,0.002266248222440481,-0.001151754753664136
1772563514650058000,5.89105810546875,0.0003059727605432272,-0.0008379323408007622,-0.0018409808399155736
1772563514660126000,5.9011259765625,0.0015694772591814399,0.0010421122424304485,0.0037426799535751343
1772563514670195200,5.9111953125,-0.00011390680447220802,0.000942776445299387,0.0009058807045221329
1772563514680263200,5.92126318359375,-0.000632378738373518,0.00012201489880681038,0.002325533889234066
1772563514690331000,5.931330810546875,0.00002701999619603157,-0.0006942441686987877,-0.0028732228092849255
1772563514700398800,5.94139892578125,0.00020507466979324818,0.0000631893053650856,-0.002594223478808999
1772563514710467000,5.951467041015625,-0.0011094615329056978,-0.0003693080507218838,-0.0004786083009094
1772563514720535000,5.96153515625,0.0004777370486408472,-0.0014665573835372925,0.002733420580625534
1772563514730603000,5.97160302734375,0.0008700208272784948,-0.002866846974939108,-0.00026503228582441807
1772563514740671000,5.9816708984375,0.00014437478967010975,-0.00004760082811117172,0.002990281442180276
1772563514750739200,5.9917392578125,-0.001880426425486803,0.0003883587196469307,-0.0012888855999335647
1772563514760808000,6.001807861328125,-0.0005645016208291054,-0.00021736323833465576,0.0016360171139240265
1772563514770876000,6.0118759765625,-0.00013067270629107952,-0.0024256561882793903,-0.0010353999678045511
1772563514780944100,6.021944091796875,0.00003329315222799778,-0.0037593948654830456,0.0021456596441566944
1772563514791012000,6.03201220703125,-0.0008921555709093809,-0.0014107534661889076,0.003533699084073305
1772563514801080000,6.042080078125,0.00260493578389287,-0.0014572101645171642,0.000530018238350749
1772563514811148000,6.05214794921875,0.0010355350095778704,-0.002313949167728424,-0.002507050521671772
1772563514821216000,6.062216064453125,0.00016833236441016197,0.0009199925698339939,-0.002296260092407465
1772563514831284000,6.072283935546875,0.0001049491111189127,0.001657688058912754,-0.00031034089624881744
1772563514841353000,6.08235302734375,-0.00024553388357162476,-0.00024261744692921638,-0.001055262517184019
1772563514851421200,6.092421142578125,-0.0006825588643550873,0.0019164071418344975,-0.0021903016604483128
1772563514861489200,6.1024892578125,0.0014423200627788901,0.002392153488472104,0.002330776071175933
1772563514871557000,6.11255712890625,-0.00033747055567801,0.0005926555022597313,0.000019152415916323662
1772563514881624800,6.122624755859375,-0.002366996370255947,-0.0006018276326358318,-0.0021471697837114334
1772563514891693000,6.132693115234375,-0.00018640002235770226,-0.001325142104178667,0.0014978989493101835
1772563514901761000,6.142760986328125,0.0003172522410750389,-0.001220976933836937,0.001857029041275382
1772563514911829000,6.1528291015625,-0.0012641327921301126,0.00009142886847257614,-0.003181405132636428
1772563514921898200,6.162898193359375,0.0014812179142609239,-0.00025564059615135193,-0.00026056449860334396
1772563514931966000,6.172966064453125,-0.0005174844991415739,-0.0011059879325330257,0.002269704593345523
1772563514942034000,6.183033935546875,-0.0013395138084888458,-0.0019493321888148785,0.0024565106723457575
1772563514952102000,6.193101806640625,-0.0013981033116579056,-0.0010854029096662998,-0.0007936111651360989
1772563514962170000,6.203170166015625,0.0007847019005566835,-0.0014662118628621101,0.0012492986861616373
1772563514972238000,6.213238037109375,-0.0008637949358671904,-0.0010749935172498226,0.0005081407725811005
1772563514982306000,6.22330615234375,0.0016912186983972788,0.0016440630424767733,0.0018129183445125818
1772563514992374000,6.2333740234375,-0.002232416532933712,0.0011356654576957226,0.0014603158924728632
1772563515002443000,6.243443115234375,0.0019372864626348019,-0.00042634550482034683,-0.0011565051972866058
1772563515012511000,6.253510986328125,0.001545269158668816,0.00003917468711733818,-0.0006403846200555563
1772563515022579000,6.263578857421875,-0.00007606111466884613,-0.0014397953636944294,0.00036086468026041985
1772563515032647200,6.273647216796875,-0.0006435809191316366,0.003053756197914481,-0.0005187774077057838
1772563515042715100,6.283715087890625,0.0008160527795553207,-0.00013689231127500534,0.0007079415954649448
1772563515052783000,6.293783203125,-0.001930199097841978,-0.001546237152069807,-0.0038055838085711002
1772563515062851000,6.30385107421875,0.0012253571767359972,0.00024507055059075356,0.0012008931953459978
1772563515072919000,6.3139189453125,-0.0013464575167745352,-0.00010939640924334526,0.0012605481315404177
1772563515082988000,6.323988037109375,0.0004471603315323591,-0.0001306198537349701,-0.00030356342904269695
1772563515093056000,6.334055908203125,0.00032039382494986057,-0.00033301999792456627,-0.0010766792111098766
1772563515103124000,6.3441240234375,-0.0007380400784313679,-0.0009704791009426117,-0.0006064451299607754
1772563515113192200,6.354192138671875,0.00015571690164506435,0.0028788538184016943,-0.002101277466863394
1772563515123260000,6.364260009765625,-0.0007585939019918442,-0.0015761940740048885,-0.0011167668271809816
1772563515133328000,6.374327880859375,-0.00101931719109416,0.001748762559145689,-0.0008765498641878366
1772563515143395800,6.384395751953125,-0.0008160434663295746,0.00019225850701332092,0.0006120465695858002
1772563515153464000,6.394464111328125,0.0007863806094974279,0.0011374144814908504,-0.0022037136368453503
1772563515163533000,6.404532958984375,0.0002145739272236824,-0.0015656654722988605,0.000008650124073028564
1772563515173601000,6.41460107421875,0.0005469364114105701,0.0007611382752656937,0.00012369873002171516
1772563515183669000,6.4246689453125,-0.00014355755411088467,0.0013574473559856415,0.0001675812527537346
1772563515193737000,6.434737060546875,-0.002414967631921172,-0.0011326083913445473,0.0006376290693879128
1772563515203805000,6.444804931640625,-0.0013739385176450014,0.0013667987659573555,0.0003733688499778509
1772563515213873000,6.454872802734375,-0.0014088258612900972,0.0005670515820384026,0.00028495187871158123
1772563515223941000,6.464941162109375,-0.001734855119138956,-0.0023239408619701862,-0.002030665520578623
1772563515234009000,6.475009033203125,-0.00124802952632308,-0.0017494969069957733,-0.001022659009322524
1772563515244077800,6.485077880859375,-0.0013061629142612219,-0.0005439096130430698,-0.0010808894876390696
1772563515254146000,6.49514599609375,-0.0019687574822455645,-0.00016440916806459427,-0.001394609804265201
1772563515264214000,6.505214111328125,0.0004885890521109104,-0.0013192342594265938,0.00009220675565302372
1772563515274282000,6.515281982421875,0.0019328213529661298,0.0012240847572684288,0.0003193742595613003
1772563515284350000,6.525349853515625,0.00015585706569254398,0.0005603400059044361,0.0015009846538305283
1772563515294418200,6.535418212890625,-0.0003030055668205023,0.0012604850344359875,-0.0017749695107340813
1772563515304486100,6.545486083984375,0.0013920300407335162,0.0012856591492891312,-0.002847947645932436
1772563515314553900,6.555553955078125,0.0007297019474208355,0.003517388366162777,0.0003281382378190756
1772563515324623000,6.565623046875,-0.000454130582511425,0.0005256971344351768,-0.0002250822726637125
1772563515334691000,6.575691162109375,0.000628977082669735,-0.00046792812645435333,4.873145371675491e-7
1772563515344759000,6.585759033203125,-0.0004181112162768841,-0.00037552788853645325,0.002690758788958192
1772563515354827000,6.595826904296875,-0.0009981479961425066,0.00029425695538520813,-0.0013942639343440533
1772563515364895200,6.605895263671875,-0.001101326197385788,0.0005666599608957767,0.00019930140115320683
1772563515374963000,6.615962890625,-0.0007127709686756134,-0.0017313817515969276,0.0011119667906314135
1772563515385031000,6.626031005859375,-0.0003596849273890257,-0.000048438552767038345,-0.0028371275402605534
1772563515395099000,6.636098876953125,-0.0005559597630053759,0.00204800209030509,-0.0017534872749820352
1772563515405168000,6.646168212890625,0.0000785384327173233,-0.0005539637058973312,-0.001890363171696663
1772563515415236000,6.656236083984375,-0.0015182928182184696,0.0004926584661006927,-0.0018235178431496024
1772563515425304000,6.666303955078125,-0.0024200384505093098,0.0005740090273320675,-0.0027587933000177145
1772563515435372000,6.6763720703125,-0.002088475041091442,0.002832369413226843,-0.0006575591396540403
1772563515445440000,6.68643994140625,-0.0018216241151094437,-0.0017310595139861107,-0.00023869844153523445
1772563515455508000,6.696508056640625,0.000393593218177557,0.0009131934493780136,-0.0014653503894805908
1772563515465576000,6.706575927734375,-0.002562642330303788,-0.0007069394923746586,0.00009178649634122849
1772563515475644200,6.71664404296875,-0.00022491952404379845,0.0008326340466737747,-0.00348004512488842
1772563515485713000,6.726712890625,0.001185267698019743,0.002704495331272483,0.0005715691950172186
1772563515495780900,6.73678076171875,-0.0004339341539889574,0.0005454705096781254,-0.0015738734509795904
1772563515505849000,6.74684912109375,0.0004376524593681097,0.002248635282739997,-0.0025365380570292473
1772563515515917000,6.7569169921875,0.0030238484032452106,0.002105357125401497,-0.003134151455014944
1772563515525985000,6.766985107421875,0.00013039982877671719,-0.00013401219621300697,0.001989317825064063
1772563515536053000,6.777052978515625,-0.0005021009128540754,-0.001719125546514988,-0.001595296780578792
1772563515546120700,6.78712060546875,0.001108989818021655,0.0015600384213030338,0.00013639405369758606
1772563515556188700,6.797188720703125,-0.0013041002675890923,-0.0013422747142612934,0.0019079286139458418
1772563515566257400,6.80725732421875,0.0009624024387449026,-0.002707897685468197,0.000980485463514924
1772563515576325600,6.81732568359375,0.0021160838659852743,-0.00006444426253437996,-0.0008291327394545078
1772563515586393600,6.8273935546875,0.002440594369545579,0.0013267057947814465,-0.00032484857365489006
1772563515596461600,6.837461669921875,0.0026384673546999693,-0.0003255195915699005,-0.0014532299246639013
1772563515606529500,6.847529541015625,0.0009172768332064152,-0.00015632063150405884,-0.002380755729973316
1772563515616597800,6.85759765625,-0.001010052626952529,-0.0013052085414528847,0.0003263475373387337
1772563515626665500,6.86766552734375,-0.0006773022469133139,-0.00033973995596170425,-0.000049527036026120186
1772563515636733400,6.8777333984375,0.0003458843566477299,-0.0020814472809433937,-0.0008261050097644329
1772563515646801400,6.887801513671875,0.0010254345834255219,-0.0008079865947365761,0.0006526543293148279
1772563515656870700,6.89787060546875,0.00006216904148459435,-0.00020051933825016022,0.00035730982199311256
1772563515666938600,6.907938720703125,-0.0006435588002204895,-0.001684045884758234,0.00005504535511136055
1772563515677006600,6.918006591796875,0.0034316102974116802,0.0011221268214285374,-0.0019247486488893628
1772563515687074600,6.928074462890625,-0.0017958260141313076,0.0014393576420843601,-0.0006215525791049004
1772563515697142500,6.938142578125,0.000045483699068427086,-0.00040621310472488403,0.0022820921149104834
1772563515707210500,6.94821044921875,0.002551436424255371,-0.00022684643045067787,0.00026018545031547546
1772563515717278500,6.958278564453125,-0.0004550062585622072,0.0008200420998036861,-0.0019299981649965048
1772563515727346700,6.9683466796875,0.0013097968185320497,-0.0014588558115065098,-0.0016377187566831708
1772563515737415700,6.978415771484375,0.001531371846795082,-0.0013342201709747314,-0.0024971207603812218
1772563515747483400,6.9884833984375,0.0011261082254350185,-0.0006459434516727924,0.0009780211839824915
1772563515757551600,6.998551513671875,0.0035975216887891293,-0.00044460827484726906,-0.0012798067182302475
1772563515767619600,7.00861962890625,0.0014022357063367963,-0.0027232994325459003,0.00009748758748173714
1772563515777687600,7.0186875,0.00041899667121469975,-0.002516105305403471,-0.0008489999454468489
1772563515787755500,7.028755615234375,0.00007392559200525284,0.00043230270966887474,0.00006730156019330025
1772563515797823700,7.03882373046875,0.0007780652958899736,0.0021985110361129045,-0.001174264121800661
1772563515807891700,7.0488916015625,0.0011678219307214022,-0.0006440333090722561,-0.0027744381222873926
1772563515817960400,7.05896044921875,-0.0008740236517041922,0.0011298982426524162,0.0022916931193321943
1772563515828028400,7.0690283203125,-0.0005233034025877714,0.0007702698931097984,-0.00046374090015888214
1772563515838096600,7.0790966796875,-0.0014724540524184704,0.0010469723492860794,0.001734698424115777
1772563515848164600,7.08916455078125,-0.0013744968455284834,-0.0004437915049493313,0.0008352764416486025
1772563515858232600,7.099232666015625,0.000655630836263299,-0.0011380775831639767,-0.0012795397778972983
1772563515868300800,7.10930078125,0.00045594293624162674,0.004984453320503235,0.0019448250532150269
1772563515878368500,7.119368408203125,-0.001852218760177493,-0.0010758358985185623,0.0000071087852120399475
1772563515888436500,7.1294365234375,-0.0011864823754876852,0.0011862940154969692,0.0009199664928019047
1772563515898505500,7.13950537109375,-0.0010884779039770365,0.00041184714064002037,-0.002047860063612461
1772563515908573700,7.14957373046875,0.00018944521434605122,0.0001200125552713871,0.000028705690056085587
1772563515918641700,7.1596416015625,0.0014485878637060523,-0.0016504568047821522,0.0016079603228718042
1772563515928709600,7.169709716796875,0.0011110545601695776,-0.0004862789064645767,0.0011577249970287085
1772563515938777300,7.17977734375,0.0022620728705078363,-0.001435962039977312,-0.0018391299527138472
1772563515948845600,7.189845458984375,-0.003294603666290641,0.0010996852070093155,-0.00101563916541636
1772563515958913500,7.19991357421875,-0.00028469902463257313,-0.000575709156692028,-0.0002507793251425028
1772563515968981500,7.2099814453125,-0.00007808185182511806,0.001052292063832283,0.0005008699372410774
1772563515979050800,7.22005078125,0.00011979113332927227,0.0005928967148065567,0.000880370382219553
1772563515989118500,7.230118408203125,0.00007414910942316055,0.001627686433494091,0.0008479147218167782
1772563515999186400,7.2401865234375,-0.001090983860194683,0.0004369872622191906,0.000047102104872465134
1772563516009254400,7.25025439453125,-0.0009859364945441484,-0.0013590739108622074,0.0017946260049939156
1772563516019322600,7.260322509765625,-0.0005904571153223515,-0.002018206287175417,0.0007943427190184593
1772563516029390600,7.270390625,-0.0006495178677141666,-0.0011711949482560158,0.000798787223175168
1772563516039458600,7.28045849609375,-0.0015126483049243689,0.00029860343784093857,-0.0018502591410651803
1772563516049526500,7.290526611328125,0.00019499799236655235,-0.0013125487603247166,0.001181773142889142
1772563516059595500,7.300595458984375,0.0001638391986489296,0.0011175856925547123,0.0003407467156648636
1772563516069663500,7.31066357421875,0.0001468062400817871,0.00009902939200401306,-0.0020610494539141655
1772563516079731500,7.3207314453125,-0.0012468257918953896,0.0005038296803832054,-0.00244960468262434
1772563516089799700,7.330799560546875,-0.0005992848891764879,-0.00002705305814743042,-0.0015719138318672776
1772563516099867600,7.34086767578125,-0.00024348637089133263,-0.0023831515572965145,0.0010054933372884989
1772563516109935600,7.350935546875,-0.00037764175795018673,-0.0005265483632683754,-0.001728324219584465
1772563516120003600,7.361003662109375,0.00044554146006703377,0.0016556456685066223,0.001336175249889493
1772563516130071600,7.371071533203125,-0.0035584713332355022,-0.000162546057254076,0.0030895378440618515
1772563516140140500,7.381140625,-0.0009219418279826641,0.00007394282147288322,0.0003416880499571562
1772563516150208500,7.39120849609375,-0.0012034117244184017,-0.0002772752195596695,0.001249799970537424
1772563516160276700,7.40127685546875,-0.00021271593868732452,0.0007648193277418613,-0.00218967255204916
1772563516170344700,7.4113447265625,-0.0017594096716493368,0.0004394231364130974,-0.0010139252990484238
1772563516180412400,7.421412353515625,-0.0018994922284036875,0.0008655288256704807,-0.0006346912123262882
1772563516190480400,7.43148046875,-0.001563268480822444,-0.0007361411117017269,0.0014374665915966034
1772563516200548600,7.441548583984375,-0.0008234421256929636,0.0006521646864712238,0.001729881390929222
1772563516210616600,7.451616455078125,0.0013028174871578813,-0.0007400517351925373,0.002589423442259431
1772563516220684500,7.4616845703125,0.0024469115305691957,0.003188909962773323,0.0006285377312451601
1772563516230753500,7.47175341796875,0.0003000234719365835,0.000705694779753685,0.0015807074960321188
1772563516240821500,7.481821533203125,0.0003064149059355259,0.0006175441667437553,-0.0007532867603003979
1772563516250889500,7.491889404296875,0.000891875708475709,-0.0018352610059082508,-0.0005849546287208796
1772563516260957400,7.50195751953125,-0.0018053737003356218,0.00014453288167715073,0.0004361013416200876
1772563516271025700,7.512025634765625,-0.0008318363688886166,-0.0035158214159309864,0.0014842415694147348
1772563516281093600,7.52209375,0.00007124175317585468,0.0008211364038288593,0.0012285781558603048
1772563516291161600,7.53216162109375,0.00038175121881067753,0.0001252768561244011,0.00181527528911829
1772563516301229600,7.5422294921875,-0.00007631257176399231,-0.0006121527403593063,-0.0011466925498098135
1772563516311298600,7.552298583984375,-0.000678755808621645,-0.001483175903558731,-0.000647139735519886
1772563516321366500,7.562366455078125,0.0018075715051963925,0.00007743667811155319,-0.0005789627321064472
1772563516331434500,7.5724345703125,-0.002036093734204769,0.0021246252581477165,0.0010444580111652613
1772563516341502700,7.582502685546875,-0.00007307762280106544,0.0034655267372727394,0.0005373919848352671
1772563516351570700,7.59257080078125,-0.0014208804350346327,-0.002033769618719816,0.002148566534742713
1772563516361638700,7.602638671875,-0.0012919835280627012,-0.0006928681395947933,-0.0009356401860713959
1772563516371706400,7.612706298828125,-0.0030127924401313066,0.0018175272271037102,0.0017243500333279371
1772563516381774600,7.622774658203125,0.0006160310003906488,-0.0003092731349170208,-0.00005810358561575413
1772563516391843600,7.632843505859375,0.0008806530386209488,0.0010405252687633038,0.0020704895723611116
1772563516401911600,7.64291162109375,0.0012004987802356482,0.000141974538564682,-0.0015894928947091103
1772563516411979800,7.652979736328125,0.00007561082020401955,-0.0011160927824676037,-0.0003274113405495882
1772563516422047500,7.663047607421875,0.0006596420425921679,0.0002692840062081814,-0.0002858659718185663
1772563516432115500,7.673115478515625,0.0011791782453656197,0.0016165038105100393,-0.003719863947480917
1772563516442183400,7.683183349609375,0.0003650500439107418,-0.0012163007631897926,0.0003670230507850647
1772563516452251600,7.693251708984375,0.00035793427377939224,0.0007023368962109089,0.0014392028097063303
1772563516462319600,7.703319580078125,-0.000916654709726572,-0.000035624951124191284,0.003356678644195199
1772563516472388600,7.713388671875,-0.00034220051020383835,0.00018904777243733406,0.0015546376816928387
1772563516482456300,7.723456298828125,0.0015260070795193315,-0.00019604526460170746,-0.0015617934986948967
1772563516492524500,7.733524658203125,0.0006993692368268967,0.0008385591208934784,-0.0008547247853130102
1772563516502592500,7.743592529296875,0.0003520932514220476,-0.0015793247148394585,-0.00304970215074718
1772563516512660500,7.753660400390625,0.0013250813353806734,0.0008310428820550442,-0.0036590429954230785
1772563516522728400,7.763728515625,-0.0003953208215534687,-0.00041345227509737015,0.001772207673639059
1772563516532796700,7.773796630859375,0.002562767593190074,0.0000077737495303154,0.001143170753493905
1772563516542864400,7.783864501953125,0.00015953113324940205,-0.0017238138243556023,0.00115755177102983
1772563516552933000,7.79393310546875,-0.0011768413241952658,0.00018396088853478432,-0.0008589935023337603
1772563516563001000,7.8040009765625,-0.00016936752945184708,-0.0011502830311655998,0.003018568968400359
1772563516573069300,7.8140693359375,-0.0014989788178354502,-0.003221516963094473,-0.0009088332299143076
1772563516583137300,7.82413720703125,-0.00149764702655375,0.0016946785617619753,0.0008403309620916843
1772563516593205200,7.834205322265625,-0.0014113136567175388,-0.00015429966151714325,-0.0008198891300708055
1772563516603273200,7.844273193359375,-0.0014648432843387127,0.00087368069216609,0.0018701697699725628
1772563516613341400,7.854341552734375,-0.0014527670573443174,-0.0007529309950768948,0.0015260304789990187
1772563516623409200,7.8644091796875,0.0011310321278870106,0.0017360595520585775,0.003563348902389407
1772563516633478100,7.87447802734375,0.0014350084820762277,-0.002696812152862549,-0.000846158480271697
1772563516643546400,7.88454638671875,0.0006829318590462208,-0.0009330003522336483,0.0007741088047623634
1772563516653614300,7.8946142578125,-0.0016997314523905516,-0.001365578267723322,-0.00001800735481083393
1772563516663682300,7.904682373046875,-0.0011308800894767046,0.0007154154591262341,-0.0002872529439628124
1772563516673750300,7.914750244140625,0.0007681113202124834,-0.001866907812654972,0.003614002838730812
1772563516683818200,7.924818359375,0.002536982763558626,0.0018561913166195154,-0.0063451542519032955
1772563516693886200,7.93488623046875,0.000542372465133667,0.0012482039164751768,0.004460665863007307
1772563516703954200,7.9449541015625,0.00033224886283278465,-0.0019031143747270107,-0.0001423414796590805
1772563516714022100,7.955022216796875,-0.0015189102850854397,0.0008279695175588131,-0.002499314257875085
1772563516724091400,7.96509130859375,-0.0026992233470082283,-0.001531591173261404,-0.00014880835078656673
1772563516734159000,7.9751591796875,-0.000028913142159581184,-0.0004616868682205677,0.002395953983068466
1772563516744227000,7.98522705078125,0.00030185142531991005,0.0013567195273935795,-0.0012829367769882083
1772563516754295300,7.99529541015625,-0.0020734218414872885,0.0018368875607848167,-0.0014182253507897258
1772563516764363300,8.00536328125,-0.00018161069601774216,-0.0009627090767025948,-0.002112854039296508
1772563516774431200,8.01543115234375,-0.00009036622941493988,-0.0000255657359957695,-0.00002626189962029457
1772563516784499200,8.025499267578125,-0.0011305969674140215,-0.0007344991900026798,0.000769756967201829
1772563516794567400,8.0355673828125,0.00008015753701329231,0.00127393938601017,-0.0020578245166689157
1772563516804636200,8.04563623046875,-0.0010945629328489304,-0.00039000343531370163,0.0012096080463379622
1772563516814704000,8.0557041015625,-0.00003951392136514187,0.0018927128985524178,0.0008734045550227165
1772563516824772400,8.0657724609375,0.0010510506108403206,0.0003869617357850075,-0.0030691390857100487
1772563516834840300,8.07584033203125,-0.003458359744399786,0.0010976274497807026,0.0005940119735896587
1772563516844908300,8.085908203125,-0.00020397687330842018,-0.0012443563900887966,-0.0019956459291279316
1772563516854976300,8.095976318359375,0.0010014367289841175,-0.000502327922731638,-0.00007197493687272072
1772563516865044500,8.10604443359375,0.0004562877584248781,0.0000409567728638649,-0.0028083729557693005
1772563516875112200,8.1161123046875,-0.00229735323227942,-0.00027227122336626053,0.0009712306782603264
1772563516885181200,8.12618115234375,-0.00011968659237027168,0.0010132365860044956,0.0012426069006323814
1772563516895249400,8.13624951171875,-0.0010170787572860718,-0.0003319378010928631,-0.002047115471214056
1772563516905317400,8.1463173828125,-0.0008474355563521385,0.0029842304065823555,-0.0006843761075288057
1772563516915385300,8.15638525390625,-0.0008297187741845846,0.0014950274489820004,-0.0007441532798111439
1772563516925453300,8.166453369140624,0.0022150734439492226,-0.0007324405014514923,0.002767224796116352
1772563516935521300,8.176521240234376,0.001172021497040987,-0.0014924709685146809,0.004681547172367573
1772563516945589200,8.18658935546875,0.0013493880396708846,0.0034242570400238037,-0.0004506309051066637
1772563516955657200,8.1966572265625,0.00003428221680223942,0.0012999786995351315,-0.0009775692597031593
1772563516965725200,8.20672509765625,0.00020898552611470222,0.000672005582600832,-0.0002329493872821331
1772563516975794400,8.21679443359375,0.0010074723977595568,-0.0010667634196579456,-0.0012998345773667097
1772563516985862100,8.226862060546875,0.0007914900779724121,-0.0003730100579559803,-0.0007786538917571306
1772563516995930000,8.23693017578125,-0.001622932031750679,0.00016721244901418686,0.0016545751132071018
1772563517005998300,8.246998291015625,-0.0011363723315298557,-0.0005915220826864243,0.0033025392331182957
1772563517016066300,8.25706640625,-0.0008402136154472828,-0.00001637917011976242,0.0016709186602383852
1772563517026134300,8.26713427734375,0.000040759798139333725,0.00033782143145799637,-0.002349123125895858
1772563517036202200,8.2772021484375,0.0002715669106692076,0.0012716942001134157,0.00031803431920707226
1772563517046270500,8.2872705078125,-0.0002818380016833544,0.0005808700807392597,-0.002196256071329117
1772563517056339200,8.297339111328125,0.00023412052541971207,-0.0002596895210444927,-0.004069372545927763
1772563517066407200,8.3074072265625,-0.0006260804366320372,-0.0004173489287495613,0.0006140624172985554
1772563517076475400,8.317475341796875,-0.0014319214969873428,0.0012510886881500483,0.0013498947955667973
1772563517086543400,8.32754345703125,-0.0025653629563748837,0.0023405877873301506,0.00249585323035717
1772563517096611300,8.337611328125,0.0006321331020444632,0.0009999629110097885,0.000022285152226686478
1772563517106679300,8.34767919921875,-0.0011660333257168531,-0.0009252363815903664,-0.001379869063384831
1772563517116747300,8.357747314453125,-0.0008760925848037004,-0.0009067598730325699,0.002839387161657214
1772563517126815200,8.367815185546876,-0.0012417447287589312,-0.0009621535427868366,0.0005754341837018728
1772563517136884200,8.37788427734375,0.00029982393607497215,-0.0006913691759109497,0.0034711682237684727
1772563517146952200,8.3879521484375,0.00021300488151609898,0.000739547424018383,0.0006807083263993263
1772563517157020400,8.3980205078125,0.0006599074695259333,-0.000530813354998827,-0.0008645839989185333
1772563517167088400,8.40808837890625,-0.0014543761499226093,-0.0009214989840984344,-0.002538647036999464
1772563517177156000,8.418156005859375,-0.0005693803541362286,-0.0021466445177793503,0.0035455997567623854
1772563517187224000,8.42822412109375,-0.00009347358718514442,0.0019152089953422546,-0.0018544921185821295
1772563517197292300,8.438292236328126,-0.000006674090400338173,0.000018255319446325302,0.003570499364286661
1772563517207360300,8.4483603515625,0.00047615705989301205,-0.0006107832305133343,0.001710813958197832
1772563517217429200,8.45842919921875,0.00007413327693939209,-0.0022687334567308426,0.0005019702948629856
1772563517227497200,8.468497314453124,-0.0012153692077845335,0.00002691103145480156,-0.0012471940135583282
1772563517237565200,8.478565185546875,-0.001540629891678691,0.0013280287384986877,-0.0008263806812465191
1772563517247633200,8.488633056640625,0.0009638066403567791,0.002150945598259568,-0.0012231917353346944
1772563517257701000,8.498701171875,0.00005802419036626816,-0.0037137730978429317,0.001540137454867363
1772563517267769300,8.508769287109375,-0.0013523860834538937,-0.0008716471493244171,-0.00004284572787582874
1772563517277837300,8.51883740234375,0.0027990671806037426,-0.0004963753744959831,-0.0001230444759130478
1772563517287905300,8.5289052734375,0.002098123310133815,0.002466124715283513,-0.003829898312687874
1772563517297973200,8.53897314453125,-0.0007554511539638042,-0.00035279570147395134,0.0006215625908225775
1772563517308042200,8.549042236328125,0.0013934536837041378,0.0017399161588400602,0.00041090650483965874
1772563517318110200,8.559110107421875,-0.00016184081323444843,0.001315417466685176,0.002735186368227005
1772563517328178200,8.56917822265625,0.0004948948044329882,-0.00014292960986495018,-0.00009948248043656349
1772563517338246400,8.579246337890625,-0.000561234075576067,-0.0029647373594343662,0.002495418768376112
1772563517348314400,8.589314453125,0.0005080248229205608,-0.0013391440734267235,-0.0008660231251269579
1772563517358382300,8.59938232421875,-0.0013466207310557365,0.0011740447953343391,0.000876125181093812
1772563517368450000,8.609449951171875,0.000891766045242548,0.001920795300975442,-0.00026344158686697483
1772563517378518300,8.619518310546875,0.0002770146820694208,-0.0005108104087412357,-0.00006129639223217964
1772563517388587300,8.629587158203124,0.0018530733650550246,-0.0008495645597577095,0.00009503122419118881
1772563517398655200,8.6396552734375,0.0006128030363470316,0.000611563678830862,0.0026395111344754696
1772563517408723500,8.649723388671875,-0.0021558194421231747,-0.0005530365742743015,0.00026450399309396744
1772563517418791200,8.659791259765624,0.00018916698172688484,0.0021444980520755053,-0.0003807439934462309
1772563517428859100,8.669859130859376,0.0023673665709793568,-0.00014688586816191673,0.002156715840101242
1772563517438927000,8.679927001953125,0.0007006197702139616,-0.0011438694782555103,-0.0016635573701933026
1772563517448995300,8.689995361328124,0.001460419618524611,0.00026733940467238426,0.0027130814269185066
1772563517459063300,8.700063232421876,0.001868516905233264,0.00006998889148235321,0.0015630882699042559
1772563517469131300,8.71013134765625,0.00011509167961776257,0.0013222075067460537,-0.0006851521320641041
1772563517479200300,8.7202001953125,0.0007056065369397402,-0.0017326371744275093,0.0016364606563001871
1772563517489268200,8.730268310546874,0.0012435652315616608,0.0010343869216740131,-0.0008144464809447527
1772563517499336200,8.740336181640625,-0.00048233079724013805,0.0003956509754061699,-0.004479486495256424
1772563517509404200,8.750404052734375,0.000144843477755785,0.0012353458441793919,0.0005195331759750843
1772563517519472400,8.760472412109374,0.00008197664283216,0.001244490034878254,-0.0023080152459442616
1772563517529540400,8.770540283203125,0.0016508448170498013,-0.0004439540207386017,0.0002784465905278921
1772563517539608300,8.7806083984375,0.0025243638083338737,-0.000273154117166996,-0.0001509874127805233
1772563517549676300,8.79067626953125,0.00025268737226724625,0.0009681452065706253,-0.0019454252906143665
1772563517559745300,8.800745361328126,0.0011796671897172928,0.0006229905411601067,0.002202252158895135
1772563517569813200,8.810813232421875,0.0017471867613494396,0.00008050492033362389,-0.0008670410607010126
1772563517579881200,8.820881103515624,-0.002281556371599436,-0.0012410134077072144,0.0016801489982753992
1772563517589949400,8.830949462890626,0.0026554118376225233,0.0030160497408360243,-0.002105001825839281
1772563517600017400,8.841017333984375,0.0002683631610125303,-0.0015133414417505264,-0.000038236845284700394
1772563517610085400,8.85108544921875,0.0018518787110224366,0.0008510127663612366,-0.0019400001037865877
1772563517620153000,8.861153076171876,-0.0010084228124469519,-0.00086641451343894,-0.0005110756028443575
1772563517630221300,8.87122119140625,0.00006855931133031845,0.0003866027109324932,-0.000792305450886488
1772563517640289300,8.881289306640625,-0.001316349720582366,-0.0011128215119242668,0.0025332258082926273
1772563517650358300,8.891358154296874,0.000935352873057127,-0.0011676829308271408,-0.001451395801268518
1772563517660426500,8.901426513671876,-0.0005083570722490549,0.0010631997138261795,0.0010978297796100378
1772563517670494200,8.911494140625,-0.00108812702819705,0.0017513604834675789,-0.0032412586733698845
1772563517680562200,8.921562255859374,0.0009231409057974815,0.002137443283572793,0.00009019067510962486
1772563517690630100,8.931630126953126,0.00018384750001132488,0.00019759684801101685,-0.00037879194132983685
1772563517700698400,8.941698486328125,-0.0003536336589604616,0.0003868201747536659,0.00003719143569469452
1772563517710766300,8.951766357421874,0.000012018484994769096,-0.00016285665333271027,-0.00042486703023314476
1772563517720834300,8.961834228515626,-0.0007017203606665134,-0.000606269109994173,0.003757256083190441
1772563517730903000,8.971903076171875,-0.0007477928884327412,0.001973268575966358,0.001419267151504755
1772563517740971300,8.98197119140625,-0.0016028368845582008,0.0022252476774156094,0.0021051010116934776
1772563517751039200,8.992039306640624,-0.0011543603613972664,0.00020204437896609306,0.0017937771044671535
1772563517761107200,9.002107177734375,-0.0003873775713145733,0.00020608212798833847,0.0009108120575547218
1772563517771175400,9.012175537109375,-0.0023125766310840845,-0.0017023389227688313,0.002791270148009062
1772563517781243400,9.022243408203124,0.0013066597748547792,0.00009805336594581604,0.001224277075380087
1772563517791311400,9.032311279296875,-0.0011072293855249882,-0.0013581630773842335,0.002582755871117115
1772563517801379300,9.04237939453125,-0.0002101934514939785,-0.0006087911315262318,-0.001405020011588931
1772563517811446300,9.0524462890625,-0.0017425762489438057,0.000022377818822860718,0.002228064462542534
1772563517821514500,9.062514404296875,-0.0007960211951285601,0.0010513407178223133,0.001037932699546218
1772563517831582200,9.072582275390625,-0.0013765899930149317,0.00022363057360053062,-0.0017930074827745557
1772563517841650200,9.082650146484376,0.00014478503726422787,0.0012686317786574364,-0.0018044874304905534
1772563517851718100,9.09271826171875,0.0014492013724520802,0.0012127053923904896,0.0013548205606639385
1772563517861787400,9.102787353515625,-0.00175235397182405,-0.0022839554585516453,0.00212081172503531
1772563517871855400,9.11285546875,0.001356620341539383,0.0002380581572651863,-0.0014739228645339608
1772563517881923000,9.122923095703126,-0.0013292825315147638,-0.003614629153162241,-0.00044196657836437225
1772563517891991300,9.1329912109375,0.00034531322307884693,0.001789190573617816,-0.0024483921006321907
1772563517902059300,9.143059326171874,0.0004369276575744152,0.00023651216179132462,-0.00011027837172150612
1772563517912127200,9.153127197265626,0.0013855455908924341,-0.0002748146653175354,0.0025536813773214817
1772563517922195200,9.1631953125,-0.0013848829548805952,0.0013281889259815216,0.0021695757750421762
1772563517932263400,9.173263427734375,0.00040050013922154903,-0.0005298987962305546,-0.0008637646678835154
1772563517942331400,9.183331298828126,0.0007216774392873049,-0.000670779962092638,0.0012824770528823137
1772563517952400100,9.193400146484375,-0.0002401845995336771,-0.00040020933374762535,-0.001075854990631342
1772563517962468000,9.203468017578125,-0.0005304708611220121,-0.0010622148402035236,-0.0019014800200238824
1772563517972536300,9.213536376953124,0.001150516327470541,-0.0011021625250577927,-0.0013121224474161863
1772563517982604300,9.223604248046875,-0.0007776082493364811,-0.0011239550076425076,-0.0016104739625006914
1772563517992672300,9.23367236328125,0.0011020507663488388,0.0004800669848918915,-0.00030632386915385723
1772563518002740500,9.243740478515624,-0.002083740197122097,-0.0022374908439815044,0.0009478414431214333
1772563518012808400,9.253808349609375,-0.002371361944824457,-0.0011519864201545715,0.0014700875617563725
1772563518022876200,9.263876220703125,-0.0013474284205585718,-0.0006101462058722973,0.0006869256030768156
1772563518032944000,9.273944091796874,-0.003110707039013505,0.0023768553510308266,0.001557513140141964
1772563518043013400,9.284013427734376,0.0015165351796895266,0.0009544608183205128,0.0004024999216198921
1772563518053081300,9.294081298828125,0.0020183194428682327,-0.0027459627017378807,-0.0006399133708328009
1772563518063149300,9.3041494140625,0.0019503565272316337,0.0010579791851341724,-0.0020379596389830112
1772563518073217300,9.31421728515625,0.0014526116428896785,-0.0014637680724263191,0.0007711427751928568
1772563518083285200,9.32428515625,-0.000536046689376235,-0.0003654654137790203,0.0007563377730548382
1772563518093353200,9.334353271484375,0.0021670619025826454,0.0005570538341999054,-0.0011100054252892733
1772563518103421200,9.344421142578126,0.0017591755604371428,-0.0009517446160316467,-0.0019122791709378362
1772563518113489200,9.3544892578125,-0.0013740335125476122,-0.0014095418155193329,0.0009788484312593937
1772563518123558400,9.364558349609375,0.00044973217882215977,-0.00031067105010151863,0.0012680862564593554
1772563518133626000,9.374626220703124,-0.0024203562643378973,0.00029413262382149696,0.001093382714316249
1772563518143694000,9.384694091796876,-0.002424506703391671,0.0003151693381369114,0.002491316292434931
1772563518153762300,9.39476220703125,0.00020696292631328106,0.001959404908120632,0.0015863743610680103
1772563518163830300,9.404830322265624,-0.0004907988477498293,-0.0023190071806311607,0.0025221407413482666
1772563518173898200,9.414898193359376,-0.0014047957956790924,-0.0009349626488983631,-0.0004238481633365154
1772563518183966200,9.42496630859375,-0.001921368995681405,-0.00029189372435212135,0.0026473398320376873
1772563518194036200,9.4350361328125,-0.0010092363227158785,-0.0006942977197468281,-0.0015865537570789456
1772563518204104200,9.445104248046874,-0.0023687167558819056,-0.0012634475715458393,0.00228871894069016
1772563518214172400,9.45517236328125,-0.00005602790042757988,0.000528859905898571,-0.000837832223623991
1772563518224240400,9.465240478515625,0.000668154563754797,0.0003968779928982258,0.0008651847019791603
1772563518234308400,9.475308349609374,0.0016138431383296847,0.001162270549684763,-0.00240863929502666
1772563518244376000,9.4853759765625,0.0006858347915112972,-0.0014146906323730946,-0.002531585283577442
1772563518254445300,9.4954453125,0.0026864013634622097,0.00018933136016130447,0.0009712704923003912
1772563518264513300,9.50551318359375,0.0012178339529782534,0.002032783580943942,-0.0005803245585411787
1772563518274581200,9.515581298828126,0.00027480884455144405,-0.00159843685105443,-0.001318552764132619
1772563518284649500,9.5256494140625,-0.0013186463620513678,-0.0017783190123736858,0.0015881359577178955
1772563518294717200,9.53571728515625,0.0014345295494422317,-0.0008328966796398163,-0.0011541212443262339
1772563518304785200,9.54578515625,0.00063928565941751,-0.0034247119911015034,0.0007935496978461742
1772563518314853000,9.55585302734375,0.0011013441253453493,-0.0004965667612850666,-0.0006240508519113064
1772563518324921300,9.56592138671875,0.00028848624788224697,-0.0017914939671754837,0.000021524261683225632
1772563518334990300,9.575990234375,0.0002139178104698658,-0.000872170552611351,0.0012905204202979803
1772563518345058300,9.586058349609376,-0.0004719872958958149,0.0008759628981351852,-0.0010195812210440636
1772563518355126300,9.596126220703125,-0.002335667610168457,-0.0010215393267571926,-0.0012488794745877385
1772563518365194200,9.6061943359375,0.0005928231403231621,0.0009168586693704128,-0.0025202310644090176
1772563518375262200,9.61626220703125,-0.0012444918975234032,0.0004593278281390667,-0.001997452462092042
1772563518385330200,9.626330078125,-0.00011548353359103203,-0.0016976711340248585,-0.0016530040884390473
1772563518395398400,9.6363984375,0.0002826589625328779,0.0019545878749340773,-0.0014242385514080524
1772563518405466400,9.64646630859375,0.002682223916053772,-0.0010422947816550732,0.0015551778487861156
1772563518415534300,9.656534423828125,0.00022465898655354977,-0.001047354657202959,0.0005178768187761307
1772563518425603000,9.66660302734375,-0.001816349569708109,-0.0014505130238831043,-0.0023038238286972046
1772563518435671300,9.67667138671875,0.001647357945330441,0.00010264245793223381,-0.0013775764964520931
1772563518445739300,9.6867392578125,-0.0003113914281129837,-0.0017458400689065456,0.002670677611604333
1772563518455807200,9.69680712890625,-0.00013482384383678436,-0.0021112258546054363,0.00343527109362185
1772563518465875200,9.706875244140624,0.0002687650267034769,-0.0017338385805487633,-0.0022921597119420767
1772563518475943400,9.716943359375,0.001777179422788322,0.0018640921916812658,0.0004575541242957115
1772563518486011400,9.727011474609375,0.0006452640518546104,0.0033863424323499203,0.0022778103593736887
1772563518496079000,9.7370791015625,0.00042874901555478573,0.0003117229789495468,0.0007651345804333687
1772563518506147300,9.747147216796876,-0.0008993966039270163,-0.0016905940137803555,0.0007532283198088408
1772563518516216300,9.75721630859375,-0.0008109800983220339,0.0004931981675326824,0.0009508347138762474
1772563518526284300,9.7672841796875,0.00030323746614158154,-0.0007681297138333321,0.0006879607681185007
1772563518536352300,9.777352294921876,0.00021934788674116135,-0.0006893002428114414,0.003032341366633773
1772563518546420200,9.787420166015625,-0.0008386918343603611,-0.0015015192329883575,-0.0005351859144866467
1772563518556488400,9.797488525390625,0.002734204987064004,0.00048386724665760994,0.0013980024959892035
1772563518566556400,9.807556396484374,-0.0010270655620843172,0.0006491150707006454,0.0001977349165827036
1772563518576624400,9.817624267578125,0.0018600675975903869,-0.0010941899381577969,-0.0033522588200867176
1772563518586692400,9.8276923828125,-0.000250090379267931,0.0017019817605614662,-0.003285696031525731
1772563518596761300,9.83776123046875,0.0002697587478905916,-0.0007217610254883766,0.0025748563930392265
1772563518606829300,9.847829345703126,0.00036704144440591335,0.00016114814206957817,0.00005605141632258892
1772563518616897300,9.857897216796875,0.0026826600078493357,0.0020693030674010515,0.0008709786925464869
1772563518626965500,9.867965576171875,-0.0007269929628819227,-0.0005032452754676342,0.0025567403063178062
1772563518637033500,9.878033447265626,-0.0003136703744530678,0.0017133038491010666,0.0013958681374788284
1772563518647101400,9.888101318359375,-0.001324101584032178,0.001210489310324192,0.000930512323975563
1772563518657169400,9.89816943359375,-0.0014641841407865286,-0.00020151864737272263,0.0006687233690172434
1772563518667237600,9.908237548828126,0.00009948224760591984,-0.0014700908213853836,-0.00013437820598483086
1772563518677305300,9.918305419921875,-0.0010259696282446384,0.0008082431741058826,0.0002539106644690037
1772563518687374300,9.928374267578125,-0.001039228169247508,-0.0014335447922348976,-0.0022194208577275276
1772563518697442600,9.938442626953124,0.0005221832543611526,-0.0012913323007524014,0.002751369262114167
1772563518707510500,9.948510498046875,0.0009007703047245741,0.002310988027602434,-0.00044999062083661556
1772563518717578500,9.95857861328125,-0.0000531740952283144,-0.0011785519309341908,-0.0016825016355141997
1772563518727646500,9.968646484375,0.0003938439767807722,0.0012925365008413792,-0.0005568347405642271
1772563518737714400,9.97871435546875,-0.0013185685966163874,0.000027268659323453903,0.0022679802495986223
1772563518747782400,9.988782470703125,-0.000256196828559041,-0.001433445606380701,-0.00010398193262517452
1772563518757850400,9.998850341796874,0.0004961460363119841,-0.0015705982223153114,-0.000929828267544508
1772563518767918300,10.00891845703125,-0.0012229965068399906,-0.000458667054772377,-0.00002436782233417034
1772563518777987600,10.018987548828125,0.0002776945475488901,-0.0004410902038216591,0.00276023312471807
1772563518788055300,10.02905517578125,0.0007441439665853977,-0.00005619414150714874,0.00034775352105498314
1772563518798123300,10.039123291015626,-0.00038077542558312416,0.0034099100157618523,-0.0025492331478744745
1772563518808191500,10.04919140625,0.000605457928031683,-0.00027109263464808464,-0.0011285017244517803
1772563518818259500,10.059259521484375,-0.0023469221778213978,0.00040082260966300964,-0.0011676503345370293
1772563518828327400,10.069327392578124,-0.0009063722100108862,-0.0009633200243115425,-0.00006485055200755596
1772563518838395400,10.0793955078125,-0.001534878509119153,-0.0006924765184521675,-0.0023658217396587133
1772563518848463600,10.089463623046875,0.00006236485205590725,-0.0006306180730462074,0.0012720210943371058
1772563518858532400,10.099532470703124,-0.0013919875491410494,0.0009835241362452507,-0.001145596383139491
1772563518868600300,10.109600341796876,-0.0020818912889808416,-0.0009819199331104755,0.002241970505565405
1772563518878668500,10.11966845703125,-0.0023569960612803698,-0.00007058633491396904,0.0017285128124058247
1772563518888736500,10.129736572265625,0.002141049597412348,-0.0009105694480240345,-0.002652197377756238
1772563518898804500,10.139804443359376,0.001775663928128779,-0.000053297728300094604,-0.0009293984621763229
1772563518908872400,10.14987255859375,0.00085793761536479,0.0002674977295100689,0.002985902363434434
1772563518918940700,10.159940673828125,0.001122655812650919,0.0007146424613893032,-0.003920739516615868
1772563518929008400,10.17000830078125,-0.001212752191349864,0.00029948633164167404,0.0027214132715016603
1772563518939076400,10.180076416015625,-0.0019504476804286242,-0.00009173201397061348,-0.0009742556139826775
1772563518949145300,10.190145263671875,-0.0020861774682998657,-0.002720598131418228,-0.001108675030991435
1772563518959213600,10.200213623046874,-0.002484053373336792,0.0007199393585324287,-0.0011118706315755844
1772563518969281500,10.210281494140625,-0.0012830961495637894,0.0006828354671597481,-0.00009459699504077435
1772563518979349200,10.220349365234375,0.0011899149976670742,0.0022338605485856533,-0.00012655486352741718
1772563518989417200,10.230417236328124,-0.0019612000323832035,-0.00057577108964324,-0.001149466261267662
1772563518999485400,10.2404853515625,-0.0007332167588174343,-0.0006407522596418858,-0.0024189951363950968
1772563519009553400,10.250553466796875,0.0007078517228364944,0.0004095383919775486,0.0007553019095212221
1772563519019621400,10.260621337890624,-0.002227484481409192,0.0018231444992125034,0.0010503798257559538
1772563519029689600,10.270689697265626,0.0008669833187013865,0.002271919511258602,0.0028175467159599066
1772563519039758300,10.28075830078125,0.0024379820097237825,0.002506544115021825,-0.0012307242723181844
1772563519049826300,10.290826416015625,-0.000051111914217472076,-0.00023404555395245552,0.0013336557894945145
1772563519059894300,10.300894287109376,-0.0003049112856388092,0.0018368284218013287,-0.0036698912736028433
1772563519069962500,10.31096240234375,0.00012156390585005283,-0.0016822293400764465,0.00006675464101135731
1772563519080030500,10.321030517578125,-0.001522405305877328,-0.0005538482218980789,0.00007208087481558323
1772563519090098400,10.331098388671874,0.0009359356481581926,0.0004353816621005535,0.0030897422693669796
1772563519100166400,10.34116650390625,-0.00048539345152676105,-0.0006330786272883415,-0.00010525179095566273
1772563519110234600,10.351234619140625,-0.0006259435322135687,0.0021865731105208397,0.0011194248218089342
1772563519120302300,10.36130224609375,-0.001127416966482997,-0.0012204088270664215,-0.0015940699959173799
1772563519130371300,10.371371337890626,-0.000039340462535619736,-0.001743227243423462,0.0006491134408861399
1772563519140439600,10.381439453125,0.000042951200157403946,-0.0008729062974452972,0.0010307442862540483
1772563519150507500,10.391507568359375,-0.00039093848317861557,0.0020434237085282803,-0.0024057545233517885
1772563519160575500,10.401575439453126,-0.00022049620747566223,-0.0014525079168379307,-0.00162518210709095
1772563519170643500,10.4116435546875,-0.00019821617752313614,-0.0018920744769275188,-0.002152538625523448
1772563519180711400,10.42171142578125,-0.001118338666856289,0.001168163726106286,-0.0016963391099125147
1772563519190779400,10.431779296875,-0.0024255956523120403,-0.00027159787714481354,-0.00027991877868771553
1772563519200847400,10.441847412109375,0.00029642111621797085,-0.0005198046565055847,-0.0028232375625520945
1772563519210915300,10.451915283203125,-0.00011943653225898743,0.0006774901412427425,0.0000730571337044239
1772563519220984600,10.461984619140624,0.0015354518545791507,-0.001283661462366581,0.00004163174889981747
1772563519231052300,10.47205224609375,-0.0013868249952793121,0.001232017995789647,0.000627975445240736
1772563519241120300,10.482120361328125,-0.0010502012446522713,0.00012787152081727982,-0.0006476787384599447
1772563519251188500,10.4921884765625,-0.0024940860457718372,-0.001317551825195551,0.0007128228899091482
1772563519261256400,10.50225634765625,-0.0000367872416973114,0.0021237849723547697,-0.000837935833260417
1772563519271324400,10.512324462890625,0.0014737355522811413,0.0009637554176151752,0.0001297774724662304
1772563519281392400,10.522392333984374,-0.0014115332160145044,-0.0013446728698909283,0.0006187339313328266
1772563519291460600,10.532460693359376,-0.0011870062444359064,-0.0017436551861464977,0.002612694166600704
1772563519301529300,10.542529296875,0.0005895886570215225,0.0001200246624648571,-0.0005013400223106146
1772563519311597300,10.552597412109375,-0.0009438972920179367,-0.001314734574407339,0.0012897453270852566
1772563519321665500,10.56266552734375,-0.002232600934803486,-0.0012367041781544685,0.0017611249350011349
1772563519331733500,10.5727333984375,0.001695295562967658,0.0009249839931726456,-0.0003438375424593687
1772563519341801500,10.582801513671875,0.0003178797196596861,-0.0011349832639098167,-0.002528338460251689
1772563519351869400,10.592869384765624,-0.0014678724110126495,0.0005810121074318886,-0.00044406531378626823
1772563519361937400,10.6029375,-0.0003485460765659809,-0.0006413785740733147,-0.00018733646720647812
1772563519372005400,10.61300537109375,0.0006637477781623602,-0.00007028691470623016,-0.0007509607821702957
1772563519382073300,10.6230732421875,-0.0016979435458779335,0.00009296508505940437,0.0009630497079342604
1772563519392142600,10.633142578125,-0.0013690823689103127,-0.000562821514904499,0.00047507439740002155
1772563519402210600,10.64321044921875,-0.0009059584699571133,-0.002649407833814621,0.003653024323284626
1772563519412278500,10.653278564453124,0.00014182995073497295,-0.002856643870472908,0.001031611580401659
1772563519422346200,10.66334619140625,0.0005567504558712244,0.0020025598350912333,0.002153068780899048
1772563519432414500,10.67341455078125,0.0003377036191523075,0.0002524806186556816,0.001311982749029994
1772563519442482400,10.683482421875,0.0012130846735090017,0.0011646132916212082,0.0014992028009146452
1772563519452550400,10.69355029296875,-0.0011358552146703005,-0.0013388656079769135,0.0009214798919856548
1772563519462618400,10.703618408203125,0.0017400922952219844,-0.0007164850831031799,-0.0032341168262064457
1772563519472686600,10.7136865234375,-0.001672455808147788,-0.0018117553554475307,-0.00034029153175652027
1772563519482755300,10.72375537109375,0.0008508893661201,0.002055154414847493,-0.0019634882919490337
1772563519492823300,10.7338232421875,-0.00043369014747440815,-0.000527404248714447,-0.0004057302139699459
1772563519502891500,10.7438916015625,-0.0020808554254472256,-0.0012192935682833195,0.00018975255079567432
1772563519512959500,10.75395947265625,-0.0031345784664154053,-0.0019088895060122013,-0.002643387299031019
1772563519523027500,10.76402734375,0.0024612555280327797,-0.00013575702905654907,0.00011404952965676785
1772563519533095400,10.774095458984375,-0.000687560299411416,-0.002417005132883787,-0.0009018094278872013
1772563519543163600,10.78416357421875,-0.00019301124848425388,-0.00034479936584830284,-0.0010789097286760807
1772563519553231400,10.7942314453125,-0.00260184402577579,0.0010094372555613518,0.0015640787314623594
1772563519563300400,10.80430029296875,-0.000643621664494276,0.00033938605338335037,-0.0004806963261216879
1772563519573368300,10.814368408203125,-0.0020345430821180344,-0.0012733791954815388,0.00027933018282055855
1772563519583436500,10.8244365234375,-0.002928299829363823,-0.0021338462829589844,0.002404266269877553
1772563519593504500,10.83450439453125,-0.0020535127259790897,-0.0009522894397377968,0.004685111343860626
1772563519603572500,10.844572509765625,-0.0005656047724187374,0.0013782430905848742,-0.0022734622471034527
1772563519613640200,10.85464013671875,-0.000012617558240890503,-0.0007679886184632778,-0.0018311786698177457
1772563519623708400,10.86470849609375,-0.0006824024021625519,0.00014387816190719604,-0.000603195047006011
1772563519633776400,10.8747763671875,0.000051600392907857895,-0.00008342787623405457,0.00007497239857912064
1772563519643844400,10.88484423828125,-0.00022350414656102657,-0.0008394992910325527,0.001297629438340664
1772563519653913600,10.89491357421875,-0.001247395295649767,-0.0007981122471392155,0.0016639367677271366
1772563519663981300,10.904981201171875,-0.0008343388326466084,-0.0018410063348710537,-0.0018445118330419064
1772563519674049300,10.91504931640625,-0.0010599072556942701,-0.0002390323206782341,-0.0002721769269555807
1772563519684117200,10.9251171875,0.0006029705982655287,0.0005695032887160778,-0.00028469390235841274
1772563519694185500,10.935185546875,0.00018020626157522202,-0.001017209142446518,0.002236987929791212
1772563519704253400,10.94525341796875,-0.000656825490295887,-0.0011053597554564476,0.0023965113796293736
1772563519714321400,10.9553212890625,-0.0015079358126968145,0.0002792361192405224,-0.0001374341081827879
1772563519724389400,10.965389404296875,0.0010620143730193377,-0.001532779075205326,-0.002101249061524868
1772563519734457600,10.97545751953125,-0.0014837065245956182,0.0012634915765374899,-0.0004253957886248827
1772563519744526300,10.9855263671875,-0.0011284409556537867,0.00015774695202708244,-0.0012389915063977242
1772563519754594300,10.99559423828125,0.0009050997905433178,-0.0016293823719024658,0.0026425840333104134
1772563519764662500,11.00566259765625,0.002363180508837104,-0.00003068661317229271,-0.0016554915346205235
1772563519774730500,11.01573046875,-0.00040586129762232304,0.0022162876557558775,0.0010657808743417263
1772563519784798500,11.025798583984376,-0.0019547557458281517,0.000011456664651632309,0.0020189261995255947
1772563519794866400,11.035866455078125,-0.000626416876912117,-0.00029964884743094444,-0.0010447017848491669
1772563519804934400,11.045934326171874,0.0007608237210661173,0.00046174926683306694,-0.0019419207237660885
1772563519815002400,11.05600244140625,-0.00032432423904538155,0.000010584946721792221,0.0004997267387807369
1772563519825070300,11.0660703125,0.0006152389105409384,-0.0001577269285917282,0.0006741639226675034
1772563519835139300,11.076139404296875,0.0015184585936367512,-0.0005521364510059357,0.0018111283425241709
1772563519845207600,11.08620751953125,-0.00010766740888357162,0.0011237910948693752,0.0012870181817561388
1772563519855275500,11.096275634765625,-0.0007598081137984991,-0.00022779591381549835,0.0010840343311429024
1772563519865343200,11.10634326171875,0.0003757637459784746,0.0008305446244776249,-0.00021825172007083893
1772563519875411500,11.116411376953126,-0.0015134294517338276,-0.0002897833473980427,0.0005529241170734167
1772563519885479400,11.1264794921875,-0.001338459551334381,0.001112370751798153,-0.0005150034558027983
1772563519895547400,11.13654736328125,0.0025319443084299564,0.0005032001063227654,-0.0003724368289113045
1772563519905615400,11.146615478515624,-0.00025771697983145714,-0.0014395760372281075,-0.0009567344095557928
1772563519915683600,11.15668359375,-0.001703716116026044,-0.0016611996106803417,0.0012696622870862484
1772563519925752300,11.16675244140625,0.00047235284000635147,0.0008062194101512432,0.001336507499217987
1772563519935820300,11.1768203125,-0.000792560400441289,-0.00037300679832696915,-0.002328369300812483
1772563519945888300,11.18688818359375,0.0016141381347551942,0.0005465829744935036,0.002163318218663335
1772563519955956500,11.19695654296875,-0.000828468007966876,0.00001651141792535782,0.00013144919648766518
1772563519966024400,11.2070244140625,-0.0016527159605175257,-0.0014194650575518608,-0.0026028184220194817
1772563519976092400,11.217092529296876,-0.0016188074368983507,0.000785384327173233,0.001246592728421092
1772563519986160400,11.227160400390625,-0.0009450276847928762,-0.00001063477247953415,-0.0014328138204291463
1772563519996228400,11.237228271484375,-0.002518143504858017,-0.0022208658047020435,-0.00043245358392596245
1772563520006296300,11.24729638671875,-0.0024244002997875214,-0.001061858143657446,0.0023345707450062037
1772563520016365300,11.257365234375,-0.0012072857934981585,0.00024777092039585114,-0.0007364063058048487
1772563520026433500,11.26743359375,-0.002426214748993516,-0.0005098981782793999,-0.00136491225566715
1772563520036501500,11.27750146484375,0.0006189928390085697,-0.0023077926598489285,-0.00015947548672556877
1772563520046569500,11.287569580078125,-0.001600752118974924,-0.0003746040165424347,0.0020123322028666735
1772563520056637200,11.29763720703125,0.0015879798447713256,0.0013356159906834364,0.0006072572432458401
1772563520066705400,11.307705322265624,-0.0015966282226145267,-0.00016401009634137154,-0.00013150367885828018
1772563520076773400,11.3177734375,0.0013354539405554533,-0.002093093004077673,0.00012000859715044498
1772563520086841300,11.32784130859375,-0.0016398297157138586,0.0002787183038890362,-0.0003628223203122616
1772563520096909300,11.337909423828124,-0.000023778993636369705,-0.0006931936368346214,0.0006148326210677624
1772563520106978300,11.347978271484376,-0.001142839202657342,-0.00007107900455594063,-0.0017729576211422682
1772563520117046300,11.35804638671875,-0.0014706766232848167,-0.0026621543802320957,0.0007327289786189795
1772563520127114200,11.3681142578125,-0.00040514604188501835,-0.0005097878165543079,-0.0018135193968191743
1772563520137182500,11.378182373046876,-0.0012309513986110687,-0.0016183890402317047,0.0015535776037722826
1772563520147250400,11.38825048828125,0.0009243448730558157,0.002093258313834667,-0.0015551302349194884
1772563520157318400,11.398318359375,0.0004964570980519056,0.0021991184912621975,-0.0006848801858723164
1772563520167386400,11.408386474609374,-0.002109978813678026,-0.0005511278286576271,0.00026187370531260967
1772563520177454600,11.41845458984375,-0.0019217715598642826,-0.000027426518499851227,-0.0004457719624042511
1772563520187522300,11.428522216796875,0.00044631119817495346,-0.0005842936225235462,0.002917001722380519
1772563520197591300,11.43859130859375,-0.0005797639023512602,0.00012529781088232994,-0.0007828644011169672
1772563520207659500,11.448659423828126,-0.002266077557578683,0.0022941764909774065,-0.002974912291392684
1772563520217727500,11.4587275390625,0.00026742578484117985,-0.00017530936747789383,0.0010328050702810287
1772563520227795500,11.46879541015625,0.0002559742424637079,0.000952539499849081,-0.0008242172189056873
1772563520237863400,11.478863525390626,-0.0021020593121647835,0.0006534229032695293,-0.0035450467839837074
1772563520247931400,11.488931396484375,-0.001453579869121313,0.0002925647422671318,-0.000854188809171319
1772563520257999400,11.498999267578125,-0.0007709735073149204,-0.00027585122734308243,-0.000325510511174798
1772563520268067300,11.5090673828125,-0.0020974939689040184,-0.0006534871645271778,0.00139915244653821
1772563520278135300,11.51913525390625,-0.0019125770777463913,-0.0018377508968114853,0.003668796271085739
1772563520288204500,11.52920458984375,-0.0012859352864325047,-0.0005296063609421253,-0.0022074684966355562
1772563520298272300,11.539272216796874,-0.0013555502519011497,0.00015895674005150795,0.001407352276146412
1772563520308340200,11.54934033203125,0.0006306355353444815,-0.0010826089419424534,0.002142651006579399
1772563520318408400,11.559408447265625,-0.00002442183904349804,0.0018466885667294264,0.0020542126148939133
1772563520328476400,11.569476318359374,0.0008807866834104061,-0.00017837900668382645,-0.0004789861850440502
1772563520338544400,11.57954443359375,-0.0003712717443704605,0.0011721127666532993,0.002224888652563095
1772563520348612400,11.5896123046875,-0.0013502496294677258,0.0016645314171910286,-0.001382363261654973
1772563520358680600,11.5996806640625,-0.001372119877487421,-0.00015366589650511742,0.002213921630755067
1772563520368748500,11.60974853515625,-0.0012437556870281696,-0.0014277221634984016,0.0006844683084636927
