time,seconds_elapsed,z,y,x
1772562370764093200,0.05809326171875,-0.03728451952338219,0.049070339649915695,-0.032767798751592636
1772562370774160100,0.06816015625,-0.0541713610291481,0.07317860424518585,-0.05893176048994064
1772562370784228000,0.07822802734375,-0.06634919345378876,0.045871883630752563,-0.0748169794678688
1772562370794295000,0.088294921875,-0.06099970266222954,0.012533634901046753,-0.08566457033157349
1772562370804362000,0.098362060546875,-0.0395418182015419,-0.003338006092235446,-0.08578521013259888
1772562370814429000,0.108428955078125,-0.01925119198858738,0.004633633885532618,-0.08859484642744064
1772562370824497000,0.118496826171875,-0.013009541667997837,0.0022511701099574566,-0.08971763402223587
1772562370834564000,0.128564208984375,0.001413073274306953,0.004824848845601082,-0.07716402411460876
1772562370844631000,0.138631103515625,0.014725683256983757,-0.002073537092655897,-0.06264740228652954
1772562370854698000,0.148697998046875,0.03376009315252304,-0.008537827990949154,-0.04375387355685234
1772562370864766200,0.15876611328125,0.04222894459962845,-0.004795287735760212,-0.018483934924006462
1772562370874833200,0.168833251953125,0.03690209239721298,0.011741344816982746,0.006993194576352835
1772562370884900000,0.178900146484375,0.03741768002510071,0.04614485800266266,0.03206312656402588
1772562370894967000,0.188967041015625,0.03705309331417084,0.04553952068090439,0.04604472219944
1772562370905034000,0.199033935546875,0.05233031511306763,0.010844125412404537,0.04477892443537712
1772562370915102000,0.20910205078125,0.06978441029787064,-0.017532387748360634,0.04597121849656105
1772562370925169000,0.2191689453125,0.08298010379076004,-0.017424795776605606,0.04868418350815773
1772562370935236000,0.229236083984375,0.08332578092813492,0.0037926076911389828,0.05102190375328064
1772562370945303000,0.239302978515625,0.08374150097370148,0.005613677203655243,0.0522347092628479
1772562370955371300,0.249371337890625,0.08188874274492264,-0.0016937704058364034,0.056296560913324356
1772562370965438200,0.259438232421875,0.07739785313606262,0.012991165742278099,0.06756412982940674
1772562370975505200,0.269505126953125,0.05891205370426178,0.03551218658685684,0.07956700026988983
1772562370985572000,0.279572021484375,0.029048696160316467,0.028785575181245804,0.0845167487859726
1772562370995640000,0.28964013671875,0.0002426139690214768,0.021559620276093483,0.09565914422273636
1772562371005707000,0.29970703125,-0.02563878335058689,0.0022442457266151905,0.10725828260183334
1772562371015774000,0.30977392578125,-0.03870372101664543,-0.026344256475567818,0.116568423807621
1772562371025841000,0.3198408203125,-0.04194558411836624,-0.041734661906957626,0.12012134492397308
1772562371035908900,0.329908935546875,-0.03939933702349663,-0.0591978095471859,0.11662808060646057
1772562371045976000,0.33997607421875,-0.022592926397919655,-0.047802943736314774,0.11092651635408401
1772562371056043300,0.350043212890625,-0.007556453347206116,-0.015985092148184776,0.1122269406914711
1772562371066110200,0.360110107421875,-0.0037236318457871675,0.01269928365945816,0.1216537281870842
1772562371076178200,0.37017822265625,-0.0029997846577316523,0.03603550046682358,0.14615987241268158
1772562371086245000,0.3802451171875,0.0023209447972476482,0.04003343731164932,0.19712558388710022
1772562371096312000,0.39031201171875,0.012299276888370514,0.014448980800807476,0.2686988413333893
1772562371106379000,0.40037890625,0.024632109329104424,-0.041134387254714966,0.35814350843429565
1772562371116447000,0.410447021484375,0.030703583732247353,-0.10801488161087036,0.45892977714538574
1772562371126514000,0.420513916015625,0.02599404938519001,-0.14577051997184753,0.5502000451087952
1772562371136580900,0.430580810546875,-0.0031875374261289835,-0.13469628989696503,0.6048696637153625
1772562371146648000,0.44064794921875,-0.02731577679514885,-0.06582774966955185,0.6344701647758484
1772562371156716000,0.450716064453125,-0.034935612231492996,-0.0008000136003829539,0.6447235941886902
1772562371166783000,0.460782958984375,-0.03572577238082886,0.12335016578435898,0.6559461355209351
1772562371176850200,0.47085009765625,-0.019841881468892097,0.27989450097084045,0.6757073402404785
1772562371186917000,0.480917236328125,0.02887692116200924,0.47974875569343567,0.7349099516868591
1772562371196985000,0.490985107421875,0.11083810031414032,0.6347340941429138,0.8502820730209351
1772562371207052000,0.501052001953125,0.2182369977235794,0.7535930871963501,1.0478241443634033
1772562371217119000,0.511118896484375,0.3087266683578491,0.8140801191329956,1.2942043542861938
1772562371227186000,0.52118603515625,0.3739003539085388,0.7591979503631592,1.5387898683547974
1772562371237254100,0.531254150390625,0.3881392180919647,0.6460940837860107,1.7638922929763794
1772562371247321000,0.541321044921875,0.3509249985218048,0.5169835090637207,1.9764748811721802
1772562371257388000,0.551387939453125,0.27198678255081177,0.4066532552242279,2.1516404151916504
1772562371267455000,0.561455078125,0.16321128606796265,0.3087916672229767,2.2785699367523193
1772562371277523000,0.57152294921875,0.052207544445991516,0.1895614117383957,2.3243260383605957
1772562371287590100,0.581590087890625,-0.04634859040379524,0.08310899883508682,2.3053619861602783
1772562371297657000,0.591656982421875,-0.1167210265994072,-0.0358717143535614,2.235572338104248
1772562371307724000,0.60172412109375,-0.172634094953537,-0.11778336018323898,2.1076643466949463
1772562371317792000,0.6117919921875,-0.21761301159858704,-0.136582612991333,1.9191817045211792
1772562371327859200,0.621859130859375,-0.23131045699119568,-0.051478903740644455,1.7040201425552368
1772562371337926100,0.631926025390625,-0.20932552218437195,0.08055609464645386,1.457289457321167
1772562371347993000,0.6419931640625,-0.16278252005577087,0.21209122240543365,1.1886290311813354
1772562371358061000,0.65206103515625,-0.09700297564268112,0.33932560682296753,0.9341000318527222
1772562371368128000,0.6621279296875,-0.034802187234163284,0.43727508187294006,0.7027019262313843
1772562371378195000,0.67219482421875,0.026750121265649796,0.4971466660499573,0.49402356147766113
1772562371388262100,0.68226220703125,0.07687374204397202,0.5107285380363464,0.31259864568710327
1772562371398329900,0.692329833984375,0.10496369749307632,0.47341495752334595,0.1605774313211441
1772562371408397000,0.70239697265625,0.1076769307255745,0.4301529824733734,0.03410071134567261
1772562371418464000,0.712464111328125,0.09262367337942123,0.17378351092338562,-0.11763182282447815
1772562371428531700,0.72253173828125,0.09095973521471024,-0.008656871505081654,-0.21600820124149323
1772562371438599700,0.732599609375,0.07334345579147339,-0.04330353066325188,-0.27466750144958496
1772562371448666600,0.74266650390625,0.054060839116573334,-0.08639640361070633,-0.3102710545063019
1772562371458733600,0.752733642578125,0.0415961779654026,-0.21404704451560974,-0.35477566719055176
1772562371468800500,0.762800537109375,0.04776006564497948,-0.33716869354248047,-0.4111419916152954
1772562371478868500,0.772868408203125,0.07004886120557785,-0.4148496687412262,-0.5035944581031799
1772562371488935700,0.782935791015625,0.09929942339658737,-0.48654407262802124,-0.6467430591583252
1772562371499002600,0.793002685546875,0.13544437289237976,-0.5190460681915283,-0.8351510763168335
1772562371509069600,0.803069580078125,0.19250419735908508,-0.4774762988090515,-1.0227851867675781
1772562371519137500,0.813137451171875,0.25718066096305847,-0.2584587037563324,-1.1630163192749023
1772562371529204500,0.82320458984375,0.27107757329940796,-0.01312245987355709,-1.2406623363494873
1772562371539271700,0.833271728515625,0.20373688638210297,0.16728326678276062,-1.2863658666610718
1772562371549338600,0.843338623046875,0.07793820649385452,0.25728532671928406,-1.301042079925537
1772562371559406600,0.853406494140625,-0.04971349239349365,0.27128130197525024,-1.2721941471099854
1772562371569473500,0.8634736328125,-0.14773699641227722,0.19004850089550018,-1.2122358083724976
1772562371579540500,0.87354052734375,-0.19879698753356934,0.06424956023693085,-1.1216152906417847
1772562371589607700,0.883607666015625,-0.20751164853572845,-0.097086600959301,-1.0109167098999023
1772562371599675600,0.893675537109375,-0.1728908121585846,-0.3257155120372772,-0.9057791829109192
1772562371609742600,0.90374267578125,-0.0888289362192154,-0.4930030405521393,-0.8205614686012268
1772562371619809500,0.9138095703125,0.022777484729886055,-0.43588703870773315,-0.7097840905189514
1772562371629876700,0.923876708984375,0.10531310737133026,-0.27476072311401367,-0.5811315774917603
1772562371639944400,0.9339443359375,0.11174224317073822,-0.14872023463249207,-0.4759976863861084
1772562371650011600,0.94401171875,0.04415521025657654,-0.07592113316059113,-0.3893778622150421
1772562371660078600,0.95407861328125,-0.036740437150001526,-0.08140670508146286,-0.3360368609428406
1772562371670145500,0.9641455078125,-0.1001654788851738,-0.1815338432788849,-0.326028972864151
1772562371680213800,0.9742138671875,-0.14017708599567413,-0.3239453136920929,-0.3694925606250763
1772562371690280700,0.98428076171875,-0.14114327728748322,-0.4252317249774933,-0.44376227259635925
1772562371700347600,0.99434765625,-0.1118847206234932,-0.3783379793167114,-0.49771443009376526
1772562371710414600,1.00441455078125,-0.07739438861608505,-0.29961973428726196,-0.5423581004142761
1772562371720482600,1.014482666015625,-0.06065376102924347,-0.22547119855880737,-0.5847545266151428
1772562371730549500,1.024549560546875,-0.050196323543787,-0.11783955246210098,-0.6062877774238586
1772562371740616400,1.034616455078125,-0.04477332904934883,-0.013849502429366112,-0.6071290969848633
1772562371750683600,1.04468359375,-0.04481381177902222,0.05445631593465805,-0.5906728506088257
1772562371760751400,1.05475146484375,-0.04944371432065964,0.07149602472782135,-0.554701566696167
1772562371770818800,1.06481884765625,-0.06934817880392075,0.028600752353668213,-0.5070458650588989
1772562371780885800,1.0748857421875,-0.08672451227903366,-0.07812782377004623,-0.4621404707431793
1772562371790952700,1.08495263671875,-0.09392649680376053,-0.2259950488805771,-0.42678195238113403
1772562371801020700,1.095020751953125,-0.08369915932416916,-0.3032277822494507,-0.3933661878108978
1772562371811087600,1.105087646484375,-0.06646424531936646,-0.300886332988739,-0.35541588068008423
1772562371821154600,1.115154541015625,-0.05656447634100914,-0.23564980924129486,-0.33825233578681946
1772562371831221500,1.125221435546875,-0.05320862680673599,-0.13815361261367798,-0.318485289812088
1772562371841289500,1.13528955078125,-0.05301767960190773,-0.06527248024940491,-0.3084406554698944
1772562371851356400,1.1453564453125,-0.05631067603826523,-0.030349116772413254,-0.31029582023620605
1772562371861423600,1.155423583984375,-0.055333562195301056,-0.005134574603289366,-0.3086742162704468
1772562371871490600,1.165490478515625,-0.05120806023478508,0.014154435135424137,-0.3002690076828003
1772562371881558800,1.175558837890625,-0.054364703595638275,-0.009312274865806103,-0.29985782504081726
1772562371891625700,1.185625732421875,-0.06339441984891891,-0.060325127094984055,-0.30079659819602966
1772562371901692700,1.195692626953125,-0.06390787661075592,-0.09875161200761795,-0.2929799556732178
1772562371911759600,1.205759521484375,-0.0647696778178215,-0.13321344554424286,-0.2777317464351654
1772562371921827600,1.21582763671875,-0.06339814513921738,-0.13405713438987732,-0.2655608355998993
1772562371931894500,1.22589453125,-0.051601141691207886,-0.09075520187616348,-0.23950552940368652
1772562371941961500,1.23596142578125,-0.04038870334625244,-0.05054439976811409,-0.22694340348243713
1772562371952028400,1.2460283203125,-0.0336730070412159,-0.0294343214482069,-0.22493484616279602
1772562371962095600,1.256095703125,-0.02418603003025055,0.0017768610268831253,-0.22630690038204193
1772562371972163600,1.26616357421875,-0.014435398392379284,0.045943524688482285,-0.22214332222938538
1772562371982230800,1.276230712890625,-0.017377657815814018,0.07523936033248901,-0.20484980940818787
1772562371992297700,1.286297607421875,-0.02995922975242138,0.0847788006067276,-0.18369606137275696
1772562372002364700,1.29636474609375,-0.049015212804079056,0.08159153163433075,-0.15780800580978394
1772562372012432600,1.3064326171875,-0.059840962290763855,0.06251717358827591,-0.1343708634376526
1772562372022499600,1.31649951171875,-0.05630428344011307,0.03940040245652199,-0.10616718232631683
1772562372032566500,1.32656640625,-0.04590011388063431,0.010500311851501465,-0.06753882765769958
1772562372042634500,1.336634521484375,-0.03831383213400841,-0.014168016612529755,-0.0324556790292263
1772562372052701700,1.34670166015625,-0.036386504769325256,-0.030482808127999306,-0.004824049770832062
1772562372062768600,1.3567685546875,-0.03261493518948555,-0.03200853243470192,0.01920192316174507
1772562372072835600,1.366835693359375,-0.0233474001288414,-0.03791728988289833,0.03994075953960419
1772562372082902800,1.37690283203125,-0.018981946632266045,-0.034026674926280975,0.04861760139465332
1772562372092970500,1.386970458984375,-0.021159879863262177,-0.015780560672283173,0.047387223690748215
1772562372103037700,1.39703759765625,-0.02635197900235653,-0.0070882695727050304,0.034201912581920624
1772562372113104600,1.407104736328125,-0.02960236743092537,-0.008502674289047718,0.012034558691084385
1772562372123171600,1.417171630859375,-0.031031152233481407,-0.0027390611357986927,-0.003073287894949317
1772562372133239600,1.427239501953125,-0.02335246093571186,-0.00048363005043938756,-0.026283003389835358
1772562372143306500,1.437306396484375,-0.0170290507376194,-0.0054448326118290424,-0.04921441897749901
1772562372153373400,1.44737353515625,-0.01882854849100113,0.00549250328913331,-0.06021620333194733
1772562372163440600,1.457440673828125,-0.021696239709854126,0.035461053252220154,-0.05716155841946602
1772562372173508600,1.467508544921875,-0.02822844125330448,0.03476756811141968,-0.05284004658460617
1772562372183575600,1.477575439453125,-0.028127774596214294,0.005095159634947777,-0.04656830057501793
1772562372193642500,1.487642578125,-0.019459718838334084,-0.015672435984015465,-0.0354972742497921
1772562372203709700,1.497709716796875,-0.0015006912872195244,-0.011471832171082497,-0.019648268818855286
1772562372213777700,1.507777587890625,0.0070525831542909145,-0.01804265007376671,-0.018990201875567436
1772562372223844600,1.5178447265625,0.0073804184794425964,-0.02322143316268921,-0.027097929269075394
1772562372233911600,1.52791162109375,0.0075820195488631725,0.008381767198443413,-0.018318818882107735
1772562372243979800,1.537979736328125,-0.00021678130724467337,0.031381092965602875,-0.016144348308444023
1772562372254046700,1.548046630859375,-0.01642824150621891,0.014138721860945225,-0.021196631714701653
1772562372264113700,1.55811376953125,-0.022664565593004227,-0.014810637570917606,-0.02802923694252968
1772562372274180600,1.5681806640625,-0.014545120298862457,-0.0041036647744476795,-0.03201039880514145
1772562372284248600,1.57824853515625,-0.006344981025904417,0.01629934459924698,-0.023736754432320595
1772562372294315500,1.5883154296875,-0.003049053018912673,0.007730624172836542,-0.021015003323554993
1772562372304382500,1.598382568359375,-0.008792160078883171,-0.006983607076108456,-0.013585050590336323
1772562372314449700,1.60844970703125,0.0007214503129944205,-0.009103217162191868,-0.003787281457334757
1772562372324516600,1.6185166015625,0.016563264653086662,-0.014554175548255444,-0.006945257540792227
1772562372334584800,1.628584716796875,0.026102440431714058,-0.02773229591548443,-0.004237888380885124
1772562372344651800,1.63865185546875,0.036316994577646255,-0.022774554789066315,-0.013148559257388115
1772562372354718700,1.64871875,0.039075762033462524,-0.00974583812057972,-0.012675048783421516
1772562372364786700,1.65878662109375,0.025794312357902527,0.006322877015918493,-0.01435017678886652
1772562372374853600,1.668853515625,0.007218498270958662,0.02587047964334488,-0.010478206910192966
1772562372384920600,1.678920654296875,-0.008831041865050793,0.026329342275857925,-0.009921872988343239
1772562372394987500,1.688987548828125,-0.01666872575879097,-0.009149556048214436,-0.006107160821557045
1772562372405055500,1.699055419921875,-0.010236391797661781,-0.033010948449373245,-0.004193679895251989
1772562372415122400,1.709122314453125,0.007813448086380959,-0.013320332393050194,0.0008633967954665422
1772562372425189400,1.719189453125,0.008459264412522316,0.010614560917019844,0.007811317685991526
1772562372435256000,1.729256103515625,0.004904743749648333,0.00960042979568243,0.0052024852484464645
1772562372445324000,1.739323974609375,-0.0008799084462225437,-0.0033747577108442783,-0.0027603665366768837
1772562372455391000,1.749390869140625,-0.0041406829841434956,-0.010500311851501465,-0.007954595610499382
1772562372465458000,1.7594580078125,-0.006930610164999962,-0.014142450876533985,-0.0068358019925653934
1772562372475524900,1.76952490234375,-0.013847372494637966,-0.023814518004655838,-0.014074273407459259
1772562372485591800,1.779591796875,-0.012910472229123116,-0.010304835624992847,-0.017491109669208527
1772562372495659800,1.78965966796875,-0.012732572853565216,0.008508266881108284,-0.016512930393218994
1772562372505726700,1.799726806640625,-0.01630333997309208,0.010027866810560226,-0.023256853222846985
1772562372515794000,1.8097939453125,-0.01721280813217163,0.00771784083917737,-0.03239016234874725
1772562372525862000,1.81986181640625,-0.017882859334349632,0.01236532349139452,-0.029232453554868698
1772562372535929000,1.82992919921875,-0.018331335857510567,0.011539743281900883,-0.025065671652555466
1772562372545996000,1.83999609375,-0.01950632408261299,0.01576458103954792,-0.025238245725631714
1772562372556063000,1.85006298828125,-0.014708106406033039,0.012508068233728409,-0.02141927182674408
1772562372566131000,1.860130859375,-0.010776215232908726,0.00555269094184041,-0.021579593420028687
1772562372576198000,1.870197998046875,-0.006018477492034435,-0.01245187595486641,-0.031259916722774506
1772562372586264800,1.880264892578125,0.003070624778047204,-0.02630697190761566,-0.04103611782193184
1772562372596331800,1.890331787109375,0.009371929802000523,-0.024323714897036552,-0.051662661135196686
1772562372606400000,1.90039990234375,0.007464041467756033,-0.00791251752525568,-0.05564754828810692
1772562372616467000,1.910467041015625,0.0037707698065787554,0.014190121553838253,-0.05711175501346588
1772562372626534000,1.920533935546875,-0.0022626216523349285,0.02249998226761818,-0.05098888278007507
1772562372636601000,1.93060107421875,-0.003126284806057811,0.01528654433786869,-0.04448331147432327
1772562372646668800,1.940668701171875,0.002273007994517684,-0.0005017395596951246,-0.028546156361699104
1772562372656736000,1.950736083984375,0.004041080828756094,-0.017313210293650627,-0.015142734162509441
1772562372666803000,1.960802978515625,0.00902838259935379,-0.03562963381409645,-0.005848834291100502
1772562372676870000,1.970869873046875,0.010007360018789768,-0.0419975183904171,-0.0020817930344492197
1772562372686938000,1.980938232421875,0.011799401603639126,-0.03749517723917961,-0.006481068674474955
1772562372697005000,1.991005126953125,0.008723982609808445,-0.028914205729961395,-0.019689282402396202
1772562372707072000,2.001072021484375,0.006307963281869888,-0.013529391027987003,-0.035225629806518555
1772562372717139000,2.011138916015625,0.0021283982787281275,-0.005899967160075903,-0.04226196929812431
1772562372727207000,2.02120703125,-0.00615190202370286,-0.008675513789057732,-0.04659093916416168
1772562372737273900,2.03127392578125,-0.012560532428324223,-0.012498747557401657,-0.054076019674539566
1772562372747340800,2.0413408203125,-0.007844873704016209,-0.014010890386998653,-0.050148122012615204
1772562372757408000,2.051407958984375,0.0027001791168004274,-0.002728142309933901,-0.05160833150148392
1772562372767476000,2.06147607421875,0.007881625555455685,0.01853027381002903,-0.044315800070762634
1772562372777543000,2.07154296875,0.00914209894835949,0.03146418184041977,-0.031144071370363235
1772562372787609900,2.08160986328125,-0.0017148094484582543,0.02636129967868328,-0.013859356753528118
1772562372797677000,2.091677001953125,-0.015232748351991177,0.024227574467658997,0.0035603800788521767
1772562372807745000,2.1017451171875,-0.022531408816576004,0.011003648862242699,0.018085792660713196
1772562372817812000,2.11181201171875,-0.03086603619158268,-0.00213665422052145,0.03265061974525452
1772562372827879000,2.12187890625,-0.03405890241265297,-0.012717659585177898,0.047627974301576614
1772562372837945900,2.13194580078125,-0.03766801580786705,-0.01720721647143364,0.05264989659190178
1772562372848013800,2.142013916015625,-0.04441779851913452,-0.017173128202557564,0.052204880863428116
1772562372858080800,2.152080810546875,-0.046058040112257004,-0.007617439609020948,0.03801742196083069
1772562372868148000,2.16214794921875,-0.042571429163217545,-0.0015848471084609628,0.013797304593026638
1772562372878215000,2.17221484375,-0.03548795357346535,0.006573746912181377,-0.010496582835912704
1772562372888283100,2.182283203125,-0.018744125962257385,0.02695438638329506,-0.030115025117993355
1772562372898350000,2.19235009765625,-0.009844907559454441,0.05102190375328064,-0.04146302118897438
1772562372908417000,2.2024169921875,-0.007685882970690727,0.05902550369501114,-0.052618470042943954
1772562372918484000,2.21248388671875,-0.015607722103595734,0.058933891355991364,-0.0580153651535511
1772562372928552000,2.222552001953125,-0.019115637987852097,0.028170917183160782,-0.05850831791758537
1772562372938619000,2.232618896484375,-0.026399916037917137,-0.02454768680036068,-0.0600617378950119
1772562372948685800,2.242685791015625,-0.018521485850214958,-0.05445392057299614,-0.05218464136123657
1772562372958752800,2.252752685546875,-0.008682703599333763,-0.043234288692474365,-0.03832368552684784
1772562372968821000,2.262821044921875,-0.011530954390764236,-0.018989669159054756,-0.025733858346939087
1772562372978888000,2.272887939453125,-0.012693691067397594,0.00070520507870242,-0.018913770094513893
1772562372988955100,2.282955078125,-0.01690707728266716,0.004041879437863827,-0.0075665730983018875
1772562372999022000,2.29302197265625,-0.02106880024075508,-0.019774504005908966,-0.0025414545089006424
1772562373009090000,2.303090087890625,-0.02750246413052082,-0.054898668080568314,-0.008162322454154491
1772562373019157000,2.313156982421875,-0.029742183163762093,-0.06115363538265228,-0.019234947860240936
1772562373029224000,2.323223876953125,-0.02845454402267933,-0.040409207344055176,-0.03400830179452896
1772562373039291000,2.333290771484375,-0.018268486484885216,-0.01227584108710289,-0.054917044937610626
1772562373049358800,2.34335888671875,-0.006359628401696682,0.016227705404162407,-0.06830795109272003
1772562373059425800,2.35342578125,-0.002522546099498868,0.03867335990071297,-0.0709862932562828
1772562373069492700,2.36349267578125,-0.0025893915444612503,0.03656600043177605,-0.058819107711315155
1772562373079560000,2.373559814453125,-0.008044078014791012,0.022471221163868904,-0.04710546135902405
1772562373089628000,2.3836279296875,-0.010514692403376102,0.010088054463267326,-0.02593279629945755
1772562373099694800,2.39369482421875,-0.006986004300415516,0.0011486213188618422,-0.009236108511686325
1772562373109762000,2.403761962890625,-0.0034434671979397535,-0.0011137339752167463,0.005004345905035734
1772562373119829000,2.4138291015625,-0.002368881832808256,0.004221110139042139,0.016039153560996056
1772562373129897000,2.42389697265625,-0.0038892803713679314,0.008531436324119568,0.013530989177525043
1772562373139964000,2.4339638671875,-0.006217149551957846,0.008747152984142303,0.012679842300713062
1772562373150030800,2.44403076171875,0.0019419770687818527,0.013697968795895576,0.009517871774733067
1772562373160097800,2.454097900390625,0.005196892656385899,0.01769058033823967,0.008858206681907177
1772562373170166000,2.464166015625,0.012280634604394436,0.009697634726762772,0.0034751589410007
1772562373180233000,2.47423291015625,0.021095432341098785,-0.00899722333997488,0.0003531351685523987
1772562373190300000,2.4842998046875,0.032876189798116684,-0.027456125244498253,-0.009199890308082104
1772562373200366800,2.494366943359375,0.03917510062456131,-0.02076679654419422,-0.02293327823281288
1772562373210434800,2.504434814453125,0.04313388839364052,0.001841575838625431,-0.03140319511294365
1772562373220502000,2.514501953125,0.04115835577249527,0.02779887430369854,-0.033739589154720306
1772562373230569000,2.52456884765625,0.04249526187777519,0.032825589179992676,-0.035599805414676666
1772562373240636000,2.534635986328125,0.04079989343881607,0.015267103910446167,-0.03880491852760315
1772562373250704000,2.544703857421875,0.040829721838235855,-0.006945523899048567,-0.034201379865407944
1772562373260771000,2.55477099609375,0.03514706715941429,-0.015147261321544647,-0.03773459419608116
1772562373270838000,2.564838134765625,0.02430667169392109,-0.005538309924304485,-0.03789198771119118
1772562373280905000,2.574905029296875,0.022218486294150352,0.0013648699969053268,-0.04243906959891319
1772562373290973000,2.584972900390625,0.023997211828827858,0.0010237190872430801,-0.048648495227098465
1772562373301039900,2.595039794921875,0.027035346254706383,-0.007791876792907715,-0.05313485860824585
1772562373311106800,2.60510693359375,0.03531458228826523,-0.01233176700770855,-0.06473159044981003
1772562373321174000,2.615174072265625,0.039977509528398514,0.0021515677217394114,-0.06799396127462387
1772562373331241700,2.62524169921875,0.03851410374045372,0.02551707811653614,-0.06707410514354706
1772562373341309000,2.635308837890625,0.03135525807738304,0.03966299071907997,-0.05687819793820381
1772562373351376000,2.6453759765625,0.021323664113879204,0.03326714411377907,-0.04428304359316826
1772562373361443000,2.655443115234375,0.005367068573832512,0.013635651208460331,-0.024223847314715385
1772562373371511000,2.665510986328125,-0.005557750817388296,-0.0013254552613943815,-0.007126885466277599
1772562373381578000,2.675577880859375,-0.012675581499934196,-0.009572199545800686,0.008245945908129215
1772562373391645000,2.68564501953125,-0.016338493674993515,-0.013746172189712524,0.016558470204472542
1772562373401713000,2.695712890625,-0.0133850472047925,-0.026684874668717384,0.015352324582636356
1772562373411779800,2.70577978515625,-0.008904811926186085,-0.04236236959695816,0.009094694629311562
1772562373421846800,2.7158466796875,-0.00020373181905597448,-0.02719806507229805,0.0008303736103698611
1772562373431914000,2.7259140625,0.007167099043726921,-0.003856523660942912,-0.006735134404152632
1772562373441982000,2.73598193359375,-0.0000399474156438373,0.02129756473004818,-0.015141402371227741
1772562373452049000,2.746048828125,-0.003977963700890541,0.029924608767032623,-0.016933975741267204
1772562373462116000,2.7561162109375,-0.008596683852374554,0.02136760577559471,-0.014946991577744484
1772562373472183000,2.76618310546875,-0.013002084568142891,-0.00691969133913517,-0.009490174241364002
1772562373482251300,2.776251220703125,-0.013938452117145061,-0.0354357548058033,-0.004714327864348888
1772562373492318200,2.786318115234375,-0.007446730975061655,-0.03370470181107521,0.00401684595271945
1772562373502385200,2.79638525390625,-0.0015691345324739814,-0.008383897133171558,0.018704179674386978
1772562373512452000,2.8064521484375,0.007498396094888449,0.008758338168263435,0.024699486792087555
1772562373522520000,2.81652001953125,0.009417736902832985,-0.001014131703414023,0.022285331040620804
1772562373532587000,2.8265869140625,0.006232063286006451,-0.019477028399705887,0.02268720231950283
1772562373542654000,2.836654052734375,0.007876032963395119,-0.02551761083304882,0.02268427424132824
1772562373552721000,2.846720947265625,0.009664878249168396,-0.016954481601715088,0.009288307279348373
1772562373562788900,2.856788818359375,0.014150439761579037,0.002597647253423929,0.005634449888020754
1772562373572856000,2.86685595703125,0.01944480463862419,0.02041020058095455,0.004228034522384405
1772562373582923300,2.87692333984375,0.018376078456640244,0.014968296512961388,-0.00040986048406921327
1772562373592990200,2.886990234375,0.016401875764131546,-0.0049462891183793545,-0.002644518855959177
1772562373603058200,2.89705810546875,0.007395864464342594,-0.019582489505410194,-0.007089334540069103
1772562373613125000,2.907125,0.0021339908707886934,-0.02219265326857567,-0.006953780073672533
1772562373623192000,2.917192138671875,-0.006392918061465025,-0.017676465213298798,-0.010075537487864494
1772562373633259000,2.927259033203125,-0.0011443602852523327,-0.0003914846747647971,-0.014388793148100376
1772562373643327000,2.937326904296875,0.0005075985100120306,0.01998835615813732,-0.022706111893057823
1772562373653394000,2.947393798828125,0.0072943982668221,0.01883707009255886,-0.023849140852689743
1772562373663460900,2.9574609375,0.010164487175643444,-0.002447977662086487,-0.022181201726198196
1772562373673528000,2.967528076171875,0.008390288800001144,-0.024995630607008934,-0.014140320010483265
1772562373683596000,2.977595947265625,0.007081611547619104,-0.03182131424546242,0.0019201391842216253
1772562373693663200,2.987663330078125,0.005288239102810621,-0.021922608837485313,0.010350908152759075
1772562373703730200,2.997730224609375,-0.00180855265352875,-0.019781161099672318,0.01593662239611149
1772562373713797000,3.007797119140625,-0.007731955498456955,-0.013606090098619461,0.02213726006448269
1772562373723865000,3.017864990234375,-0.010526676662266254,-0.020384900271892548,0.02082645148038864
1772562373733932000,3.02793212890625,-0.01227291114628315,-0.024997228756546974,0.011905928142368793
1772562373743999000,3.0379990234375,-0.014625015668570995,-0.015724368393421173,0.006813697516918182
1772562373754066000,3.04806591796875,-0.010192450135946274,0.010382333770394325,0.00039734362508170307
1772562373764134100,3.058134033203125,-0.01230486948043108,0.03533428907394409,-0.0028394623659551144
1772562373774201000,3.068201171875,-0.025065405294299126,0.03663391247391701,-0.0057066213339567184
1772562373784268000,3.07826806640625,-0.031920116394758224,0.028674522414803505,-0.004863464739173651
1772562373794335200,3.088335205078125,-0.035592082887887955,0.015421300195157528,0.0011102718999609351
1772562373804403000,3.09840283203125,-0.031436484307050705,0.007180148735642433,0.013013004325330257
1772562373814470100,3.10847021484375,-0.02821965329349041,0.0020879183430224657,0.021040569990873337
1772562373824537000,3.118537109375,-0.02900129184126854,-0.0003787015157286078,0.02913098782300949
1772562373834604000,3.12860400390625,-0.03196725249290466,-0.01010882668197155,0.029254291206598282
1772562373844672000,3.138672119140625,-0.03677372634410858,-0.03503361716866493,0.020250143483281136
1772562373854739000,3.148739013671875,-0.041670747101306915,-0.05193057656288147,0.004405933897942305
1772562373864806000,3.158805908203125,-0.03628263995051384,-0.046355247497558594,-0.023033147677779198
1772562373874873000,3.168873046875,-0.028145086020231247,-0.00942253042012453,-0.044864676892757416
1772562373884941000,3.178941162109375,-0.019030949100852013,0.039327964186668396,-0.05860712006688118
1772562373895008000,3.189008056640625,-0.013364807702600956,0.0648980364203453,-0.06761792302131653
1772562373905075200,3.1990751953125,-0.01073946338146925,0.055327970534563065,-0.06324341893196106
1772562373915142100,3.20914208984375,-0.011088870465755463,0.017852500081062317,-0.04373203590512276
1772562373925210000,3.219210205078125,-0.01173175685107708,-0.010520018637180328,-0.019327625632286072
1772562373935277000,3.229277099609375,-0.014224742539227009,-0.02424328774213791,0.0006924218614585698
1772562373945344000,3.239343994140625,-0.021869879215955734,-0.015112107619643211,0.02154017984867096
1772562373955411000,3.249410888671875,-0.026508307084441185,-0.0015728629659861326,0.03441416472196579
1772562373965479200,3.259479248046875,-0.027147464454174042,-0.0038842204958200455,0.041605766862630844
1772562373975546000,3.269546142578125,-0.025601500645279884,-0.0172658059746027,0.04856806993484497
1772562373985613000,3.279613037109375,-0.02117053233087063,-0.03130039945244789,0.04035967215895653
1772562373995681000,3.289680908203125,-0.01769164577126503,-0.04169018939137459,0.027889154851436615
1772562374005748000,3.299748046875,-0.015547001734375954,-0.037765488028526306,0.012555738911032677
1772562374015815000,3.30981494140625,-0.00515827676281333,-0.012044145725667477,-0.010009757243096828
1772562374025882000,3.319882080078125,0.007635282818228006,0.02184244804084301,-0.018617093563079834
1772562374035949800,3.32994970703125,0.014939268119633198,0.04066167399287224,-0.02094842493534088
1772562374046017300,3.340017333984375,0.006647782865911722,0.030703317373991013,-0.01654914952814579
1772562374056084200,3.350084228515625,-0.009406817145645618,0.004466121084988117,-0.010089385323226452
1772562374066151200,3.360151123046875,-0.022875487804412842,-0.02172393724322319,-0.0041065942496061325
1772562374076219100,3.37021923828125,-0.02623453363776207,-0.035537220537662506,-0.0036432044580578804
1772562374086286000,3.3802861328125,-0.023243270814418793,-0.03639715537428856,-0.008699482306838036
1772562374096353000,3.39035302734375,-0.015193866565823555,-0.014444985426962376,-0.012763199396431446
1772562374106420000,3.400419921875,-0.006579872220754623,0.011456119827926159,-0.010070477612316608
1772562374116488000,3.410488037109375,-0.005931925028562546,0.0144724166020751,-0.004809136036783457
1772562374126555000,3.420554931640625,-0.008318116888403893,0.005676527973264456,-0.00018269284919369966
1772562374136622000,3.4306220703125,-0.012459599412977695,0.0010439591715112329,0.002621615771204233
1772562374146689000,3.44068896484375,-0.010819357819855213,-0.005327653605490923,0.008899219334125519
1772562374156757000,3.450757080078125,-0.010953315533697605,-0.012920325621962547,0.010466489009559155
1772562374166824200,3.46082421875,-0.00344506511464715,-0.0023667511995881796,0.013168266043066978
1772562374176891100,3.47089111328125,-0.007150587625801563,0.01190938986837864,0.023439811542630196
1772562374186958000,3.4809580078125,-0.01618189923465252,0.012222311459481716,0.028897961601614952
1772562374197026000,3.491026123046875,-0.023210780695080757,0.004033357370644808,0.040589503943920135
1772562374207093000,3.501093017578125,-0.028188761323690414,-0.015034609474241734,0.041364751756191254
1772562374217160000,3.511159912109375,-0.030438866466283798,-0.03984595090150833,0.043710462749004364
1772562374227227000,3.521226806640625,-0.02640870399773121,-0.04760213941335678,0.029736855998635292
1772562374237295000,3.531295166015625,-0.018073808401823044,-0.03478221595287323,0.02196175791323185
1772562374247362000,3.541362060546875,-0.00030839405371807516,-0.009256615303456783,0.002682868391275406
1772562374257429200,3.55142919921875,0.005147357936948538,0.002670884132385254,-0.002558765234425664
1772562374267496200,3.56149609375,0.0022298647090792656,0.005856823641806841,-0.005375856999307871
1772562374277564200,3.571564208984375,-0.00797430332750082,-0.006250705569982529,-0.005284510552883148
1772562374287631000,3.581631103515625,-0.017551297321915627,-0.027101924642920494,-0.001094559207558632
1772562374297698000,3.591697998046875,-0.022899989038705826,-0.048837047070264816,-0.0028812738601118326
1772562374307765000,3.601764892578125,-0.02333781309425831,-0.05010844022035599,-0.008560731075704098
1772562374317833000,3.6118330078125,-0.025117337703704834,-0.026445722207427025,-0.010038252919912338
1772562374327900200,3.621900146484375,-0.02231436036527157,-0.0070704263634979725,-0.0056922403164207935
1772562374337967000,3.631967041015625,-0.02473437413573265,-0.009400958195328712,-0.006268548313528299
1772562374348034000,3.642033935546875,-0.027716049924492836,-0.03838041052222252,-0.007426224648952484
1772562374358102000,3.65210205078125,-0.027472104877233505,-0.05542144551873207,-0.010101369582116604
1772562374368169000,3.6621689453125,-0.014426343142986298,-0.043590888381004333,-0.010661698877811432
1772562374378236200,3.672236083984375,-0.009328787215054035,-0.009453688748180866,-0.0043622576631605625
1772562374388303000,3.68230322265625,-0.008363391272723675,0.012030829675495625,0.0023100259713828564
1772562374398371000,3.69237109375,-0.01708417758345604,-0.0015198660548776388,0.008798818103969097
1772562374408438000,3.70243798828125,-0.028205538168549538,-0.0311049222946167,0.014244449324905872
1772562374418505000,3.7125048828125,-0.035764388740062714,-0.061049770563840866,0.008562861941754818
1772562374428572000,3.722572021484375,-0.03809891641139984,-0.07188776880502701,0.002320412313565612
1772562374438640400,3.732640380859375,-0.038610510528087616,-0.04705512523651123,-0.0068312743678689
1772562374448707300,3.742707275390625,-0.030597856268286705,-0.00606268597766757,-0.025048628449440002
1772562374458774300,3.752774169921875,-0.019474364817142487,0.03476277366280556,-0.03641313314437866
1772562374468842200,3.76284228515625,-0.0067513794638216496,0.0458977185189724,-0.041315749287605286
1772562374478909200,3.7729091796875,0.0010074737947434187,0.022897591814398766,-0.032952357083559036
1772562374488976100,3.78297607421875,-0.0024517059791833162,-0.017535051330924034,-0.01840590499341488
1772562374499043300,3.793043212890625,-0.002228266792371869,-0.04994252696633339,-0.005233644042164087
1772562374509110300,3.8031103515625,-0.00950988195836544,-0.04817764833569527,0.017139306291937828
1772562374519178500,3.813178466796875,-0.014859640039503574,-0.02424035780131817,0.02352423407137394
1772562374529245400,3.823245361328125,-0.022844595834612846,-0.0032551817130297422,0.03105671890079975
1772562374539312400,3.8333125,-0.01871696300804615,0.005041896365582943,0.034087661653757095
1772562374549380400,3.84338037109375,-0.011991148814558983,0.00020186760229989886,0.032350216060876846
1772562374559447300,3.853447265625,-0.006079730577766895,-0.01871855929493904,0.02346591092646122
1772562374569514200,3.86351416015625,-0.0020682108588516712,-0.027271036058664322,0.009937585331499577
1772562374579581200,3.873581298828125,0.003355582943186164,-0.02225337363779545,-0.00917645450681448
1772562374589649200,3.883649169921875,0.01008033100515604,-0.0049066077917814255,-0.026612969115376472
1772562374599716000,3.893716064453125,0.013022058643400669,0.009631055407226086,-0.04056393727660179
1772562374609783300,3.903783203125,0.01739576831459999,0.01738671399652958,-0.045518215745687485
1772562374619850500,3.9138505859375,0.019270367920398712,0.01780456304550171,-0.04319620504975319
1772562374629918500,3.92391845703125,0.02081340178847313,0.01812094636261463,-0.03476011008024216
1772562374639985400,3.9339853515625,0.019063439220190048,0.010718690231442451,-0.016872722655534744
1772562374650052400,3.94405224609375,0.010584200732409954,-0.005782788153737783,-0.005859220866113901
1772562374660119300,3.954119384765625,0.006710366811603308,-0.015052452683448792,0.009092831052839756
1772562374670187300,3.964187255859375,0.0062368568032979965,-0.015232748351991177,0.02406672015786171
1772562374680254200,3.974254150390625,0.01047607697546482,-0.016144081950187683,0.03449166566133499
1772562374690321200,3.984321044921875,0.013964551500976086,-0.022338328883051872,0.04393842816352844
1772562374700388000,3.99438818359375,0.01762479916214943,-0.024047279730439186,0.04391366243362427
1772562374710456300,4.004456298828125,0.02201741747558117,-0.024887505918741226,0.03653457388281822
1772562374720523300,4.014523193359375,0.019358251243829727,-0.015933159738779068,0.024631842970848083
1772562374730590500,4.024590576171875,0.014591192826628685,0.005530320107936859,0.014830878004431725
1772562374740657400,4.034657470703125,0.011964517645537853,0.013581322506070137,0.00788668543100357
1772562374750725400,4.044725341796875,0.014366422779858112,0.010979946702718735,0.004231496714055538
1772562374760792300,4.054792236328125,0.01546257920563221,0.002376604825258255,0.0041284323669970036
1772562374770859300,4.064859375,0.018400046974420547,-0.002457564929500222,0.011395665816962719
1772562374780926200,4.07492626953125,0.01613023318350315,-0.00500967213883996,0.017418671399354935
1772562374790994400,4.084994384765625,0.010977549478411674,-0.0023406522814184427,0.024533838033676147
1772562374801061400,4.095061279296875,0.004979312419891357,0.007475226651877165,0.03369111940264702
1772562374811128300,4.10512841796875,0.0013393036788329482,0.014991998672485352,0.04409289360046387
1772562374821195300,4.1151953125,-0.000723048229701817,0.008846488781273365,0.057134926319122314
1772562374831263200,4.12526318359375,-0.001449292292818427,-0.005261341109871864,0.06715959310531616
1772562374841330200,4.135330078125,-0.005979062989354134,-0.02864149771630764,0.06456355005502701
1772562374851397400,4.1453974609375,-0.010086456313729286,-0.033916156738996506,0.06055788695812225
1772562374861464300,4.15546435546875,-0.004444282967597246,-0.02491626888513565,0.048818670213222504
1772562374871532300,4.1655322265625,0.0021840583067387342,-0.019881829619407654,0.034560639411211014
1772562374881599200,4.17559912109375,0.017284180968999863,-0.01605965942144394,0.01230593491345644
1772562374891666400,4.18566650390625,0.026195384562015533,-0.008163121528923512,-0.0010636665392667055
1772562374901733400,4.1957333984375,0.029448702931404114,-0.003570766421034932,-0.013435381464660168
1772562374911801300,4.20580126953125,0.02575170248746872,0.004714061506092548,-0.022358568385243416
1772562374921868300,4.215868408203125,0.012112589552998543,0.022366292774677277,-0.020983045920729637
1772562374931935200,4.225935302734375,0.0016250609187409282,0.022779613733291626,-0.01618136651813984
1772562374942002200,4.236002197265625,-0.0012335762148723006,0.01852335035800934,-0.0009054747642949224
1772562374952070100,4.246070068359375,-0.0020090886391699314,0.003881557146087289,0.01014185044914484
1772562374962137300,4.256137451171875,0.001038366463035345,-0.009679525159299374,0.024295486509799957
1772562374972204300,4.266204345703125,0.004278901033103466,-0.012076104059815407,0.03816549479961395
1772562374982271200,4.276271240234375,0.0020327907986938953,-0.01709722727537155,0.050750527530908585
1772562374992339500,4.28633935546875,-0.0023060310631990433,-0.03566691651940346,0.04699520394206047
1772562375002406400,4.296406494140625,-0.001549693406559527,-0.058640677481889725,0.03380749747157097
1772562375012473300,4.306473388671875,0.0038448055274784565,-0.07291814684867859,0.01932149939239025
1772562375022540300,4.316540283203125,0.003974235150963068,-0.05564781650900841,-0.006900516804307699
1772562375032608300,4.326608154296875,0.008374310098588467,-0.0010021475609391928,-0.03176405653357506
1772562375042675200,4.33667529296875,0.009428123012185097,0.052671998739242554,-0.04085874930024147
1772562375052742100,4.3467421875,0.006118346471339464,0.06187721714377403,-0.04679733142256737
1772562375062810400,4.356810302734375,0.007391870021820068,0.034621626138687134,-0.03833966702222824
1772562375072877300,4.366877197265625,0.012646819464862347,-0.0066650933586061,-0.020534303039312363
1772562375082944500,4.376944580078125,0.012280101887881756,-0.03730156645178795,-0.0032320122700184584
1772562375093011500,4.387011474609375,0.007391870021820068,-0.034506313502788544,0.016276974231004715
1772562375103079400,4.397079345703125,0.005870139691978693,-0.0005901564727537334,0.029582925140857697
1772562375113146400,4.407146484375,-0.00031638352083973587,0.027589283883571625,0.037934333086013794
1772562375123213300,4.41721337890625,-0.007958590984344482,0.024029968306422234,0.04806233569979668
1772562375133280300,4.4272802734375,-0.017587250098586082,-0.006091182120144367,0.04868338257074356
1772562375143348200,4.43734814453125,-0.019935624673962593,-0.02521401084959507,0.043649476021528244
1772562375153415200,4.447415283203125,-0.015543273650109768,-0.02094096876680851,0.039392679929733276
1772562375163482000,4.457482177734375,-0.004546015989035368,-0.005358546506613493,0.03690369054675102
1772562375173549300,4.46754931640625,-0.0008996158139780164,0.01248330157250166,0.034685540944337845
1772562375183617300,4.4776171875,-0.006359894759953022,0.0037113812286406755,0.030529679730534554
1772562375193684200,4.487684326171875,-0.01691187173128128,-0.009849701076745987,0.03154434263706207
1772562375203751400,4.49775146484375,-0.02117399498820305,-0.012946691364049911,0.030731014907360077
1772562375213818400,4.507818359375,-0.021103953942656517,-0.006139385048300028,0.02575969137251377
1772562375223886300,4.51788623046875,-0.018021345138549805,-0.0007803061744198203,0.025072064250707626
1772562375233953300,4.527953369140625,-0.010085390880703926,-0.00469621829688549,0.018699118867516518
1772562375244020200,4.538020263671875,-0.009189236909151077,-0.015416240319609642,0.016579775139689445
1772562375254087200,4.548087158203125,-0.013189571909606457,-0.020384633913636208,0.01667751371860504
1772562375264155400,4.5581552734375,-0.019120963290333748,-0.010206032544374466,0.016620522364974022
1772562375274222300,4.568222412109375,-0.02468084543943405,0.014897190034389496,0.02136041596531868
1772562375284289300,4.578289306640625,-0.029799973592162132,0.03352014347910881,0.022479742765426636
1772562375294356200,4.588356201171875,-0.029269471764564514,0.023932229727506638,0.021451761946082115
1772562375304424200,4.598424072265625,-0.028971197083592415,-0.0018453042721375823,0.01417494099587202
1772562375314491400,4.608491455078125,-0.02616795524954796,-0.019957728683948517,0.011974637396633625
1772562375324558300,4.618558349609375,-0.0290023572742939,-0.023745009675621986,0.008025169372558594
1772562375334625300,4.628625244140625,-0.02557007409632206,-0.019213641062378883,0.003689543344080448
1772562375344693500,4.638693603515625,-0.01619335077702999,-0.0037880802992731333,-0.0018887137994170189
1772562375354760400,4.648760498046875,-0.007874168455600739,0.006436061579734087,-0.0054999603889882565
1772562375364827400,4.658827392578125,0.00021891183860134333,0.006897853687405586,-0.010310960933566093
1772562375374894300,4.668894287109375,0.0033997914288192987,-0.007638745009899139,-0.022733541205525398
1772562375384962300,4.67896240234375,0.005847236607223749,-0.024395087733864784,-0.029709959402680397
1772562375395029200,4.689029296875,0.006676012184470892,-0.01613742485642433,-0.03460697829723358
1772562375405096200,4.69909619140625,0.0046610645949840546,-0.0012697952333837748,-0.03308871015906334
1772562375415163400,4.709163330078125,0.0049494849517941475,0.01266839075833559,-0.031322769820690155
1772562375425231000,4.719231201171875,-0.0023158849216997623,0.01013599056750536,-0.02196255698800087
1772562375435298000,4.729298095703125,-0.007835285738110542,-0.0005006743012927473,-0.019992882385849953
1772562375445365000,4.739364990234375,-0.0017944378778338432,-0.006764162797480822,-0.014522217214107513
1772562375455432000,4.749431884765625,0.004460794851183891,-0.008982841856777668,-0.006037386134266853
1772562375465500000,4.7595,0.006423011887818575,-0.0033212280832231045,0.003037867834791541
1772562375475566800,4.76956689453125,0.008356466889381409,0.007134342100471258,0.005170527379959822
1772562375485633000,4.779633056640625,0.009016398340463638,0.0037883466575294733,0.007901598699390888
1772562375495700000,4.789699951171875,0.00965555664151907,-0.0004340952436905354,0.009550361894071102
1772562375505767000,4.799766845703125,0.006871754303574562,-0.0005430185701698065,0.0012128035305067897
1772562375515835100,4.809835205078125,0.00669412175193429,-0.008812133222818375,-0.00547386147081852
1772562375525902000,4.819902099609375,0.010275540873408318,-0.0026943201664835215,-0.00564030883833766
1772562375535969000,4.829968994140625,0.016226373612880707,0.013991449028253555,-0.005739910993725061
1772562375546037000,4.840037109375,0.016581106930971146,0.02389361523091793,-0.005459746345877647
1772562375556104000,4.85010400390625,0.012446283362805843,0.026824424043297768,-0.0054368432611227036
1772562375566171000,4.8601708984375,0.004189152270555496,0.02298627607524395,0.002237321576103568
1772562375576237800,4.87023779296875,-0.011313107796013355,-0.0007022755453363061,0.006986004300415516
1772562375586305000,4.880304931640625,-0.02574797347187996,-0.0362783782184124,0.0010527475969865918
1772562375596372700,4.890372802734375,-0.027089940384030342,-0.05270155891776085,-0.007351389620453119
1772562375606440000,4.90043994140625,-0.02015426941215992,-0.035467978566884995,-0.014698252081871033
1772562375616507000,4.9105068359375,-0.011202853173017502,0.0007632619817741215,-0.02628939412534237
1772562375626575000,4.9205751953125,-0.006601976230740547,0.030062561854720116,-0.03662725165486336
1772562375636642000,4.93064208984375,0.005048021674156189,0.03935592621564865,-0.048294030129909515
1772562375646709000,4.940708984375,0.014057761989533901,0.034689538180828094,-0.05167943984270096
1772562375656776000,4.95077587890625,0.01708764024078846,0.018459700047969818,-0.04176102951169014
1772562375666844000,4.960843994140625,0.01143028773367405,0.009320531040430069,-0.02532399818301201
1772562375676910800,4.970910888671875,0.007190801203250885,0.008116516284644604,-0.013491573743522167
1772562375686977800,4.980977783203125,0.00047590688336640596,0.0056922403164207935,0.005862150341272354
1772562375697044700,4.991044677734375,-0.000945954816415906,-0.011197260580956936,0.020895695313811302
1772562375707113000,5.001113037109375,-0.0027087011840194464,-0.03157949820160866,0.02690751478075981
1772562375717180000,5.011179931640625,-0.0001627191377338022,-0.04783223569393158,0.028805548325181007
1772562375727247000,5.0212470703125,0.008500543422996998,-0.047690555453300476,0.017733190208673477
1772562375737314000,5.03131396484375,0.01350568886846304,-0.019810190424323082,0.010380735620856285
1772562375747382000,5.041382080078125,0.019063439220190048,0.01248330157250166,0.0002561961009632796
1772562375757449000,5.051448974609375,0.011325092054903507,0.027366111055016518,-0.01613476127386093
1772562375767516000,5.061515869140625,0.008039284497499466,0.019897541031241417,-0.023998277261853218
1772562375777582800,5.071582763671875,0.0018895127577707171,-0.0087205208837986,-0.02912379615008831
1772562375787650800,5.08165087890625,-0.000892691605258733,-0.03529966622591019,-0.038845133036375046
1772562375797718000,5.091718017578125,-0.0019044264918193221,-0.03972291201353073,-0.042385540902614594
1772562375807785000,5.101784912109375,0.003316700691357255,-0.036795563995838165,-0.04880668595433235
1772562375817852000,5.111851806640625,0.010374343954026699,-0.02816053107380867,-0.051545482128858566
1772562375827920000,5.121919921875,0.019361181184649467,-0.0040735709480941296,-0.05311994254589081
1772562375837987000,5.131987060546875,0.02419242076575756,0.014300642535090446,-0.0498272106051445
1772562375848054000,5.142053955078125,0.023554861545562744,0.001734783174470067,-0.046607714146375656
1772562375858121000,5.152120849609375,0.013453491032123566,-0.02550935372710228,-0.03660035505890846
1772562375868189000,5.16218896484375,0.011100322008132935,-0.04336851090192795,-0.027043867856264114
1772562375878255900,5.172255859375,0.0129349734634161,-0.038901858031749725,-0.005674663465470076
1772562375888322800,5.18232275390625,0.014784272760152817,-0.02244006097316742,-0.00446825148537755
1772562375898389800,5.1923896484375,0.019887687638401985,-0.0024687503464519978,0.0008109325426630676
1772562375908458000,5.2024580078125,0.024897892028093338,-0.004938565660268068,0.0004463458026293665
1772562375918525000,5.21252490234375,0.03338858112692833,-0.015381885692477226,-0.00236195744946599
1772562375928592000,5.222591796875,0.04538053274154663,-0.02971635013818741,-0.004285824950784445
1772562375938659000,5.2326591796875,0.048642102628946304,-0.03201599046587944,-0.004860268905758858
1772562375948726800,5.242726806640625,0.04631849750876427,-0.025055019184947014,0.0023305322974920273
1772562375958794000,5.2527939453125,0.03394171968102455,-0.012969328090548515,0.006800648290663958
1772562375968861000,5.26286083984375,0.022943930700421333,-0.005564142484217882,0.009561014361679554
1772562375978927900,5.272927978515625,0.022472020238637924,-0.002919090911746025,0.010607103817164898
1772562375988996000,5.28299609375,0.024473385885357857,-0.019833892583847046,0.008134093135595322
1772562375999063000,5.29306298828125,0.03008280135691166,-0.05026157200336456,0.017852500081062317
1772562376009130000,5.3031298828125,0.03941318765282631,-0.0791747123003006,0.03256433457136154
1772562376019197000,5.313197021484375,0.044802092015743256,-0.09901872277259827,0.0480671264231205
1772562376029265000,5.323264892578125,0.037171870470047,-0.09229744225740433,0.04988713189959526
1772562376039331800,5.333331787109375,0.03970533609390259,-0.09881605952978134,0.0521598719060421
1772562376049398800,5.343398681640625,0.04253095015883446,-0.11263520270586014,0.053405433893203735
1772562376059466000,5.353466064453125,0.03226366266608238,-0.07828761637210846,0.05103388801217079
1772562376069534000,5.363533935546875,0.030106503516435623,-0.04098871350288391,0.031435687094926834
1772562376079601000,5.373600830078125,0.03615347668528557,-0.0007946872501634061,0.009905095212161541
1772562376089668000,5.383668212890625,0.03953888639807701,0.028424717485904694,-0.009647301398217678
1772562376099735000,5.393735107421875,0.03385996073484421,0.04566415771842003,-0.022942334413528442
1772562376109803000,5.403802978515625,0.03502749279141426,0.07454746961593628,-0.03261173889040947
1772562376119870000,5.413869873046875,0.053166016936302185,0.05914907529950142,-0.03690182417631149
1772562376129937000,5.42393701171875,0.06282609701156616,0.046911049634218216,-0.03660514950752258
1772562376140003800,5.43400390625,0.05275668948888779,0.029820745810866356,-0.03317393362522125
1772562376150071800,5.44407177734375,0.034143321216106415,0.022399049252271652,-0.019055183976888657
1772562376160138800,5.454138671875,0.01411422062665224,0.0161811001598835,-0.005826996639370918
1772562376170206000,5.4642060546875,0.002463690238073468,-0.002650377806276083,0.0107093695551157
1772562376180273000,5.47427294921875,-0.006743656471371651,-0.0178770013153553,0.025054752826690674
1772562376190341000,5.484341064453125,-0.009621734730899334,-0.025117071345448494,0.029710756614804268
1772562376200408000,5.494407958984375,-0.008117581717669964,-0.020595822483301163,0.0309925377368927
1772562376210475000,5.50447509765625,0.0029622339643538,-0.006148972548544407,0.017908426001667976
1772562376220543000,5.51454296875,0.01751401275396347,0.003528155852109194,0.011257448233664036
1772562376230610000,5.52460986328125,0.028183434158563614,0.007681888062506914,0.000024767397917457856
1772562376240676900,5.5346767578125,0.028534971177577972,0.008300806395709515,-0.012747220695018768
1772562376250743800,5.544743896484375,0.02810433879494667,0.022245118394494057,-0.020294619724154472
1772562376260812000,5.55481201171875,0.023861391469836235,0.035283155739307404,-0.024628646671772003
1772562376270879000,5.56487890625,0.018817096948623657,0.036917272955179214,-0.019942548125982285
1772562376280946000,5.57494580078125,0.014515026472508907,0.026981016620993614,-0.004252535756677389
1772562376291013000,5.58501318359375,0.005840045865625143,0.005408081226050854,-0.0020868529099971056
1772562376301080800,5.595080810546875,-0.000004793690095539205,-0.013426592573523521,0.006703709252178669
1772562376311148000,5.60514794921875,-0.0007451524725183845,-0.02532240003347397,0.0001584580895723775
1772562376321215000,5.615215087890625,0.002123604528605938,-0.02340305969119072,-0.006387059111148119
1772562376331282000,5.625281982421875,0.013709153980016708,-0.011934157460927963,-0.010629208758473396
1772562376341350000,5.635349853515625,0.019241604954004288,0.006582535337656736,-0.010884072631597519
1772562376351416800,5.645416748046875,0.02142779342830181,0.017664480954408646,-0.006738063879311085
1772562376361483800,5.65548388671875,0.01660294458270073,0.013574930839240551,-0.0022000374738126993
1772562376371551000,5.665551025390625,0.010958908125758171,0.005468268413096666,-0.0005544701125472784
1772562376381619000,5.675618896484375,0.010394584387540817,-0.0035569178871810436,0.0036192359402775764
1772562376391686000,5.685685791015625,0.010334663093090057,-0.016146745532751083,-0.007470433134585619
1772562376401752800,5.6957529296875,0.013526727445423603,-0.01938461698591709,-0.01576351746916771
1772562376411820000,5.705820068359375,0.0190165676176548,-0.012094746343791485,-0.02610883302986622
1772562376421888000,5.715887939453125,0.0291147418320179,0.003522030543535948,-0.034456245601177216
1772562376431955000,5.725954833984375,0.03515772148966789,0.016086824238300323,-0.03526557981967926
1772562376442021600,5.736021728515625,0.03590952977538109,0.011864649131894112,-0.024354342371225357
1772562376452088800,5.7460888671875,0.0296122208237648,0.0005334311863407493,-0.015395468100905418
1772562376462156800,5.75615673828125,0.023577231913805008,-0.013104883022606373,-0.0031281490810215473
1772562376472223700,5.7662236328125,0.014596785418689251,-0.012354936450719833,0.00035446672700345516
1772562376482290700,5.776290771484375,0.008683236315846443,-0.004040281753987074,0.0038043255917727947
1772562376492357600,5.786357666015625,0.005271194502711296,0.002746251644566655,0.0006237123161554337
1772562376502425600,5.796425537109375,0.0027395938523113728,0.006965763866901398,-0.0049377670511603355
1772562376512492500,5.806492431640625,0.011973838321864605,-0.004379302263259888,-0.00833862368017435
1772562376522559700,5.816559814453125,0.015419969335198402,-0.016883641481399536,-0.013623933307826519
1772562376532626700,5.826626708984375,0.013731524348258972,-0.009394034743309021,-0.01593608967959881
1772562376542695000,5.83669482421875,0.0041609229519963264,0.013943778350949287,-0.016691895201802254
1772562376552761900,5.846761962890625,-0.00484189298003912,0.030839938670396805,-0.012072108685970306
1772562376562828800,5.856828857421875,-0.009757822379469872,0.035889290273189545,-0.005764412228018045
1772562376572895700,5.866895751953125,-0.006968161091208458,0.02996562235057354,0.00887791346758604
1772562376582963700,5.876963623046875,-0.006532734259963036,0.010359164327383041,0.018493523821234703
1772562376593030700,5.88703076171875,-0.006165218073874712,-0.009286709129810333,0.0158881526440382
1772562376603097600,5.89709765625,-0.010987670160830021,-0.017348896712064743,0.016226107254624367
1772562376613164500,5.90716455078125,-0.014256167225539684,-0.013792511075735092,0.0070435283705592155
1772562376623232500,5.917232421875,-0.014681207947432995,-0.00675351032987237,-0.0021550299134105444
1772562376633299700,5.9272998046875,-0.011443602852523327,0.004508997779339552,-0.010032393969595432
1772562376643367000,5.937366943359375,-0.008292817510664463,0.004217382054775953,-0.02104989066720009
1772562376653433900,5.947433837890625,-0.010096842423081398,0.006471215281635523,-0.03261786326766014
1772562376663501800,5.957501708984375,-0.009988718666136265,0.01004837267100811,-0.04109497368335724
1772562376673568800,5.96756884765625,-0.010396980680525303,0.022720225155353546,-0.03770902752876282
1772562376683635700,5.9776357421875,-0.016030898317694664,0.030842334032058716,-0.021377194672822952
1772562376693702700,5.98770263671875,-0.023992417380213737,0.017560884356498718,-0.014087323099374771
1772562376703770600,5.9977705078125,-0.030822360888123512,0.0023350596893578768,-0.0032107068691402674
1772562376713837600,6.007837646484375,-0.04042572155594826,-0.019116437062621117,0.0016389093361794949
1772562376723904500,6.017904541015625,-0.05245548486709595,-0.047676973044872284,0.00032330775866284966
1772562376733971700,6.0279716796875,-0.06102553755044937,-0.06576915830373764,-0.006899984087795019
1772562376744039700,6.038039794921875,-0.06235658377408981,-0.055803343653678894,-0.0204544086009264
1772562376754107000,6.04810693359375,-0.060386911034584045,-0.031862858682870865,-0.03231692686676979
1772562376764173800,6.058173828125,-0.053213153034448624,0.005034706089645624,-0.04369102045893669
1772562376774240800,6.06824072265625,-0.04423963278532028,0.0345878042280674,-0.045692119747400284
1772562376784308700,6.078308837890625,-0.03357766568660736,0.045473210513591766,-0.0391620509326458
1772562376794375700,6.088375732421875,-0.027155721560120583,0.03531245142221451,-0.03181172534823418
1772562376804442600,6.098442626953125,-0.021458953619003296,0.018035193905234337,-0.020135894417762756
1772562376814510800,6.1085107421875,-0.022288793697953224,0.0019824570044875145,-0.011651063337922096
1772562376824577800,6.118577880859375,-0.02058197371661663,-0.015001586638391018,0.0011137339752167463
1772562376834644700,6.128644775390625,-0.024710671976208687,-0.01750921830534935,0.008126369677484035
1772562376844711700,6.138711669921875,-0.027908064424991608,-0.010551177896559238,0.016213856637477875
1772562376854779600,6.148779541015625,-0.02538898028433323,-0.010786601342260838,0.019331352785229683
1772562376864846600,6.1588466796875,-0.021760955452919006,-0.026615897193551064,0.014593057334423065
1772562376874913800,6.168913818359375,-0.01936650648713112,-0.026187395676970482,0.0041425470262765884
1772562376884980700,6.178980712890625,-0.0112784868106246,-0.006428338121622801,-0.0021646174136549234
1772562376895048700,6.189048583984375,-0.010581804439425468,-0.0008695221040397882,-0.0031284152064472437
1772562376905115600,6.19911572265625,-0.007530886679887772,0.004800347611308098,-0.005006476305425167
1772562376915182800,6.209182861328125,-0.004895688965916634,0.01110671367496252,0.0015307849971577525
1772562376925249800,6.219249755859375,-0.007735684048384428,-0.0029047098942101,0.011270497925579548
1772562376935317800,6.22931787109375,-0.01287265494465828,-0.019149726256728172,0.001121723442338407
1772562376945384700,6.239384765625,-0.020127372816205025,-0.02315565198659897,-0.0023007048293948174
1772562376955451600,6.24945166015625,-0.02058969810605049,-0.0029704899061471224,-0.004531368613243103
1772562376965518600,6.2595185546875,-0.025045432150363922,0.0021811288315802813,-0.007935155183076859
1772562376975586600,6.269586669921875,-0.025067269802093506,0.000559263804461807,-0.015687882900238037
1772562376985653800,6.27965380859375,-0.019880764186382294,0.0006572681595571339,-0.010980479419231415
1772562376995720700,6.289720703125,-0.006502374075353146,0.0016873788554221392,-0.0038725025951862335
1772562377005787600,6.29978759765625,0.001374457380734384,-0.0003046656202059239,-0.003973436541855335
1772562377015855900,6.30985595703125,0.004775580484420061,0.002694852650165558,0.0054368432611227036
1772562377025922800,6.3199228515625,0.002145442645996809,0.0019116170005872846,0.012969328090548515
1772562377035989800,6.32998974609375,-0.0035747610963881016,-0.004346278961747885,0.008392419666051865
1772562377046056700,6.340056640625,-0.01058979332447052,-0.0075884112156927586,0.007389739155769348
1772562377056124700,6.350124755859375,-0.018965966999530792,-0.0005486111622303724,-0.0005568669876083732
1772562377066191600,6.360191650390625,-0.021649368107318878,0.006456833798438311,-0.00771757448092103
1772562377076258600,6.370258544921875,-0.022165756672620773,0.00754899624735117,-0.018908442929387093
1772562377086325800,6.38032568359375,-0.018442390486598015,0.0086590014398098,-0.0369846485555172
1772562377096393700,6.390393798828125,-0.017738783732056618,0.010453706607222557,-0.0600002184510231
1772562377106461000,6.4004609375,-0.023693878203630447,0.02895442023873329,-0.09259384870529175
1772562377116527900,6.41052783203125,-0.01218689139932394,0.05389279127120972,-0.11828935891389847
1772562377126594800,6.4205947265625,-0.004640824627131224,0.06990797817707062,-0.1412724405527115
1772562377136662800,6.430662841796875,-0.0002545981842558831,0.052685849368572235,-0.1644219607114792
1772562377146729700,6.440729736328125,0.013587181456387043,0.03523814678192139,-0.172952339053154
1772562377156796700,6.450796630859375,0.023253390565514565,0.03329271078109741,-0.1681453287601471
1772562377166863600,6.460863525390625,0.03068733960390091,0.030527815222740173,-0.14832928776741028
1772562377176931600,6.470931640625,0.02701936662197113,0.021617410704493523,-0.12334936857223511
1772562377186998500,6.48099853515625,0.0190205629914999,0.006589192897081375,-0.08979513496160507
1772562377197065700,6.491065673828125,0.010127468965947628,-0.02142086997628212,-0.05067383125424385
1772562377207133000,6.5011328125,0.002028263406828046,-0.051720719784498215,-0.015138472430408001
1772562377217200600,6.51120068359375,-0.001359277404844761,-0.07016444206237793,0.003757187630981207
1772562377227267800,6.521267822265625,-0.002560895634815097,-0.06527461111545563,0.014606107026338577
1772562377237334800,6.531334716796875,-0.00019920444174204022,-0.03223463520407677,0.023200128227472305
1772562377247401700,6.541401611328125,0.0005659217131324112,0.007134075742214918,0.02635171264410019
1772562377257469700,6.5514697265625,0.0022333269007503986,0.027095533907413483,0.0264262817800045
1772562377267536600,6.56153662109375,0.0019462381023913622,0.0139581598341465,0.02654346078634262
1772562377277603600,6.571603515625,-0.0011808456620201468,-0.01829538308084011,0.022039787843823433
1772562377287670500,6.58167041015625,-0.004552141297608614,-0.04193173721432686,0.019519904628396034
1772562377297738800,6.59173876953125,-0.01116450410336256,-0.05563982576131821,0.009526926092803478
1772562377307805700,6.6018056640625,-0.013804761692881584,-0.042884618043899536,-0.010893394239246845
1772562377317872600,6.61187255859375,-0.01818086765706539,-0.008871255442500114,-0.026558373123407364
1772562377327940600,6.621940673828125,-0.012564261443912983,0.022898657247424126,-0.04741145670413971
1772562377338007800,6.6320078125,-0.009301888756453991,0.029586654156446457,-0.05955973267555237
1772562377348074800,6.64207470703125,0.0034972631838172674,0.01714915968477726,-0.07333200424909592
1772562377358141700,6.6521416015625,0.017051687464118004,-0.001350488979369402,-0.08875250816345215
1772562377368210000,6.6622099609375,0.026329075917601585,-0.00732449209317565,-0.10002806037664413
1772562377378276900,6.67227685546875,0.026855848729610443,0.014523549005389214,-0.10580100119113922
1772562377388343800,6.68234375,0.01679069735109806,0.04620078578591347,-0.09884055703878403
1772562377398410800,6.69241064453125,-0.007127418182790279,0.05244962498545647,-0.09129875153303146
1772562377408478700,6.702478759765625,-0.02341584302484989,0.030370688065886497,-0.07699517905712128
1772562377418545700,6.712545654296875,-0.030054571107029915,0.00123783724848181,-0.05577005445957184
1772562377428612600,6.722612548828125,-0.03007933869957924,-0.025255288928747177,-0.04187421128153801
1772562377438680300,6.732680419921875,-0.024448351934552193,-0.0361204519867897,-0.022839535027742386
1772562377448748300,6.742748291015625,-0.015489211305975914,-0.027606859803199768,0.0029140308033674955
1772562377458815200,6.752815185546875,-0.010125071741640568,-0.021946843713521957,0.013222594745457172
1772562377468882400,6.76288232421875,-0.013304087333381176,-0.020711136981844902,0.020012857392430305
1772562377478949600,6.77294970703125,-0.009815080091357231,-0.017480989918112755,0.022722356021404266
1772562377489017600,6.783017578125,-0.0021489046048372984,-0.009022523649036884,0.02238120511174202
1772562377499084500,6.79308447265625,-0.004858404863625765,-0.006194512825459242,0.022182267159223557
1772562377509151500,6.8031513671875,-0.010643056593835354,-0.00401578051969409,0.017364077270030975
1772562377519218400,6.813218505859375,-0.010805509984493256,-0.00803475733846426,0.016108661890029907
1772562377529286400,6.823286376953125,-0.009241701103746891,-0.02075720950961113,0.01401648297905922
1772562377539353300,6.833353271484375,-0.007654191460460424,-0.023927969858050346,0.012311793863773346
1772562377549420300,6.843420166015625,-0.001586178783327341,-0.02508431486785412,0.015854064375162125
1772562377559487200,6.8534873046875,-0.004461061209440231,-0.014552577398717403,0.02449815161526203
1772562377569555500,6.863555419921875,-0.00649651512503624,-0.002472212305292487,0.03135712444782257
1772562377579622400,6.873622314453125,-0.012852415442466736,0.008852614089846611,0.0476149246096611
1772562377589689600,6.883689697265625,-0.012899287045001984,0.005741775035858154,0.056959956884384155
1772562377599756500,6.893756591796875,-0.012431369163095951,-0.018929483368992805,0.0617203563451767
1772562377609824500,6.903824462890625,-0.0054490938782691956,-0.030488666146993637,0.06172062084078789
1772562377619891500,6.913891357421875,-0.004489823244512081,-0.027152258902788162,0.054000385105609894
1772562377629958400,6.92395849609375,-0.005885852500796318,-0.01775342971086502,0.04803064092993736
1772562377640025300,6.934025390625,-0.011256915517151356,-0.004787564743310213,0.04228886589407921
1772562377650093300,6.94409326171875,-0.013978133909404278,0.00509835546836257,0.043773047626018524
1772562377660160500,6.954160400390625,-0.016579242423176765,0.004880775231868029,0.04574644938111305
1772562377670227500,6.9642275390625,-0.019477028399705887,-0.0065226140432059765,0.04422897845506668
1772562377680294400,6.97429443359375,-0.017369935289025307,-0.02574584260582924,0.03773912414908409
1772562377690362400,6.9843623046875,-0.013458550907671452,-0.030945932492613792,0.0341891273856163
1772562377700429300,6.99442919921875,-0.007874168455600739,-0.026131203398108482,0.02702416107058525
1772562377710496500,7.00449658203125,-0.004434429574757814,-0.01667138747870922,0.016740897670388222
1772562377720563500,7.0145634765625,-0.002698581200093031,-0.004506334662437439,0.012352273799479008
1772562377730631400,7.02463134765625,-0.011022024787962437,-0.000040746363083599135,0.003424026072025299
1772562377740698400,7.034698486328125,-0.01104732509702444,-0.0037641117814928293,-0.0038863508962094784
1772562377750765300,7.044765380859375,-0.01290727686136961,-0.013096360489726067,-0.013495569117367268
1772562377760832500,7.05483251953125,-0.008501875214278698,-0.014780277386307716,-0.017650365829467773
1772562377770900500,7.064900390625,-0.00586534570902586,-0.020109262317419052,-0.015486814081668854
1772562377780967400,7.074967529296875,-0.010158894583582878,-0.02220623567700386,-0.011061972007155418
1772562377791034400,7.085034423828125,-0.017061008140444756,-0.02919197455048561,-0.0035417377948760986
1772562377801101600,7.0951015625,-0.021041369065642357,-0.03232571482658386,0.0026045716367661953
1772562377811169300,7.105169189453125,-0.018680477514863014,-0.0226251520216465,0.007893343456089497
1772562377821236500,7.115236572265625,-0.01347426325082779,-0.015133945271372795,0.011439608410000801
1772562377831303400,7.125303466796875,-0.010794058442115784,-0.017975538969039917,0.0031494542490690947
1772562377841370400,7.135370361328125,-0.012840697541832924,-0.01756967231631279,-0.006971622817218304
1772562377851438600,7.1454384765625,-0.01961551234126091,-0.021646972745656967,-0.02063603699207306
1772562377861505500,7.155505615234375,-0.030172016471624374,-0.032099880278110504,-0.03612391650676727
1772562377871572500,7.165572509765625,-0.029618078842759132,-0.030540065839886665,-0.053582802414894104
1772562377881639400,7.175639404296875,-0.02443716675043106,-0.014316887594759464,-0.0604790560901165
1772562377891707400,7.185707275390625,-0.015900136902928352,0.008853146806359291,-0.0727815255522728
1772562377901774300,7.1957744140625,-0.008036354556679726,0.017830129712820053,-0.07621168345212936
1772562377911841300,7.20584130859375,-0.001785383210517466,0.016559535637497902,-0.07113702595233917
1772562377921909200,7.2159091796875,0.002785133896395564,-0.0006410228670574725,-0.05991979315876961
1772562377931976200,7.22597607421875,0.002016279147937894,-0.013916614465415478,-0.03590873256325722
1772562377942043600,7.236043701171875,0.00025513084256090224,-0.016334498301148415,-0.0068358019925653934
1772562377952110600,7.246110595703125,-0.006953247357159853,-0.009950368665158749,0.02532453089952469
1772562377962178600,7.256178466796875,-0.017665546387434006,-0.007409979589283466,0.05963589996099472
1772562377972245500,7.26624560546875,-0.02888943813741207,-0.020305272191762924,0.0812583714723587
1772562377982312400,7.2763125,-0.03713351860642433,-0.04043344408273697,0.09773588180541992
1772562377992379400,7.28637939453125,-0.03447248786687851,-0.06187988072633743,0.09702242165803909
1772562378002447400,7.296447265625,-0.028060397133231163,-0.0679316446185112,0.08165784180164337
1772562378012514300,7.306514404296875,-0.014928615652024746,-0.052332181483507156,0.0544603131711483
1772562378022581200,7.316581298828125,0.0011020160745829344,-0.027232419699430466,0.019483154639601707
1772562378032648400,7.3266484375,0.014064952731132507,-0.011422297917306423,-0.021584121510386467
1772562378042716400,7.33671630859375,0.023022228851914406,-0.004363323096185923,-0.060333382338285446
1772562378052783600,7.34678369140625,0.02864496037364006,-0.012533368542790413,-0.0831015408039093
1772562378062850600,7.3568505859375,0.03110918402671814,-0.011082478798925877,-0.10242278128862381
1772562378072917500,7.36691748046875,0.02955682761967182,-0.001529453438706696,-0.10794031620025635
1772562378082985500,7.3769853515625,0.02148798108100891,0.013068397529423237,-0.10507848113775253
1772562378093052400,7.387052490234375,0.01750202849507332,0.023451529443264008,-0.08830349892377853
1772562378103119400,7.397119384765625,0.00509995361790061,0.011115235276520252,-0.06660885363817215
1772562378113186300,7.407186279296875,-0.011383681558072567,-0.01986238732933998,-0.03795856609940529
1772562378123254500,7.417254638671875,-0.013176788575947285,-0.05194682255387306,-0.012458267621695995
1772562378133321500,7.427321533203125,-0.00541394017636776,-0.08024077862501144,0.007798800710588694
1772562378143388400,7.437388427734375,0.0007060039788484573,-0.10128720849752426,0.019753199070692062
1772562378153455600,7.44745556640625,0.0034232272300869226,-0.10459298640489578,0.014280402101576328
1772562378163523300,7.4575234375,0.018804313614964485,-0.08370528370141983,0.024922126904129982
1772562378173590500,7.467590576171875,0.01672784797847271,-0.03621606156229973,0.02636129967868328
1772562378183657500,7.477657470703125,0.00657561095431447,-0.01751321367919445,0.025681395083665848
1772562378193724400,7.487724365234375,-0.006825948134064674,-0.02965403161942959,0.02148451842367649
1772562378203792400,7.49779248046875,-0.013648700900375843,-0.037873610854148865,0.023288544267416
1772562378213859300,7.507859375,-0.0051566786132752895,-0.03050331398844719,0.020601946860551834
1772562378223926500,7.517926513671875,0.014762700535356998,-0.032340098172426224,0.019100191071629524
1772562378233993500,7.527993408203125,0.023069100454449654,-0.0247799139469862,0.012060657143592834
1772562378244061400,7.5380615234375,0.017766745761036873,-0.022183598950505257,0.005586779210716486
1772562378254128400,7.54812841796875,0.012731507420539856,-0.023517310619354248,-0.0018975022248923779
1772562378264195300,7.5581953125,0.015094530768692493,-0.018081000074744225,-0.007339671719819307
1772562378274262500,7.568262451171875,0.016872989013791084,-0.00920281931757927,-0.01575579307973385
1772562378284330500,7.57833056640625,0.017079384997487068,0.00020266656065359712,-0.01637551188468933
1772562378294397400,7.5883974609375,0.010298710316419601,0.009431851096451283,-0.01113254576921463
1772562378304464400,7.59846435546875,0.0036629117093980312,0.004749747924506664,-0.002659965306520462
1772562378314531300,7.60853125,0.005571066867560148,-0.009799900464713573,0.01122282724827528
1772562378324599600,7.618599609375,0.004050934221595526,-0.015032744966447353,0.03152783215045929
1772562378334666500,7.62866650390625,0.0070429956540465355,-0.020445620641112328,0.050754524767398834
1772562378344733400,7.6387333984375,0.00896846130490303,-0.026210298761725426,0.06243567913770676
1772562378354800400,7.64880029296875,0.007623032201081514,-0.028110995888710022,0.061232466250658035
1772562378364868400,7.658868408203125,0.009908556938171387,-0.028293956071138382,0.048584047704935074
1772562378374935300,7.668935302734375,0.007979363203048706,-0.014728612266480923,0.03165300190448761
1772562378385002500,7.67900244140625,0.0072957295924425125,-0.00023302659974433482,0.028120584785938263
1772562378395069400,7.6890693359375,0.010027067735791206,0.007809453643858433,0.02009301818907261
1772562378405137700,7.6991376953125,0.007928230799734592,-0.012740562669932842,0.019753731787204742
1772562378415204600,7.70920458984375,0.0007062703371047974,-0.03302053362131119,0.016513196751475334
1772562378425271600,7.719271484375,-0.0024349282030016184,-0.036007534712553024,0.012857208959758282
1772562378435338500,7.72933837890625,-0.011386611498892307,-0.03184661269187927,0.0008844357798807323
1772562378445406700,7.73940673828125,-0.02239265665411949,-0.030943801626563072,-0.01743891090154648
1772562378455473700,7.7494736328125,-0.021398499608039856,-0.022301843389868736,-0.04213626682758331
1772562378465540600,7.75954052734375,-0.017541974782943726,-0.013263607397675514,-0.06558353453874588
1772562378475608600,7.769608642578125,-0.00395745737478137,-0.0011685950448736548,-0.08095689862966537
1772562378485675500,7.779675537109375,0.01224468182772398,0.01937476359307766,-0.0853487178683281
1772562378495742700,7.78974267578125,0.022725818678736687,0.03935832530260086,-0.07637466490268707
1772562378505809700,7.7998095703125,0.02382650226354599,0.03311294689774513,-0.06634147465229034
1772562378515877600,7.809877685546875,0.019423499703407288,0.00660437298938632,-0.04513392224907875
1772562378525944800,7.81994482421875,0.007517837453633547,-0.02311836928129196,-0.02208639308810234
1772562378536011800,7.83001171875,-0.0025190841406583786,-0.0423666313290596,0.010990066453814507
1772562378546078700,7.84007861328125,-0.014646586962044239,-0.048528119921684265,0.03110412321984768
1772562378556146700,7.850146728515625,-0.02478763833642006,-0.04433151334524155,0.04162627458572388
1772562378566213600,7.860213623046875,-0.03007720783352852,-0.028971197083592415,0.04110695794224739
1772562378576280600,7.870280517578125,-0.02244512178003788,-0.00974317453801632,0.027218837291002274
1772562378586347500,7.880347412109375,-0.00752050057053566,-0.0020535634830594063,0.005754025653004646
1772562378596415700,7.890415771484375,0.009313873015344143,0.005391569808125496,-0.019476762041449547
1772562378606482700,7.900482666015625,0.022490927949547768,0.01594114862382412,-0.02022617496550083
1772562378616549600,7.910549560546875,0.027527764439582825,0.027152525261044502,-0.02486140839755535
1772562378626616800,7.920616943359375,0.02069648914039135,0.033434122800827026,-0.013598899357020855
1772562378636684500,7.9306845703125,0.012350409291684628,0.021858161315321922,-0.001582982949912548
1772562378646751700,7.940751708984375,0.005480785388499498,0.01455923542380333,0.014238590374588966
1772562378656818700,7.950818603515625,-0.005604622419923544,0.007822236977517605,0.036319389939308167
1772562378666885600,7.9608857421875,-0.00977566558867693,0.008596417494118214,0.05969315767288208
1772562378676953900,7.970953857421875,-0.016561133787035942,-0.0018706043483689427,0.07413254678249359
1772562378687020800,7.981020751953125,-0.012449478730559349,-0.00914582796394825,0.07994356751441956
1772562378697087700,7.991087646484375,0.0011105381418019533,-0.018822157755494118,0.07944848388433456
1772562378707154700,8.00115478515625,0.012880378402769566,-0.022313028573989868,0.07373493909835815
1772562378717222700,8.01122265625,0.01398505736142397,-0.009383914060890675,0.07288086414337158
1772562378727289600,8.02128955078125,0.014985607005655766,0.008525843732059002,0.06562987715005875
1772562378737356500,8.0313564453125,0.011689146980643272,0.015561915002763271,0.054912250488996506
1772562378747423700,8.041423828125,0.006352171767503023,0.012294217012822628,0.04381219670176506
1772562378757491700,8.05149169921875,0.009802563115954399,0.005121791269630194,0.036010466516017914
1772562378767558700,8.06155859375,0.012514193542301655,-0.008758338168263435,0.02423875965178013
1772562378777625600,8.07162548828125,0.01251925341784954,-0.011406585574150085,0.026043584570288658
1772562378787692800,8.08169287109375,0.012455337680876255,-0.0031196267809718847,0.03539234399795532
1772562378797760800,8.0917607421875,0.009473396465182304,-0.0013555489713326097,0.04621623083949089
1772562378807827700,8.10182763671875,0.002668753731995821,-0.013485714793205261,0.05852775648236275
1772562378817894700,8.111894775390626,-0.0028250813484191895,-0.019331885501742363,0.07225262373685837
1772562378827961600,8.121961669921875,-0.004563592839986086,-0.020672786980867386,0.07149841636419296
1772562378838029600,8.132029541015624,-0.007143130525946617,-0.014511298388242722,0.06204099953174591
1772562378848096500,8.142096435546875,-0.0010122675448656082,-0.0023190807551145554,0.04796406254172325
1772562378858163700,8.152163818359375,0.003600327530875802,0.00714659271761775,0.03701500967144966
1772562378868230700,8.162230712890626,0.009890447370707989,0.011468903161585331,0.016860205680131912
1772562378878299000,8.172298828125,0.015079083852469921,0.019345734268426895,0.01005130261182785
1772562378888365800,8.18236572265625,0.02002936787903309,0.021623536944389343,-0.0037742317654192448
1772562378898432800,8.192432861328125,0.02141820639371872,0.01540319062769413,-0.00851492490619421
1772562378908499700,8.202499755859375,0.029466012492775917,0.009675264358520508,-0.0028703550342470407
1772562378918567700,8.212567626953126,0.03705069422721863,0.006937800906598568,-0.010653975419700146
1772562378928634600,8.222634521484375,0.03904034197330475,0.012341887690126896,-0.007224357221275568
1772562378938701600,8.23270166015625,0.035765986889600754,0.02623959258198738,-0.0070770843885838985
1772562378948768500,8.2427685546875,0.0257522352039814,0.0411951057612896,0.006223807577043772
1772562378958836700,8.252836669921875,0.024035295471549034,0.04182521253824234,0.020862137898802757
1772562378968903700,8.262903564453126,0.019629361107945442,0.01792094297707081,0.031387485563755035
1772562378978971000,8.272970947265625,0.01678270846605301,-0.019711919128894806,0.04037964716553688
1772562378989037800,8.283037841796874,0.01756780780851841,-0.05277932435274124,0.03357740119099617
1772562378999105800,8.293105712890625,0.016643159091472626,-0.05642492696642876,0.026568228378891945
1772562379009172700,8.3031728515625,0.014827681705355644,-0.04499330744147301,0.0128774493932724
1772562379019239700,8.31323974609375,0.01569453999400139,-0.015806660056114197,-0.0017425062833353877
1772562379029306600,8.323306640625,0.010470484383404255,0.016686301678419113,-0.016389358788728714
1772562379039374600,8.33337451171875,0.0024077638518065214,0.031209317967295647,-0.024382038041949272
1772562379049441500,8.343441650390625,-0.006449377164244652,0.02761165425181389,-0.030338997021317482
1772562379059508500,8.353508544921874,-0.0033156354911625385,0.02580762840807438,-0.026442525908350945
1772562379069575700,8.36357568359375,0.004947354551404715,0.0223844014108181,-0.015922507271170616
1772562379079643600,8.3736435546875,0.009042763151228428,0.01697232574224472,-0.003165699541568756
1772562379089710600,8.383710693359374,0.013223660178482533,0.008190285414457321,0.012209794484078884
1772562379099777800,8.39377783203125,0.004705273080617189,0.005367334932088852,0.02479642629623413
1772562379109844700,8.4038447265625,-0.0014476943761110306,0.0005371595616452396,0.03641899302601814
1772562379119912700,8.41391259765625,-0.008419583551585674,-0.0028607675340026617,0.04144997149705887
1772562379129979600,8.423979736328125,-0.009119195863604546,-0.011759188026189804,0.0366661362349987
1772562379140046600,8.434046630859376,-0.002532399957999587,-0.004628574009984732,0.03160532936453819
1772562379150113500,8.444113525390625,0.004816326778382063,0.0051987566985189915,0.021748438477516174
1772562379160181800,8.454181640625,0.012958142906427383,0.010962369851768017,0.00589597225189209
1772562379170248700,8.464248779296875,0.0188400000333786,0.003002181416377425,-0.008077100850641727
1772562379180315600,8.474315673828125,0.023963123559951782,-0.007817975245416164,-0.0217732060700655
1772562379190382600,8.484382568359376,0.03135765716433525,-0.004341484978795052,-0.022899456322193146
1772562379200450600,8.494450439453125,0.03725922107696533,0.007754858583211899,-0.016029566526412964
1772562379210517800,8.504517822265624,0.025438779965043068,0.007951932959258556,-0.015066834166646004
1772562379220584700,8.514584716796875,0.013435647822916508,0.009561547078192234,-0.00987287051975727
1772562379230651600,8.524651611328125,0.009636115282773972,0.009506153874099255,-0.006923686247318983
1772562379240720000,8.534719970703126,0.008853944949805737,-0.0015052186790853739,-0.005891178734600544
1772562379250786800,8.544786865234375,0.012603675946593285,-0.0009627327090129256,-0.00956927053630352
1772562379260853800,8.554853759765624,0.011619904078543186,0.013883591629564762,-0.0073109096847474575
1772562379270920700,8.564920654296875,0.006432865746319294,0.023929035291075706,-0.004487692844122648
1772562379280988700,8.57498876953125,0.007229417096823454,0.022914370521903038,-0.0013334447285160422
1772562379291055600,8.5850556640625,0.003469566348940134,0.016385098919272423,0.007574562914669514
1772562379301122600,8.59512255859375,0.007595335599035025,0.002261822810396552,0.010362626053392887
1772562379311189800,8.605189697265626,0.0044046021066606045,-0.006684800609946251,0.009227320551872253
1772562379321257500,8.615257568359375,-0.0004649879119824618,-0.0026317357551306486,0.013405820354819298
1772562379331324700,8.62532470703125,-0.0062821307219564915,0.011039335280656815,0.0017262609908357263
1772562379341391600,8.6353916015625,-0.012574381195008755,0.024085627868771553,-0.003067428944632411
1772562379351459800,8.6454599609375,-0.015619173645973206,0.03990187495946884,-0.006747917737811804
1772562379361526800,8.65552685546875,-0.018321748822927475,0.04608786478638649,-0.003974767867475748
1772562379371593700,8.66559375,-0.02155296318233013,0.031927306205034256,0.0035081820096820593
1772562379381660700,8.67566064453125,-0.02612294629216194,0.0070648337714374065,0.007222759071737528
1772562379391728600,8.685728759765626,-0.02786651812493801,-0.013262541964650154,0.005046423990279436
1772562379401795600,8.695795654296875,-0.025742648169398308,-0.015194132924079895,0.006958839949220419
1772562379411862500,8.705862548828126,-0.026509372517466545,0.004009921569377184,0.0035507925786077976
1772562379421929500,8.715929443359375,-0.02792404219508171,0.017221864312887192,0.0015960324089974165
1772562379431997700,8.725997802734375,-0.037026192992925644,0.015291870571672916,-0.004466920159757137
1772562379442064100,8.736064208984375,-0.04410674050450325,0.007714378647506237,-0.0019323896849527955
1772562379452131000,8.746131103515625,-0.04314454272389412,0.0023241406306624413,-0.005768939387053251
1772562379462198000,8.756197998046876,-0.03594069182872772,0.000107858024421148,-0.0038402783684432507
1772562379472266000,8.766265869140625,-0.029957633465528488,-0.001977929612621665,-0.010991664603352547
1772562379482333000,8.7763330078125,-0.01895851083099842,0.004608600400388241,-0.015518772415816784
1772562379492400000,8.786400146484375,-0.017314808443188667,0.00957006961107254,-0.02460334636271
1772562379502467000,8.796467041015624,-0.013990916311740875,0.011041466146707535,-0.03278058394789696
1772562379512535000,8.80653515625,-0.012436696328222752,0.006347111891955137,-0.034636806696653366
1772562379522602000,8.81660205078125,-0.006383064668625593,0.008490423671901226,-0.02821672335267067
1772562379532669200,8.826669189453124,-0.005379585549235344,0.012624182738363743,-0.019875703379511833
1772562379542736100,8.836736083984375,-0.01167556457221508,0.013560550287365913,-0.0007060039788484573
1772562379552804000,8.84680419921875,-0.024037159979343414,-0.0021430456545203924,0.016821857541799545
1772562379562871000,8.85687109375,-0.0381641648709774,-0.04123958200216293,0.03335129842162132
1772562379572938000,8.86693798828125,-0.03512789309024811,-0.07174209505319595,0.03971012681722641
1772562379583005000,8.8770048828125,-0.029094502329826355,-0.07348833233118057,0.03988216817378998
1772562379593073200,8.8870732421875,-0.021080518141388893,-0.04662982001900673,0.036138296127319336
1772562379603140000,8.89714013671875,-0.0140196792781353,-0.013160277158021927,0.030586671084165573
1772562379613207000,8.90720703125,-0.004299141000956297,0.008586031384766102,0.026475815102458
1772562379623274000,8.91727392578125,0.002552906284108758,0.0011137339752167463,0.028112860396504402
1772562379633342000,8.927342041015624,0.009250756353139877,-0.010438259690999985,0.029334984719753265
1772562379643409000,8.937408935546875,0.013983726501464844,-0.019845344126224518,0.030797326937317848
1772562379653476000,8.94747607421875,0.019245600327849388,-0.023980433121323586,0.0321454182267189
1772562379663543000,8.95754296875,0.015513179823756218,-0.01635873317718506,0.0332287922501564
1772562379673611300,8.967611328125,0.0065292720682919025,0.0013017531018704176,0.02809208817780018
1772562379683678200,8.97767822265625,-0.0002793656021822244,0.017079917713999748,0.02684279903769493
1772562379693745200,8.9877451171875,-0.008506402373313904,0.021078919991850853,0.016164589673280716
1772562379703812000,8.99781201171875,-0.011150921694934368,0.013472133316099644,0.014732340350747108
1772562379713880000,9.007880126953125,-0.008097607642412186,0.009247294627130032,0.022729547694325447
1772562379723947000,9.017947021484375,-0.00273133791051805,0.005877064075320959,0.025887789204716682
1772562379734014000,9.028013916015626,-0.006987868342548609,-0.011166634038090706,0.03317313268780708
1772562379744081000,9.038080810546875,-0.008928247727453709,-0.022717030718922615,0.028539232909679413
1772562379754148900,9.04814892578125,-0.0046634613536298275,-0.026690466329455376,0.022657908499240875
1772562379764216000,9.058216064453125,0.002507898723706603,-0.01444099098443985,0.013537646271288395
1772562379774283300,9.068283203125,0.006835002917796373,0.0016029566759243608,0.011665711179375648
1772562379784350200,9.07835009765625,0.0014176006661728024,0.017174459993839264,0.005119660869240761
1772562379794418200,9.088418212890625,-0.00720491586253047,0.015105183236300945,0.0046448190696537495
1772562379804485000,9.098485107421874,-0.015685219317674637,0.00034461304312571883,-0.004358263220638037
1772562379814552000,9.108552001953125,-0.02359241060912609,-0.018015218898653984,-0.0005075985100120306
1772562379824619000,9.118618896484374,-0.025784192606806755,-0.026436401531100273,-0.0007174555794335902
1772562379834687000,9.12868701171875,-0.026756247505545616,-0.015785355120897293,-0.0020335898734629154
1772562379844754000,9.13875390625,-0.024052871391177177,0.009035040624439716,0.0073412698693573475
1772562379854820900,9.14882080078125,-0.024081367999315262,0.015932893380522728,0.0149840097874403
1772562379864888000,9.15888818359375,-0.028370920568704605,0.0038991342298686504,0.018316157162189484
1772562379874956000,9.1689560546875,-0.029154689982533455,-0.010596717707812786,0.02136947028338909
1772562379885023200,9.179023193359376,-0.025436384603381157,-0.012738964520394802,0.021915685385465622
1772562379895090200,9.189090087890625,-0.021271999925374985,-0.008845689706504345,0.01549214031547308
1772562379905157000,9.1991572265625,-0.020019248127937317,-0.009895240887999535,0.0032317459117621183
1772562379915225000,9.20922509765625,-0.01912895403802395,-0.008715993724763393,-0.0005344964447431266
1772562379925292000,9.2192919921875,-0.019268769770860672,0.0003430151555221528,-0.009304285980761051
1772562379935359000,9.22935888671875,-0.020748421549797058,0.00355798308737576,-0.009576727636158466
1772562379945426000,9.239426025390625,-0.016378972679376602,0.007728226948529482,-0.013011672534048557
1772562379955494100,9.249494140625,-0.015213840641081333,0.004815261345356703,-0.0013129384024068713
1772562379965561000,9.25956103515625,-0.01555099617689848,-0.007470433134585619,0.009609217755496502
1772562379975628000,9.2696279296875,-0.016173377633094788,-0.020202472805976868,0.013964817859232426
1772562379985695200,9.2796953125,-0.007934622466564178,-0.028556277975440025,0.01673317328095436
1772562379995763000,9.289762939453125,-0.0038951393216848373,-0.026820961385965347,0.02052365057170391
1772562380005830100,9.299830078125,0.0035420041531324387,-0.025676866993308067,0.018871160224080086
1772562380015897000,9.30989697265625,0.0075878784991800785,-0.02917439676821232,0.021084778010845184
1772562380025964000,9.319964111328124,0.008706405758857727,-0.034389931708574295,0.024595357477664948
1772562380036032000,9.330031982421875,0.010143181309103966,-0.04000893607735634,0.026642795652151108
1772562380046099000,9.340098876953125,0.007309312000870705,-0.036851491779088974,0.03201732039451599
1772562380056166100,9.350166259765626,0.004716990981251001,-0.01950472593307495,0.03840437904000282
1772562380066233000,9.360233154296875,-0.0018349179299548268,-0.00043302998528815806,0.047029025852680206
1772562380076301000,9.370301025390624,-0.0032719597220420837,0.016500679776072502,0.047802411019802094
1772562380086368000,9.380367919921875,0.007280283607542515,0.020623520016670227,0.053225670009851456
1772562380096435000,9.39043505859375,0.015965916216373444,0.005305016878992319,0.048174452036619186
1772562380106502100,9.400502197265626,0.02093883790075779,-0.016810405999422073,0.036551088094711304
1772562380116570000,9.410570068359375,0.015793344005942345,-0.02965429797768593,0.019710054621100426
1772562380126637000,9.420636962890624,0.012657205574214458,-0.026624420657753944,0.0014684670604765415
1772562380136704000,9.4307041015625,0.008316253311932087,-0.017236510291695595,-0.022661369293928146
1772562380146771000,9.44077099609375,0.01834491826593876,-7.989483492565341e-7,-0.04766711965203285
1772562380156839200,9.450839111328126,0.029276128858327866,0.01737845689058304,-0.06816467642784119
1772562380166906000,9.460906005859375,0.03976712003350258,0.03001995012164116,-0.07840665429830551
1772562380176973000,9.47097314453125,0.04067232832312584,0.029409820213913918,-0.08762439340353012
1772562380187040000,9.4810400390625,0.036975327879190445,0.029090506955981255,-0.08394842594861984
1772562380197108000,9.49110791015625,0.02960636094212532,0.03295954689383507,-0.06469111144542694
1772562380207175000,9.5011748046875,0.015401060692965984,0.02714427001774311,-0.03539421036839485
1772562380217242000,9.5112421875,0.001041295938193798,0.01037620846182108,-0.004260791465640068
1772562380227309000,9.52130908203125,-0.013170130550861359,-0.006999586243182421,0.025495773181319237
1772562380237377300,9.531377197265625,-0.020475447177886963,-0.023423567414283752,0.060395434498786926
1772562380247444200,9.5414443359375,-0.03292359411716461,-0.032768066972494125,0.08037713170051575
1772562380257511200,9.55151123046875,-0.03773486241698265,-0.03773006796836853,0.07983437925577164
1772562380267578000,9.561578125,-0.04079589992761612,-0.03460405021905899,0.07515466958284378
1772562380277646000,9.57164599609375,-0.03693511337041855,-0.01841842196881771,0.06334009021520615
1772562380287713000,9.581713134765625,-0.023135678842663765,-0.009896572679281235,0.04662369564175606
1772562380297780000,9.591780029296874,-0.006661631166934967,-0.006370281334966421,0.01787247322499752
1772562380307847000,9.601846923828125,0.004388622939586639,0.00014753911818843335,-0.010301106609404087
1772562380317915000,9.611914794921875,0.018457038328051567,0.021080251783132553,-0.0416337288916111
1772562380327981800,9.62198193359375,0.02749926783144474,0.03450258448719978,-0.05512796714901924
1772562380338049300,9.63204931640625,0.02263367362320423,0.038413967937231064,-0.06091048941016197
1772562380348116200,9.6421162109375,0.01161697506904602,0.020356403663754463,-0.04827458783984184
1772562380358184200,9.65218408203125,-0.007140733767300844,-0.0256893839687109,-0.034925758838653564
1772562380368251100,9.662251220703125,-0.02767610177397728,-0.06665226072072983,-0.020247481763362885
1772562380378318000,9.672318115234376,-0.03485199064016342,-0.07023315131664276,-0.011373561806976795
1772562380388385000,9.682385009765625,-0.0423613041639328,-0.03779664635658264,-0.002998985582962632
1772562380398453000,9.692452880859374,-0.03725922107696533,0.008493619970977306,0.008770854212343693
1772562380408520000,9.70252001953125,-0.03657824918627739,0.03591619059443474,0.019390475004911423
1772562380418587000,9.7125869140625,-0.03694736585021019,0.01973402313888073,0.02539190836250782
1772562380428654000,9.722654052734375,-0.03831356763839722,-0.017171796411275864,0.02810886688530445
1772562380438722000,9.73272216796875,-0.034212563186883926,-0.03531511500477791,0.024982580915093422
1772562380448789200,9.742789306640624,-0.02816772274672985,-0.02383555844426155,0.013581855222582817
1772562380458856400,9.7528564453125,-0.020988373085856438,0.009616408497095108,-0.0015062838792800903
1772562380468923400,9.76292333984375,-0.016159528866410255,0.04851320758461952,-0.016387762501835823
1772562380478991600,9.77299169921875,-0.008986304514110088,0.05536125972867012,-0.03308072313666344
1772562380489058600,9.78305859375,-0.004190484061837196,0.038364700973033905,-0.04026699438691139
1772562380499125500,9.79312548828125,0.006084257736802101,0.01792760193347931,-0.0429658442735672
1772562380509192400,9.8031923828125,0.01179487444460392,0.012571452185511589,-0.03063647262752056
1772562380519260400,9.813260498046875,0.013755226507782936,0.020534036681056023,-0.024382570758461952
1772562380529327400,9.823327392578125,0.015471101738512516,0.03205700218677521,-0.013714213855564594
1772562380539394300,9.833394287109375,0.01327159721404314,0.03524800017476082,-0.00253479671664536
1772562380549461200,9.843461181640626,0.006391054019331932,0.02750619314610958,0.008653142489492893
1772562380559529500,9.853529541015625,-0.0018255969043821096,0.012350675649940968,0.018441857770085335
1772562380569596400,9.863596435546874,-0.007369232829660177,-0.0057553574442863464,0.02520761825144291
1772562380579663600,9.87366357421875,-0.010959707200527191,-0.002033855998888612,0.030956584960222244
1772562380589731300,9.8837314453125,-0.002758768619969487,0.013656689785420895,0.02552187070250511
1772562380599798500,9.893798583984376,0.007756190374493599,0.025061145424842834,0.019167035818099976
1772562380609865500,9.903865478515625,0.01660907082259655,0.0217745378613472,0.006295979022979736
1772562380619932400,9.913932373046874,0.025836391374468803,0.010934406891465187,-0.003918308764696121
1772562380630000400,9.92400048828125,0.02851446531713009,0.01883121207356453,-0.008135690353810787
1772562380640067300,9.9340673828125,0.03742966428399086,0.03767946735024452,-0.012483567930758
1772562380650134300,9.94413427734375,0.03741448372602463,0.05203097686171532,-0.00287461606785655
1772562380660201200,9.954201171875,0.03368073329329491,0.05420678108930588,-0.002775280037894845
1772562380670269400,9.96426953125,0.02616981789469719,0.035294074565172195,0.0008040083339437842
1772562380680336400,9.97433642578125,0.011068630032241344,0.002813895931467414,0.004780374001711607
1772562380690403600,9.984403564453125,-0.0007707187905907631,-0.027937624603509903,0.0017936390358954668
1772562380700470500,9.994470458984376,-0.0035627768374979496,-0.03711754083633423,-0.00011611382069531828
1772562380710538500,10.00453857421875,-0.0028431906830519438,-0.01871776208281517,0.0001174454009742476
1772562380720605400,10.01460546875,0.0009813748765736818,0.011811652220785618,-0.0065255435183644295
1772562380730672400,10.02467236328125,0.0032898029312491417,0.03531644493341446,-0.01230726670473814
1772562380740739300,10.0347392578125,0.0065162223763763905,0.04096873849630356,-0.01690814271569252
1772562380750807600,10.0448076171875,0.01167583093047142,0.04115382954478264,-0.0093892402946949
1772562380760874500,10.05487451171875,0.01495205145329237,0.019834158942103386,-0.006312756799161434
1772562380770941400,10.06494140625,0.01794091798365116,-0.008477640338242054,0.002360093407332897
1772562380781008400,10.07500830078125,0.018575282767415047,-0.02105841413140297,0.0005581985460594296
1772562380791076400,10.085076416015625,0.012769857421517372,-0.008443552069365978,0.0036615801509469748
1772562380801143300,10.095143310546876,0.007719704881310463,0.019727632403373718,0.007666707970201969
1772562380811210500,10.10521044921875,0.0006953513366170228,0.048053544014692307,0.013224991969764233
1772562380821277400,10.11527734375,-0.010004431009292603,0.054851796478033066,0.014637532643973827
1772562380831345400,10.125345458984375,-0.01751055009663105,0.038894135504961014,0.012777314521372318
1772562380841412600,10.13541259765625,-0.019946277141571045,0.015364841558039188,0.0134465666487813
1772562380851479600,10.1454794921875,-0.017409350723028183,-0.001169394003227353,-0.00011238539445912465
1772562380861546500,10.15554638671875,-0.008316786028444767,-0.00021065604232717305,-0.00472657848149538
1772562380871614500,10.165614501953126,-0.003139334265142679,0.016815997660160065,-0.00785552617162466
1772562380881681400,10.175681396484375,0.0016562198288738728,0.0290598813444376,-0.012174640782177448
1772562380891748400,10.185748291015624,-0.0017339842161163688,0.023567643016576767,-0.009601494297385216
1772562380901815300,10.195815185546875,-0.009318400174379349,0.004384894855320454,-0.010323211550712585
1772562380911883300,10.20588330078125,-0.013375726528465748,-0.013765879906713963,-0.01324256882071495
1772562380921950500,10.215950439453126,-0.018386997282505035,-0.016995228826999664,-0.008666192181408405
1772562380932017400,10.226017333984375,-0.0235841553658247,-0.00273133791051805,-0.009600695222616196
1772562380942084400,10.23608447265625,-0.028177576139569283,0.027700603008270264,-0.007538343779742718
1772562380952152600,10.246152587890625,-0.02165576070547104,0.02912566065788269,-0.0041215079836547375
1772562380962219500,10.256219482421875,-0.014282532967627048,0.012022041715681553,-0.002715625334531069
1772562380972286500,10.266286376953126,-0.005189169198274612,0.00009374327055411413,0.003924167715013027
1772562380982353400,10.276353515625,-0.004978246986865997,-0.005662412848323584,0.0070792147889733315
1772562380992421400,10.28642138671875,-0.003183542750775814,-0.0025896579027175903,0.01507082860916853
1772562381002488300,10.29648828125,-0.005363606382161379,0.00615110294893384,0.017015201970934868
1772562381012555300,10.30655517578125,-0.007694405037909746,-0.0020905814599245787,0.019176358357071877
1772562381022622500,10.31662255859375,-0.014450578019022942,-0.01991698332130909,0.00782356783747673
1772562381032690400,10.3266904296875,-0.018316423520445824,-0.02202460914850235,0.013399162329733372
1772562381042757600,10.336757568359374,-0.031982701271772385,-0.030730482190847397,0.008158594369888306
1772562381052824600,10.346824462890625,-0.0653475821018219,-0.07104994356632233,-0.0017867147689685225
1772562381062891500,10.3568916015625,-0.09815319627523422,-0.08922388404607773,-0.017044497653841972
1772562381072959500,10.36695947265625,-0.10237137973308563,-0.0503060482442379,-0.023903202265501022
1772562381083026400,10.3770263671875,-0.09025666117668152,-0.0349569171667099,-0.043889161199331284
1772562381093093400,10.38709326171875,-0.06953193992376328,-0.0812157616019249,-0.06312384456396103
1772562381103160300,10.397160400390625,-0.03954927250742912,-0.04807538539171219,-0.08169113099575043
1772562381113228300,10.407228271484374,-0.007383081596344709,0.06278881430625916,-0.09431850910186768
1772562381123295500,10.41729541015625,0.023371635004878044,0.10019984096288681,-0.10074711591005325
1772562381133362400,10.427362548828125,0.034029338508844376,0.06234779581427574,-0.09884987771511078
1772562381143429600,10.4374296875,0.026135196909308434,0.012691560201346874,-0.085840605199337
1772562381153497300,10.447497314453125,0.013863617554306984,-0.01176424790173769,-0.061165086925029755
1772562381163564500,10.457564453125,0.005213404074311256,-0.030655646696686745,-0.03663524240255356
1772562381173631500,10.467631591796875,0.0009552759001962841,-0.045107290148735046,-0.006807305850088596
1772562381183698400,10.477698486328125,-0.003911118488758802,-0.053822483867406845,0.01794038526713848
1772562381193766400,10.487766357421876,-0.006756706163287163,-0.056300822645425797,0.02552000805735588
1772562381203833300,10.497833251953125,-0.0071127708069980145,-0.04189338907599449,0.0313696414232254
1772562381213900300,10.507900390625,-0.005511678289622068,-0.0036338833160698414,0.03337952867150307
1772562381223967200,10.51796728515625,0.008225439116358757,0.022167619317770004,0.02353462018072605
1772562381234035500,10.528035400390625,0.021281320601701736,0.02803962305188179,0.01623782515525818
1772562381244102400,10.538102294921876,0.036126311868429184,0.016658073291182518,0.007927431724965572
1772562381254169300,10.54816943359375,0.04193759709596634,-0.006445115897804499,-0.0017992316279560328
1772562381264236500,10.558236572265624,0.043897151947021484,-0.020143616944551468,-0.01073839794844389
1772562381274304500,10.568304443359375,0.05216067284345627,-0.02076386846601963,-0.02130954898893833
1772562381284371500,10.578371337890625,0.06252889335155487,-0.019000589847564697,-0.029703833162784576
1772562381294438400,10.5884384765625,0.06967175751924515,-0.01859498955309391,-0.03573376312851906
1772562381304505300,10.59850537109375,0.07051411271095276,-0.010236658155918121,-0.03519127517938614
1772562381314573600,10.608573486328124,0.06620751321315765,-0.012850550934672356,-0.03163702040910721
1772562381324640500,10.618640625,0.056239038705825806,-0.04592621326446533,-0.024092020466923714
1772562381334707500,10.62870751953125,0.048039164394140244,-0.07625509053468704,-0.010203901678323746
1772562381344774400,10.6387744140625,0.03663071617484093,-0.09014879912137985,0.0016343819443136454
1772562381354842400,10.64884228515625,0.029810359701514244,-0.10244274884462357,-0.0034961977507919073
1772562381364909300,10.658909423828124,0.03668397665023804,-0.14330603182315826,-0.007245928514748812
1772562381374976500,10.6689765625,0.025423334911465645,-0.18220016360282898,-0.006067213602364063
1772562381385043500,10.67904345703125,0.00566986994817853,-0.16545714437961578,-0.0021049624774605036
1772562381395111400,10.689111328125,-0.0415213443338871,-0.09986720979213715,0.005301554687321186
1772562381405178600,10.6991787109375,-0.05060591921210289,-0.056236106902360916,0.026085663586854935
1772562381415245600,10.70924560546875,-0.03648317605257034,-0.018192851915955544,0.037092775106430054
1772562381425312500,10.7193125,-0.017405355349183083,-0.0012905678013339639,0.03133661672472954
1772562381435380500,10.72938037109375,0.0032109732273966074,-0.0072869411669671535,0.024519724771380424
1772562381445446700,10.73944677734375,0.009904029779136181,-0.0047260457649827,0.022128738462924957
1772562381455513600,10.749513671875,0.02382730133831501,-0.000979244359768927,0.02045946940779686
1772562381465580800,10.759580810546876,0.04595790430903435,-0.004745753016322851,0.023326894268393517
1772562381475648800,10.769648681640625,0.07560980319976807,0.012554673478007317,0.02569524385035038
1772562381485716000,10.779716064453124,0.09741576761007309,0.02971954643726349,0.026327477768063545
1772562381495783000,10.789782958984375,0.1049056425690651,0.042871035635471344,0.020780378952622414
1772562381505849900,10.799849853515624,0.1000288650393486,0.06692817062139511,0.018695389851927757
1772562381515917800,10.809917724609376,0.09207240492105484,0.09590655565261841,0.017013870179653168
1772562381525984800,10.81998486328125,0.08421021699905396,0.11426878720521927,0.013544837012887001
1772562381536051700,10.8300517578125,0.08650293201208115,0.12447002530097961,0.019641611725091934
1772562381546119700,10.84011962890625,0.07886791974306107,0.11876819282770157,0.02154683694243431
1772562381556187000,10.850186767578125,0.06781233847141266,0.09980569034814835,0.013177321292459965
1772562381566253800,10.86025390625,0.04695126414299011,0.08615965396165848,-0.008979113772511482
1772562381576320800,10.87032080078125,0.015795741230249405,0.11396651715040207,-0.023749537765979767
1772562381586388000,10.880387939453126,-0.017236243933439255,0.16469654440879822,-0.044679053127765656
1772562381596456000,10.8904560546875,-0.051487959921360016,0.1815921664237976,-0.06605358421802521
1772562381606523000,10.90052294921875,-0.09059488028287888,0.14941079914569855,-0.016449013724923134
1772562381616589800,10.91058984375,-0.1434040367603302,0.030180007219314575,0.014347780495882034
1772562381626657800,10.92065771484375,-0.15159565210342407,-0.08214333653450012,0.04452725499868393
1772562381636724700,10.930724853515626,-0.11626109480857849,-0.17568820714950562,0.06578114628791809
1772562381646791700,10.940791748046875,-0.081638403236866,-0.2111458033323288,0.04366651922464371
1772562381656859000,10.95085888671875,-0.058996208012104034,-0.20795533061027527,-0.014570154249668121
1772562381666926800,10.9609267578125,0.0023193468805402517,-0.1529754400253296,-0.08825688809156418
1772562381676993800,10.970993896484375,0.06602881848812103,-0.09389160573482513,-0.12196531891822815
1772562381687060700,10.981060791015626,0.08032786101102829,-0.03683897480368614,-0.11344506591558456
1772562381697128000,10.9911279296875,0.07902371138334274,-0.08063679188489914,-0.12311314046382904
