time,seconds_elapsed,z,y,x
1772458121987272400,0.0552724609375,-0.8949432373046875,-0.3371429443359375,0.107025146484375
1772458121997341400,0.065341552734375,-0.886993408203125,-0.34149169921875,0.1097412109375
1772458122007409400,0.075409423828125,-0.913421630859375,-0.347808837890625,0.0938720703125
1772458122017478400,0.085478515625,-0.9407196044921875,-0.3498077392578125,0.0784759521484375
1772458122027546400,0.09554638671875,-0.9458465576171875,-0.343841552734375,0.07073974609375
1772458122037615600,0.10561572265625,-0.939300537109375,-0.339508056640625,0.0748443603515625
1772458122047683600,0.11568359375,-0.9271392822265625,-0.331878662109375,0.0814361572265625
1772458122057752300,0.12575244140625,-0.9063720703125,-0.32159423828125,0.0962371826171875
1772458122067820500,0.135820556640625,-0.8881683349609375,-0.3130035400390625,0.109222412109375
1772458122077889500,0.1458896484375,-0.8899383544921875,-0.3035888671875,0.1079864501953125
1772458122087957500,0.15595751953125,-0.8940582275390625,-0.289276123046875,0.101806640625
1772458122098026500,0.166026611328125,-0.89453125,-0.273345947265625,0.1019287109375
1772458122108094500,0.176094482421875,-0.904327392578125,-0.2596435546875,0.1039276123046875
1772458122118163500,0.18616357421875,-0.9157257080078125,-0.2450714111328125,0.10858154296875
1772458122128231400,0.1962314453125,-0.92572021484375,-0.2306671142578125,0.1221771240234375
1772458122138300400,0.206300537109375,-0.942901611328125,-0.2223358154296875,0.1309356689453125
1772458122148368400,0.216368408203125,-0.9528350830078125,-0.216888427734375,0.131622314453125
1772458122158437400,0.226437255859375,-0.95513916015625,-0.2162933349609375,0.135650634765625
1772458122168505300,0.23650537109375,-0.9438018798828125,-0.22381591796875,0.1436767578125
1772458122178574300,0.24657421875,-0.9214019775390625,-0.2381439208984375,0.1591949462890625
1772458122188642600,0.256642578125,-0.894989013671875,-0.2569427490234375,0.169219970703125
1772458122198711300,0.266711181640625,-0.8813323974609375,-0.2768096923828125,0.1753692626953125
1772458122208779300,0.276779296875,-0.8917083740234375,-0.2917938232421875,0.17486572265625
1772458122218848500,0.2868486328125,-0.9218597412109375,-0.300323486328125,0.167236328125
1772458122228916500,0.29691650390625,-0.9339599609375,-0.309173583984375,0.160491943359375
1772458122238985500,0.3069853515625,-0.9261627197265625,-0.319854736328125,0.1578369140625
1772458122249053400,0.317053466796875,-0.90350341796875,-0.3292388916015625,0.1532440185546875
1772458122259122400,0.327122314453125,-0.8819732666015625,-0.33538818359375,0.1497344970703125
1772458122269190700,0.337190673828125,-0.8644866943359375,-0.3366546630859375,0.1455230712890625
1772458122279259400,0.34725927734375,-0.8576202392578125,-0.3368682861328125,0.134521484375
1772458122289328400,0.357328369140625,-0.858734130859375,-0.3414764404296875,0.1180572509765625
1772458122299396600,0.367396728515625,-0.8665618896484375,-0.34197998046875,0.0991973876953125
1772458122309465300,0.37746533203125,-0.8895721435546875,-0.3330535888671875,0.08233642578125
1772458122319533300,0.387533203125,-0.9296417236328125,-0.319305419921875,0.0647125244140625
1772458122329602600,0.3976025390625,-0.9649505615234375,-0.3048095703125,0.050537109375
1772458122339670500,0.40767041015625,-1.0040740966796875,-0.2929840087890625,0.031341552734375
1772458122349739500,0.417739501953125,-1.0379638671875,-0.2822265625,0.0150604248046875
1772458122359807500,0.427807373046875,-1.0486602783203125,-0.2777099609375,0.0081329345703125
1772458122369876500,0.43787646484375,-1.0278778076171875,-0.280487060546875,0.011932373046875
1772458122379944400,0.4479443359375,-0.9897613525390625,-0.28350830078125,0.0280914306640625
1772458122390013400,0.458013427734375,-0.946929931640625,-0.2841796875,0.04638671875
1772458122400081400,0.468081298828125,-0.91986083984375,-0.275634765625,0.0660247802734375
1772458122410150400,0.478150390625,-0.9121856689453125,-0.2618560791015625,0.082916259765625
1772458122420218400,0.48821826171875,-0.91986083984375,-0.254058837890625,0.0888214111328125
1772458122430287400,0.498287353515625,-0.9350433349609375,-0.2500152587890625,0.0784759521484375
1772458122440355600,0.50835546875,-0.9437713623046875,-0.2465362548828125,0.069976806640625
1772458122450424300,0.51842431640625,-0.9600982666015625,-0.2413330078125,0.064697265625
1772458122460492300,0.5284921875,-0.986358642578125,-0.236724853515625,0.0606536865234375
1772458122470561300,0.538561279296875,-1.0157318115234375,-0.23614501953125,0.053192138671875
1772458122480629200,0.548629150390625,-1.047027587890625,-0.228118896484375,0.053253173828125
1772458122490698000,0.558697998046875,-1.055633544921875,-0.224395751953125,0.0675506591796875
1772458122500766200,0.56876611328125,-1.0357208251953125,-0.228546142578125,0.0838470458984375
1772458122510835200,0.578835205078125,-1.008148193359375,-0.2365264892578125,0.0913238525390625
1772458122520903200,0.588903076171875,-0.9798431396484375,-0.2481842041015625,0.098236083984375
1772458122530972200,0.59897216796875,-0.9487762451171875,-0.2585906982421875,0.10003662109375
1772458122541040000,0.6090400390625,-0.9221038818359375,-0.270294189453125,0.0979156494140625
1772458122551109000,0.619109130859375,-0.907012939453125,-0.2866973876953125,0.09527587890625
1772458122561177300,0.62917724609375,-0.9058380126953125,-0.2998199462890625,0.087860107421875
1772458122571246000,0.63924609375,-0.9073333740234375,-0.3077239990234375,0.078826904296875
1772458122581314000,0.64931396484375,-0.9170074462890625,-0.31158447265625,0.0733642578125
1772458122591383300,0.65938330078125,-0.9241790771484375,-0.3155364990234375,0.0638580322265625
1772458122601451300,0.669451171875,-0.9334564208984375,-0.3164520263671875,0.0525970458984375
1772458122611520300,0.679520263671875,-0.9551849365234375,-0.3154449462890625,0.0417327880859375
1772458122621588200,0.689588134765625,-0.9765472412109375,-0.313232421875,0.0352783203125
1772458122631657200,0.6996572265625,-0.9856109619140625,-0.3074798583984375,0.02923583984375
1772458122641725200,0.70972509765625,-0.9950408935546875,-0.3008880615234375,0.0274810791015625
1772458122651794200,0.719794189453125,-0.9990234375,-0.2982025146484375,0.0321197509765625
1772458122661862100,0.729862060546875,-0.9934844970703125,-0.293792724609375,0.0370025634765625
1772458122671931400,0.739931396484375,-0.986053466796875,-0.2926483154296875,0.0476531982421875
1772458122681999000,0.7499990234375,-0.96929931640625,-0.2911224365234375,0.060211181640625
1772458122692068000,0.760068115234375,-0.949615478515625,-0.2919921875,0.0633544921875
1772458122702137300,0.770137451171875,-0.938079833984375,-0.295928955078125,0.06744384765625
1772458122712205000,0.780205078125,-0.93359375,-0.2964935302734375,0.0687408447265625
1772458122722273000,0.79027294921875,-0.9352874755859375,-0.2986602783203125,0.0675811767578125
1772458122732342300,0.80034228515625,-0.941162109375,-0.30010986328125,0.0653533935546875
1772458122742410200,0.81041015625,-0.9453887939453125,-0.299102783203125,0.0646514892578125
1772458122752479000,0.82047900390625,-0.9470367431640625,-0.29705810546875,0.06805419921875
1772458122762548200,0.83054833984375,-0.9436187744140625,-0.2987823486328125,0.079498291015625
1772458122772616200,0.8406162109375,-0.9464569091796875,-0.3072662353515625,0.08984375
1772458122782685200,0.850685302734375,-0.9417572021484375,-0.31390380859375,0.0922698974609375
1772458122792753200,0.860753173828125,-0.9345245361328125,-0.3144683837890625,0.0884552001953125
1772458122802822100,0.870822265625,-0.9379730224609375,-0.3135528564453125,0.078704833984375
1772458122812890400,0.880890380859375,-0.9532012939453125,-0.3110198974609375,0.0637359619140625
1772458122822959000,0.890958984375,-0.96771240234375,-0.3121795654296875,0.053955078125
1772458122833027000,0.901027099609375,-0.97625732421875,-0.315277099609375,0.042999267578125
1772458122843096300,0.911096435546875,-0.9924163818359375,-0.3101348876953125,0.0204620361328125
1772458122853164300,0.921164306640625,-1.009307861328125,-0.29437255859375,-0.0048980712890625
1772458122863233000,0.93123291015625,-1.0264129638671875,-0.277679443359375,-0.01531982421875
1772458122873301200,0.94130126953125,-1.040069580078125,-0.2620391845703125,-0.016021728515625
1772458122883370200,0.951370361328125,-1.0518798828125,-0.2432861328125,-0.0088043212890625
1772458122893438200,0.961438232421875,-1.058135986328125,-0.230377197265625,0.0067138671875
1772458122903507200,0.971507080078125,-1.0546112060546875,-0.22052001953125,0.0234832763671875
1772458122913575200,0.9815751953125,-1.0443115234375,-0.2114715576171875,0.038848876953125
1772458122923644400,0.99164453125,-1.0331268310546875,-0.20587158203125,0.0534515380859375
1772458122933712100,1.001712158203125,-1.021728515625,-0.2059326171875,0.064788818359375
1772458122943781000,1.011781005859375,-1.007415771484375,-0.207244873046875,0.0730743408203125
1772458122953849000,1.02184912109375,-0.988037109375,-0.2086639404296875,0.078094482421875
1772458122963918300,1.03191845703125,-0.9744415283203125,-0.2137908935546875,0.0791778564453125
1772458122973986000,1.041986083984375,-0.96337890625,-0.2182769775390625,0.0764617919921875
1772458122984055300,1.05205517578125,-0.9544677734375,-0.219085693359375,0.07421875
1772458122994123300,1.062123291015625,-0.9436798095703125,-0.2186126708984375,0.0743560791015625
1772458123004192000,1.07219189453125,-0.9356842041015625,-0.219085693359375,0.074859619140625
1772458123014260200,1.08226025390625,-0.934600830078125,-0.2152252197265625,0.076141357421875
1772458123024329200,1.0923291015625,-0.9376220703125,-0.2179107666015625,0.0744781494140625
1772458123034397200,1.102397216796875,-0.9474945068359375,-0.220703125,0.0645294189453125
1772458123044466200,1.112466064453125,-0.9517364501953125,-0.2261810302734375,0.0578155517578125
1772458123054534100,1.1225341796875,-0.945526123046875,-0.233428955078125,0.055877685546875
1772458123064603100,1.13260302734375,-0.9420623779296875,-0.23577880859375,0.047882080078125
1772458123074671400,1.14267138671875,-0.94110107421875,-0.2407073974609375,0.036865234375
1772458123084740000,1.152739990234375,-0.9409637451171875,-0.2442626953125,0.0220947265625
1772458123094808000,1.16280810546875,-0.941802978515625,-0.2492218017578125,0.009429931640625
1772458123104877300,1.172877197265625,-0.9539947509765625,-0.2459869384765625,-0.004852294921875
1772458123114945300,1.1829453125,-0.972991943359375,-0.238677978515625,-0.02154541015625
1772458123125014300,1.19301416015625,-0.9963531494140625,-0.2259521484375,-0.029693603515625
1772458123135082200,1.203082275390625,-1.0125579833984375,-0.2121734619140625,-0.0332489013671875
1772458123145151200,1.213151123046875,-1.0237884521484375,-0.197723388671875,-0.03424072265625
1772458123155219200,1.22321923828125,-1.0316619873046875,-0.19207763671875,-0.0335540771484375
1772458123165288200,1.2332880859375,-1.035247802734375,-0.1890869140625,-0.0284881591796875
1772458123175356200,1.243356201171875,-1.0304107666015625,-0.1916046142578125,-0.021820068359375
1772458123185425400,1.25342529296875,-1.02081298828125,-0.1984405517578125,-0.021026611328125
1772458123195493000,1.2634931640625,-1.012664794921875,-0.2083587646484375,-0.0292816162109375
1772458123205562000,1.27356201171875,-1.0011749267578125,-0.2225189208984375,-0.030242919921875
1772458123215630300,1.28363037109375,-0.976287841796875,-0.2366180419921875,-0.03155517578125
1772458123225699000,1.293698974609375,-0.941741943359375,-0.24896240234375,-0.0358428955078125
1772458123235767000,1.30376708984375,-0.9045257568359375,-0.255096435546875,-0.04132080078125
1772458123245836300,1.313836181640625,-0.8748779296875,-0.25830078125,-0.0470428466796875
1772458123255904300,1.323904296875,-0.86712646484375,-0.2550201416015625,-0.05450439453125
1772458123265973000,1.333972900390625,-0.8848724365234375,-0.2414398193359375,-0.0629730224609375
1772458123276041200,1.344041259765625,-0.9193115234375,-0.222412109375,-0.0657958984375
1772458123286110200,1.354110107421875,-0.949249267578125,-0.2031097412109375,-0.0646209716796875
1772458123296178200,1.36417822265625,-0.968902587890625,-0.1883392333984375,-0.059967041015625
1772458123306247200,1.3742470703125,-0.9806060791015625,-0.179168701171875,-0.0490875244140625
1772458123316315100,1.384315185546875,-0.98223876953125,-0.1784820556640625,-0.0287322998046875
1772458123326384400,1.39438427734375,-0.9684906005859375,-0.184295654296875,-0.003692626953125
1772458123336452400,1.404452392578125,-0.94744873046875,-0.1921844482421875,0.017364501953125
1772458123346521000,1.41452099609375,-0.92724609375,-0.2012786865234375,0.0411529541015625
1772458123356589000,1.424589111328125,-0.89813232421875,-0.2156982421875,0.059844970703125
1772458123366658300,1.434658203125,-0.871002197265625,-0.231292724609375,0.068359375
1772458123376726300,1.444726318359375,-0.8538360595703125,-0.2458953857421875,0.0691375732421875
1772458123386795300,1.454795166015625,-0.8438720703125,-0.2634735107421875,0.0642852783203125
1772458123396863200,1.46486328125,-0.83209228515625,-0.278076171875,0.060272216796875
1772458123406932200,1.47493212890625,-0.8211212158203125,-0.2897491455078125,0.0589447021484375
1772458123417000200,1.485000244140625,-0.8141326904296875,-0.2964019775390625,0.0627288818359375
1772458123427069200,1.495069091796875,-0.8058319091796875,-0.3000640869140625,0.0676727294921875
1772458123437137200,1.50513720703125,-0.8062744140625,-0.3008270263671875,0.068511962890625
1772458123447206100,1.5152060546875,-0.8188018798828125,-0.302886962890625,0.054046630859375
1772458123457274000,1.525274169921875,-0.84857177734375,-0.303741455078125,0.031585693359375
1772458123467343400,1.53534326171875,-0.8809967041015625,-0.3019866943359375,0.0120697021484375
1772458123477411300,1.545411376953125,-0.9109344482421875,-0.2945709228515625,0.002716064453125
1772458123487480300,1.555480224609375,-0.925140380859375,-0.28399658203125,0.0020904541015625
1772458123497548300,1.56554833984375,-0.9342803955078125,-0.2745361328125,0.01080322265625
1772458123507617300,1.5756171875,-0.9435272216796875,-0.2675933837890625,0.0208282470703125
1772458123517685500,1.585685546875,-0.9523162841796875,-0.262420654296875,0.0284423828125
1772458123527754200,1.595754150390625,-0.961517333984375,-0.260101318359375,0.028961181640625
1772458123537822200,1.605822265625,-0.9844818115234375,-0.2570343017578125,0.023590087890625
1772458123547891500,1.615891357421875,-1.0162506103515625,-0.249755859375,0.026580810546875
1772458123557959400,1.62595947265625,-1.0390167236328125,-0.2429962158203125,0.034637451171875
1772458123568028200,1.636028076171875,-1.05426025390625,-0.238922119140625,0.0502166748046875
1772458123578096400,1.646096435546875,-1.065185546875,-0.2394256591796875,0.06146240234375
1772458123588165400,1.656165283203125,-1.0575408935546875,-0.23406982421875,0.053619384765625
1772458123598233300,1.6662333984375,-1.03961181640625,-0.22088623046875,0.0268402099609375
1772458123608302300,1.67630224609375,-1.0509796142578125,-0.2187347412109375,0.0052642822265625
1772458123618370300,1.686370361328125,-1.09149169921875,-0.2213134765625,-0.0123138427734375
1772458123628439600,1.696439453125,-1.12689208984375,-0.215545654296875,-0.0353546142578125
1772458123638507300,1.70650732421875,-1.1616058349609375,-0.200531005859375,-0.0505218505859375
1772458123648576300,1.716576171875,-1.199249267578125,-0.1840362548828125,-0.0513763427734375
1772458123658644200,1.726644287109375,-1.212158203125,-0.17431640625,-0.03533935546875
1772458123668713200,1.736713134765625,-1.1936492919921875,-0.1739044189453125,-0.0062103271484375
1772458123678781200,1.74678125,-1.1475830078125,-0.1785430908203125,0.0233154296875
1772458123688850400,1.756850341796875,-1.08148193359375,-0.1862030029296875,0.048583984375
1772458123698918400,1.76691845703125,-1.022125244140625,-0.1969146728515625,0.0694122314453125
1772458123708987100,1.776987060546875,-0.9840240478515625,-0.2054443359375,0.08331298828125
1772458123719055400,1.787055419921875,-0.9678802490234375,-0.2114105224609375,0.08660888671875
1772458123729124400,1.797124267578125,-0.96051025390625,-0.207855224609375,0.0799102783203125
1772458123739193000,1.807193115234375,-0.966094970703125,-0.20037841796875,0.069244384765625
1772458123749261300,1.81726123046875,-0.9798431396484375,-0.188446044921875,0.05877685546875
1772458123759330300,1.827330322265625,-0.9917755126953125,-0.1718902587890625,0.0503082275390625
1772458123769398300,1.837398193359375,-1.001800537109375,-0.1551513671875,0.045501708984375
1772458123779467300,1.84746728515625,-1.00238037109375,-0.1396484375,0.04241943359375
1772458123789535200,1.85753515625,-1.0018463134765625,-0.12786865234375,0.036407470703125
1772458123799604500,1.8676044921875,-1.00439453125,-0.122344970703125,0.03057861328125
1772458123809672400,1.87767236328125,-0.9891204833984375,-0.12103271484375,0.0370635986328125
1772458123819741200,1.8877412109375,-0.9553985595703125,-0.12664794921875,0.048614501953125
1772458123829809400,1.897809326171875,-0.91790771484375,-0.14141845703125,0.0617828369140625
1772458123839878400,1.90787841796875,-0.8834686279296875,-0.1550140380859375,0.08197021484375
1772458123849946400,1.9179462890625,-0.8514251708984375,-0.171234130859375,0.0994110107421875
1772458123860015400,1.928015380859375,-0.8212432861328125,-0.1876068115234375,0.1137237548828125
1772458123870083300,1.938083251953125,-0.7998809814453125,-0.204132080078125,0.1275787353515625
1772458123880152300,1.94815234375,-0.774444580078125,-0.2239532470703125,0.1428985595703125
1772458123890220300,1.95822021484375,-0.76068115234375,-0.239288330078125,0.1527252197265625
1772458123900289300,1.968289306640625,-0.7660064697265625,-0.253997802734375,0.1515960693359375
1772458123910357200,1.978357177734375,-0.7865447998046875,-0.2605438232421875,0.1464996337890625
1772458123920426500,1.988426513671875,-0.8099212646484375,-0.2591705322265625,0.1373443603515625
1772458123930494200,1.998494140625,-0.8292999267578125,-0.255523681640625,0.1296234130859375
1772458123940563200,2.008563232421875,-0.8424835205078125,-0.246063232421875,0.118560791015625
1772458123950631400,2.01863134765625,-0.8519439697265625,-0.237396240234375,0.1103973388671875
1772458123960700200,2.0287001953125,-0.870849609375,-0.2285003662109375,0.10235595703125
1772458123970768100,2.03876806640625,-0.8984527587890625,-0.2165069580078125,0.0939483642578125
1772458123980837400,2.04883740234375,-0.9317169189453125,-0.204681396484375,0.0936737060546875
1772458123990905300,2.0589052734375,-0.97235107421875,-0.196319580078125,0.1002197265625
1772458124000974300,2.068974365234375,-1.013214111328125,-0.1903839111328125,0.10888671875
1772458124011042300,2.079042236328125,-1.0472869873046875,-0.1862030029296875,0.105712890625
1772458124021111300,2.089111328125,-1.0784759521484375,-0.18438720703125,0.100067138671875
1772458124031179500,2.099179443359375,-1.0942230224609375,-0.187774658203125,0.0970306396484375
1772458124041248300,2.109248291015625,-1.08795166015625,-0.1947021484375,0.0956268310546875
1772458124051316200,2.119316162109375,-1.065765380859375,-0.2045745849609375,0.09820556640625
1772458124061385500,2.129385498046875,-1.038726806640625,-0.2193145751953125,0.1037750244140625
1772458124071453400,2.139453369140625,-1.0104522705078125,-0.2295379638671875,0.1045684814453125
1772458124081522200,2.149522216796875,-0.998016357421875,-0.2381591796875,0.103057861328125
1772458124091590400,2.15959033203125,-0.99456787109375,-0.24554443359375,0.1039581298828125
1772458124101659400,2.169659423828125,-0.98089599609375,-0.2518463134765625,0.1039581298828125
1772458124111727400,2.179727294921875,-0.961395263671875,-0.255950927734375,0.1066741943359375
1772458124121796400,2.18979638671875,-0.944580078125,-0.2618408203125,0.110687255859375
1772458124131864300,2.1998642578125,-0.9346466064453125,-0.2685089111328125,0.1124420166015625
1772458124141933300,2.209933349609375,-0.930633544921875,-0.2743682861328125,0.10748291015625
1772458124152001300,2.220001220703125,-0.930328369140625,-0.2781219482421875,0.10406494140625
1772458124162070300,2.2300703125,-0.92681884765625,-0.281524658203125,0.1042938232421875
1772458124172138200,2.24013818359375,-0.9137725830078125,-0.2855682373046875,0.105682373046875
1772458124182207200,2.250207275390625,-0.900360107421875,-0.28961181640625,0.1073150634765625
1772458124192275200,2.260275146484375,-0.89935302734375,-0.2894134521484375,0.1043701171875
1772458124202344400,2.270344482421875,-0.910888671875,-0.289093017578125,0.0982666015625
1772458124212412400,2.280412353515625,-0.933807373046875,-0.2879638671875,0.092498779296875
1772458124222481200,2.290481201171875,-0.9548187255859375,-0.286651611328125,0.0879364013671875
1772458124232549400,2.30054931640625,-0.9703521728515625,-0.286407470703125,0.087982177734375
1772458124242618400,2.310618408203125,-0.97711181640625,-0.287109375,0.0841217041015625
1772458124252686300,2.320686279296875,-0.98150634765625,-0.2901458740234375,0.0782012939453125
1772458124262755300,2.33075537109375,-0.990936279296875,-0.2900238037109375,0.0717926025390625
1772458124272823300,2.3408232421875,-1.007781982421875,-0.2870635986328125,0.0662384033203125
1772458124282892300,2.350892333984375,-1.02227783203125,-0.2832794189453125,0.0633392333984375
1772458124292960500,2.36096044921875,-1.02435302734375,-0.2784881591796875,0.0716552734375
1772458124303029200,2.371029296875,-1.0178070068359375,-0.277191162109375,0.085540771484375
1772458124313097200,2.38109716796875,-1.010528564453125,-0.2765350341796875,0.1065826416015625
1772458124323166500,2.39116650390625,-1.0062713623046875,-0.2820281982421875,0.1320648193359375
1772458124333234400,2.401234375,-0.99566650390625,-0.2937774658203125,0.16021728515625
1772458124343303200,2.41130322265625,-0.9644622802734375,-0.3011016845703125,0.170074462890625
1772458124353371400,2.421371337890625,-0.939849853515625,-0.303802490234375,0.15777587890625
1772458124363440400,2.4314404296875,-0.9414825439453125,-0.303955078125,0.1399688720703125
1772458124373508000,2.441508056640625,-0.9516754150390625,-0.3043975830078125,0.114501953125
1772458124383577300,2.451577392578125,-0.9702301025390625,-0.3029327392578125,0.0910491943359375
1772458124393645300,2.461645263671875,-0.988128662109375,-0.301361083984375,0.0738067626953125
1772458124403714300,2.47171435546875,-0.999176025390625,-0.280792236328125,0.04779052734375
1772458124413782300,2.4817822265625,-1.0152740478515625,-0.25738525390625,0.033538818359375
1772458124423851300,2.491851318359375,-1.02935791015625,-0.24322509765625,0.03167724609375
1772458124433919500,2.50191943359375,-1.0355682373046875,-0.2286529541015625,0.0392303466796875
1772458124443988200,2.51198828125,-1.0362548828125,-0.218963623046875,0.0557403564453125
1772458124454056200,2.52205615234375,-1.019134521484375,-0.21136474609375,0.07135009765625
1772458124464125200,2.532125244140625,-0.9961090087890625,-0.2073516845703125,0.081939697265625
1772458124474193200,2.542193115234375,-0.9818878173828125,-0.207275390625,0.0897369384765625
1772458124484262100,2.55226220703125,-0.9695281982421875,-0.2064208984375,0.0903778076171875
1772458124494330000,2.562330078125,-0.959869384765625,-0.2078704833984375,0.085174560546875
1772458124504399400,2.5723994140625,-0.957489013671875,-0.2055206298828125,0.0742340087890625
1772458124514467300,2.58246728515625,-0.9575347900390625,-0.1985931396484375,0.066558837890625
1772458124524536000,2.5925361328125,-0.9615020751953125,-0.1902313232421875,0.06268310546875
1772458124534604000,2.60260400390625,-0.972198486328125,-0.1744232177734375,0.060699462890625
1772458124544673300,2.61267333984375,-0.9910736083984375,-0.155181884765625,0.0547943115234375
1772458124554741200,2.6227412109375,-1.0223236083984375,-0.1386871337890625,0.0450439453125
1772458124564810200,2.632810302734375,-1.0594635009765625,-0.1212158203125,0.038177490234375
1772458124574878200,2.642878173828125,-1.0796966552734375,-0.109771728515625,0.0357208251953125
1772458124584947200,2.652947265625,-1.0806121826171875,-0.11273193359375,0.0340423583984375
1772458124595015200,2.66301513671875,-1.0723724365234375,-0.119659423828125,0.0285491943359375
1772458124605084200,2.673084228515625,-1.0515594482421875,-0.13446044921875,0.01953125
1772458124615152000,2.683152099609375,-1.0243377685546875,-0.1556396484375,0.014617919921875
1772458124625221400,2.693221435546875,-0.99530029296875,-0.1767120361328125,0.0087432861328125
1772458124635289000,2.7032890625,-0.96282958984375,-0.1975860595703125,0.00701904296875
1772458124645358000,2.713358154296875,-0.929931640625,-0.2158050537109375,0.0146484375
1772458124655426300,2.72342626953125,-0.894989013671875,-0.2285003662109375,0.0230560302734375
1772458124665495000,2.7334951171875,-0.8676910400390625,-0.236114501953125,0.027008056640625
1772458124675563000,2.74356298828125,-0.848846435546875,-0.2437591552734375,0.023834228515625
1772458124685632300,2.75363232421875,-0.83740234375,-0.2427520751953125,0.015655517578125
1772458124695700200,2.7637001953125,-0.8329620361328125,-0.23907470703125,0.0019073486328125
1772458124705769200,2.773769287109375,-0.8304595947265625,-0.236602783203125,-0.0087432861328125
1772458124715837200,2.783837158203125,-0.8271484375,-0.23553466796875,-0.01171875
1772458124725906200,2.79390625,-0.8380889892578125,-0.2304840087890625,-0.0114593505859375
1772458124735974100,2.80397412109375,-0.865081787109375,-0.2264862060546875,-0.0160980224609375
1772458124746042400,2.81404248046875,-0.89959716796875,-0.225311279296875,-0.0222930908203125
1772458124756111000,2.824111083984375,-0.9369354248046875,-0.2232818603515625,-0.0240020751953125
1772458124766180400,2.834180419921875,-0.9650115966796875,-0.2217864990234375,-0.021820068359375
1772458124776248300,2.844248291015625,-0.97735595703125,-0.2251739501953125,-0.0128021240234375
1772458124786316000,2.85431591796875,-0.969635009765625,-0.233123779296875,-0.0003204345703125
1772458124796385300,2.86438525390625,-0.9532318115234375,-0.2420654296875,0.01470947265625
1772458124806454300,2.874454345703125,-0.9393768310546875,-0.24981689453125,0.0268402099609375
1772458124816522200,2.884522216796875,-0.925567626953125,-0.259002685546875,0.0371551513671875
1772458124826590200,2.894590087890625,-0.9121246337890625,-0.2711181640625,0.0382537841796875
1772458124836659200,2.9046591796875,-0.8970947265625,-0.2824554443359375,0.0358428955078125
1772458124846727200,2.91472705078125,-0.88531494140625,-0.29644775390625,0.0349273681640625
1772458124856796200,2.924796142578125,-0.8807373046875,-0.3106536865234375,0.0263824462890625
1772458124866864000,2.934864013671875,-0.8828277587890625,-0.3204345703125,0.0121002197265625
1772458124876933000,2.94493310546875,-0.8848114013671875,-0.326171875,-0.0045318603515625
1772458124887001300,2.95500146484375,-0.889068603515625,-0.3311309814453125,-0.01446533203125
1772458124897070000,2.965070068359375,-0.8995361328125,-0.33123779296875,-0.02734375
1772458124907138000,2.975137939453125,-0.9133148193359375,-0.33221435546875,-0.0376129150390625
1772458124917207300,2.985207275390625,-0.926971435546875,-0.3369293212890625,-0.046630859375
1772458124927275300,2.995275146484375,-0.93267822265625,-0.338623046875,-0.05682373046875
1772458124937344000,3.005343994140625,-0.9379425048828125,-0.340728759765625,-0.06146240234375
1772458124947412200,3.015412109375,-0.9507904052734375,-0.339263916015625,-0.062652587890625
1772458124957481200,3.025481201171875,-0.95819091796875,-0.3327789306640625,-0.06658935546875
1772458124967549200,3.035549072265625,-0.96307373046875,-0.327606201171875,-0.064788818359375
1772458124977618200,3.0456181640625,-0.9634857177734375,-0.322906494140625,-0.058746337890625
1772458124987686100,3.05568603515625,-0.9650421142578125,-0.3193511962890625,-0.0505828857421875
1772458124997755400,3.06575537109375,-0.9631805419921875,-0.3151092529296875,-0.0465087890625
1772458125007823000,3.075822998046875,-0.9705963134765625,-0.3138580322265625,-0.045806884765625
1772458125017892000,3.08589208984375,-0.99029541015625,-0.3136444091796875,-0.051361083984375
1772458125027960300,3.095960205078125,-1.011077880859375,-0.312774658203125,-0.0597686767578125
1772458125038029300,3.106029296875,-1.0280914306640625,-0.312103271484375,-0.0658416748046875
1772458125048097000,3.116096923828125,-1.0319061279296875,-0.313690185546875,-0.0750579833984375
1772458125058166300,3.126166259765625,-1.0252227783203125,-0.314910888671875,-0.0798492431640625
1772458125068234200,3.136234130859375,-1.0227813720703125,-0.3194732666015625,-0.07861328125
1772458125078303000,3.146302978515625,-1.0216064453125,-0.3242645263671875,-0.076171875
1772458125088371200,3.15637109375,-1.0170440673828125,-0.3315582275390625,-0.0691680908203125
1772458125098440200,3.166440185546875,-0.997589111328125,-0.333221435546875,-0.0648193359375
1772458125108508200,3.176508056640625,-0.9748077392578125,-0.327056884765625,-0.0708770751953125
1772458125118577200,3.1865771484375,-0.971466064453125,-0.3211669921875,-0.0781402587890625
1772458125128645000,3.19664501953125,-0.988372802734375,-0.3148345947265625,-0.081634521484375
1772458125138714000,3.206714111328125,-1.00958251953125,-0.3035125732421875,-0.0847625732421875
1772458125148782300,3.2167822265625,-1.0233306884765625,-0.2873077392578125,-0.0860137939453125
1772458125158851000,3.22685107421875,-1.0256195068359375,-0.2736968994140625,-0.080780029296875
1772458125168919000,3.2369189453125,-1.0291595458984375,-0.2630615234375,-0.06939697265625
1772458125178988300,3.24698828125,-1.0370635986328125,-0.2559051513671875,-0.05316162109375
1772458125189056300,3.25705615234375,-1.033294677734375,-0.25018310546875,-0.0285186767578125
1772458125199125200,3.267125244140625,-1.0144195556640625,-0.2516632080078125,-0.00811767578125
1772458125209193200,3.277193115234375,-0.988311767578125,-0.2627105712890625,0.00860595703125
1772458125219262200,3.28726220703125,-0.9663543701171875,-0.2740020751953125,0.02490234375
1772458125229330200,3.297330078125,-0.9449920654296875,-0.28680419921875,0.042022705078125
1772458125239399200,3.307399169921875,-0.9345550537109375,-0.298004150390625,0.048614501953125
1772458125249467100,3.317467041015625,-0.92657470703125,-0.30389404296875,0.04962158203125
1772458125259536400,3.327536376953125,-0.909942626953125,-0.3075408935546875,0.0416717529296875
1772458125269604000,3.33760400390625,-0.892333984375,-0.30889892578125,0.02874755859375
1772458125279673000,3.347673095703125,-0.881256103515625,-0.3060760498046875,0.0139923095703125
1772458125289741300,3.3577412109375,-0.88104248046875,-0.3005523681640625,0.001190185546875
1772458125299810000,3.36781005859375,-0.9032440185546875,-0.2902679443359375,-0.004791259765625
1772458125309878000,3.3778779296875,-0.936920166015625,-0.2691802978515625,-0.006805419921875
1772458125319947300,3.387947265625,-0.9678955078125,-0.2470703125,0.001617431640625
1772458125330015200,3.39801513671875,-0.99505615234375,-0.228485107421875,0.0147552490234375
1772458125340084000,3.408083984375,-1.0226287841796875,-0.2105560302734375,0.02203369140625
1772458125350152200,3.418152099609375,-1.038116455078125,-0.1885528564453125,0.03021240234375
1772458125360221200,3.42822119140625,-1.0437164306640625,-0.1728363037109375,0.041229248046875
1772458125370289200,3.4382890625,-1.04705810546875,-0.1660308837890625,0.0532989501953125
1772458125380358100,3.448358154296875,-1.0407867431640625,-0.1572418212890625,0.0634307861328125
1772458125390426000,3.458426025390625,-1.021942138671875,-0.1520233154296875,0.0790252685546875
1772458125400495400,3.468495361328125,-1.0010986328125,-0.1526336669921875,0.1115875244140625
1772458125410563300,3.478563232421875,-0.975738525390625,-0.1555023193359375,0.1453399658203125
1772458125420632000,3.488632080078125,-0.9380035400390625,-0.1684722900390625,0.176910400390625
1772458125430700300,3.4987001953125,-0.899932861328125,-0.2045135498046875,0.2027130126953125
1772458125440769300,3.508769287109375,-0.864471435546875,-0.25262451171875,0.218597412109375
1772458125450837200,3.518837158203125,-0.84521484375,-0.2957916259765625,0.217254638671875
1772458125460906200,3.52890625,-0.8449249267578125,-0.3262786865234375,0.2112274169921875
1772458125470974200,3.53897412109375,-0.8519134521484375,-0.3459320068359375,0.1972198486328125
1772458125481043500,3.54904345703125,-0.8547821044921875,-0.358184814453125,0.18121337890625
1772458125491111200,3.559111083984375,-0.856048583984375,-0.362274169921875,0.1639251708984375
1772458125501180400,3.569180419921875,-0.858154296875,-0.3557891845703125,0.1541595458984375
1772458125511248400,3.579248291015625,-0.871490478515625,-0.348846435546875,0.13970947265625
1772458125521317000,3.589317138671875,-0.8904876708984375,-0.335968017578125,0.1239166259765625
1772458125531385300,3.59938525390625,-0.9095916748046875,-0.3186798095703125,0.109832763671875
1772458125541454300,3.609454345703125,-0.92352294921875,-0.30120849609375,0.1016845703125
1772458125551522300,3.619522216796875,-0.9350738525390625,-0.2821807861328125,0.0950775146484375
1772458125561591300,3.62959130859375,-0.9462432861328125,-0.26043701171875,0.10003662109375
1772458125571659300,3.6396591796875,-0.9539794921875,-0.245147705078125,0.10546875
1772458125581728300,3.649728271484375,-0.960174560546875,-0.2332611083984375,0.111053466796875
1772458125591796500,3.65979638671875,-0.9693603515625,-0.2211456298828125,0.11328125
1772458125601865200,3.669865234375,-0.97705078125,-0.210296630859375,0.12152099609375
1772458125611933200,3.67993310546875,-0.976348876953125,-0.2022247314453125,0.1311798095703125
1772458125622002400,3.69000244140625,-0.956329345703125,-0.1993865966796875,0.1433868408203125
1772458125632070400,3.7000703125,-0.927459716796875,-0.2013397216796875,0.152496337890625
1772458125642139400,3.710139404296875,-0.89678955078125,-0.209320068359375,0.156219482421875
1772458125652207400,3.720207275390625,-0.87445068359375,-0.216552734375,0.1590423583984375
1772458125662276400,3.7302763671875,-0.8627166748046875,-0.2234344482421875,0.152557373046875
1772458125672344300,3.74034423828125,-0.8601226806640625,-0.226654052734375,0.15234375
1772458125682413300,3.750413330078125,-0.86358642578125,-0.2358551025390625,0.149322509765625
1772458125692481300,3.760481201171875,-0.8617706298828125,-0.2459869384765625,0.14703369140625
1772458125702550500,3.770550537109375,-0.85699462890625,-0.256561279296875,0.1458587646484375
1772458125712618200,3.7806181640625,-0.8494873046875,-0.270477294921875,0.1453704833984375
1772458125722687200,3.790687255859375,-0.8430633544921875,-0.2816925048828125,0.1463775634765625
1772458125732755500,3.80075537109375,-0.838043212890625,-0.2912445068359375,0.1451873779296875
1772458125742823400,3.810823486328125,-0.8371734619140625,-0.3028411865234375,0.1410369873046875
1772458125752892200,3.82089208984375,-0.8391876220703125,-0.3098602294921875,0.1374664306640625
1772458125762960400,3.83096044921875,-0.8596954345703125,-0.31640625,0.13299560546875
1772458125773029400,3.841029296875,-0.8795013427734375,-0.32305908203125,0.127410888671875
1772458125783097300,3.851097412109375,-0.8954010009765625,-0.327789306640625,0.1244354248046875
1772458125793166300,3.861166259765625,-0.9067535400390625,-0.3318023681640625,0.1237945556640625
1772458125803234300,3.871234375,-0.914459228515625,-0.3306121826171875,0.1230621337890625
1772458125813303300,3.88130322265625,-0.928802490234375,-0.3319549560546875,0.1254425048828125
1772458125823371500,3.89137158203125,-0.956878662109375,-0.3271942138671875,0.12457275390625
1772458125833440300,3.901440185546875,-0.981842041015625,-0.320953369140625,0.1184539794921875
1772458125843508200,3.91150830078125,-0.995697021484375,-0.3160858154296875,0.1165771484375
1772458125853577500,3.921577392578125,-0.995697021484375,-0.3131561279296875,0.12158203125
1772458125863645400,3.9316455078125,-0.997894287109375,-0.308135986328125,0.1280975341796875
1772458125873714200,3.941714111328125,-1.0021209716796875,-0.3065338134765625,0.13165283203125
1772458125883782400,3.951782470703125,-1.0065765380859375,-0.3111419677734375,0.1464385986328125
1772458125893851400,3.961851318359375,-1.0030975341796875,-0.324188232421875,0.171356201171875
1772458125903919000,3.971919189453125,-0.976654052734375,-0.3326416015625,0.186248779296875
1772458125913988400,3.98198828125,-0.9488525390625,-0.333953857421875,0.186248779296875
1772458125924056300,3.992056396484375,-0.9608001708984375,-0.3363494873046875,0.1864776611328125
1772458125934123300,4.002123291015625,-0.9787445068359375,-0.332733154296875,0.1930999755859375
1772458125944192500,4.012192626953125,-0.9885711669921875,-0.3231964111328125,0.19647216796875
1772458125954260200,4.02226025390625,-0.9934234619140625,-0.31201171875,0.196014404296875
1772458125964329200,4.0323291015625,-0.99322509765625,-0.299652099609375,0.188690185546875
1772458125974397400,4.0423974609375,-0.9999847412109375,-0.2926788330078125,0.1807403564453125
1772458125984466400,4.052466552734375,-1.0100860595703125,-0.2930145263671875,0.1840972900390625
1772458125994534100,4.0625341796875,-1.01568603515625,-0.293975830078125,0.186767578125
1772458126004603400,4.072603271484375,-1.014862060546875,-0.2951507568359375,0.186431884765625
1772458126014671400,4.08267138671875,-1.01422119140625,-0.295257568359375,0.17852783203125
1772458126024740000,4.092739990234375,-1.0169525146484375,-0.301513671875,0.165679931640625
1772458126034808300,4.102808349609375,-1.0177154541015625,-0.307525634765625,0.149871826171875
1772458126044877300,4.112877197265625,-1.02032470703125,-0.3108673095703125,0.1339569091796875
1772458126054945300,4.1229453125,-1.028167724609375,-0.30908203125,0.1161956787109375
1772458126065014300,4.13301416015625,-1.042572021484375,-0.305023193359375,0.1016998291015625
1772458126075082200,4.143082275390625,-1.0602264404296875,-0.289642333984375,0.0895538330078125
1772458126085151500,4.1531513671875,-1.0863037109375,-0.26922607421875,0.0767822265625
1772458126095219500,4.163219482421875,-1.1078033447265625,-0.2525787353515625,0.0584564208984375
1772458126105287400,4.173287353515625,-1.11810302734375,-0.2397613525390625,0.037445068359375
1772458126115356200,4.183356201171875,-1.1283416748046875,-0.2322235107421875,0.014678955078125
1772458126125424400,4.19342431640625,-1.1352996826171875,-0.2237091064453125,-0.0012359619140625
1772458126135493400,4.203493408203125,-1.124847412109375,-0.21966552734375,-0.009796142578125
1772458126145561300,4.213561279296875,-1.09808349609375,-0.225311279296875,-0.012786865234375
1772458126155630300,4.22363037109375,-1.0667724609375,-0.2321929931640625,-0.00531005859375
1772458126165698300,4.2336982421875,-1.0321807861328125,-0.24444580078125,0.0019989013671875
1772458126175767300,4.243767333984375,-0.9905242919921875,-0.2589263916015625,0.0103607177734375
1772458126185835300,4.253835205078125,-0.9505157470703125,-0.2730255126953125,0.0102081298828125
1772458126195904300,4.263904296875,-0.9192657470703125,-0.2856597900390625,0.0067138671875
1772458126205972500,4.273972412109375,-0.9044952392578125,-0.2985992431640625,0.0092620849609375
1772458126216041200,4.284041259765625,-0.9011688232421875,-0.3006744384765625,0.012420654296875
1772458126226109200,4.294109130859375,-0.89306640625,-0.2992706298828125,0.012939453125
1772458126236178400,4.304178466796875,-0.877899169921875,-0.2989654541015625,0.015655517578125
1772458126246246400,4.314246337890625,-0.8710174560546875,-0.293243408203125,0.0164031982421875
1772458126256315100,4.324315185546875,-0.8683319091796875,-0.28564453125,0.0148162841796875
1772458126266383400,4.33438330078125,-0.8699493408203125,-0.2765655517578125,0.0200958251953125
1772458126276452400,4.344452392578125,-0.86785888671875,-0.2656097412109375,0.0279998779296875
1772458126286521300,4.354521240234375,-0.8703765869140625,-0.25897216796875,0.03338623046875
1772458126296590300,4.36459033203125,-0.8719024658203125,-0.257598876953125,0.0431671142578125
1772458126306658300,4.374658203125,-0.8625640869140625,-0.2551116943359375,0.0604705810546875
1772458126316727300,4.384727294921875,-0.8442840576171875,-0.253204345703125,0.0789337158203125
1772458126326795300,4.394795166015625,-0.825286865234375,-0.2525787353515625,0.099365234375
1772458126336864300,4.4048642578125,-0.8088836669921875,-0.2575225830078125,0.118408203125
1772458126346932500,4.414932373046875,-0.796173095703125,-0.26800537109375,0.1311798095703125
1772458126357001200,4.425001220703125,-0.79351806640625,-0.28131103515625,0.140625
1772458126367069200,4.435069091796875,-0.79608154296875,-0.2888641357421875,0.1471099853515625
1772458126377138400,4.445138427734375,-0.793182373046875,-0.287445068359375,0.1513214111328125
1772458126387206400,4.455206298828125,-0.788055419921875,-0.2911376953125,0.155303955078125
1772458126397275100,4.465275146484375,-0.78704833984375,-0.2976837158203125,0.15380859375
1772458126407343400,4.47534326171875,-0.78790283203125,-0.3072509765625,0.1460113525390625
1772458126417412400,4.485412353515625,-0.79364013671875,-0.3189697265625,0.1341552734375
1772458126427480300,4.495480224609375,-0.810211181640625,-0.330657958984375,0.12005615234375
1772458126437549300,4.50554931640625,-0.8342742919921875,-0.3351287841796875,0.1067657470703125
1772458126447617300,4.5156171875,-0.855743408203125,-0.3375396728515625,0.0965728759765625
1772458126457686500,4.5256865234375,-0.86676025390625,-0.3418731689453125,0.0867767333984375
1772458126467754800,4.535754638671875,-0.86212158203125,-0.348846435546875,0.077545166015625
1772458126477823700,4.54582373046875,-0.846771240234375,-0.3593902587890625,0.0744171142578125
1772458126487891700,4.5558916015625,-0.8409271240234375,-0.3689422607421875,0.06573486328125
1772458126497960700,4.565960693359375,-0.8638916015625,-0.3719024658203125,0.0592498779296875
1772458126508028700,4.576028564453125,-0.8953704833984375,-0.3695831298828125,0.05145263671875
1772458126518097700,4.58609765625,-0.9169921875,-0.3678131103515625,0.055511474609375
1772458126528166000,4.596165771484375,-0.921295166015625,-0.3679656982421875,0.063629150390625
1772458126538234600,4.606234619140625,-0.91455078125,-0.3670501708984375,0.075439453125
1772458126548302600,4.616302490234375,-0.912109375,-0.366424560546875,0.0833740234375
1772458126558371800,4.626371826171875,-0.9178466796875,-0.3690643310546875,0.08673095703125
1772458126568439800,4.636439697265625,-0.9217071533203125,-0.377410888671875,0.08282470703125
1772458126578508500,4.646508544921875,-0.9237213134765625,-0.387115478515625,0.07904052734375
1772458126588576800,4.65657666015625,-0.9233245849609375,-0.3964080810546875,0.07440185546875
1772458126598645800,4.666645751953125,-0.9238433837890625,-0.403106689453125,0.0705108642578125
1772458126608713700,4.676713623046875,-0.926300048828125,-0.411376953125,0.0621490478515625
1772458126618782700,4.68678271484375,-0.9392242431640625,-0.4199676513671875,0.0533294677734375
1772458126628850700,4.6968505859375,-0.950653076171875,-0.426727294921875,0.045562744140625
1772458126638918700,4.706918701171875,-0.954071044921875,-0.428680419921875,0.0395355224609375
1772458126648987600,4.716987548828125,-0.9515838623046875,-0.43035888671875,0.038604736328125
1772458126659055600,4.7270556640625,-0.9483184814453125,-0.4293670654296875,0.0400848388671875
1772458126669124900,4.737124755859375,-0.9466094970703125,-0.4251861572265625,0.0349578857421875
1772458126679192800,4.74719287109375,-0.9548492431640625,-0.4207916259765625,0.0244903564453125
1772458126689261600,4.757261474609375,-0.977386474609375,-0.4113311767578125,0.01519775390625
1772458126699329500,4.76732958984375,-0.9971160888671875,-0.398468017578125,0.0076141357421875
1772458126709398800,4.777398681640625,-1.0084381103515625,-0.389801025390625,0.0062713623046875
1772458126719466800,4.787466796875,-1.0215606689453125,-0.39569091796875,0.0220794677734375
1772458126729535700,4.79753564453125,-1.01007080078125,-0.4134674072265625,0.041839599609375
1772458126739603700,4.807603759765625,-0.9600372314453125,-0.40643310546875,0.025787353515625
1772458126749672700,4.817672607421875,-0.9608612060546875,-0.395355224609375,-0.0074310302734375
1772458126759741000,4.827740966796875,-1.01312255859375,-0.39031982421875,-0.0252838134765625
1772458126769809700,4.8378095703125,-1.057525634765625,-0.3802490234375,-0.0310211181640625
1772458126779877600,4.847877685546875,-1.074554443359375,-0.3681182861328125,-0.024993896484375
1772458126789947000,4.85794677734375,-1.0626220703125,-0.3525238037109375,-0.01171875
1772458126800014800,4.868014892578125,-1.028228759765625,-0.3350677490234375,0.0045928955078125
1772458126810083600,4.87808349609375,-0.9979705810546875,-0.326202392578125,0.02642822265625
1772458126820151800,4.88815185546875,-0.972320556640625,-0.32025146484375,0.0541534423828125
1772458126830220800,4.898220703125,-0.940765380859375,-0.31988525390625,0.0802764892578125
1772458126840288500,4.90828857421875,-0.90814208984375,-0.324615478515625,0.0977935791015625
1772458126850357800,4.918357666015625,-0.8792724609375,-0.3292694091796875,0.105987548828125
1772458126860425700,4.92842578125,-0.8660888671875,-0.3302459716796875,0.11224365234375
1772458126870494700,4.93849462890625,-0.8710174560546875,-0.3206634521484375,0.115753173828125
1772458126880562700,4.948562744140625,-0.8826141357421875,-0.3068695068359375,0.111175537109375
1772458126890631700,4.958631591796875,-0.89105224609375,-0.2912139892578125,0.1022186279296875
1772458126900699600,4.96869970703125,-0.9065093994140625,-0.2742767333984375,0.0930023193359375
1772458126910768600,4.9787685546875,-0.9211883544921875,-0.2563934326171875,0.091522216796875
1772458126920836600,4.988836669921875,-0.9254913330078125,-0.237152099609375,0.0863800048828125
1772458126930905900,4.99890576171875,-0.9305267333984375,-0.225494384765625,0.0814666748046875
1772458126940973800,5.008973876953125,-0.936859130859375,-0.221588134765625,0.0860443115234375
1772458126951042600,5.01904248046875,-0.9399871826171875,-0.21923828125,0.100921630859375
1772458126961110800,5.02911083984375,-0.9361572265625,-0.2236328125,0.121612548828125
1772458126971179800,5.0391796875,-0.93023681640625,-0.229766845703125,0.1403045654296875
1772458126981247700,5.049247802734375,-0.9162139892578125,-0.2332763671875,0.156890869140625
1772458126991316700,5.059316650390625,-0.8961181640625,-0.2403717041015625,0.1745452880859375
1772458127001384700,5.069384765625,-0.8821868896484375,-0.25335693359375,0.1870269775390625
1772458127011453700,5.07945361328125,-0.8756256103515625,-0.2643890380859375,0.197021484375
1772458127021522000,5.08952197265625,-0.8700103759765625,-0.2767791748046875,0.21356201171875
1772458127031589600,5.099589599609375,-0.871246337890625,-0.289154052734375,0.2365875244140625
1772458127041658600,5.10965869140625,-0.8743743896484375,-0.29205322265625,0.2594146728515625
1772458127051726800,5.119726806640625,-0.8877105712890625,-0.287384033203125,0.2852020263671875
1772458127061795600,5.129795654296875,-0.9062652587890625,-0.2824554443359375,0.30792236328125
1772458127071863600,5.139863525390625,-0.9329986572265625,-0.2729034423828125,0.3254852294921875
1772458127081932800,5.149932861328125,-0.949981689453125,-0.261566162109375,0.3379058837890625
1772458127092000800,5.160000732421875,-0.95477294921875,-0.2529754638671875,0.3397216796875
1772458127102069500,5.170069580078125,-0.950103759765625,-0.24627685546875,0.3280792236328125
1772458127112137700,5.1801376953125,-0.94342041015625,-0.2462005615234375,0.3073883056640625
1772458127122206700,5.190206787109375,-0.95172119140625,-0.2464141845703125,0.2839813232421875
1772458127132274700,5.200274658203125,-0.9798736572265625,-0.241363525390625,0.25408935546875
1772458127142343700,5.21034375,-1.0132598876953125,-0.2339324951171875,0.2241363525390625
1772458127152411600,5.22041162109375,-1.0385589599609375,-0.225677490234375,0.200775146484375
1772458127162481000,5.23048095703125,-1.0634613037109375,-0.2136383056640625,0.176361083984375
1772458127172548900,5.240548828125,-1.09088134765625,-0.202117919921875,0.1565399169921875
1772458127182617600,5.25061767578125,-1.115753173828125,-0.18975830078125,0.1385955810546875
1772458127192685800,5.260685791015625,-1.1318359375,-0.1790618896484375,0.1157989501953125
1772458127202754800,5.2707548828125,-1.134735107421875,-0.1772918701171875,0.1059722900390625
1772458127212822800,5.28082275390625,-1.114959716796875,-0.1837615966796875,0.1046905517578125
1772458127222891800,5.290891845703125,-1.087982177734375,-0.191619873046875,0.1055145263671875
1772458127232959700,5.300959716796875,-1.05462646484375,-0.198577880859375,0.1086883544921875
1772458127243028700,5.31102880859375,-1.011383056640625,-0.2072296142578125,0.1105499267578125
1772458127253096700,5.3210966796875,-0.973297119140625,-0.2175445556640625,0.1197052001953125
1772458127263165700,5.331165771484375,-0.945556640625,-0.2288818359375,0.1249542236328125
1772458127273233700,5.341233642578125,-0.929656982421875,-0.2346038818359375,0.1258392333984375
1772458127283302700,5.351302734375,-0.9199371337890625,-0.237335205078125,0.12835693359375
1772458127293370600,5.36137060546875,-0.921600341796875,-0.2448883056640625,0.1260528564453125
1772458127303439600,5.371439697265625,-0.927825927734375,-0.2487030029296875,0.121002197265625
1772458127313507800,5.3815078125,-0.9291534423828125,-0.250762939453125,0.122100830078125
1772458127323576600,5.39157666015625,-0.91717529296875,-0.2537841796875,0.130523681640625
1772458127333644500,5.40164453125,-0.9026947021484375,-0.2562255859375,0.138214111328125
1772458127343713800,5.4117138671875,-0.9044952392578125,-0.255279541015625,0.137847900390625
1772458127353781800,5.42178173828125,-0.9179229736328125,-0.25543212890625,0.1370086669921875
1772458127363849700,5.431849609375,-0.920867919921875,-0.261199951171875,0.131378173828125
1772458127373918700,5.441918701171875,-0.9256134033203125,-0.2761993408203125,0.1176605224609375
1772458127383986700,5.451986572265625,-0.9267578125,-0.291473388671875,0.1051177978515625
1772458127394056000,5.462055908203125,-0.9192047119140625,-0.3054656982421875,0.0976409912109375
1772458127404124000,5.4721240234375,-0.911956787109375,-0.3182373046875,0.094146728515625
1772458127414192600,5.482192626953125,-0.907440185546875,-0.330352783203125,0.09637451171875
1772458127424260600,5.492260498046875,-0.901580810546875,-0.3362579345703125,0.09442138671875
1772458127434329900,5.502329833984375,-0.90899658203125,-0.340423583984375,0.0932464599609375
1772458127444397600,5.5123974609375,-0.9247894287109375,-0.343597412109375,0.095184326171875
1772458127454466800,5.522466796875,-0.938140869140625,-0.3451385498046875,0.1012115478515625
1772458127464534800,5.53253466796875,-0.9411468505859375,-0.3496246337890625,0.1132354736328125
1772458127474603300,5.542603271484375,-0.9388427734375,-0.356781005859375,0.128814697265625
1772458127484671200,5.552671142578125,-0.9307708740234375,-0.366302490234375,0.1487274169921875
1772458127494740200,5.562740234375,-0.9236907958984375,-0.3803558349609375,0.1645660400390625
1772458127504808200,5.57280810546875,-0.916290283203125,-0.3988037109375,0.1805572509765625
1772458127514877200,5.582877197265625,-0.912994384765625,-0.41864013671875,0.1985015869140625
1772458127524945200,5.592945068359375,-0.8972625732421875,-0.42706298828125,0.1990509033203125
1772458127535014100,5.60301416015625,-0.867767333984375,-0.4231414794921875,0.1775665283203125
1772458127545082000,5.61308203125,-0.85858154296875,-0.42535400390625,0.15606689453125
1772458127555151000,5.623151123046875,-0.871063232421875,-0.4307708740234375,0.1337127685546875
1772458127565219000,5.633218994140625,-0.8863983154296875,-0.42449951171875,0.11444091796875
1772458127575288300,5.643288330078125,-0.8971710205078125,-0.4073028564453125,0.1025543212890625
1772458127585356300,5.653356201171875,-0.910736083984375,-0.38616943359375,0.1060333251953125
1772458127595425000,5.663425048828125,-0.9353179931640625,-0.3572845458984375,0.1141510009765625
1772458127605493200,5.6734931640625,-0.965484619140625,-0.3245849609375,0.1234130859375
1772458127615562200,5.683562255859375,-0.9796295166015625,-0.293365478515625,0.1390533447265625
1772458127625630200,5.693630126953125,-0.9886474609375,-0.2736968994140625,0.154937744140625
1772458127635699200,5.70369921875,-1.0028533935546875,-0.257080078125,0.1640167236328125
1772458127645767200,5.71376708984375,-1.018341064453125,-0.2455291748046875,0.1759490966796875
1772458127655836200,5.723836181640625,-1.0212554931640625,-0.2364501953125,0.1914825439453125
1772458127665904400,5.733904296875,-1.0084228515625,-0.232513427734375,0.203094482421875
1772458127675972000,5.74397216796875,-0.9823150634765625,-0.2336883544921875,0.2063140869140625
1772458127686041000,5.754041015625,-0.9451446533203125,-0.235809326171875,0.201873779296875
1772458127696109300,5.764109375,-0.913818359375,-0.2427978515625,0.192474365234375
1772458127706178300,5.77417822265625,-0.90020751953125,-0.2487335205078125,0.1772613525390625
1772458127716246000,5.78424609375,-0.9004058837890625,-0.2531280517578125,0.1546173095703125
1772458127726315300,5.794315185546875,-0.9124908447265625,-0.2614898681640625,0.1239471435546875
1772458127736383200,5.80438330078125,-0.9203948974609375,-0.265838623046875,0.094024658203125
1772458127746452000,5.814451904296875,-0.9191741943359375,-0.2684326171875,0.0778350830078125
1772458127756520200,5.824520263671875,-0.915069580078125,-0.2800140380859375,0.069915771484375
1772458127766589200,5.834589111328125,-0.9157257080078125,-0.297943115234375,0.0686492919921875
1772458127776657200,5.8446572265625,-0.9164581298828125,-0.3106231689453125,0.072906494140625
1772458127786726100,5.85472607421875,-0.9189453125,-0.3235321044921875,0.080078125
1772458127796794000,5.864794189453125,-0.9149017333984375,-0.336395263671875,0.091033935546875
1772458127806863400,5.87486328125,-0.9056549072265625,-0.3466949462890625,0.103424072265625
1772458127816931300,5.884931396484375,-0.894134521484375,-0.3564300537109375,0.1131744384765625
1772458127827000000,5.895,-0.8850860595703125,-0.3652191162109375,0.11993408203125
1772458127837068000,5.905068115234375,-0.8704071044921875,-0.3755645751953125,0.123748779296875
1772458127847137300,5.91513720703125,-0.852508544921875,-0.3827667236328125,0.1206207275390625
1772458127857205200,5.925205322265625,-0.8407135009765625,-0.3919525146484375,0.11016845703125
1772458127867274200,5.935274169921875,-0.8371429443359375,-0.4044647216796875,0.0952301025390625
1772458127877342200,5.94534228515625,-0.83709716796875,-0.4144439697265625,0.07635498046875
1772458127887411200,5.9554111328125,-0.8397979736328125,-0.4203338623046875,0.055328369140625
1772458127897479200,5.965479248046875,-0.8489990234375,-0.4251708984375,0.037872314453125
1772458127907548200,5.975548095703125,-0.8656768798828125,-0.4278106689453125,0.02606201171875
1772458127917616000,5.9856162109375,-0.8916778564453125,-0.4209747314453125,0.0218658447265625
1772458127927685400,5.995685302734375,-0.924102783203125,-0.4086151123046875,0.0250244140625
1772458127937753000,6.005753173828125,-0.946990966796875,-0.3873748779296875,0.0394439697265625
1772458127947822000,6.015822021484375,-0.951202392578125,-0.3719482421875,0.0517578125
1772458127957890300,6.025890380859375,-0.945465087890625,-0.3627166748046875,0.06500244140625
1772458127967959000,6.035958984375,-0.9408111572265625,-0.3597259521484375,0.0761260986328125
1772458127978027000,6.046027099609375,-0.93499755859375,-0.358795166015625,0.0864715576171875
1772458127988095200,6.05609521484375,-0.923553466796875,-0.3585205078125,0.095458984375
1772458127998164200,6.066164306640625,-0.9099884033203125,-0.360076904296875,0.1004791259765625
1772458128008232200,6.076232177734375,-0.8944549560546875,-0.3633270263671875,0.099639892578125
1772458128018301200,6.08630126953125,-0.885986328125,-0.3679656982421875,0.0937042236328125
1772458128028369200,6.096369140625,-0.8870391845703125,-0.3700103759765625,0.085113525390625
1772458128038438100,6.106438232421875,-0.8947601318359375,-0.3725738525390625,0.0775146484375
1772458128048506400,6.11650634765625,-0.9006500244140625,-0.37274169921875,0.068634033203125
1772458128058575000,6.1265751953125,-0.9058685302734375,-0.3739471435546875,0.060638427734375
1772458128068643000,6.13664306640625,-0.9088897705078125,-0.376434326171875,0.0514984130859375
1772458128078712300,6.14671240234375,-0.9035186767578125,-0.381744384765625,0.0459747314453125
1772458128088780300,6.1567802734375,-0.898651123046875,-0.38092041015625,0.04052734375
1772458128098849300,6.166849365234375,-0.8994903564453125,-0.3742828369140625,0.0348663330078125
1772458128108917200,6.176917236328125,-0.8945465087890625,-0.3701019287109375,0.0345458984375
1772458128118986200,6.186986328125,-0.8841400146484375,-0.3679962158203125,0.0395660400390625
1772458128129054200,6.19705419921875,-0.88165283203125,-0.3642425537109375,0.0463104248046875
1772458128139123200,6.207123291015625,-0.881500244140625,-0.3577728271484375,0.049591064453125
1772458128149191200,6.217191162109375,-0.89642333984375,-0.34478759765625,0.053192138671875
1772458128159260200,6.22726025390625,-0.9246978759765625,-0.3285675048828125,0.053680419921875
1772458128169328000,6.237328125,-0.9540252685546875,-0.3084869384765625,0.046875
1772458128179397000,6.247397216796875,-0.9793243408203125,-0.2902069091796875,0.0440216064453125
1772458128189465300,6.25746533203125,-1.00244140625,-0.273956298828125,0.0428314208984375
1772458128199534000,6.2675341796875,-1.0327911376953125,-0.2593231201171875,0.042510986328125
1772458128209602000,6.27760205078125,-1.07000732421875,-0.247039794921875,0.0402069091796875
1772458128219671300,6.28767138671875,-1.0960845947265625,-0.2418670654296875,0.0439300537109375
1772458128229739300,6.2977392578125,-1.0922088623046875,-0.2461090087890625,0.0442657470703125
1772458128239808000,6.30780810546875,-1.069976806640625,-0.2589111328125,0.0406951904296875
1772458128249876200,6.317876220703125,-1.0507049560546875,-0.2792510986328125,0.0363006591796875
1772458128259944200,6.327944091796875,-1.0340118408203125,-0.300018310546875,0.030364990234375
1772458128270013200,6.33801318359375,-1.0108795166015625,-0.32086181640625,0.018218994140625
1772458128280081200,6.3480810546875,-0.992706298828125,-0.3369140625,-0.0017852783203125
1772458128290150100,6.358150146484375,-0.980133056640625,-0.3424530029296875,-0.0198822021484375
1772458128300218000,6.368218017578125,-0.984771728515625,-0.3446044921875,-0.0358734130859375
1772458128310287400,6.378287353515625,-0.9884033203125,-0.346466064453125,-0.0509185791015625
1772458128320355000,6.38835498046875,-0.9873809814453125,-0.3488311767578125,-0.05377197265625
1772458128330424300,6.39842431640625,-0.9790802001953125,-0.351806640625,-0.0462799072265625
1772458128340492300,6.4084921875,-0.951629638671875,-0.35589599609375,-0.0333709716796875
1772458128350561000,6.41856103515625,-0.9266510009765625,-0.35821533203125,-0.0218048095703125
1772458128360629000,6.42862890625,-0.9090576171875,-0.35906982421875,-0.0109710693359375
1772458128370698200,6.4386982421875,-0.89874267578125,-0.3614959716796875,-0.0009307861328125
1772458128380766200,6.44876611328125,-0.8939666748046875,-0.358978271484375,0.0107269287109375
1772458128390835200,6.458835205078125,-0.8886566162109375,-0.3592681884765625,0.0166778564453125
1772458128400903200,6.468903076171875,-0.8802490234375,-0.361419677734375,0.02227783203125
1772458128410972200,6.47897216796875,-0.866455078125,-0.3609619140625,0.0334320068359375
1772458128421040400,6.489040283203125,-0.855194091796875,-0.3621368408203125,0.0402679443359375
1772458128431109000,6.499109130859375,-0.8416290283203125,-0.3627777099609375,0.049163818359375
1772458128441177000,6.509177001953125,-0.832244873046875,-0.3575592041015625,0.052520751953125
1772458128451246300,6.519246337890625,-0.8350982666015625,-0.34857177734375,0.0576171875
1772458128461314300,6.529314208984375,-0.8432464599609375,-0.338714599609375,0.05950927734375
1772458128471383800,6.5393837890625,-0.84344482421875,-0.3251953125,0.059600830078125
1772458128481451800,6.54945166015625,-0.8454437255859375,-0.315765380859375,0.0641937255859375
1772458128491520800,6.559520751953125,-0.8526763916015625,-0.3025970458984375,0.0703125
1772458128501588700,6.569588623046875,-0.858184814453125,-0.2878265380859375,0.0774078369140625
1772458128511657700,6.57965771484375,-0.8611297607421875,-0.2707977294921875,0.0901947021484375
1772458128521726000,6.589725830078125,-0.8589935302734375,-0.2642059326171875,0.10162353515625
1772458128531794000,6.5997939453125,-0.854705810546875,-0.2642059326171875,0.1091156005859375
1772458128541862700,6.609862548828125,-0.8604888916015625,-0.2660064697265625,0.11358642578125
1772458128551931000,6.619930908203125,-0.862213134765625,-0.27020263671875,0.1193389892578125
1772458128562000000,6.629999755859375,-0.8504638671875,-0.2774810791015625,0.132415771484375
1772458128572067800,6.64006787109375,-0.8491668701171875,-0.2882080078125,0.147003173828125
1772458128582136800,6.65013671875,-0.8461151123046875,-0.3021392822265625,0.163116455078125
1772458128592204800,6.660204833984375,-0.840423583984375,-0.316162109375,0.1797332763671875
1772458128602273800,6.670273681640625,-0.8423309326171875,-0.3298187255859375,0.1950225830078125
1772458128612341800,6.680341796875,-0.84344482421875,-0.3494110107421875,0.2090606689453125
1772458128622410800,6.69041064453125,-0.847137451171875,-0.3654632568359375,0.2140960693359375
1772458128632478700,6.700478759765625,-0.8535614013671875,-0.3784637451171875,0.2154693603515625
1772458128642548000,6.7105478515625,-0.8560333251953125,-0.3940887451171875,0.20892333984375
1772458128652615700,6.72061572265625,-0.8540802001953125,-0.4018402099609375,0.199615478515625
1772458128662685000,6.730684814453125,-0.84857177734375,-0.406982421875,0.1862335205078125
1772458128672753000,6.7407529296875,-0.840850830078125,-0.4181671142578125,0.171173095703125
1772458128682821600,6.750821533203125,-0.83966064453125,-0.4282379150390625,0.160125732421875
1772458128692889900,6.760889892578125,-0.8479461669921875,-0.430877685546875,0.155426025390625
1772458128702958800,6.770958740234375,-0.8864898681640625,-0.41973876953125,0.153411865234375
1772458128713026800,6.78102685546875,-0.955810546875,-0.396881103515625,0.1468658447265625
1772458128723095800,6.791095703125,-1.0329742431640625,-0.3709564208984375,0.13885498046875
1772458128733163800,6.801163818359375,-1.103179931640625,-0.3442535400390625,0.13116455078125
1772458128743232800,6.811232666015625,-1.155914306640625,-0.3207550048828125,0.125335693359375
1772458128753301000,6.821301025390625,-1.18896484375,-0.2992401123046875,0.12738037109375
1772458128763369000,6.831368896484375,-1.2075347900390625,-0.28125,0.1390228271484375
1772458128773437700,6.841437744140625,-1.2044219970703125,-0.269622802734375,0.1518096923828125
1772458128783506000,6.851505859375,-1.18890380859375,-0.2619781494140625,0.16943359375
1772458128793575000,6.861574951171875,-1.1660308837890625,-0.2576904296875,0.18609619140625
1772458128803642600,6.871642578125,-1.135589599609375,-0.25396728515625,0.20269775390625
1772458128813712000,6.8817119140625,-1.10003662109375,-0.25421142578125,0.214263916015625
1772458128823779800,6.89177978515625,-1.0684051513671875,-0.2555694580078125,0.22015380859375
1772458128833848800,6.901848876953125,-1.0389556884765625,-0.2603302001953125,0.217620849609375
1772458128843916800,6.911916748046875,-1.011260986328125,-0.2679901123046875,0.212127685546875
1772458128853985800,6.92198583984375,-0.996826171875,-0.27752685546875,0.2023773193359375
1772458128864053800,6.9320537109375,-0.986175537109375,-0.284759521484375,0.1906890869140625
1772458128874122800,6.942122802734375,-0.9696044921875,-0.29168701171875,0.1843414306640625
1772458128884190700,6.952190673828125,-0.95098876953125,-0.30035400390625,0.1783294677734375
1772458128894260000,6.962260009765625,-0.9258270263671875,-0.3117523193359375,0.171234130859375
1772458128904328000,6.972327880859375,-0.8980865478515625,-0.325103759765625,0.1663818359375
1772458128914396700,6.982396728515625,-0.8754119873046875,-0.335235595703125,0.1584014892578125
1772458128924464600,6.992464599609375,-0.85491943359375,-0.346710205078125,0.15380859375
1772458128934534000,7.002533935546875,-0.8357086181640625,-0.3545989990234375,0.14996337890625
1772458128944601900,7.012601806640625,-0.82769775390625,-0.3604888916015625,0.14996337890625
1772458128954670800,7.0226708984375,-0.8275146484375,-0.3705902099609375,0.14935302734375
1772458128964738800,7.03273876953125,-0.81988525390625,-0.3765869140625,0.148040771484375
1772458128974806800,7.042806884765625,-0.809814453125,-0.377777099609375,0.145477294921875
1772458128984876000,7.0528759765625,-0.8014984130859375,-0.378631591796875,0.1375885009765625
1772458128994943700,7.06294384765625,-0.8072967529296875,-0.3782196044921875,0.12237548828125
1772458129005012700,7.0730126953125,-0.818878173828125,-0.3788299560546875,0.10400390625
1772458129015081000,7.0830810546875,-0.8296051025390625,-0.3796539306640625,0.0892486572265625
1772458129025149700,7.093149658203125,-0.835968017578125,-0.3771514892578125,0.0748748779296875
1772458129035217700,7.1032177734375,-0.84332275390625,-0.373687744140625,0.0667572021484375
1772458129045287000,7.113286865234375,-0.8487701416015625,-0.3692779541015625,0.0614776611328125
1772458129055355000,7.12335498046875,-0.8498382568359375,-0.36529541015625,0.0638580322265625
1772458129065423600,7.133423583984375,-0.8481292724609375,-0.3629913330078125,0.06561279296875
1772458129075491800,7.143491943359375,-0.858734130859375,-0.3621978759765625,0.064544677734375
1772458129085560800,7.153560791015625,-0.870513916015625,-0.354339599609375,0.0641937255859375
1772458129095628800,7.16362890625,-0.880401611328125,-0.3471527099609375,0.06927490234375
1772458129105697800,7.17369775390625,-0.8880615234375,-0.345611572265625,0.071563720703125
1772458129115765800,7.183765869140625,-0.890716552734375,-0.343841552734375,0.075592041015625
1772458129125834800,7.193834716796875,-0.89105224609375,-0.3386383056640625,0.0848388671875
1772458129135903000,7.203903076171875,-0.89178466796875,-0.33831787109375,0.087066650390625
1772458129145971700,7.2139716796875,-0.90380859375,-0.3358917236328125,0.0830535888671875
1772458129156039700,7.224039794921875,-0.9188385009765625,-0.3304443359375,0.07965087890625
1772458129166109000,7.23410888671875,-0.93792724609375,-0.3227691650390625,0.0798492431640625
1772458129176177000,7.244177001953125,-0.962646484375,-0.315277099609375,0.0853271484375
1772458129186246000,7.254245849609375,-0.97967529296875,-0.312042236328125,0.086883544921875
1772458129196313900,7.26431396484375,-0.9845733642578125,-0.3198089599609375,0.0881805419921875
1772458129206381800,7.2743818359375,-0.983978271484375,-0.3292999267578125,0.083709716796875
1772458129216450800,7.284450927734375,-0.9805145263671875,-0.33477783203125,0.076324462890625
1772458129226518800,7.294518798828125,-0.975372314453125,-0.3381195068359375,0.0716094970703125
1772458129236587800,7.304587890625,-0.9659576416015625,-0.3414459228515625,0.064239501953125
1772458129246655700,7.31465576171875,-0.958587646484375,-0.342071533203125,0.0528717041015625
1772458129256724700,7.324724853515625,-0.964569091796875,-0.3385162353515625,0.0406494140625
1772458129266792700,7.334792724609375,-0.9845428466796875,-0.336273193359375,0.024932861328125
1772458129276862000,7.344862060546875,-1.0106658935546875,-0.3352508544921875,0.0126495361328125
1772458129286930000,7.354929931640625,-1.0176544189453125,-0.3336334228515625,0.0047607421875
1772458129296998700,7.36499853515625,-0.9981536865234375,-0.3378143310546875,0.007537841796875
1772458129307067000,7.37506689453125,-0.9660491943359375,-0.3424224853515625,0.006439208984375
1772458129317136000,7.385135986328125,-0.93780517578125,-0.3469390869140625,0.00531005859375
1772458129327203800,7.395203857421875,-0.920562744140625,-0.3504791259765625,0.003082275390625
1772458129337272800,7.40527294921875,-0.9058837890625,-0.3549652099609375,0.007415771484375
1772458129347340800,7.4153408203125,-0.8932647705078125,-0.3655548095703125,0.014404296875
1772458129357409800,7.425409912109375,-0.877593994140625,-0.3683624267578125,0.022857666015625
1772458129367478000,7.43547802734375,-0.8609771728515625,-0.3613739013671875,0.0289154052734375
1772458129377546800,7.445546630859375,-0.847503662109375,-0.3511505126953125,0.034759521484375
1772458129387614700,7.45561474609375,-0.843475341796875,-0.3411102294921875,0.0390777587890625
1772458129397683000,7.465682861328125,-0.8600616455078125,-0.3263397216796875,0.0414581298828125
1772458129407751700,7.475751708984375,-0.8926544189453125,-0.30706787109375,0.045501708984375
1772458129417819600,7.485819580078125,-0.9186248779296875,-0.2847900390625,0.0558013916015625
1772458129427889000,7.495888916015625,-0.9336090087890625,-0.26947021484375,0.071075439453125
1772458129437956900,7.505956787109375,-0.947235107421875,-0.2566680908203125,0.086883544921875
1772458129448025600,7.516025634765625,-0.9589996337890625,-0.2482147216796875,0.0982208251953125
1772458129458093800,7.52609375,-0.963104248046875,-0.24871826171875,0.109527587890625
1772458129468162800,7.536162841796875,-0.9617767333984375,-0.255157470703125,0.1138916015625
1772458129478230300,7.546230224609375,-0.9542236328125,-0.2689971923828125,0.110382080078125
1772458129488299300,7.55629931640625,-0.937286376953125,-0.2819366455078125,0.1045684814453125
1772458129498367200,7.5663671875,-0.9158172607421875,-0.3007354736328125,0.0976104736328125
1772458129508436200,7.576436279296875,-0.8944549560546875,-0.32025146484375,0.0909423828125
1772458129518504400,7.58650439453125,-0.883087158203125,-0.338592529296875,0.077362060546875
1772458129528573200,7.5965732421875,-0.8803863525390625,-0.3525390625,0.0628509521484375
1772458129538641200,7.60664111328125,-0.8757781982421875,-0.3612213134765625,0.0557861328125
1772458129548710400,7.61671044921875,-0.8660736083984375,-0.37091064453125,0.0550537109375
1772458129558778400,7.6267783203125,-0.8647003173828125,-0.3846588134765625,0.0526885986328125
1772458129568847400,7.636847412109375,-0.8674163818359375,-0.3893280029296875,0.0464935302734375
1772458129578915300,7.646915283203125,-0.8737945556640625,-0.3912353515625,0.0487823486328125
1772458129588984300,7.656984375,-0.876312255859375,-0.392059326171875,0.05377197265625
1772458129599052500,7.667052490234375,-0.878753662109375,-0.3909149169921875,0.0531768798828125
1772458129609120300,7.677120361328125,-0.8856964111328125,-0.3904876708984375,0.05572509765625
1772458129619189200,7.687189208984375,-0.892425537109375,-0.3869476318359375,0.060333251953125
1772458129629257200,7.69725732421875,-0.8958892822265625,-0.3829803466796875,0.0638885498046875
1772458129639326200,7.707326171875,-0.9002685546875,-0.3765106201171875,0.071014404296875
1772458129649394200,7.717394287109375,-0.9134521484375,-0.36737060546875,0.0767822265625
1772458129659463400,7.72746337890625,-0.9276885986328125,-0.35955810546875,0.0789642333984375
1772458129669531400,7.737531494140625,-0.9432525634765625,-0.3535919189453125,0.0829315185546875
1772458129679600000,7.74760009765625,-0.9532318115234375,-0.3480682373046875,0.0891265869140625
1772458129689668400,7.75766845703125,-0.9514007568359375,-0.3427734375,0.0985870361328125
1772458129699737300,7.7677373046875,-0.9485321044921875,-0.3395538330078125,0.10784912109375
1772458129709805300,7.777805419921875,-0.953369140625,-0.34027099609375,0.11541748046875
1772458129719874300,7.787874267578125,-0.9618377685546875,-0.344390869140625,0.11907958984375
1772458129729942300,7.7979423828125,-0.972320556640625,-0.345550537109375,0.1211395263671875
1772458129740011300,7.80801123046875,-0.978363037109375,-0.346343994140625,0.1150054931640625
1772458129750079500,7.81807958984375,-0.978271484375,-0.35284423828125,0.1077423095703125
1772458129760148200,7.828148193359375,-0.970062255859375,-0.36138916015625,0.1005096435546875
1772458129770216200,7.83821630859375,-0.9663848876953125,-0.3695220947265625,0.0917205810546875
1772458129780285400,7.848285400390625,-0.9658966064453125,-0.373931884765625,0.0864715576171875
1772458129790353400,7.858353515625,-0.964508056640625,-0.37969970703125,0.0789642333984375
1772458129800421000,7.868421142578125,-0.9680938720703125,-0.385345458984375,0.0708160400390625
1772458129810490400,7.878490478515625,-0.97186279296875,-0.3873138427734375,0.0585174560546875
1772458129820558300,7.888558349609375,-0.9835052490234375,-0.3868255615234375,0.047515869140625
1772458129830627300,7.89862744140625,-0.9952392578125,-0.388580322265625,0.040679931640625
1772458129840695300,7.9086953125,-1.00421142578125,-0.40203857421875,0.04376220703125
1772458129850764300,7.918764404296875,-0.9948272705078125,-0.418060302734375,0.055450439453125
1772458129860832300,7.928832275390625,-0.9612274169921875,-0.412811279296875,0.048858642578125
1772458129870901200,7.9389013671875,-0.95782470703125,-0.4053802490234375,0.0373077392578125
1772458129880969200,7.94896923828125,-0.991058349609375,-0.394561767578125,0.0334930419921875
1772458129891038500,7.95903857421875,-1.029144287109375,-0.3760986328125,0.03363037109375
1772458129901106400,7.9691064453125,-1.0547332763671875,-0.35845947265625,0.0387115478515625
1772458129911175200,7.979175048828125,-1.0580596923828125,-0.3420867919921875,0.0410308837890625
1772458129921243400,7.989243408203125,-1.05108642578125,-0.325775146484375,0.04925537109375
1772458129931312400,7.9993125,-1.0382537841796875,-0.3180999755859375,0.0619354248046875
1772458129941379300,8.00937939453125,-1.0191650390625,-0.3120880126953125,0.0782623291015625
1772458129951447300,8.019447265625,-0.9960479736328125,-0.3103790283203125,0.091644287109375
1772458129961516300,8.029516357421874,-0.97930908203125,-0.3158721923828125,0.0984344482421875
1772458129971584300,8.039584228515626,-0.9717559814453125,-0.3212432861328125,0.095794677734375
1772458129981653200,8.0496533203125,-0.9720916748046875,-0.3224029541015625,0.088470458984375
1772458129991721500,8.059721435546875,-0.974273681640625,-0.3228607177734375,0.084197998046875
1772458130001790200,8.069790283203124,-0.9774322509765625,-0.32464599609375,0.084930419921875
1772458130011858200,8.079858154296875,-0.9752655029296875,-0.323883056640625,0.0789642333984375
1772458130021927400,8.089927490234375,-0.974609375,-0.317291259765625,0.073272705078125
1772458130031995400,8.099995361328125,-0.9647674560546875,-0.3081817626953125,0.062744140625
1772458130042064400,8.110064453125,-0.9454498291015625,-0.3004302978515625,0.057891845703125
1772458130052132400,8.12013232421875,-0.9267578125,-0.2951202392578125,0.057952880859375
1772458130062201300,8.130201416015625,-0.9095916748046875,-0.2862091064453125,0.05792236328125
1772458130072269300,8.140269287109374,-0.90191650390625,-0.2714385986328125,0.0516357421875
1772458130082338300,8.15033837890625,-0.9095001220703125,-0.2564239501953125,0.046112060546875
1772458130092406300,8.16040625,-0.927215576171875,-0.2378692626953125,0.0453338623046875
1772458130102474200,8.17047412109375,-0.943572998046875,-0.2236175537109375,0.049224853515625
1772458130112543200,8.180543212890624,-0.9474029541015625,-0.2163543701171875,0.06158447265625
1772458130122611200,8.190611083984376,-0.9287567138671875,-0.22467041015625,0.079986572265625
1772458130132680400,8.200680419921875,-0.8760528564453125,-0.2479400634765625,0.098724365234375
1772458130142748400,8.21074853515625,-0.798370361328125,-0.2677001953125,0.12139892578125
1772458130152817200,8.220817138671874,-0.7225341796875,-0.295440673828125,0.149200439453125
1772458130162885400,8.230885498046876,-0.6629486083984375,-0.333770751953125,0.1652984619140625
1772458130172954400,8.240954345703125,-0.6237945556640625,-0.3736114501953125,0.17706298828125
1772458130183022300,8.251022216796875,-0.61907958984375,-0.4144287109375,0.18505859375
1772458130193091300,8.26109130859375,-0.6407318115234375,-0.4423828125,0.184356689453125
1772458130203159300,8.2711591796875,-0.674896240234375,-0.4508819580078125,0.1714324951171875
1772458130213228300,8.281228271484375,-0.72564697265625,-0.448394775390625,0.151458740234375
1772458130223296500,8.291296630859375,-0.78955078125,-0.42962646484375,0.1305389404296875
1772458130233365200,8.301365234375,-0.851409912109375,-0.39117431640625,0.111328125
1772458130243433200,8.31143310546875,-0.919769287109375,-0.3584442138671875,0.0920257568359375
1772458130253502500,8.32150244140625,-1.0073699951171875,-0.326690673828125,0.0682525634765625
1772458130263570400,8.3315703125,-1.0836639404296875,-0.2843475341796875,0.057037353515625
1772458130273639200,8.34163916015625,-1.13385009765625,-0.2442474365234375,0.0713653564453125
1772458130283707400,8.351707275390625,-1.1505889892578125,-0.2200775146484375,0.102020263671875
1772458130293777200,8.361777099609375,-1.1400909423828125,-0.204864501953125,0.133636474609375
1772458130303845400,8.371845458984374,-1.1045379638671875,-0.2044525146484375,0.1574554443359375
1772458130313914400,8.381914306640626,-1.045928955078125,-0.2165985107421875,0.1780548095703125
1772458130323982300,8.391982421875,-0.978973388671875,-0.235198974609375,0.1936187744140625
1772458130334050300,8.40205029296875,-0.924560546875,-0.260406494140625,0.1961669921875
1772458130344119300,8.412119384765624,-0.8894195556640625,-0.2874755859375,0.18499755859375
1772458130354187300,8.422187255859376,-0.8646392822265625,-0.307464599609375,0.1661529541015625
1772458130364256300,8.43225634765625,-0.854827880859375,-0.3232269287109375,0.1480255126953125
1772458130374324200,8.44232421875,-0.8577728271484375,-0.33251953125,0.132110595703125
1772458130384393200,8.452393310546874,-0.867279052734375,-0.33392333984375,0.1213836669921875
1772458130394461400,8.46246142578125,-0.875457763671875,-0.32879638671875,0.1171417236328125
1772458130404530200,8.4725302734375,-0.8836669921875,-0.3182525634765625,0.11871337890625
1772458130414598100,8.48259814453125,-0.9002838134765625,-0.304443359375,0.1236724853515625
1772458130424667400,8.49266748046875,-0.916717529296875,-0.293792724609375,0.123992919921875
1772458130434735400,8.5027353515625,-0.931610107421875,-0.28619384765625,0.1219635009765625
1772458130444804400,8.512804443359375,-0.941925048828125,-0.2821044921875,0.1174468994140625
1772458130454872300,8.522872314453124,-0.945465087890625,-0.2834320068359375,0.1090545654296875
1772458130464941300,8.53294140625,-0.939605712890625,-0.2904510498046875,0.101898193359375
1772458130475009000,8.543009033203125,-0.9309539794921875,-0.301666259765625,0.0929107666015625
1772458130485078000,8.553078125,-0.9258880615234375,-0.313201904296875,0.0903472900390625
1772458130495146000,8.56314599609375,-0.9215240478515625,-0.3199615478515625,0.0847930908203125
1772458130505214000,8.5732138671875,-0.92401123046875,-0.328155517578125,0.0789337158203125
1772458130515283000,8.583282958984375,-0.936309814453125,-0.332366943359375,0.069610595703125
1772458130525351200,8.59335107421875,-0.95111083984375,-0.3362274169921875,0.0590972900390625
1772458130535420000,8.603419921875,-0.96417236328125,-0.33831787109375,0.054901123046875
1772458130545488000,8.61348779296875,-0.9654083251953125,-0.339385986328125,0.05364990234375
1772458130555557000,8.62355712890625,-0.9610748291015625,-0.342742919921875,0.0521392822265625
1772458130565624800,8.633624755859374,-0.9593658447265625,-0.34698486328125,0.0531768798828125
1772458130575694000,8.643694091796876,-0.958404541015625,-0.3569793701171875,0.060821533203125
1772458130585762000,8.653761962890625,-0.944854736328125,-0.3756256103515625,0.0820159912109375
1772458130595831000,8.6638310546875,-0.9030303955078125,-0.3878173828125,0.089141845703125
1772458130605899000,8.67389892578125,-0.871734619140625,-0.3846282958984375,0.07696533203125
1772458130615968000,8.683968017578126,-0.896453857421875,-0.387664794921875,0.0704193115234375
1772458130626036000,8.694035888671875,-0.933197021484375,-0.389312744140625,0.0615692138671875
1772458130636105000,8.70410498046875,-0.9510955810546875,-0.393035888671875,0.064483642578125
1772458130646173000,8.7141728515625,-0.9399871826171875,-0.3921356201171875,0.0730438232421875
1772458130656242000,8.724241943359376,-0.9212799072265625,-0.377105712890625,0.0841217041015625
1772458130666310100,8.73431005859375,-0.9117431640625,-0.3600006103515625,0.1046295166015625
1772458130676378000,8.744378173828125,-0.9113311767578125,-0.343658447265625,0.1189117431640625
1772458130686446800,8.75444677734375,-0.93048095703125,-0.3235015869140625,0.1245574951171875
1772458130696515000,8.76451513671875,-0.965911865234375,-0.3015594482421875,0.1199188232421875
1772458130706584000,8.774583984375,-1.003448486328125,-0.2762603759765625,0.12152099609375
1772458130716652000,8.784652099609374,-1.035308837890625,-0.2480621337890625,0.134246826171875
1772458130726721000,8.794720947265626,-1.0639190673828125,-0.2256622314453125,0.1447601318359375
1772458130736789000,8.8047890625,-1.1005401611328125,-0.20458984375,0.1480865478515625
1772458130746858000,8.81485791015625,-1.1358184814453125,-0.188232421875,0.1447296142578125
1772458130756926000,8.824926025390624,-1.157135009765625,-0.1765899658203125,0.1385040283203125
1772458130766995000,8.834994873046876,-1.152252197265625,-0.1719512939453125,0.1315765380859375
1772458130777063000,8.84506298828125,-1.128814697265625,-0.17755126953125,0.1265869140625
1772458130787132000,8.8551318359375,-1.0951385498046875,-0.189544677734375,0.1145782470703125
1772458130797200000,8.865199951171874,-1.0629119873046875,-0.2027130126953125,0.1004638671875
1772458130807269000,8.87526904296875,-1.0387725830078125,-0.2154083251953125,0.0805816650390625
1772458130817337000,8.885337158203125,-1.0124969482421875,-0.22869873046875,0.0652618408203125
1772458130827405800,8.89540576171875,-0.986907958984375,-0.2438201904296875,0.0552978515625
1772458130837473800,8.905473876953126,-0.96282958984375,-0.260955810546875,0.047393798828125
1772458130847542000,8.9155419921875,-0.9350128173828125,-0.279815673828125,0.038543701171875
1772458130857611000,8.925611083984375,-0.905609130859375,-0.29779052734375,0.030731201171875
1772458130867679000,8.935678955078124,-0.883636474609375,-0.3171539306640625,0.02227783203125
1772458130877748000,8.945748046875,-0.8668212890625,-0.3356781005859375,0.014556884765625
1772458130887816000,8.95581591796875,-0.84832763671875,-0.3514862060546875,0.004608154296875
1772458130897885200,8.96588525390625,-0.8284454345703125,-0.364105224609375,-0.01361083984375
1772458130907953000,8.975952880859374,-0.8122406005859375,-0.3726043701171875,-0.0339202880859375
1772458130918022000,8.98602197265625,-0.812255859375,-0.37261962890625,-0.052581787109375
1772458130928090000,8.996090087890625,-0.832794189453125,-0.36212158203125,-0.0692596435546875
1772458130938159000,9.0061591796875,-0.8816375732421875,-0.3413238525390625,-0.0803070068359375
1772458130948226800,9.016226806640624,-0.9349365234375,-0.3099212646484375,-0.08734130859375
1772458130958296000,9.026296142578126,-0.97979736328125,-0.277679443359375,-0.0866851806640625
1772458130968364000,9.036364013671875,-1.01702880859375,-0.2477264404296875,-0.07861328125
1772458130978432800,9.046432861328125,-1.0417633056640625,-0.2179412841796875,-0.0625457763671875
1772458130988501000,9.0565009765625,-1.0558624267578125,-0.1978759765625,-0.0470733642578125
1772458130998569000,9.06656884765625,-1.0535125732421875,-0.189117431640625,-0.0357208251953125
1772458131008638000,9.076637939453125,-1.03228759765625,-0.1892547607421875,-0.0206756591796875
1772458131018706200,9.0867060546875,-0.9911346435546875,-0.198211669921875,0.005584716796875
1772458131028775000,9.09677490234375,-0.93646240234375,-0.216461181640625,0.029754638671875
1772458131038843000,9.1068427734375,-0.8888702392578125,-0.241912841796875,0.0420379638671875
1772458131048912100,9.116912109375,-0.8498992919921875,-0.2672119140625,0.039337158203125
1772458131058980000,9.12697998046875,-0.8257293701171875,-0.293365478515625,0.035675048828125
1772458131069048800,9.137048828125,-0.81329345703125,-0.31646728515625,0.025604248046875
1772458131079117000,9.147116943359375,-0.807708740234375,-0.3385009765625,0.01220703125
1772458131089186000,9.15718603515625,-0.814666748046875,-0.3543548583984375,-0.0033111572265625
1772458131099254000,9.16725390625,-0.8203887939453125,-0.36859130859375,-0.01104736328125
1772458131109323000,9.177322998046876,-0.8217926025390625,-0.376251220703125,-0.0116729736328125
1772458131119391000,9.187390869140625,-0.817230224609375,-0.381439208984375,-0.0075225830078125
1772458131129460200,9.197460205078125,-0.812347412109375,-0.3873138427734375,-0.0031280517578125
1772458131139528000,9.20752783203125,-0.8069610595703125,-0.39544677734375,0.0005645751953125
1772458131149597000,9.217596923828125,-0.8096160888671875,-0.40350341796875,0.0037994384765625
1772458131159665000,9.227664794921875,-0.8236083984375,-0.40301513671875,0.0127105712890625
1772458131169733000,9.237733154296874,-0.8457794189453125,-0.3939666748046875,0.025054931640625
1772458131179801900,9.2478017578125,-0.87261962890625,-0.3850555419921875,0.0419921875
1772458131189869800,9.257869873046875,-0.898956298828125,-0.3760833740234375,0.0586395263671875
1772458131199939000,9.26793896484375,-0.9181060791015625,-0.372222900390625,0.0701904296875
1772458131210007000,9.278007080078124,-0.935516357421875,-0.37457275390625,0.07623291015625
1772458131220076000,9.288075927734376,-0.95709228515625,-0.3700714111328125,0.079864501953125
1772458131230144000,9.29814404296875,-0.968292236328125,-0.3632659912109375,0.0828399658203125
1772458131240213000,9.308212890625,-0.977020263671875,-0.3562469482421875,0.084747314453125
1772458131250281200,9.31828125,-0.989593505859375,-0.3430023193359375,0.081085205078125
1772458131260350000,9.328349853515626,-1.0069427490234375,-0.3338623046875,0.0712127685546875
1772458131270418000,9.33841796875,-1.02362060546875,-0.3257904052734375,0.0557098388671875
1772458131280487200,9.348487060546875,-1.0406341552734375,-0.3243560791015625,0.04345703125
1772458131290555000,9.358554931640626,-1.0564117431640625,-0.3314361572265625,0.0449981689453125
1772458131300624000,9.368623779296875,-1.051483154296875,-0.3456268310546875,0.0589752197265625
1772458131310692000,9.378692138671875,-1.0145416259765625,-0.3544769287109375,0.0645599365234375
1772458131320760000,9.388760009765624,-0.9847564697265625,-0.362701416015625,0.061309814453125
1772458131330828800,9.398828857421876,-0.97918701171875,-0.3741455078125,0.0490570068359375
1772458131340897000,9.40889697265625,-0.9854888916015625,-0.3897552490234375,0.0319671630859375
1772458131350966000,9.418966064453125,-0.9850311279296875,-0.4058837890625,0.0132598876953125
1772458131361034000,9.429033935546874,-0.9771575927734375,-0.417388916015625,-0.0092620849609375
1772458131371103000,9.43910302734375,-0.976959228515625,-0.4241943359375,-0.0287933349609375
1772458131381171000,9.4491708984375,-0.9662628173828125,-0.426361083984375,-0.0417022705078125
1772458131391240000,9.459239990234375,-0.965179443359375,-0.4250946044921875,-0.05322265625
1772458131401308200,9.46930810546875,-0.9889373779296875,-0.417938232421875,-0.0742645263671875
1772458131411377000,9.479376953125,-1.0232696533203125,-0.3990478515625,-0.09149169921875
1772458131421444900,9.48944482421875,-1.056488037109375,-0.376312255859375,-0.104339599609375
1772458131431514000,9.49951416015625,-1.072998046875,-0.3516387939453125,-0.1075897216796875
1772458131441582000,9.50958203125,-1.0664215087890625,-0.3315277099609375,-0.1077117919921875
1772458131451651000,9.519651123046875,-1.0476226806640625,-0.3154449462890625,-0.0996856689453125
1772458131461719000,9.529718994140625,-1.0455169677734375,-0.3026123046875,-0.0800018310546875
1772458131471788300,9.539788330078125,-1.0464324951171875,-0.2907867431640625,-0.0646514892578125
1772458131481856300,9.549856201171876,-1.0310821533203125,-0.2832183837890625,-0.0640869140625
1772458131491924200,9.55992431640625,-1.0056610107421875,-0.282928466796875,-0.0623931884765625
1772458131501993500,9.569993408203125,-0.978546142578125,-0.28155517578125,-0.048492431640625
1772458131512061400,9.5800615234375,-0.9394683837890625,-0.2842254638671875,-0.0230560302734375
1772458131522130200,9.590130126953126,-0.8842926025390625,-0.29449462890625,-0.0005340576171875
1772458131532198400,9.600198486328125,-0.8333282470703125,-0.3103485107421875,0.0138397216796875
1772458131542267400,9.610267333984375,-0.7861175537109375,-0.3225250244140625,0.035797119140625
1772458131552335400,9.62033544921875,-0.7454833984375,-0.33160400390625,0.0664520263671875
1772458131562404400,9.630404296875,-0.712921142578125,-0.345367431640625,0.0939788818359375
1772458131572472300,9.640472412109375,-0.691558837890625,-0.3642120361328125,0.109710693359375
1772458131582541600,9.65054150390625,-0.682342529296875,-0.381927490234375,0.1243438720703125
1772458131592609300,9.660609375,-0.677490234375,-0.3971405029296875,0.13775634765625
1772458131602678300,9.67067822265625,-0.675994873046875,-0.4100189208984375,0.147430419921875
1772458131612746200,9.680746337890625,-0.6796722412109375,-0.4134979248046875,0.1408843994140625
1772458131622815500,9.6908154296875,-0.6845855712890625,-0.41217041015625,0.1231536865234375
1772458131632883200,9.70088330078125,-0.6838531494140625,-0.4108428955078125,0.1013641357421875
1772458131642951200,9.710951171875,-0.6982421875,-0.410614013671875,0.0752716064453125
1772458131653020400,9.7210205078125,-0.741607666015625,-0.397979736328125,0.04815673828125
1772458131663088400,9.73108837890625,-0.8225860595703125,-0.370452880859375,0.028045654296875
1772458131673157400,9.741157470703126,-0.9154815673828125,-0.3251800537109375,0.0093536376953125
1772458131683225300,9.751225341796875,-0.9949798583984375,-0.2800140380859375,0.0093841552734375
1772458131693294300,9.76129443359375,-1.0726470947265625,-0.25054931640625,0.0171966552734375
1772458131703362600,9.771362548828124,-1.1400604248046875,-0.2167205810546875,0.0227508544921875
1772458131713431300,9.781431396484376,-1.1756134033203125,-0.190521240234375,0.0369873046875
1772458131723499300,9.791499267578125,-1.1668853759765625,-0.1776885986328125,0.0657501220703125
1772458131733568500,9.801568603515625,-1.111358642578125,-0.1750335693359375,0.10308837890625
1772458131743636500,9.811636474609376,-1.03961181640625,-0.1904144287109375,0.1392364501953125
1772458131753705200,9.821705322265625,-0.9823760986328125,-0.2112274169921875,0.15826416015625
1772458131763773400,9.8317734375,-0.94171142578125,-0.228240966796875,0.1639251708984375
1772458131773842400,9.841842529296875,-0.9074249267578125,-0.24237060546875,0.168670654296875
1772458131783910400,9.851910400390626,-0.8927001953125,-0.257781982421875,0.165618896484375
1772458131793979400,9.8619794921875,-0.8948974609375,-0.26715087890625,0.15185546875
1772458131804047400,9.87204736328125,-0.9031524658203125,-0.272186279296875,0.1411590576171875
1772458131814115300,9.882115234375,-0.9122467041015625,-0.2787017822265625,0.1339569091796875
1772458131824184300,9.892184326171876,-0.9180755615234375,-0.2861785888671875,0.1307373046875
1772458131834252300,9.902252197265625,-0.92156982421875,-0.2890625,0.131011962890625
1772458131844321300,9.9123212890625,-0.9226837158203125,-0.2894439697265625,0.12969970703125
1772458131854389500,9.922389404296876,-0.92523193359375,-0.29132080078125,0.12188720703125
1772458131864458200,9.932458251953125,-0.9389495849609375,-0.2921905517578125,0.1103973388671875
1772458131874526200,9.942526123046875,-0.9559783935546875,-0.2950439453125,0.099822998046875
1772458131884595500,9.952595458984375,-0.96319580078125,-0.2977447509765625,0.0894012451171875
1772458131894663400,9.962663330078126,-0.968048095703125,-0.3043212890625,0.08685302734375
1772458131904732400,9.972732421875,-0.97296142578125,-0.3075103759765625,0.085418701171875
1772458131914800400,9.98280029296875,-0.9741058349609375,-0.3064422607421875,0.084259033203125
1772458131924869400,9.992869384765624,-0.9701690673828125,-0.3062286376953125,0.0862274169921875
1772458131934937300,10.002937255859376,-0.9720458984375,-0.306488037109375,0.084747314453125
1772458131945006300,10.01300634765625,-0.9813690185546875,-0.3069305419921875,0.0746002197265625
1772458131955074300,10.02307421875,-0.9890899658203125,-0.309051513671875,0.063385009765625
1772458131965142300,10.033142333984374,-0.99462890625,-0.3136749267578125,0.056549072265625
1772458131975211300,10.043211181640626,-0.995391845703125,-0.3208465576171875,0.05859375
1772458131985279200,10.053279296875,-0.9904327392578125,-0.3372955322265625,0.0670166015625
1772458131995348500,10.063348388671875,-0.9649200439453125,-0.3525848388671875,0.079071044921875
1772458132005416400,10.07341650390625,-0.9270477294921875,-0.3616790771484375,0.073883056640625
1772458132015485200,10.083485107421875,-0.91473388671875,-0.369781494140625,0.068634033203125
1772458132025553400,10.093553466796875,-0.92523193359375,-0.376556396484375,0.0604400634765625
1772458132035622400,10.103622314453125,-0.9424591064453125,-0.3846588134765625,0.0522613525390625
1772458132045690400,10.1136904296875,-0.957000732421875,-0.39501953125,0.050994873046875
1772458132055759400,10.12375927734375,-0.9529876708984375,-0.3968353271484375,0.0518798828125
1772458132065827300,10.133827392578125,-0.950439453125,-0.390533447265625,0.0543060302734375
1772458132075896300,10.143896240234374,-0.962493896484375,-0.3876495361328125,0.0561370849609375
1772458132085964500,10.153964599609376,-0.9769134521484375,-0.381256103515625,0.049346923828125
1772458132096033300,10.164033203125,-0.996246337890625,-0.371978759765625,0.0445709228515625
1772458132106101200,10.174101318359375,-1.01336669921875,-0.3585968017578125,0.0379180908203125
1772458132116169500,10.18416943359375,-1.0293426513671875,-0.34381103515625,0.0342254638671875
1772458132126238500,10.194238525390626,-1.04534912109375,-0.3233184814453125,0.03057861328125
1772458132136306200,10.20430615234375,-1.0576019287109375,-0.305633544921875,0.032806396484375
1772458132146375400,10.21437548828125,-1.06494140625,-0.2916412353515625,0.027923583984375
1772458132156443400,10.224443359375,-1.072662353515625,-0.281219482421875,0.022918701171875
1772458132166512000,10.23451220703125,-1.06793212890625,-0.274169921875,0.015625
1772458132176580400,10.244580322265625,-1.0515899658203125,-0.276031494140625,0.00775146484375
1772458132186649300,10.2546494140625,-1.025665283203125,-0.2778167724609375,-0.0037078857421875
1772458132196717300,10.26471728515625,-0.9881591796875,-0.2822113037109375,-0.0136566162109375
1772458132206786300,10.274786376953125,-0.9574127197265625,-0.289276123046875,-0.021240234375
1772458132216854300,10.284854248046875,-0.9311065673828125,-0.2938385009765625,-0.026885986328125
1772458132226923500,10.294923583984374,-0.908203125,-0.3015289306640625,-0.0288848876953125
1772458132236991500,10.304991455078126,-0.890625,-0.308135986328125,-0.0316314697265625
1772458132247060200,10.315060302734375,-0.875762939453125,-0.311187744140625,-0.0307769775390625
1772458132257128200,10.325128173828125,-0.85406494140625,-0.31817626953125,-0.030303955078125
1772458132267196400,10.335196533203124,-0.82537841796875,-0.33233642578125,-0.0301971435546875
1772458132277265400,10.345265380859376,-0.8015899658203125,-0.3466796875,-0.0272369384765625
1772458132287333400,10.35533349609375,-0.794403076171875,-0.3600921630859375,-0.029998779296875
1772458132297402400,10.36540234375,-0.7936248779296875,-0.3663177490234375,-0.0308074951171875
1772458132307470300,10.37547021484375,-0.787567138671875,-0.3735198974609375,-0.0409393310546875
1772458132317539300,10.385539306640625,-0.7784576416015625,-0.3804168701171875,-0.0534210205078125
1772458132327607300,10.395607177734375,-0.7734527587890625,-0.379364013671875,-0.064208984375
1772458132337676300,10.40567626953125,-0.785614013671875,-0.36956787109375,-0.074462890625
1772458132347744500,10.41574462890625,-0.815887451171875,-0.3533782958984375,-0.084197998046875
1772458132357813200,10.425813232421875,-0.864471435546875,-0.3320159912109375,-0.09478759765625
1772458132367881200,10.435881103515625,-0.9093170166015625,-0.3090057373046875,-0.10089111328125
1772458132377950500,10.445950439453124,-0.9464111328125,-0.2857666015625,-0.097198486328125
1772458132388018400,10.456018310546876,-0.97662353515625,-0.2668609619140625,-0.081329345703125
1772458132398087200,10.466087158203125,-1.00494384765625,-0.24993896484375,-0.06097412109375
1772458132408155400,10.4761552734375,-1.027587890625,-0.237640380859375,-0.0413360595703125
1772458132418223400,10.486223388671876,-1.02117919921875,-0.2328643798828125,-0.0235748291015625
1772458132428292400,10.496292236328125,-0.9907684326171875,-0.243621826171875,0.0019378662109375
1772458132438360600,10.506360595703125,-0.9514312744140625,-0.258331298828125,0.0288543701171875
1772458132448429300,10.51642919921875,-0.9222564697265625,-0.2728729248046875,0.0458831787109375
1772458132458497300,10.526497314453126,-0.8984222412109375,-0.2903900146484375,0.05780029296875
1772458132468566500,10.53656640625,-0.8714447021484375,-0.3067474365234375,0.0592193603515625
1772458132478634200,10.54663427734375,-0.846588134765625,-0.3248748779296875,0.0569915771484375
1772458132488703500,10.556703369140624,-0.8305511474609375,-0.3430938720703125,0.0491485595703125
1772458132498771500,10.566771484375,-0.8282623291015625,-0.3587799072265625,0.036102294921875
1772458132508840400,10.57684033203125,-0.841217041015625,-0.3720550537109375,0.020904541015625
1772458132518908400,10.586908447265625,-0.857086181640625,-0.37396240234375,0.0059661865234375
1772458132528977400,10.596977294921874,-0.863677978515625,-0.3746185302734375,-0.0038909912109375
1772458132539045400,10.60704541015625,-0.8649139404296875,-0.3800048828125,-0.010467529296875
1772458132549113600,10.617113525390625,-0.87518310546875,-0.3868255615234375,-0.017059326171875
1772458132559182300,10.627182373046875,-0.8985137939453125,-0.3915557861328125,-0.0237884521484375
1772458132569250300,10.637250244140626,-0.9242706298828125,-0.3868255615234375,-0.0284423828125
1772458132579319600,10.647319580078126,-0.9395751953125,-0.38201904296875,-0.0235443115234375
1772458132589387500,10.657387451171875,-0.94769287109375,-0.378814697265625,-0.0176239013671875
1772458132599456500,10.66745654296875,-0.956329345703125,-0.37310791015625,-0.007598876953125
1772458132609524500,10.6775244140625,-0.9671630859375,-0.369293212890625,0.0022125244140625
1772458132619593500,10.687593505859375,-0.98016357421875,-0.36883544921875,0.0095367431640625
1772458132629661400,10.697661376953125,-0.9936065673828125,-0.3687896728515625,0.016632080078125
1772458132639730400,10.70773046875,-1.0013580322265625,-0.36712646484375,0.021209716796875
1772458132649798400,10.71779833984375,-1.0076446533203125,-0.3603515625,0.0270233154296875
1772458132659867600,10.72786767578125,-1.020751953125,-0.352294921875,0.0263519287109375
1772458132669935400,10.737935302734375,-1.03204345703125,-0.3424530029296875,0.0182647705078125
1772458132680004400,10.74800439453125,-1.041961669921875,-0.32977294921875,0.0055694580078125
1772458132690072600,10.758072509765626,-1.05413818359375,-0.317535400390625,-0.0021514892578125
1772458132700140500,10.768140625,-1.0682373046875,-0.3110809326171875,-0.0030670166015625
1772458132710209300,10.778209228515625,-1.076171875,-0.3176116943359375,0.0075836181640625
1772458132720277500,10.788277587890626,-1.0560302734375,-0.3327789306640625,0.02008056640625
1772458132730346500,10.798346435546875,-1.01422119140625,-0.349822998046875,0.0129241943359375
1772458132740414500,10.80841455078125,-0.9969940185546875,-0.3631134033203125,-0.013580322265625
1772458132750483500,10.8184833984375,-1.0118408203125,-0.3741455078125,-0.0370635986328125
1772458132760551400,10.828551513671876,-1.024169921875,-0.379608154296875,-0.0567779541015625
1772458132770620400,10.838620361328125,-1.026031494140625,-0.38427734375,-0.0712738037109375
1772458132780688600,10.848688720703125,-1.0164337158203125,-0.3829345703125,-0.0811920166015625
1772458132790757400,10.85875732421875,-0.9922637939453125,-0.37750244140625,-0.081268310546875
1772458132800825300,10.868825439453126,-0.968475341796875,-0.37957763671875,-0.0723724365234375
1772458132810894600,10.87889453125,-0.940582275390625,-0.3823394775390625,-0.0602874755859375
1772458132820962300,10.88896240234375,-0.9128265380859375,-0.38836669921875,-0.0469970703125
1772458132831030300,10.8990302734375,-0.888885498046875,-0.3921966552734375,-0.0311279296875
1772458132841099500,10.909099609375,-0.8657684326171875,-0.3949127197265625,-0.0145416259765625
1772458132851167500,10.91916748046875,-0.8446197509765625,-0.397308349609375,0.0052032470703125
1772458132861236200,10.929236328125,-0.8312225341796875,-0.398284912109375,0.01422119140625
1772458132871304400,10.939304443359376,-0.83367919921875,-0.39105224609375,0.012054443359375
1772458132881373400,10.94937353515625,-0.853790283203125,-0.3769683837890625,0.0029296875
1772458132891441400,10.95944140625,-0.8799896240234375,-0.3610382080078125,-0.009674072265625
1772458132901510400,10.969510498046875,-0.9102020263671875,-0.3409576416015625,-0.01849365234375
1772458132911578400,10.979578369140626,-0.9333343505859375,-0.3140716552734375,-0.0224151611328125
1772458132921647600,10.989647705078125,-0.95159912109375,-0.29034423828125,-0.0262298583984375
1772458132931715600,10.999715576171875,-0.9722137451171875,-0.271209716796875,-0.0232086181640625
1772458132941784300,11.009784423828124,-0.9824066162109375,-0.245513916015625,-0.012176513671875
1772458132951852300,11.019852294921876,-0.9851531982421875,-0.236297607421875,0.0007781982421875
1772458132961921500,11.029921630859375,-0.9794464111328125,-0.2381134033203125,0.00921630859375
1772458132971989500,11.039989501953125,-0.9701385498046875,-0.2449188232421875,0.012359619140625
1772458132982057200,11.05005712890625,-0.96881103515625,-0.244659423828125,0.01153564453125
1772458132992126500,11.06012646484375,-0.9558868408203125,-0.248443603515625,0.0162506103515625
1772458133002194400,11.0701943359375,-0.93023681640625,-0.2541046142578125,0.0318603515625
1772458133012263400,11.080263427734375,-0.8892974853515625,-0.2630462646484375,0.0480804443359375
1772458133022331400,11.090331298828126,-0.8550872802734375,-0.279052734375,0.0569610595703125
1772458133032400400,11.100400390625,-0.836700439453125,-0.292327880859375,0.0561981201171875
1772458133042468600,11.110468505859375,-0.8426361083984375,-0.3028564453125,0.064544677734375
1772458133052537300,11.120537353515624,-0.8780364990234375,-0.3106231689453125,0.07818603515625
1772458133062605300,11.130605224609376,-0.9119415283203125,-0.3156585693359375,0.0954132080078125
1772458133072674600,11.140674560546875,-0.9419097900390625,-0.3139495849609375,0.1248779296875
1772458133082742500,11.150742431640625,-0.9557342529296875,-0.3097991943359375,0.159912109375
1772458133092811300,11.160811279296874,-0.9550933837890625,-0.3064117431640625,0.18975830078125
1772458133102879500,11.17087939453125,-0.9384765625,-0.3037872314453125,0.2096405029296875
1772458133112948500,11.180948486328125,-0.9166412353515625,-0.3077545166015625,0.2205810546875
1772458133123016400,11.191016357421875,-0.8984527587890625,-0.3160247802734375,0.216888427734375
1772458133133084400,11.20108447265625,-0.8842315673828125,-0.32275390625,0.20758056640625
1772458133143153400,11.2111533203125,-0.8914947509765625,-0.321441650390625,0.1896209716796875
1772458133153221400,11.221221435546875,-0.89886474609375,-0.3108367919921875,0.1706085205078125
1772458133163290600,11.23129052734375,-0.9101104736328125,-0.29949951171875,0.15350341796875
1772458133173358300,11.2413583984375,-0.9329986572265625,-0.284637451171875,0.1353759765625
1772458133183427300,11.25142724609375,-0.9517364501953125,-0.2631988525390625,0.1171112060546875
1772458133193495600,11.26149560546875,-0.963287353515625,-0.24908447265625,0.111572265625
1772458133203564300,11.271564208984374,-0.9643707275390625,-0.24365234375,0.11102294921875
1772458133213632300,11.28163232421875,-0.9562835693359375,-0.242431640625,0.1101531982421875
1772458133223701500,11.291701416015625,-0.9289703369140625,-0.259246826171875,0.11114501953125
1772458133233769500,11.30176953125,-0.8726043701171875,-0.286224365234375,0.1200103759765625
1772458133243838500,11.31183837890625,-0.8922576904296875,-0.2753448486328125,0.1273193359375
1772458133253906400,11.321906494140626,-0.8677215576171875,-0.2754058837890625,0.1298065185546875
1772458133263974400,11.331974365234375,-0.83343505859375,-0.3054656982421875,0.1190185546875
1772458133274043400,11.34204345703125,-0.803924560546875,-0.3330078125,0.0950775146484375
1772458133284111600,11.352111572265626,-0.81512451171875,-0.3295440673828125,0.080902099609375
1772458133294180400,11.362180419921875,-0.8325653076171875,-0.33990478515625,0.0825653076171875
