time,seconds_elapsed,z,y,x
1772562343165855200,0.070855224609375,-0.08711305078566074,0.09598054011315106,-0.16856274204738436
1772562343175923200,0.080923095703125,0.041648353683948515,0.07545183908641338,-0.14493782857097684
1772562343185990100,0.090990234375,0.05680909793674945,0.023764029686152932,-0.12302629488371312
1772562343196057000,0.10105712890625,0.020795535269379616,0.05357260023355484,-0.10168423164747654
1772562343206124000,0.1111240234375,0.03032031946182251,0.08861673334687947,-0.09302738939598203
1772562343216192300,0.121192138671875,0.10332651896178721,0.08975655103176831,-0.07701134348809718
1772562343226259200,0.13125927734375,0.021540216156840323,0.07276391517668962,-0.10207922231443226
1772562343236326100,0.141326171875,-0.1354512574970722,0.06842325562387705,-0.1997864400897175
1772562343246393000,0.15139306640625,-0.17952479250133035,0.053852878479659555,-0.280271231842041
1772562343256460300,0.161460205078125,-0.15004852264821528,0.004729658870398998,-0.2930802984021604
1772562343266528300,0.1715283203125,-0.06524842498004436,-0.03280950592905283,-0.29826252334564923
1772562343276595200,0.18159521484375,0.05101180983483791,-0.0470928828254342,-0.258089283715561
1772562343286662100,0.191662109375,0.0768535225778818,-0.05365735590755939,-0.23446217828206717
1772562343296729000,0.20172900390625,0.1124947448015213,-0.054394145749509334,-0.22335962337888776
1772562343306797300,0.21179736328125,0.17986673780679702,-0.050747898201644416,-0.16770934008844196
1772562343316864300,0.2218642578125,0.1870645403563976,-0.005381108516454697,-0.15339184172675013
1772562343326931200,0.23193115234375,0.157318805912137,-0.009690788409113884,-0.13598748326562343
1772562343336998100,0.241998046875,0.05051029005348682,0.014526245741546153,-0.1206120733488351
1772562343347065000,0.252065185546875,0.013619360029697417,0.055173313428461546,-0.140986972053349
1772562343357133000,0.262133056640625,0.08521627725362778,0.05008651168346405,-0.14012867472358048
1772562343367200300,0.2722001953125,0.14002338771820066,0.003308393895626068,-0.10668313591331242
1772562343377267200,0.28226708984375,0.16491934404373168,-0.005228256042301655,-0.10674261101558803
1772562343387334100,0.292334228515625,0.07402502115368842,0.0013356325179338453,-0.13794811581410465
1772562343397402000,0.302402099609375,0.007141688448190689,0.020038579422235487,-0.17211678126715121
1772562343407469300,0.31246923828125,-0.01623743357360363,0.02875643114596605,-0.16727745147719977
1772562343417536300,0.322536376953125,-0.031253800919651985,0.023659692528843878,-0.19377061386629937
1772562343427603200,0.332603271484375,-0.047100773870944974,0.038591304200887674,-0.19477153453715143
1772562343437670100,0.342670166015625,0.018261632877588273,0.05243541289716959,-0.1687871253877878
1772562343447738000,0.352738037109375,0.06847264772355556,0.03974485815018415,-0.12254252995476125
1772562343457805300,0.362805419921875,0.06088730716109275,0.027817104469239712,-0.12359941859655081
1772562343467872300,0.372872314453125,0.05281681343019008,0.017555530434846877,-0.07776720335669815
1772562343477939500,0.382939453125,0.019582652348279952,0.013953706550598143,-0.0664179071508348
1772562343488007400,0.39300732421875,0.011413958939909935,0.027826456819474696,-0.04015570397339761
1772562343498074400,0.403074462890625,-0.02361468434333801,0.017266776621341705,-0.04432714443914592
1772562343508141300,0.413141357421875,-0.08774374990463256,0.03540039920508861,-0.035339462798088785
1772562343518208300,0.423208251953125,-0.2389443651974201,0.06271949102431536,-0.058294221927970645
1772562343528275200,0.433275146484375,-0.4039011186420917,0.1244040860429406,-0.07376680860891938
1772562343538343200,0.44334326171875,-0.5943225682109594,0.17969693419784308,-0.06301219036057591
1772562343548410000,0.45341015625,-0.7617951038688421,0.28703122749626636,-0.06838102391734718
1772562343558477300,0.463477294921875,-0.7901222036868333,0.3486322358846664,-0.070812854174152
1772562343568544500,0.47354443359375,-0.9144114311784506,0.32101153077036143,-0.0754972125981003
1772562343578611500,0.483611572265625,-1.2768944977611303,0.3574257831931114,-0.2170504402320832
1772562343588679400,0.493679443359375,-1.56613872513175,0.4839151510775089,-0.49593905860930676
1772562343598746400,0.503746337890625,-1.5896978798955679,0.7186991817250847,-0.7284472532793879
1772562343608813300,0.513813232421875,-1.6684014142543075,1.226276947940886,-0.7103026709102094
1772562343618880300,0.52388037109375,-1.8700199651420115,1.7419161477982996,-0.4513976138323545
1772562343628948200,0.5339482421875,-1.8834779971301554,2.1076237293854354,-0.12904445919469
1772562343639015200,0.54401513671875,-1.4471592944860459,2.290654484181106,0.06812200765497982
1772562343649082000,0.55408203125,-0.660195262569189,1.7820879991888998,0.028254180712252854
1772562343659149000,0.564149169921875,0.30237960327565666,0.561016218675673,-0.22960684720538554
1772562343669216500,0.574216552734375,1.18118254545629,-0.5300163925170898,-0.4899807347267866
1772562343679284200,0.5842841796875,1.8516145398795603,-0.7436117969244718,-0.6400547571424394
1772562343689351400,0.594351318359375,2.291111288037896,-0.5008107562988996,-0.6094687724817544
1772562343699418400,0.60441845703125,2.1259552126288415,-0.4334866940885782,-0.44505664730779826
1772562343709485300,0.6144853515625,1.5158324332177637,-0.48505730684995646,-0.1863231474045664
1772562343719553300,0.62455322265625,1.2767273245006798,-0.3932470381587744,-0.1291585870936513
1772562343729620200,0.6346201171875,1.05294487259984,-0.1816314093917608,-0.07872545392960309
1772562343739687200,0.644687255859375,0.7806494419425726,-0.022763035950064656,0.033825478038564324
1772562343749754000,0.654754150390625,0.7208756489813327,0.07590075189769267,0.25740824264883994
1772562343759821000,0.664821044921875,0.5957166529178619,-0.07380056474804877,0.4575575247015804
1772562343769889300,0.67488916015625,0.3942465705901384,-0.22663784133195874,0.5188116924136876
1772562343779956200,0.684956298828125,0.3230757698237896,-0.1904202805250883,0.4729071425899863
1772562343790023400,0.6950234375,0.3993336645960808,-0.12716799779832363,0.31916137285903096
1772562343800090400,0.70509033203125,0.4643739997833967,-0.08633329858481884,0.1987359811887145
1772562343810158300,0.715158447265625,0.6274538534402847,-0.03909808467924595,0.1307641225941479
1772562343820225300,0.725225341796875,0.7333002462685108,-0.04797288053035736,0.15326456208527087
1772562343830292200,0.735292236328125,1.3400181856721638,-0.27335750693082805,0.30117519592195746
1772562343840359200,0.745359130859375,1.898205026140809,-0.48056233351826666,0.6023246728807687
1772562343850426000,0.755426025390625,1.2087012515008448,-0.19727789133489132,0.5264877799995243
1772562343860494300,0.765494384765625,0.43905309604406356,0.04820668928623199,0.18929814462736247
1772562343870561300,0.775561279296875,0.13837737407684325,-0.04625087904334068,-0.02400631400942802
1772562343880628200,0.785628173828125,0.2612181563258171,-0.0780477007985115,-0.2220981520757079
1772562343890695400,0.7956953125,0.553429416808486,0.0012274959683418274,-0.315690481878072
1772562343900763400,0.805763427734375,0.9485656297147274,-0.011578209590911865,-0.22054390837103127
1772562343910830300,0.815830322265625,1.3804261839061975,-0.08920330106317996,0.043560617046058174
1772562343920897300,0.825897216796875,1.5211317086696623,-0.12109949153959751,0.2806162458874285
1772562343930964200,0.835964111328125,1.3941197782158852,-0.1295136841416359,0.2724088279038668
1772562343941031200,0.84603125,1.3183125498205424,-0.13041267880797386,0.1658273987993598
1772562343951099400,0.856099365234375,1.0843360361635683,-0.12360124522745608,0.012534487402439117
1772562343961166300,0.866166259765625,0.871892139878869,-0.1535010011896491,-0.14893705427497625
1772562343971233300,0.8762333984375,0.8925438827633857,-0.14335633153319358,-0.2678568636879325
1772562343981300500,0.886300537109375,0.891191299110651,-0.06401303796619176,-0.2617394767861813
1772562343991367400,0.896367431640625,0.5610790547788143,0.059551090121269225,-0.21876586584784088
1772562344001435400,0.906435302734375,-0.11022387726008892,0.21587767012566328,-0.2506413788624108
1772562344011502300,0.91650244140625,-0.41043841145634646,0.35892391279637814,-0.19755524697154758
1772562344021569300,0.9265693359375,-0.3498760984659195,0.401800639231503,-0.11737937503792345
1772562344031636200,0.93663623046875,-0.15161854844391345,0.28337504307627676,-0.05278459166102111
1772562344041704200,0.9467041015625,-0.05056757319867611,0.15376725091040133,0.03223806271664798
1772562344051771400,0.956771484375,-0.3665437401503324,0.08644552678763866,0.057101139685884116
1772562344061838300,0.96683837890625,-0.7354208916842937,0.0880821880787611,-0.04946048873960972
1772562344071905300,0.9769052734375,-0.8589660228103398,0.11992051088809966,-0.18732399501018224
1772562344081972500,0.986972412109375,-0.8870423627376556,0.14087708193808793,-0.34898104932233687
1772562344092040200,0.997040283203125,-0.7809352731466292,0.1370017018094659,-0.45881037430688737
1772562344102107400,1.007107421875,-0.36663375652134417,0.05599807381480932,-0.3441629815161228
1772562344112174300,1.01717431640625,0.05869651911854744,-0.1308943248450756,-0.13991627408191562
1772562344122241300,1.0272412109375,0.00758650960624218,-0.2252589541941881,-0.03296915347017348
1772562344132309200,1.037309326171875,-0.5857295119106769,-0.09446575163602829,-0.15467947038449345
1772562344142376200,1.047376220703125,-0.7555670231342315,0.12991525067985057,-0.22106559415757654
1772562344152443100,1.057443115234375,-0.6466361082941293,0.19734160422086713,-0.21059074269868433
1772562344162510300,1.06751025390625,-0.5203501540273427,0.13493687823414802,-0.1518012845996767
1772562344172577300,1.077577392578125,-0.3163993607997894,0.029461949066817757,-0.05610628342963755
1772562344182645200,1.087645263671875,-0.09112053286135197,-0.12055471713840961,0.019805720514431593
1772562344192712200,1.097712158203125,-0.152143449100852,-0.2107499518483877,-0.01692490438111126
1772562344202779400,1.107779296875,-0.20779168656468391,-0.2162573170930147,-0.09071889325790107
1772562344212846300,1.117846435546875,-0.11495090578198432,-0.13815730158537626,-0.12950210330169648
1772562344222914300,1.127914306640625,0.035702597022056574,-0.059464580881595605,-0.046915480431914326
1772562344232981200,1.137981201171875,0.1554419061243534,-0.04009440224021673,0.05624218476898968
1772562344243048200,1.148048095703125,0.15451485440731047,-0.022324060010910033,0.1248117535283789
1772562344253115100,1.158115234375,-0.012470774516463279,-0.022063363248109816,0.029254553393833337
1772562344263182300,1.168182373046875,-0.18355097927749156,-0.0034662148058414457,-0.11980904987026006
1772562344273250300,1.178250244140625,-0.24146599262952803,0.04592062417566776,-0.19889303491394966
1772562344283317200,1.188317138671875,-0.21593641457557677,0.02613660403639078,-0.25087149782385676
1772562344293384200,1.19838427734375,-0.09442191249430179,0.037489480438828465,-0.2520700599586591
1772562344303451400,1.208451416015625,-0.02122106720507145,0.049040802022814745,-0.19883629975803196
1772562344313518300,1.218518310546875,0.010381693282723425,0.017267068882286546,-0.12106405490003526
1772562344323586300,1.22858642578125,0.009321955096721648,-0.01854629503786564,-0.1000852720182389
1772562344333653200,1.2386533203125,-0.2423644027739763,0.042187282866239545,-0.18144582369178533
1772562344343720200,1.24872021484375,-0.3973188176423311,0.13411357915252448,-0.20006686446629462
1772562344353787100,1.258787109375,-0.26392683076262474,0.18821195682585237,-0.14498261756077407
1772562344363855400,1.26885546875,0.004119125756621361,0.17639029386788604,-0.016896482004225253
1772562344373922300,1.27892236328125,0.1904851624548435,0.08078618585169314,0.08459142335355281
1772562344383989200,1.2889892578125,0.20207330891788006,0.04654752390235662,0.16641330892853437
1772562344394056400,1.299056396484375,0.23467618635892867,0.06523001254051923,0.20953502310067415
1772562344404122400,1.309122314453125,0.18332184669673443,0.0846095435321331,0.13513327758908272
1772562344414190300,1.3191904296875,-0.027808628901839254,0.12795388747900724,0.07191906185038387
1772562344424257300,1.32925732421875,-0.04354804982542992,0.16300474259406328,0.01397811033949256
1772562344434324200,1.33932421875,0.12789923468232153,0.17927841652482748,0.017469459586590526
1772562344444391200,1.34939111328125,0.154099843865633,0.10479454568773508,0.03449877419024706
1772562344454459100,1.359459228515625,-0.027604630762338638,0.07003390569090842,-0.01273717036768794
1772562344464526000,1.369526123046875,-0.1316039344191551,0.12621727294474838,-0.06609196313209831
1772562344474593300,1.37959326171875,-0.10607494088709354,0.18777648801803587,-0.08074512318894267
1772562344484660200,1.38966015625,0.028784195935726165,0.18433745348006486,-0.0017331804681569338
1772562344494727200,1.39972705078125,0.033761984348297115,0.13194441841989754,0.05694025003574788
1772562344504795400,1.40979541015625,-0.09670096334218978,0.09506021039783955,0.014780001306906342
1772562344514862300,1.4198623046875,-0.10467851809263229,0.12038345222473144,-0.09187566207759082
1772562344524929300,1.42992919921875,-0.042646717071533204,0.13592764283716677,-0.12937581004090606
1772562344534996200,1.439996337890625,-0.01130348430275917,0.10963584823906421,-0.06730828011929989
1772562344545064200,1.450064208984375,0.01775017622411251,0.10913052906543015,0.006213321556895971
1772562344555131100,1.460131103515625,0.0943430020391941,0.10153583615273237,0.08495689566507934
1772562344565198000,1.470197998046875,0.1274742872685194,0.05480214202851057,0.063213923477754
1772562344575265300,1.480265380859375,0.15402385601997376,0.061092182083427905,0.028068010490387676
1772562344585332200,1.490332275390625,0.1651800408065319,0.08257511509507894,-0.021885595528408883
1772562344595400400,1.500400390625,0.12862404182553291,0.07109948909580707,-0.01859546794183552
1772562344605467400,1.51046728515625,0.1575683967590332,0.02653846283555031,-0.021292963397502897
1772562344615534300,1.520534423828125,0.17910978195965288,-0.008766951562464237,-0.023346900252625345
1772562344625601300,1.530601318359375,0.11961714402735232,-0.07199936054497957,-0.09588416706658899
1772562344635668200,1.540668212890625,0.10580372273027897,-0.06751695443391799,-0.23669373672641814
1772562344645736200,1.550736083984375,0.12066694534122943,-0.08212211063057184,-0.2717092282671481
1772562344655803100,1.56080322265625,0.21925006916821002,-0.12906272550374268,-0.23011866918504237
1772562344665870000,1.5708701171875,0.1799105769485235,-0.13494681510627268,-0.16527363737411796
1772562344675937300,1.580937255859375,0.04800912088751793,-0.11563567317575216,-0.11092742241956292
1772562344686005200,1.591005126953125,0.04409633135795593,-0.04625497069656849,-0.07567015801221132
1772562344696072400,1.601072509765625,0.11515198131203651,-0.008548924897611141,-0.07519939869530498
1772562344706139400,1.611139404296875,0.08794482543468475,0.02061404122263193,-0.01082242278754711
1772562344716206300,1.621206298828125,-0.018798223972320557,0.05934767650365829,0.02080766409859061
1772562344726273300,1.631273193359375,-0.03607435294389724,0.13229600833654404,0.032758506394177676
1772562344736341200,1.64134130859375,-0.04450082050561904,0.16737112111002206,0.04991013220325112
1772562344746408200,1.651408203125,-0.11867957091629504,0.14440204119384287,-0.0009245674990117549
1772562344756475100,1.66147509765625,-0.12743804691135882,0.14919892008155583,-0.053634851814806456
1772562344766542000,1.6715419921875,-0.0957376712679863,0.1481678234681487,-0.07902056441865861
1772562344776610000,1.681610107421875,-0.04285363782048225,0.14046937792003153,-0.0369516472350806
1772562344786677200,1.69167724609375,0.05653086551725864,0.16414017636477946,0.02791647319048643
1772562344796744400,1.701744384765625,0.17324644288420676,0.16436843216270208,0.06613740970902145
1772562344806811400,1.711811279296875,0.27279285878539083,0.15930793390274048,0.12999357661306857
1772562344816878300,1.72187841796875,0.20303192481696605,0.12041034023165702,0.12839059839583933
1772562344826946300,1.7319462890625,0.1550625514179468,0.0998746249422431,0.05639394126459956
1772562344837013200,1.74201318359375,0.1212257482677698,0.13043138350844383,-0.025366861772909758
1772562344847080200,1.752080078125,0.04101648552119732,0.1071028226301074,-0.1262333472967148
1772562344857147100,1.762147216796875,0.09145312581658363,0.09751374102979898,-0.15517631399072707
1772562344867215000,1.772215087890625,0.13440905496776104,0.06438157901763916,-0.09365560429692268
1772562344877282000,1.782281982421875,0.033033670073747634,0.04919482354074716,-0.04373042065501213
1772562344887349200,1.792349365234375,-0.06229483587145805,0.06523556549847126,-0.04002791287526488
1772562344897416400,1.80241650390625,-0.06854279035031795,0.07007686804980039,-0.06919986601956188
1772562344907483400,1.8124833984375,0.014233108013868331,0.04287994130551815,-0.06319156551547347
1772562344917551400,1.82255126953125,0.15043255352973936,0.011336509789526461,-0.05253390483558178
1772562344927618300,1.832618408203125,0.16271452747583387,-0.04851151745170355,-0.07681516332887113
1772562344937685200,1.842685302734375,0.04468845203220844,-0.09031827656775712,-0.1658003646619618
1772562344947752200,1.852752197265625,-0.048179216757416723,-0.0620312164992094,-0.23791779862865806
1772562344957819100,1.862819091796875,-0.0015478139638900755,-0.03083352968096733,-0.22521591877005992
1772562344967887000,1.87288720703125,0.08688859438002108,-0.07236673255264758,-0.18624116820953784
1772562344977954000,1.8829541015625,0.1267114862024784,-0.09930588514357805,-0.13595182743035256
1772562344988021200,1.893021240234375,0.02887713491618633,-0.10285539431869983,-0.12843655642941593
1772562344998088400,1.90308837890625,-0.10812602819800377,-0.06570347527116537,-0.17909794539138674
1772562345008156400,1.913156494140625,-0.16845862408578394,0.003550678218901157,-0.18536847702823578
1772562345018223400,1.923223388671875,-0.1251601651072502,0.019540859033167362,-0.18613515055179594
1772562345028290300,1.933290283203125,-0.01796878741085529,0.022264146517217157,-0.13395086287148297
1772562345038357200,1.943357177734375,0.07362462365925311,0.013352818048000335,-0.060461482964456074
1772562345048425200,1.95342529296875,0.12407178534865379,-0.02373451133072376,-0.07962744427062571
1772562345058492200,1.9634921875,0.10780980185568333,-0.031190964816510677,-0.1716710833262652
1772562345068559000,1.97355908203125,0.052282560423016544,0.012893091581761836,-0.26920681699216364
1772562345078626000,1.9836259765625,0.025007015484571456,0.029251228925585744,-0.2842575980644673
1772562345088693200,1.993693359375,0.12172434543967246,0.04968728323280811,-0.20445012105181812
1772562345098761200,2.00376123046875,0.2702835063129663,0.018621698361635207,-0.10718911267407238
1772562345108828400,2.013828369140625,0.3406260395616293,-0.012405015803873539,-0.019273001877218483
1772562345118895400,2.023895263671875,0.29947569852769373,-0.029940964755415914,-0.006664060999080538
1772562345128962300,2.03396240234375,0.28696108486950395,-0.027938392761349677,-0.05057400293946266
1772562345139030300,2.0440302734375,0.27950959981977935,-0.02229103452414274,-0.05703508871234953
1772562345149097200,2.05409716796875,0.16226444562077522,0.007306231360137462,-0.08674816299602389
1772562345159164200,2.0641640625,0.10177695143222808,0.02407528759241104,-0.09264007057882845
1772562345169231000,2.074231201171875,0.1390858146071434,0.028778642977774143,-0.059644175232201814
1772562345179298000,2.084298095703125,0.1156184297800064,0.01895487583875656,-0.07549597048908471
1772562345189366300,2.0943662109375,-0.10178455021679401,0.012060440149903297,-0.11558123957477509
1772562345199433200,2.10443310546875,-0.307114230582118,0.060878247071802616,-0.18976050144210457
1772562345209500400,2.11450048828125,-0.2895844191104173,0.105917412237823,-0.21470687278062103
1772562345219567400,2.1245673828125,-0.12172317639589308,0.08939443972110747,-0.1738752423070371
1772562345229634300,2.13463427734375,0.03307517112791538,0.03539806111752987,-0.04727101587131619
1772562345239702300,2.144702392578125,0.1529582726150751,0.017983400458097456,0.05348967119045555
1772562345249769200,2.154769287109375,0.1723568005681038,-0.0035460020437836645,0.05623538970202207
1772562345259836200,2.164836181640625,0.05772270565032959,-0.014070318667590617,-0.022485826443880794
1772562345269903000,2.174903076171875,-0.07143968083560466,0.00951017114520073,-0.1321458592761308
1772562345279971300,2.184971435546875,-0.07281973701715469,0.03184913646429777,-0.18525507978163658
1772562345290038300,2.195038330078125,0.04289338530898094,0.020188217025995252,-0.1494471957542002
1772562345300105200,2.205105224609375,0.1323152975589037,-0.005745265653729438,-0.044335546941310165
1772562345310172400,2.21517236328125,0.03202946146726608,-0.027205986833572386,0.004122998214140534
1772562345320240400,2.225240478515625,-0.09297171368598937,-0.002718319047987461,-0.0698925975240767
1772562345330307300,2.235307373046875,-0.08163257354795932,0.019347674548625945,-0.13819047320261596
1772562345340374300,2.245374267578125,-0.04646013787984848,0.009257365427911281,-0.09496376428604125
1772562345350441200,2.255441162109375,0.0005932897180318832,0.0019400281518697738,-0.03786459736153483
1772562345360508200,2.265508056640625,0.0581534982830286,-0.01075403372645378,0.03962744231559336
1772562345370576100,2.275576171875,0.12713584909439085,-0.028527590826153755,0.06510967409648001
1772562345380643000,2.28564306640625,0.1143506018012762,-0.04231470863819122,-0.012029898881167173
1772562345390710300,2.295710205078125,0.0815899034500122,-0.02849719568789005,-0.08781856870651245
1772562345400777200,2.305777099609375,0.014819967991113661,-0.008072539557516575,-0.13165697978064417
1772562345410845000,2.315844970703125,0.02702420052587986,-0.015998071859776974,-0.12854337780475616
1772562345420912600,2.32591259765625,0.11349310818910598,-0.030630700585246085,-0.09624649757295846
1772562345430979800,2.335979736328125,0.222165079832077,-0.036573242376744745,-0.025850334440916774
1772562345441046800,2.346046875,0.33972061515450475,-0.06247574539631605,0.03442994673773646
1772562345451113700,2.35611376953125,0.320505042552948,-0.08989069880545139,0.015800284265354275
1772562345461181700,2.366181640625,0.20666180575191972,-0.04918488666862249,-0.03398249523118138
1772562345471248600,2.37624853515625,0.20174422309398649,0.0076692194536328315,-0.07947291129603981
1772562345481315800,2.38631591796875,0.24556466012001035,-0.021802374224364755,-0.06520838523060082
1772562345491382800,2.3963828125,0.17915888179838657,-0.010909516549110413,-0.03439151442348957
1772562345501450800,2.40645068359375,-0.02467442252933979,0.03704904319494962,-0.07087934353910386
1772562345511517700,2.416517578125,-0.11719722340404987,0.08169570191204548,-0.1135127627376467
1772562345521584600,2.426584716796875,-0.07338263159692288,0.0912707549870014,-0.13762261018678545
1772562345531651800,2.43665185546875,0.030083003574609756,0.08676029182523488,-0.09057239745929836
1772562345541718800,2.44671875,0.062035308152437206,0.09644348144978285,0.023382702218368648
1772562345551786800,2.456786865234375,0.05883154367506504,0.11580927617698906,0.12129158004559576
1772562345561853700,2.466853759765625,0.08937924215197562,0.16185089638382197,0.11584770849123596
1772562345571920600,2.476920654296875,0.036653614136576654,0.17891893556267022,0.016816037179157136
1772562345581987800,2.48698779296875,0.04415302998125553,0.17727467548698186,-0.023744448202848434
1772562345592055800,2.497055908203125,0.058711716687679286,0.14495470664054155,-0.0906421747598797
1772562345602122800,2.507122802734375,0.09950082319378853,0.12817016057819128,-0.1513055369719863
1772562345612189700,2.517189697265625,0.19706804797649383,0.101588735383749,-0.1409874104447663
1772562345622256600,2.527256591796875,0.23146716118454932,0.07751987753212451,-0.049933951470255845
1772562345632323800,2.53732373046875,0.07589841381013393,0.0967781202316284,-0.004661269809305668
1772562345642391800,2.547391845703125,-0.012394786670804023,0.14493980133235454,0.030364158603549
1772562345652458800,2.557458740234375,0.04225099575221538,0.18563041590005158,0.013818316667899488
1772562345662525700,2.567525634765625,0.11959960837066173,0.13832272128015755,0.016888737089186905
1772562345672592600,2.577592529296875,0.21241233210265636,0.08393091361820697,0.041388899030163885
1772562345682659600,2.58765966796875,0.28976678993999955,0.05594400554001331,0.05680639452300965
1772562345692727800,2.597727783203125,0.24984920557141302,0.0057183776468038554,-0.009202347305044531
1772562345702794800,2.607794677734375,0.09730535897612572,-0.01200929448455572,-0.10552673241980373
1772562345712861700,2.61786181640625,0.015460603982210159,0.010203706367313862,-0.19839805447123943
1772562345722928600,2.6279287109375,-0.025800796210765836,0.029710078608989714,-0.21551972353346643
1772562345732996600,2.63799658203125,0.07925240041315555,0.003936170405149459,-0.1661211941141635
1772562345743063800,2.648063720703125,0.15429448965489864,-0.03244301070421934,-0.11000058989822864
1772562345753130800,2.658130859375,0.1969119806319475,-0.04074088345021009,-0.02896758967861533
1772562345763197700,2.66819775390625,0.19951602565050125,-0.023995208093523977,-0.029235592965036628
1772562345773266000,2.678265869140625,0.10145078821778297,-0.012690262486040592,-0.08139744961783289
1772562345783332900,2.688332763671875,0.0021346739411354063,-0.0059910571083426475,-0.14756949224881827
1772562345793399800,2.69839990234375,-0.06572247223258018,0.04425502905100584,-0.22210852733924982
1772562345803466800,2.708466796875,-0.025658757391571998,0.05837094042599201,-0.2310004935208708
1772562345813533700,2.71853369140625,0.06252279940843582,0.01056844802647829,-0.18224734933301806
1772562345823601700,2.7286015625,0.09072071988880634,0.006013853462040424,-0.1194948328219354
1772562345833668600,2.738668701171875,0.08908288955390453,-0.00008738602250814438,-0.03773315300159156
1772562345843735800,2.74873583984375,0.06343991425335407,0.0638195612207055,0.02153999696113169
1772562345853802800,2.758802734375,-0.008562076640129089,0.11037322260290383,0.01943425685353577
1772562345863871000,2.76887109375,-0.05855681838691234,0.10667290678024291,-0.030279768255725502
1772562345873938000,2.77893798828125,-0.09854220729470252,0.09340893605947494,-0.10285926677621901
1772562345884004900,2.7890048828125,-0.08834230031967162,0.047208033637702464,-0.13139635608308017
1772562345894071800,2.79907177734375,-0.11226678126454352,0.04458499165773391,-0.16674107957817613
1772562345904138800,2.809138671875,-0.13122107258141041,0.06353577584326267,-0.12357727982997893
1772562345914206700,2.819206787109375,-0.007650222492218017,0.09359072236716746,-0.04034370082616806
1772562345924273700,2.829273681640625,0.07891103962957859,0.09006663989424706,0.01575892934165895
1772562345934340600,2.839340576171875,0.051012978878617284,0.06633242082446814,0.044183717380464074
1772562345944407800,2.84940771484375,0.06595511194467545,0.08025573223680257,0.07265139471292495
1772562345954475500,2.8594755859375,0.10516133317351341,0.08342822479307652,0.059264455199614166
1772562345964542700,2.869542724609375,0.10986498081982135,0.038166356787085534,0.008947788022086024
1772562345974610000,2.87960986328125,0.10901917764544486,0.03262450475096702,-0.04518120398521423
1772562345984676900,2.8896767578125,0.1568447586596012,-0.003558569264411926,-0.09675890407450496
1772562345994743800,2.899743896484375,0.1889741733700037,-0.0417643812790513,-0.12630728931576013
1772562346004811800,2.909811767578125,0.16472878990769385,-0.09744652101248502,-0.12087386609017849
1772562346014878700,2.919878662109375,0.0996235727906227,-0.06267974353581666,-0.11355682107508182
1772562346024945700,2.929945556640625,0.04900397714376449,0.00748801766782999,-0.09285356719903648
1772562346035012600,2.9400126953125,0.10243570760190486,0.017569558960199357,-0.018169716810435055
1772562346045080600,2.95008056640625,0.11637480110526084,0.02975508679449558,0.03621171558797359
1772562346055147500,2.9601474609375,-0.013712883532047271,0.06995557975769043,0.09555508124269545
1772562346065214700,2.970214599609375,-0.06360241133868694,0.09932079045176505,0.07698197126314044
1772562346075282000,2.980281982421875,-0.04246843789517879,0.0695341394752264,0.00213321263641119
1772562346085348900,2.990348876953125,-0.033572014734148975,0.019831658673286436,-0.05767134078927338
1772562346095416800,3.000416748046875,-0.0459755692332983,0.02717266908586025,-0.09416837612465023
1772562346105483800,3.01048388671875,-0.023629881912469862,0.0028469138637185094,-0.10940978439822792
1772562346115550700,3.02055078125,0.04135843082666397,-0.012604630029201506,-0.12377367918491362
1772562346125617700,3.03061767578125,0.13907587773501873,-0.012378712318837642,-0.09445471878536045
1772562346135685600,3.040685546875,0.14693360549807546,-0.016951427061855793,-0.07556779361627995
1772562346145752600,3.050752685546875,0.09107610919773577,0.020516718327999114,-0.04686630752794444
1772562346155819800,3.06081982421875,0.05011807586550712,0.05881488480120897,-0.01897423812635243
1772562346165886700,3.07088671875,0.06438274806141853,0.06493365994244814,0.023907310614362357
1772562346175955000,3.080954833984375,0.13293138363063334,0.07812836481928825,0.05895626603327691
1772562346186022000,3.09102197265625,0.17522212687134742,0.0438841499119997,0.07102963872998952
1772562346196088800,3.1010888671875,0.20730477983057496,0.029937749885022638,0.043962110519036646
1772562346206155800,3.11115576171875,0.1979752259492874,0.019195991118252275,0.0005731967780739068
1772562346216222700,3.12122265625,0.05584463681876659,0.010033610497415066,-0.06386690749377012
1772562346226290700,3.131290771484375,-0.021450784307718275,0.04355418730527162,-0.08956453559100627
1772562346236357600,3.141357666015625,-0.005205167427659034,0.0651163230329752,-0.07240333823598921
1772562346246424600,3.151424560546875,0.020667524975538254,0.06512392181754112,-0.03969400474578142
1772562346256491800,3.16149169921875,0.02995557780265808,0.05178104064166546,-0.006773293527215719
1772562346266559700,3.171559814453125,0.007118892094492912,0.031232465870678423,0.026796456184610722
1772562346276627000,3.181626953125,-0.038301381343603134,0.03340016529858112,0.006375234120339155
1772562346286694000,3.19169384765625,-0.0356102425634861,0.05740998643934726,-0.004171878857165575
1772562346296760800,3.2017607421875,0.012584756284952163,0.054769116541743275,-0.0011390139672905206
1772562346306827800,3.211827880859375,0.06426058298647404,0.02587999892681837,-0.010430646990984678
1772562346316895700,3.221895751953125,0.10891513274908066,0.026086627414822577,-0.0016376111391931771
1772562346326962700,3.231962646484375,0.10262684625983237,0.02899403929412365,-0.05940817451924085
1772562346337029600,3.242029541015625,0.031148586979508397,0.036301731958985325,-0.06871244782879948
1772562346347096600,3.2520966796875,0.013800561815500259,0.05710866540521383,-0.05876067039594054
1772562346357164800,3.262164794921875,-0.012213000363111496,0.0725558253839612,-0.07563187182843685
1772562346367231700,3.272231689453125,-0.00109013332426548,0.10635054295808076,-0.05076879485920071
1772562346377299000,3.282298828125,-0.010689736318588257,0.08381313245743513,-0.08576170924194157
1772562346387366000,3.292365966796875,0.020105214917659757,0.06998918976634741,-0.10338000271469354
1772562346397433900,3.302433837890625,0.07024141096174717,0.048019350020587444,-0.1135405275274068
1772562346407500500,3.31250048828125,0.04244388797581196,0.053475569599866865,-0.12176840377710758
1772562346417567500,3.3225673828125,0.07703004818856715,0.0925365371391177,-0.08594123052731156
1772562346427634400,3.332634521484375,0.15015081397891045,0.08594780639857054,-0.03346950420774519
1772562346437701400,3.342701416015625,0.169027363884449,0.06050152271389961,0.018906433587148785
1772562346447769300,3.352769287109375,0.17966040157973764,0.03364361866563558,0.0032896161299198865
1772562346457836300,3.362836181640625,0.24103110834360122,0.014142214860022068,-0.07355806122906505
1772562346467903500,3.372903564453125,0.24699966135919094,0.008442541913688182,-0.1225374153882265
1772562346477970700,3.382970703125,0.24482582445144652,0.005643851105868816,-0.1117663574617356
1772562346488038700,3.39303857421875,0.16020049882829188,0.040270343329012394,-0.08465601302236318
1772562346498105600,3.403105712890625,0.05392565145492553,0.06345131243020295,-0.10316044167988002
1772562346508172500,3.413172607421875,0.04949906718432903,0.06795534585118293,-0.15403057802170514
1772562346518239500,3.423239501953125,0.10409516524672507,0.040866847917437554,-0.18436836007498203
1772562346528306400,3.433306396484375,0.0972971756696701,0.023273031298816204,-0.18642134708203376
1772562346538374400,3.44337451171875,0.07757073093652725,0.02444733577519655,-0.17254750083461404
1772562346548441300,3.45344140625,0.13075287054777143,0.013373860836029051,-0.14880129906609654
1772562346558508300,3.46350830078125,0.1531324601382017,0.03326309491544962,-0.05771203812584281
1772562346568575500,3.473575439453125,0.04983107561767101,0.06471797136515378,-0.006093275373801589
1772562346578643500,3.4836435546875,-0.058631637188792225,0.07043517996817827,-0.04873692370541394
1772562346588710700,3.493710693359375,-0.034847441497445106,0.0408124873816967,-0.09512005082629621
1772562346598777600,3.503777587890625,-0.03153729403614998,0.011424772594869136,-0.11018478735871612
1772562346608844500,3.513844482421875,-0.07833879269957542,-0.0036079613640904425,-0.07584938703663646
1772562346618911500,3.523911376953125,-0.14471885205805302,0.036975393436849115,-0.0930664062321186
1772562346628979500,3.5339794921875,-0.14882570285499094,0.049990065571665764,-0.13213453416451812
1772562346639046400,3.54404638671875,-0.07464695244431495,0.04771452185511589,-0.09570683773830532
1772562346649113300,3.55411328125,-0.05650397751033306,0.02098082870841026,-0.09181691762767731
1772562346659180300,3.56418017578125,-0.07285071667730808,0.034059798251092434,-0.09873962956294417
1772562346669248500,3.57424853515625,-0.013885317489504813,0.02949585133641958,-0.07193623218089341
1772562346679315500,3.5843154296875,0.059873161682486534,0.050961540952324864,-0.05370967061668634
1772562346689382700,3.594382568359375,0.08394552666544913,0.06801175221353768,-0.05707563991844654
1772562346699449600,3.60444970703125,0.09929799409806728,0.05807692591547966,-0.047542160962894556
1772562346709517600,3.614517578125,0.09897650705873966,0.04792407295256853,-0.024474369912594555
1772562346719584500,3.62458447265625,0.12626140434741973,0.035977906832098956,-0.03852671453207731
1772562346729651500,3.6346513671875,0.14408523032963275,0.029937749885022638,-0.03739982939399779
1772562346739718400,3.644718505859375,0.14067688319087027,0.0027776480197906493,-0.06386530005857348
1772562346749785300,3.654785400390625,0.1289034432888031,-0.01645867510885,-0.08622998434081673
1772562346759853600,3.664853515625,0.11854337731599807,-0.019246552261710168,-0.07752864536046981
1772562346769920500,3.67492041015625,0.15046820936501026,-0.015232932706177234,-0.08357925063632428
1772562346779987500,3.684987548828125,0.11410919426083564,-0.009920213250815867,-0.047828795884549614
1772562346790054700,3.6950546875,0.053044192445278165,0.01859890200793743,-0.023559008633345365
1772562346800122600,3.70512255859375,0.061166708624362943,0.046808805187046526,-0.05122106867134571
1772562346810189600,3.715189453125,0.031845921593904494,0.041995851947367185,-0.06390307478569447
1772562346820256500,3.725256591796875,-0.10115092848837375,0.07699702270179987,-0.09197663823403418
1772562346830323500,3.735323486328125,-0.093694182741642,0.0921665347829461,-0.13621895393393932
1772562346840390400,3.745390380859375,0.0381067355543375,0.059873453943431375,-0.12653474139608442
1772562346850458400,3.755458251953125,0.1340396371334791,0.030032734692096708,-0.03690941552855074
1772562346860525600,3.765525634765625,0.20260054766237734,0.0027700492352247235,-0.019084785828739403
1772562346870592500,3.775592529296875,0.1643658018141985,0.03970978683680296,0.03867525615729391
1772562346880659500,3.785659423828125,0.028985855987668036,0.08125292658060788,0.022296879743039608
1772562346890727400,3.7957275390625,-0.08799743240475653,0.12295973245352505,-0.0348925958134234
1772562346900794600,3.805794677734375,-0.09681669867634772,0.13267419399917124,-0.09220591694526374
1772562346910861600,3.815861572265625,0.014381576573848724,0.11589286280721425,-0.09133760967813431
1772562346920928500,3.825928466796875,0.16996142986416815,0.0658387920886278,-0.04610109530910849
1772562346930995500,3.835995361328125,0.19806699588596818,0.011220189933478831,0.015351225323602556
1772562346941063400,3.8460634765625,0.11472820294201373,0.034892741943895814,0.014450988548249005
1772562346951130400,3.85613037109375,-0.036004794839024544,0.059091655915975566,-0.002731032399088144
1772562346961197300,3.866197265625,-0.09417232164740562,0.08572948747277259,-0.06248107915855944
1772562346971264500,3.876264404296875,-0.08215688968300819,0.09293868819922209,-0.07749240500330924
1772562346981332500,3.88633251953125,0.019243045130372047,0.08388035247474908,-0.03830810334533453
1772562346991399400,3.8963994140625,0.1769300998330116,0.04881985274851322,0.03406469362191856
1772562347001466600,3.906466552734375,0.29351123716533184,0.027771219500899315,0.03542516832016408
1772562347011533600,3.916533447265625,0.2726128260433674,-0.00753945559412241,0.013583484998717903
1772562347021600500,3.9266005859375,0.12848609465956687,0.004463993671536446,-0.036439167668297884
1772562347031668500,3.93666845703125,-0.01109480998814106,0.02578852125108242,-0.11900083875991403
1772562347041735400,3.9467353515625,-0.07131693123877048,0.02709609671831131,-0.1913640641812235
1772562347051802400,3.95680224609375,-0.0391349095582962,0.020204583638906478,-0.23588110516928135
1772562347061869300,3.966869384765625,0.12594751609265803,-0.008550386202335357,-0.22463030090183017
1772562347071937500,3.9769375,0.3206178552776575,-0.054314358511567115,-0.14755809407196938
1772562347082004500,3.98700439453125,0.36426819643378255,-0.05481003307402134,-0.04745156006999313
1772562347092071400,3.997071533203125,0.2523456985622644,-0.057144905762374396,0.005445917380973697
1772562347102138600,4.007138671875,0.11299684910476207,-0.035814532963931556,-0.022208836133405564
1772562347112206300,4.017206298828125,-0.04361117818951606,0.012309154213964939,-0.10137852669917047
1772562347122273500,4.0272734375,-0.04719371285140514,0.049262335819005965,-0.13831497636511922
1772562347132340500,4.037340576171875,0.05067570974826813,0.011584347070753573,-0.10478614318557083
1772562347142407400,4.047407470703125,0.12019231356680392,-0.05491086309999227,-0.06931560135371982
1772562347152474400,4.057474365234375,0.08623392986357212,-0.07383037536442279,-0.07097403608523309
1772562347162542600,4.06754248046875,-0.016818448331952094,-0.045242871044576166,-0.11946546059697866
1772562347172609500,4.077609619140625,-0.1180371813595295,-0.004688742338120937,-0.16667385956086217
1772562347182676500,4.087676513671875,-0.1497697057068348,0.03102466833889484,-0.15748714821636675
1772562347192743400,4.097743408203125,-0.09244973563849926,0.053728959839046,-0.1254849400822073
1772562347202811400,4.107811279296875,-0.023971242696046828,0.06101093354076147,-0.061356385977566236
1772562347212878600,4.117878662109375,0.039945641419291494,0.06291618264019488,-0.02590842130370438
1772562347222945500,4.127945556640625,0.09218786983191966,0.0411459571197629,-0.046885669815540314
1772562347233012500,4.138012451171875,0.05624386526942253,0.018484920239448546,-0.08381525134928525
1772562347243079400,4.148079345703125,0.003711713999509811,0.06839169144183396,-0.06341872533485293
1772562347253147600,4.158147705078125,0.034414895299077035,0.09609364509880543,-0.03949073725864291
1772562347263214600,4.168214599609375,0.09898819749653338,0.09614245267659426,-0.013949907158315181
1772562347273281500,4.178281494140625,0.1429898363083601,0.06682663408219813,0.021340674996748566
1772562347283348500,4.188348388671875,0.16021043570041654,0.061171092538535594,0.04853884385004639
1772562347293416400,4.19841650390625,0.162443893840909,0.0593409545019269,0.05467858871407807
1772562347303483400,4.2084833984375,0.1525917773902416,0.05570639739185571,0.012646934800967574
1772562347313550600,4.218550537109375,0.16825813307762144,0.037116555473208426,0.004527268166095018
1772562347323617500,4.228617431640625,0.1043254668712616,0.020240531735122202,0.005627776753902435
1772562347333685500,4.238685546875,0.00020049100816249847,0.07576192794889211,0.016703005258738992
1772562347343752400,4.24875244140625,-0.019444705182313917,0.10128332269638776,-0.02125387349613011
1772562347353819600,4.258819580078125,0.03865793969631195,0.05156769015192985,-0.08830277202688157
1772562347363886600,4.268886474609375,0.0281464825540781,-0.005478139150142669,-0.1331874772835523
1772562347373953500,4.27895361328125,-0.00689852734208107,0.001840367169678211,-0.12142360892742872
1772562347384021500,4.289021484375,0.0183954883903265,0.0563537553846836,-0.10330978702269494
1772562347394088400,4.29908837890625,0.09458733218908309,0.024696926622092722,-0.06461531470827758
1772562347404155600,4.30915576171875,0.12925883259773255,0.005570785869657993,-0.01714285798072815
1772562347414222600,4.31922265625,0.09834054724276066,0.016423311534523963,0.001218508944287896
1772562347424290600,4.32929052734375,0.07434124749600887,0.041188334956765174,-0.019747852847352622
1772562347434357800,4.339357666015625,0.14732523516416549,0.022917349728941917,-0.06456438823863864
1772562347444424700,4.3494248046875,0.23097324018776416,0.0019759762480854987,-0.08699658479914069
1772562347454491600,4.35949169921875,0.2228267586112022,-0.07047346615195274,-0.11350881721489131
1772562347464558600,4.36955859375,0.2280430319547653,-0.08628916718214749,-0.15371858946308492
1772562347474626600,4.37962646484375,0.21636136198937891,-0.06153495741486549,-0.17352094897665082
1772562347484693500,4.389693603515625,0.16353461168706415,-0.021296762789785862,-0.15439765776842831
1772562347494760400,4.399760498046875,0.14029109874367712,-0.00033463878184556957,-0.13963818779289722
1772562347504827400,4.409827392578125,0.1445189455717802,-0.002048456962406635,-0.13700776622407138
1772562347514895600,4.4198955078125,0.16573007590472696,-0.02439472880512476,-0.10184197949245571
1772562347524962600,4.429962646484375,0.18253800284266472,-0.03422551020681858,-0.11780191129893064
1772562347535029800,4.44002978515625,0.11565876179039478,-0.032766835831105706,-0.1491607069630176
1772562347545096700,4.4500966796875,0.0405816012352705,-0.0013926234021782874,-0.18517704610936342
1772562347555163600,4.46016357421875,0.027459084811806676,0.022912673553824422,-0.18245098214633762
1772562347565231600,4.470231689453125,0.026249124500155447,0.04684533780515194,-0.1367978498004377
1772562347575298600,4.480298583984375,-0.007125321835279464,0.05861000987887382,-0.07539272931031882
1772562347585365500,4.490365478515625,0.04015490025579929,0.05548194098621607,-0.014529679807648061
1772562347595432400,4.500432373046875,0.1385936471760273,0.020993688189983366,0.017496639854460955
1772562347605500700,4.510500732421875,0.1894189945280552,-0.01632452733516693,-0.010037482954934238
1772562347615567600,4.520567626953125,0.2156733797252178,-0.024490298134088515,-0.015481354509294032
1772562347625634600,4.530634521484375,0.16335340990126132,-0.03080342680364847,-0.005691124313697219
1772562347635701800,4.54070166015625,0.0386947645753622,-0.020923545563220975,-0.018361439990252255
1772562347645769500,4.55076953125,-0.042505262774229044,0.026233050148189066,-0.034718992812186475
1772562347655836700,4.560836669921875,-0.038251696982979776,0.026172552132606504,-0.020564064601063727
1772562347665903600,4.570903564453125,0.01450198808312416,0.008972703267633914,0.020133345033600925
1772562347675970600,4.580970458984375,0.014870236873626708,0.00023877719193696973,0.04947875504866242
1772562347686037500,4.59103759765625,-0.05591185683608055,0.014788403809070587,0.04561769570633769
1772562347696105700,4.601105712890625,-0.07844926733672618,0.034627953527867794,0.035243674273416396
1772562347706172700,4.611172607421875,-0.08884908079802989,0.06017389819473028,0.057330418397113676
1772562347716239600,4.621239501953125,-0.10293898094892501,0.06472323206216096,0.0463414799362421
1772562347726306600,4.631306640625,-0.10353519327640533,0.06563099455684424,0.04788783259540796
1772562347736374500,4.64137451171875,-0.05862345388233661,0.054739890447258945,0.015311989291757344
1772562347746441700,4.651441650390625,0.019282208096981047,0.06721914053112268,-0.015226210704445837
1772562347756508700,4.6615087890625,0.11554127289056777,0.07088058564811944,0.005357727640867233
1772562347766575600,4.67157568359375,0.15360592286884783,0.05563157858997583,0.02598652804121375
1772562347776642600,4.681642578125,0.13764496814906596,0.06892331410050392,0.04836282969601452
1772562347786710500,4.69171044921875,0.12002923195958137,0.10620879639983176,0.038464243755117054
1772562347796777700,4.70177783203125,0.09782850606739521,0.11416150896996259,0.0106758539237082
1772562347806844700,4.7118447265625,0.07687514988780021,0.12578238865882158,-0.02159055810458958
1772562347816911600,4.72191162109375,0.12140636553168296,0.08370002747178078,-0.034939138368889684
1772562347826979600,4.7319794921875,0.18396423625349997,0.05980535714328289,-0.039731706407666205
1772562347837046500,4.742046630859375,0.17750585389435292,0.06102379302233457,-0.04900543844848871
1772562347847113700,4.75211376953125,0.09646423197686671,0.06743366006463766,-0.0712123748857528
1772562347857180700,4.7621806640625,0.023967735564708707,0.07904869453459977,-0.11586297912560403
1772562347867247600,4.77224755859375,0.03380757705569267,0.08717033393085002,-0.13591660998649893
1772562347877315600,4.782315673828125,0.07982464734315872,0.07014964102506638,-0.12278949045315384
1772562347887382500,4.792382568359375,0.1255395198136568,0.045231472867727274,-0.08349529867991805
1772562347897449700,4.80244970703125,0.11117138724327087,0.015480477726459503,-0.08678973711542784
1772562347907516700,4.8125166015625,0.051236850762367246,0.017816227197647094,-0.13223404901623725
1772562347917583600,4.82258349609375,-0.050367082190513605,0.038890287147462364,-0.17030008723400533
1772562347927650800,4.83265087890625,-0.01968552820086479,0.056280105626583095,-0.18225889364033937
1772562347937717800,4.8427177734375,0.09201075969934464,0.019059212996065614,-0.152499715192616
1772562347947784700,4.85278466796875,0.1755629031330347,-0.008754384341835975,-0.11575323514081537
1772562347957852700,4.862852783203125,0.14662614698410034,-0.0382350381091237,-0.12295381416939198
1772562347967919600,4.872919677734375,0.05610182645022869,-0.05046440508514642,-0.18529022416025398
1772562347977986600,4.882986572265625,-0.03226210117936134,0.0035679216146469114,-0.20456490653790532
1772562347988053500,4.893053466796875,-0.030787352451682088,0.03749591017961502,-0.1987016405276954
1772562347998121500,4.90312158203125,0.04798632453382015,0.028752339492738244,-0.1418665313668549
1772562348008188700,4.913188720703125,0.11849135486781597,0.007654606406390666,-0.0828036631539464
1772562348018255600,4.923255615234375,0.10558335797786712,0.013359832310676573,-0.04170344487205147
1772562348028322800,4.93332275390625,0.10021393989920616,0.026325112345814704,-0.09744330614209175
1772562348038390500,4.943390625,0.06527823559641838,0.05360328763276338,-0.15930698405466973
1772562348048457700,4.953457763671875,0.039293314990401264,0.06598901421427726,-0.19584654335752127
1772562348058524700,4.963524658203125,0.03831833247840404,0.07094137592464685,-0.19655710277967153
1772562348068591600,4.973591552734375,0.06744330467581748,0.07533493470847606,-0.1278747578281909
1772562348078658600,4.983658447265625,0.10057166729569435,0.05285042343884706,-0.0542933157235384
1772562348088726500,4.9937265625,0.14865443794131278,0.06088029289841652,-0.04801058219224214
1772562348098793500,5.00379345703125,0.2477332363307476,0.07086304999142885,-0.03227539905235171
1772562348108860700,5.013860595703125,0.21448270863592622,0.010921206986904144,-0.005922668047249317
1772562348118927600,5.023927734375,0.0959463455826044,0.02468874331563711,0.0070831631939858196
1772562348128995600,5.03399560546875,-0.018542203384637832,0.06466857926547527,-0.032578400586917994
1772562348139062500,5.0440625,-0.065873863402009,0.03939356049448251,-0.08963482434824109
1772562348149129700,5.054129638671875,0.009652794486284255,0.015898703138530253,-0.13078465392552316
1772562348159196700,5.06419677734375,0.11052139890193939,-0.025341946527361867,-0.12139796302951872
1772562348169263600,5.074263671875,0.13820669368505478,-0.049613633474707604,-0.10872552846111357
1772562348179331600,5.08433154296875,0.09839315421283244,-0.05127075303196907,-0.0773010471496731
1772562348189398500,5.0943984375,0.08330956684947013,-0.004176993423700332,-0.047070013406500216
1772562348199465500,5.104465576171875,0.049636429828405375,0.044536476340889926,-0.014198475091904401
1772562348209532700,5.11453271484375,-0.047675943410396576,0.08415624680668116,0.04772255903109908
1772562348219600600,5.1246005859375,-0.10975216809511185,0.09130757986605167,0.054473275400325656
1772562348229667600,5.13466748046875,-0.15471592993736266,0.09085048374831677,0.023805969131737947
1772562348239734500,5.144734619140625,-0.17624036400318144,0.10683540386557579,-0.021051117465645072
1772562348249801700,5.1548017578125,-0.1433025555193424,0.07529460269808769,-0.0459876980625093
1772562348259870500,5.164870361328125,-0.08749649714529514,0.023291735999286172,-0.06554463144764304
1772562348269937400,5.1749375,-0.04593465270102024,0.01680120493620634,-0.06059234280250966
1772562348280004600,5.185004638671875,0.03633914135992527,0.007616320222616196,-0.03399579310417175
1772562348290071800,5.19507177734375,0.10604454574882984,-0.003209609696269035,0.0013509762175381182
1772562348300139800,5.205139892578125,0.047291328006982804,0.01624298653155565,-0.022324133076146245
1772562348310206700,5.215206787109375,0.02645020003020763,0.009183715669810771,-0.0639505671892315
1772562348320273700,5.225273681640625,0.08657762873470783,-0.005820668977499008,-0.0876238498520106
1772562348330340600,5.235340576171875,0.12943126655519008,-0.013787117812037467,-0.093605116218701
1772562348340407600,5.245407470703125,0.17219839513599872,-0.035843466797471045,-0.03755933080464601
1772562348350475500,5.2554755859375,0.23275194029808044,-0.07255436407923697,-0.0013031184878200292
1772562348360542500,5.26554248046875,0.2630173147022724,-0.08560439978837966,-0.006208206990361213
1772562348370609400,5.275609375,0.19159926117658613,-0.06350245809555054,-0.035412162708118554
1772562348380676600,5.285676513671875,0.059212067425251,-0.02748597281873226,-0.06418861372880637
1772562348390744600,5.29574462890625,-0.008732757031917572,-0.01983282771706581,-0.0910586466062814
1772562348400811800,5.305811767578125,-0.0031961656928062437,0.005153437240421771,-0.08687558876797556
1772562348410878700,5.315878662109375,0.07839256871342659,-0.009326631271839142,-0.09221220055557787
1772562348420945700,5.325945556640625,0.11222586473226547,-0.05327537085264921,-0.06161174897812306
1772562348431012600,5.3360126953125,0.08461246614158154,-0.04550152198076248,-0.03676876494884491
1772562348441080800,5.346080810546875,-0.010638298392295837,-0.02020925981402397,-0.042480932050570845
1772562348451147800,5.356147705078125,-0.09497136307060718,0.031547523169219494,-0.10166377338133752
1772562348461214700,5.366214599609375,-0.09649638068079948,0.05221534040570259,-0.1043201331090182
1772562348471281700,5.37628173828125,0.021676994279026984,0.07211451135724782,-0.07039901267625391
1772562348481349600,5.386349609375,0.11619886001646518,0.05562368754446506,-0.008743424556404351
1772562348491416600,5.39641650390625,0.14214286409020424,0.0335883813470602,0.013084084109216928
1772562348501483800,5.40648388671875,0.10596095911860465,0.04935089088529348,0.006109203595295548
1772562348511550700,5.41655078125,0.03338847486078739,0.08482201723903417,-0.02658332489058375
1772562348521619000,5.426618896484375,-0.02314239065647125,0.08671353007405996,-0.048939095214009284
1772562348531686000,5.436685791015625,0.00029401451051235195,0.04710048161000013,-0.0780132870722562
1772562348541752800,5.4467529296875,0.07134089663624762,0.01763414862900972,-0.0722743050288409
1772562348551819800,5.45681982421875,0.13448562733530997,0.012602876463532448,-0.029841596034169197
1772562348561886700,5.46688671875,0.1269645841807127,0.012683540484309195,0.05260616635419428
1772562348571954700,5.47695458984375,0.01784253068268299,0.01925590461194515,0.032960385641828176
1772562348582021600,5.487021728515625,-0.02689502118825912,0.04284808486253023,-0.040020387155935165
1772562348592088600,5.497088623046875,0.006247954478859901,0.02983750438094139,-0.06919592049680649
1772562348602155800,5.50715576171875,0.04168342499732971,-0.011869593752920626,-0.06562653757743538
1772562348612223700,5.5172236328125,0.024470424389839172,-0.04137304387390613,-0.09493760693147778
1772562348622291000,5.527291015625,0.01583703607916832,-0.03280833688527345,-0.09104125708006322
1772562348632358000,5.53735791015625,0.04681494266688824,-0.025855741268396376,-0.10479505714438855
1772562348642424800,5.5474248046875,-0.009722352591156959,-0.02805588166117668,-0.12551979219987988
1772562348652491800,5.55749169921875,-0.07681786674261093,0.02859656440913677,-0.10943543029613792
1772562348662559700,5.567559814453125,-0.07199789924025535,0.07336421915739774,-0.06898373905085027
1772562348672626700,5.577626708984375,-0.005144961673021317,0.07684709283709526,-0.044727614998817444
1772562348682693600,5.587693603515625,0.14092647403776645,0.05712357071340084,0.01140636015534401
1772562348692760800,5.5977607421875,0.2152121919542551,0.004200082038342953,0.01150499822422862
1772562348702828500,5.60782861328125,0.20713702204823492,-0.002741407662630081,-0.04961326814852655
1772562348712895700,5.617895751953125,0.16393734726905823,0.0330111659809947,-0.10820311202220619
1772562348722963000,5.627962890625,0.13399521346986293,0.06711071172058582,-0.11618870394863187
1772562348733030000,5.63802978515625,0.13196926060020922,0.06269844823628663,-0.0960003407921642
1772562348743096800,5.648096923828125,0.1681342144370079,0.07155190903842448,0.0010962708041071891
1772562348753164800,5.658164794921875,0.19958558375537394,0.09772416891008615,0.04333915631510317
1772562348763231700,5.668231689453125,0.13540683383345603,0.09911299291998148,0.019063158518821
1772562348773298700,5.678298583984375,0.026277181550860403,0.12521364886015654,0.03336239057146013
1772562348783365600,5.68836572265625,0.02515139239132404,0.13089257127940654,0.02451901277191937
1772562348793433600,5.69843359375,0.06505670180022716,0.13162526946812866,0.021211276463419197
1772562348803500500,5.70850048828125,0.08739946651160717,0.06881956146508456,0.02349135022461414
1772562348813567700,5.718567626953125,0.16584931837022304,0.05035714531838894,0.01500431158207357
1772562348823634700,5.728634765625,0.1392325296014547,0.04922083476483822,0.019945932702720163
1772562348833702000,5.738701904296875,0.08303893321454525,0.046026422637701035,-0.019292656425759194
1772562348843769900,5.748769775390625,0.03929448403418064,0.06884761851578951,-0.03301598828658461
1772562348853836800,5.7588369140625,-0.03428863857090473,0.07055500695556402,-0.06460055553056299
1772562348863903700,5.76890380859375,-0.04459259044229984,0.06763502785563469,-0.08534238785132765
1772562348873970700,5.778970703125,-0.03326747882962227,0.07946019794493914,-0.051368002861365676
1772562348884038700,5.78903857421875,0.05627952110469341,0.08607055599540471,0.03416837319210172
1772562348894105600,5.799105712890625,0.13905775755643843,0.08300970712006092,0.10721095917969942
1772562348904172500,5.809172607421875,0.18339549645483494,0.0633820465862751,0.15349471757933497
1772562348914239700,5.81923974609375,0.1363531747728586,0.053554480054974554,0.09732727854698896
1772562348924307700,5.8293076171875,0.03976853128671646,0.05158434902578592,0.0460039185449481
1772562348934375000,5.839375,-0.07676467525064945,0.07328706226795911,-0.0319796309761703
1772562348944441900,5.84944189453125,-0.09674071083068847,0.10886515612751245,-0.07412395148351789
1772562348954508800,5.8595087890625,0.014061258578300475,0.10282266109287738,-0.03652874564789235
1772562348964575700,5.86957568359375,0.1334562842875719,0.05353899022489786,0.0645729368712753
1772562348974643700,5.879643798828125,0.20419629242122173,0.003856675428152084,0.12487177661992609
1772562348984710700,5.889710693359375,0.22842764735817908,0.013301380121707916,0.11468779786638915
1772562348994777600,5.899777587890625,0.1650438472062349,0.00995236195474863,0.08265387941971421
1772562349004844500,5.909844482421875,-0.011321019959449768,0.03661474343091249,-0.013055223340913653
1772562349014912800,5.919912841796875,-0.0915852277636528,0.04763210426867008,-0.10896956635005771
1772562349024979700,5.929979736328125,-0.10082534979581832,0.05047989491522312,-0.16835918229930102
1772562349035047000,5.940046875,-0.040426118412613864,0.021833353884518146,-0.16412687849178909
1772562349045113900,5.95011376953125,0.029153613770008087,-0.03135229285806417,-0.1357164112392813
1772562349055180800,5.960180908203125,0.060683893543481825,-0.03274608530402184,-0.10475640563443303
1772562349065248800,5.970248779296875,0.05899696336984634,-0.0014025602743029594,-0.07972885881848633
1772562349075315700,5.980315673828125,0.05290273814797401,0.018624328710138797,-0.0956769540566951
1772562349085382700,5.990382568359375,0.038569092369079586,0.0024660978525876997,-0.13647490145638586
1772562349095449600,6.00044970703125,0.021305822879076,0.012125906601548194,-0.12334361720457672
1772562349105517600,6.010517578125,0.08837152641415595,0.0247676537707448,-0.14218692242763936
1772562349115584800,6.020584716796875,0.20876666907668112,-0.04316927964091301,-0.1981649763677269
1772562349125651700,6.030651611328125,0.24943945572674273,-0.09931874462515115,-0.17850735908709464
1772562349135719000,6.040718994140625,0.24402269137501714,-0.11922843697071074,-0.2198729503069073
1772562349145785900,6.050785888671875,0.1295961017280817,-0.11118073959350586,-0.2885889052670449
1772562349155853800,6.060853759765625,0.03953881418406963,-0.06185381410568952,-0.324786592329666
1772562349165920800,6.070920654296875,-0.02318038457930088,-0.019920798261463642,-0.2765871365018189
1772562349175987700,6.08098779296875,-0.02169511445760727,-0.01565963368564844,-0.2100046133738011
1772562349186054700,6.0910546875,0.028432898280024526,-0.010073650246858596,-0.20313881925754249
1772562349196122600,6.10112255859375,0.07783551935255527,-0.012972002036869525,-0.20867365703098475
1772562349206189600,6.111189453125,0.058849079331755635,-0.010493336963653564,-0.24059848907999692
1772562349216256800,6.1212568359375,-0.028556816920638082,0.029300036503374576,-0.19792035395689309
1772562349226324000,6.131323974609375,-0.029137831678986547,0.06267535962164401,-0.1748743363469839
1772562349236391700,6.1413916015625,0.0366863473623991,0.04908756377398967,-0.152325746865198
1772562349246459000,6.151458984375,0.17353870382905007,0.04251519964635372,-0.11069083718471229
1772562349256525800,6.16152587890625,0.2910743654072285,0.02016483615040779,-0.06905154359005392
1772562349266592800,6.1715927734375,0.32371348320543764,0.009899462723731994,-0.059268327657133336
1772562349276659700,6.18165966796875,0.27394845856130123,0.001547229442000389,-0.030559754240885376
1772562349286727700,6.191727783203125,0.1483662686496973,0.03980184903442859,0.0035418373253196475
1772562349296794600,6.201794677734375,0.09986673389673233,0.07701134348809718,-0.012475962148234248
1772562349306861600,6.211861572265625,0.0654910015642643,0.05036649766862392,-0.04226363603807985
1772562349316928500,6.221928466796875,-0.007993336841464043,0.05309446132779121,-0.05189348804019391
1772562349326996700,6.231996826171875,0.03691547994315624,0.0546045736297965,-0.07287387835718691
1772562349337063700,6.242063720703125,0.059870823594927784,0.053230654928088185,-0.04860262980125844
1772562349347131000,6.252130859375,0.05489946492314338,0.00828968943953514,-0.04290478348582983
1772562349357197800,6.26219775390625,0.0786141025096178,0.0271203543767333,-0.049738648093864316
1772562349367264800,6.2722646484375,0.09998188470900059,0.027023616003990173,-0.016937325471267105
1772562349377332700,6.282332763671875,0.11351532002091407,0.03599193535745144,0.002257131277024746
1772562349387399700,6.292399658203125,0.1320657067120075,0.057845162986218925,0.0689204645562917
1772562349397466600,6.302466552734375,0.11802023022472857,0.06215981131494045,0.06998064113371073
1772562349407533600,6.312533447265625,0.0883387931883335,0.07523644277006387,0.061167000885307785
1772562349417601500,6.3226015625,0.12188859609067439,0.09549918633699417,0.007775017915666103
1772562349427668500,6.33266845703125,0.20311843405663965,0.0575607930868864,-0.007144830253347754
1772562349437735700,6.342735595703125,0.2200742450326681,0.032492987325787544,0.03875204772055149
1772562349447802600,6.352802734375,0.1889911245048046,-0.011248539245128631,0.05925809852406382
1772562349457870800,6.362870849609375,0.1348071143746376,0.000888181011378765,0.025289193426817656
1772562349467937800,6.372937744140625,0.062298927524685854,0.018299334539473057,-0.046852279002591965
1772562349478004700,6.383004638671875,-0.020413842475414275,0.010324994659423827,-0.10190306202992797
1772562349488071700,6.39307177734375,-0.07464812148809433,0.029523031604290005,-0.1401436530970037
1772562349498138600,6.403138671875,-0.04325520435869693,0.044341830551624294,-0.12662037385292352
1772562349508206600,6.41320654296875,0.040301030728220937,0.04177402589023113,-0.08296864445731043
1772562349518273500,6.4232734375,0.13248539342880247,0.029467794285714624,-0.016624679325520992
1772562349528340500,6.433340576171875,0.1955009447902441,0.03410714452415704,0.026988033233955502
1772562349538407700,6.44340771484375,0.19589783515334128,0.035493630446493625,-0.02054755185768008
1772562349548475400,6.453475341796875,0.12362345705926417,0.02473141341358423,-0.0850935276567936
1772562349558542800,6.46354296875,0.04323708418011665,0.03347995253652334,-0.1724035623192787
1772562349568609800,6.47360986328125,0.0676999097853899,0.05912351235896349,-0.20914755815304814
1772562349578676700,6.4836767578125,0.14212006773650646,0.03985241017788648,-0.1690901999875903
1772562349588743700,6.49374365234375,0.19164602292776106,-0.011526479403674602,-0.07903305857405066
1772562349598811600,6.503811767578125,0.21735212659239767,-0.01611322267204523,-0.03639415948279202
1772562349608878600,6.513878662109375,0.2231494146943092,-0.017909166178107262,-0.050200420386716724
1772562349618945500,6.523945556640625,0.1362660810112953,-0.03405775242447853,-0.09686477560177445
1772562349629012500,6.534012451171875,0.049584991902112956,-0.03394289387315511,-0.13676080572567878
1772562349639080400,6.54408056640625,0.021208207723498344,-0.03232055336833,-0.161810710503906
1772562349649147400,6.5541474609375,0.05918459489643573,-0.05237462262064218,-0.1561041694253683
1772562349659214800,6.56421484375,0.12246493467390536,-0.08553104229122399,-0.15867738091424108
1772562349669281800,6.57428173828125,0.17255846062004565,-0.11509557494968176,-0.1438370277222246
1772562349679349800,6.584349853515625,0.1856751318246126,-0.11819149513840675,-0.11835355383232235
1772562349689416700,6.594416748046875,0.13808920478522776,-0.09759411278963089,-0.10462503433972596
1772562349699483600,6.604483642578125,0.0664449412882328,-0.047423722214996814,-0.10524886532649397
1772562349709550600,6.614550537109375,0.1012011973708868,-0.028136253421008586,-0.0990146471120417
1772562349719617500,6.624617431640625,0.09333294821381569,-0.01617255164384842,-0.05499971042722463
1772562349729685500,6.634685546875,0.11817045235037803,0.030573709701001643,-0.07044511684030294
1772562349739752400,6.64475244140625,0.1381844818532467,0.07102028637975454,-0.03953837579265237
1772562349749819400,6.6548193359375,0.10286416214704514,0.08698533275276422,0.005515913877263665
1772562349759886600,6.664886474609375,0.07085632798969745,0.11676789207607507,0.04419241214357316
1772562349769954600,6.67495458984375,0.0799608409434557,0.13376461958438157,0.057138695217296476
1772562349780021800,6.685021728515625,0.09605039047896861,0.14507278006225824,0.056620151235908266
1772562349790088700,6.695088623046875,0.14994447775185107,0.14581746094971895,0.023091244991123677
1772562349800155600,6.70515576171875,0.11701134544312954,0.13304565766006707,0.020646774448454377
1772562349810222600,6.71522265625,0.0008352817803621292,0.13607728044092654,-0.0016279665280133485
1772562349820290600,6.72529052734375,-0.031980946150422095,0.16294599814414978,-0.03265716491155326
1772562349830357500,6.735357421875,-0.0729103379100561,0.14618717104494572,-0.015938596757501363
1772562349840424400,6.745424560546875,-0.08100421251654624,0.17105448579788207,0.053639820250868796
1772562349850491600,6.75549169921875,-0.0540361260920763,0.16961948455870152,0.08207812535837292
1772562349860559600,6.7655595703125,0.02940262009501457,0.12788286806941032,0.056689855471253395
1772562349870626800,6.775626708984375,0.10695756894052028,0.06511866112053394,0.06142674780003726
1772562349880693800,6.78569384765625,0.0898638107985258,0.03100567137748003,0.024041166127100586
1772562349890760700,6.7957607421875,0.04352583799362182,0.023861937102675437,-0.012538286794722079
1772562349900828700,6.80582861328125,0.012014847442507743,0.01752835016697645,-0.04208075375184416
1772562349910895600,6.8158955078125,0.05111000951230526,0.006811141319572925,-0.08142243792861699
1772562349920962600,6.825962646484375,0.11456219872534275,-0.010977905610203743,-0.08058825212679803
1772562349931029500,6.836029541015625,0.14900924272835253,-0.020226503209769726,-0.07746018323414028
1772562349941096400,6.846096435546875,0.1467792917191982,-0.02166325801461935,-0.0684019936401397
1772562349951164700,6.85616455078125,0.1423790109336376,-0.03754939393252134,-0.04346818952225148
1772562349961231600,6.866231689453125,0.14833178185820578,-0.038267186813056464,-0.07435965993553399
1772562349971298800,6.876298828125,0.08060206145644187,-0.026003917567431926,-0.11708353389650583
1772562349981365800,6.88636572265625,0.04862988313436508,-0.016805881111323834,-0.13637882067076862
1772562349991433700,6.896433837890625,0.08366554068028927,-0.02821457935422659,-0.10883264209739864
1772562350001500700,6.906500732421875,0.10427987416386604,-0.029364041650295256,-0.07597805491760373
1772562350011567600,6.916567626953125,0.02177344039082527,-0.024066812025010584,-0.058664151218906044
1772562350021634600,6.926634521484375,-0.02691664849817753,-0.010037994411587715,-0.08240816103033721
1772562350031701500,6.936701416015625,-0.007688216415047645,-0.00040361236482858653,-0.09343692004494368
1772562350041769500,6.94676953125,-0.06539747806191444,-0.015991934379935263,-0.10302972797229885
1772562350051836700,6.956836669921875,-0.16343115131258965,0.02362228312790394,-0.10161460047736763
1772562350061903600,6.966903564453125,-0.08826981960535049,0.026917525281012055,-0.09965024160183966
1772562350071970800,6.976970703125,0.07867197017669678,0.006184533853828907,-0.05941672315187752
1772562350082038500,6.98703857421875,0.16991349906921385,-0.02917553334087133,-0.0029117957934737203
1772562350092105700,6.997105712890625,0.1933089877039194,-0.05691898805201053,-0.0169184015750885
1772562350102172700,7.007172607421875,0.19098843580186367,-0.076472706566751,-0.09123904467448592
1772562350112239600,7.017239501953125,0.05656126065552234,-0.04752922841608524,-0.15516031270399688
1772562350122307600,7.0273076171875,-0.0840384656459093,0.03653437167108059,-0.1798498597372323
1772562350132374500,7.03737451171875,-0.06903612682521343,0.08285451655834913,-0.16356201115064323
1772562350142441500,7.04744140625,0.07324994512796401,0.07252367668002843,-0.09110014766044915
1772562350152508700,7.0575087890625,0.18140169228911399,0.0629264117732644,0.0008704992242157459
1772562350162575600,7.06757568359375,0.18834931946992872,0.0628872488066554,0.06339972837343812
1772562350172643600,7.0776435546875,0.16511632792055606,0.06643646572083234,0.04213876754939556
1772562350182710500,7.08771044921875,0.0838771376043558,0.10107581742554902,0.006279957052320242
1772562350192777700,7.09777783203125,0.02643324889540672,0.12047522216141224,-0.05093326470591127
1772562350202844700,7.1078447265625,0.012504676786065101,0.1340761697515845,-0.04794197393544018
1772562350212912600,7.11791259765625,0.10505728827714919,0.12406272525936364,0.003989581092819571
1772562350222979600,7.1279794921875,0.14663842194378376,0.10924275726824999,0.0328403394587338
1772562350233046500,7.138046630859375,0.12909633551239966,0.07873480627983807,0.047210152529552574
1772562350243113500,7.148113525390625,0.14572364518642425,0.08461743457764387,0.030880291432142257
1772562350253180400,7.158180419921875,0.17453122199773788,0.03444616722017527,0.004836553310975432
1772562350263248600,7.16824853515625,0.11595569891035556,0.018460078059136867,-0.00212079154625535
1772562350273315600,7.178315673828125,0.045704351076483726,0.02783668595254421,-0.022508330536633727
1772562350283382500,7.188382568359375,0.005761632266640663,0.0535392824858427,-0.043270986449718475
1772562350293449700,7.19844970703125,-0.07927753485441208,0.036329204487800595,-0.08490202367268503
1772562350303517700,7.208517578125,-0.11573942581117153,0.030486031417548656,-0.09925744289197028
1772562350313584600,7.218584716796875,-0.05160509955286979,0.016205869391560553,-0.11390673049129545
1772562350323651600,7.228651611328125,0.060762219476699825,-0.05435498278290033,-0.09574081307314336
1772562350333718500,7.238718505859375,0.1584264748930931,-0.07683481787741184,-0.047511692759394646
1772562350343786800,7.248786865234375,0.16847966687381266,-0.08374912731051444,0.006830065215751528
1772562350353853700,7.258853759765625,0.17835867133140562,-0.10713409455120562,0.016910875855758786
1772562350363920600,7.268920654296875,0.12166530872881412,-0.08408610417991876,-0.03312361337952316
1772562350373987600,7.278987548828125,0.10973872409164905,-0.06324819107353687,-0.06948430898413062
1772562350384054800,7.2890546875,0.09307634310424327,-0.0756646050542593,-0.07427760767526924
1772562350394122500,7.29912255859375,-0.0166962832570076,-0.0834679722815752,-0.08296009582467377
1772562350404189700,7.309189697265625,-0.11177344478964805,-0.013821312342584132,-0.09368782606609165
1772562350414257400,7.31925732421875,-0.055551206830143925,0.012922902198135851,-0.09298523075468838
1772562350424324400,7.329324462890625,-0.032927871611714364,-0.00895633665472269,-0.05442556380107998
1772562350434392300,7.339392333984375,-0.07313011814057827,0.007825286798179149,-0.042707580413296815
1772562350444459300,7.349459228515625,-0.057652563023567194,0.030958325104415416,-0.038668899481743575
1772562350454526200,7.359526123046875,0.009142506876587866,0.02163841583430767,-0.07113492573536932
1772562350464593200,7.36959326171875,-0.02782441099286079,0.06477554677128791,-0.08675736921578645
1772562350474660400,7.379660400390625,0.07321195120513439,0.08254501221776007,-0.12543437893874942
1772562350484728300,7.389728271484375,0.12405132708251476,0.07155512390881777,-0.10804419513344764
1772562350494795300,7.399795166015625,0.12892799320816992,0.08272796756923198,-0.01660940869115293
1772562350504862200,7.4098623046875,0.16125614536106586,0.10422551362812518,0.027698592656105754
1772562350514929400,7.419929443359375,0.17985972354412078,0.10215046091973781,0.03666267422586679
1772562350524997000,7.4299970703125,0.13843407270014285,0.07951075908839703,0.03537789511233568
1772562350535064300,7.440064208984375,0.1126905596345663,0.04191957184076309,-0.00011113222427666186
1772562350545131300,7.45013134765625,0.06972352456748485,0.013667875346541404,-0.0660851680651307
1772562350555198200,7.4601982421875,-0.018250526961684225,-0.0005561725780367851,-0.1439768745843321
1772562350565265200,7.47026513671875,-0.05955518177449703,-0.0027867081090807914,-0.1399838594254106
1772562350575333400,7.48033349609375,0.027853052565455436,-0.012888415406644343,-0.15563370236940682
1772562350585400300,7.490400390625,0.11775836441814899,-0.04779430909305811,-0.0627036358680576
1772562350595467300,7.50046728515625,0.18490590101778506,-0.04276742084175348,0.021070552818477153
1772562350605534200,7.5105341796875,0.22272037562727928,-0.05497369920313358,0.050567719329148525
1772562350615602200,7.520602294921875,0.12388240025639534,-0.04937310271710157,0.0045192309901118275
1772562350625669000,7.530669189453125,-0.0008744447469711303,-0.05186024335771799,-0.08529065766409039
1772562350635736300,7.540736328125,-0.024008067575097082,-0.033574937343597414,-0.14134455331936477
1772562350645803300,7.55080322265625,0.009007482320070266,-0.0005851064115762711,-0.13364552324935794
1772562350655871500,7.56087158203125,0.0740565853357315,-0.012293664383888243,-0.08935505755878985
1772562350665938400,7.5709384765625,0.08504267425239086,-0.03014934680908918,-0.061621393589302895
1772562350676005400,7.58100537109375,-0.016979776373505593,0.006066168171167373,-0.04402611566595733
1772562350686072300,7.591072265625,-0.08819733889102935,0.053793549507856364,-0.07916260323785244
1772562350696139300,7.60113916015625,-0.13326806823909282,0.0820408620879054,-0.0888268689662218
1772562350706207200,7.611207275390625,-0.054316112077236176,0.10055676198750733,-0.08412833588644862
1772562350716274200,7.621274169921875,0.05864332762658596,0.09729162271171808,-0.02905453730970621
1772562350726341000,7.631341064453125,0.14088672654926776,0.0731155050933361,0.0476592845365405
1772562350736408300,7.641408203125,0.1662117219418287,0.04659487017542124,0.046761531979218125
1772562350746476300,7.651476318359375,0.17913842353224754,0.057253042311966415,-0.0036264468688517806
1772562350756543500,7.66154345703125,0.14568740482926368,0.0668371554762125,-0.045699382640421386
1772562350766610400,7.6716103515625,0.10573358010351658,0.05952975507229566,-0.051069385240972036
1772562350776677400,7.681677490234375,0.061384735289216036,0.0691445556357503,-0.05102510770782828
1772562350786744300,7.691744384765625,0.059984220841526985,0.07846066551357507,-0.0294399564307183
1772562350796812300,7.701812255859375,0.039736967104673386,0.07449030057787895,-0.02905461037494242
1772562350806879200,7.711879150390625,0.02063011557459831,0.04882394440174102,-0.01402004978507757
1772562350816946200,7.7219462890625,0.06536299127042293,0.05626315449178219,-0.036133974176645274
1772562350827013400,7.732013427734375,0.09274316562712193,0.04587210885882377,-0.08727240606583654
1772562350837081000,7.7420810546875,0.07714695256650447,0.0024351181924343107,-0.10837452306635677
1772562350847148300,7.752148193359375,0.005235562565922737,0.004119710278511047,-0.06751381262876092
1772562350857215200,7.76221533203125,0.0169575645416975,0.04213993659317493,-0.0328160818003118
1772562350867282400,7.772282470703125,0.08975216711759566,0.023026070800423622,-0.027083529497683046
1772562350877350400,7.782350341796875,0.1822679537296295,-0.0029638182416558264,-0.03478445926383138
1772562350887417300,7.792417236328125,0.30059856507778165,-0.049619186432659626,-0.07113960191048681
1772562350897484300,7.802484375,0.34932723241150376,-0.11236761129051447,-0.0783015294291079
1772562350907551200,7.81255126953125,0.1955143887937069,-0.13761398848891257,-0.11754457553699611
1772562350917618200,7.8226181640625,0.030713118171691894,-0.08858370786011219,-0.1367008191667497
1772562350927686100,7.83268603515625,-0.09864742123484611,0.014205927745997904,-0.13602350442707536
1772562350937753000,7.842753173828125,-0.12122516374588012,0.08117226255983113,-0.06737966485507786
1772562350947820300,7.8528203125,-0.04549509223997593,0.07370441089719533,-0.011450564623251556
1772562350957887200,7.86288720703125,-0.04718962119817734,0.04225391836166382,0.05856814349852502
1772562350967955500,7.87295556640625,-0.04534896176755428,0.054793081939220424,0.03688603465296328
1772562350978022400,7.8830224609375,-0.03234802589714527,0.061494625404477116,-0.008101838717237115
1772562350988089300,7.89308935546875,-0.05240063384473324,0.024966975735127923,-0.07970430889911949
1772562350998156300,7.90315625,-0.014701894569396972,0.015379355439543723,-0.10553177392110227
1772562351008224300,7.913224365234375,0.030181787773966788,0.024624445907771585,-0.12977927627526223
1772562351018291200,7.923291259765625,0.01907119569480419,0.01776245118379593,-0.1037618416391313
1772562351028358100,7.933358154296875,0.04790039981603622,0.03983165965080261,-0.0760919636208564
1772562351038425000,7.943425048828125,0.11984160043299197,0.029973990242183206,-0.06387837873585522
1772562351048492300,7.9534921875,0.1940326258033514,0.016949965757131577,-0.009536620760709047
1772562351058560300,7.963560302734375,0.23389701867997645,0.03738485102057457,0.05181793858595192
1772562351068627500,7.97362744140625,0.26602584886848923,0.03487725211381912,0.07975691586919129
1772562351078694400,7.9836943359375,0.22870003455877302,0.03843172972500324,0.08430909928083419
1772562351088761300,7.99376123046875,0.1817886457800865,0.009069149379432201,0.04262362845689058
1772562351098829300,8.003829345703124,0.1768482667684555,0.0022816811963915825,-0.027220307619869707
1772562351108896300,8.013896240234375,0.1507066942960024,-0.027877894745767115,-0.05694448781944811
1772562351118963200,8.023963134765625,0.1430775145918131,-0.04528320305496454,-0.09792312554828822
1772562351129030100,8.034030029296876,0.10043313560783862,-0.01958411365300417,-0.09081365886926651
1772562351139097000,8.04409716796875,0.050530748319625854,0.013077800498902796,-0.030175284967944024
1772562351149165300,8.054165283203124,0.019618308183550835,0.05306172810196876,0.0008582973297685384
1772562351159232300,8.064232177734375,0.06726093384623527,0.06575403641462325,0.023467750153318045
1772562351169299500,8.074299560546875,0.06951251216530799,0.04887625911086797,0.04274623192325234
1772562351179366400,8.084366455078126,0.10326455964148044,0.017518705555796623,0.0015285978067666292
1772562351189434400,8.094434326171875,0.10231178896129131,-0.00037847792357206345,-0.04845204234942794
1772562351199501300,8.104501220703124,0.09840192204117774,-0.020246084693074224,-0.08600187467336654
1772562351209568300,8.114568359375,0.03717793027162552,-0.011020867969095707,-0.089522157754004
1772562351219635200,8.12463525390625,-0.059628831532597536,0.01931786393225193,-0.075334569382295
1772562351229702100,8.1347021484375,-0.08130582581162452,0.07367606158554553,-0.08689239377230405
1772562351239770000,8.14477001953125,0.0014496142864227294,0.08154957143962382,-0.05602050484232604
1772562351249837300,8.15483740234375,0.11252338637411594,0.07419131763130427,0.006678016459196806
1772562351259904500,8.164904541015625,0.2203834571123123,0.039220542015135286,0.05193382005058229
1772562351269971500,8.174971435546874,0.20665712957680224,0.013007365611195563,0.06284034092500805
1772562351280039400,8.185039306640626,0.10220014528036117,0.029247137272357938,0.031996947437152264
1772562351290106400,8.1951064453125,-0.052093759852647775,0.041915480187535284,-0.1037733128812164
1772562351300173300,8.20517333984375,-0.09867781637310981,0.03317717019766569,-0.1965657975427806
1772562351310240300,8.215240234375,-0.042697570475935934,0.004255903878808021,-0.2637368611484766
1772562351320308200,8.22530810546875,0.08150748586356639,-0.02619359492063522,-0.22552308502309024
1772562351330375200,8.235375244140625,0.19497136795818804,-0.06801467482298612,-0.11109364583194255
1772562351340442000,8.245442138671875,0.21361586267352103,-0.05332739330083131,-0.021711846396699548
1772562351350509000,8.255509033203126,0.21345102750062941,0.016807050155103205,0.04052687537334859
1772562351360576500,8.265576416015625,0.19972586900889872,0.04195142828375101,-0.002470043375343084
1772562351370644200,8.275644287109374,0.0747147569835186,0.04843523734509945,-0.0273937644906342
1772562351380711400,8.28571142578125,0.06494388907551765,0.06574497632533312,-0.10774769640490411
1772562351390778400,8.2957783203125,0.04020049296319485,0.04489771086871624,-0.1812431407265365
1772562351400845300,8.30584521484375,0.0745750562518835,0.01903378629386425,-0.1913452133502811
1772562351410913000,8.3159130859375,0.1450070213496685,-0.03539747659564018,-0.19091420152187347
1772562351420980000,8.32597998046875,0.155450089430809,-0.044516602596640586,-0.18489428364522753
1772562351431047000,8.336046875,0.16108195783793924,0.010851356621086597,-0.16406119284443557
1772562351441113900,8.34611376953125,0.14039455911815166,0.02638882523179054,-0.1227791151896119
1772562351451181000,8.35618115234375,0.07310965987443924,0.0377691741630435,-0.0666123337443918
1772562351461248800,8.366248779296875,0.10621288805305958,0.07113105327785015,-0.042084480078890915
1772562351471316000,8.37631591796875,0.11106383521556853,0.1063379757374525,0.005367664512991905
1772562351481383000,8.3863828125,0.04450666572451591,0.10028203669935465,0.030962928214296696
1772562351491449900,8.396449951171874,-0.03569675180315971,0.07961275815814733,0.008358809152990579
1772562351501518000,8.40651806640625,-0.0736684628009796,0.07987053231149911,-0.05442037616930902
1772562351511585000,8.4165849609375,-0.05232581504285335,0.05043488672971725,-0.11859401152469216
1772562351521652000,8.42665185546875,0.033575521865487096,0.02382598900645971,-0.14736395973935723
1772562351531719000,8.436718994140625,0.11408815147280692,0.003973579806089401,-0.13042604974620042
1772562351541785900,8.446785888671876,0.1102595330953598,-0.006708265466988086,-0.09538052839338779
1772562351551853800,8.456853759765625,0.06384089626967906,0.01672317126393318,-0.054506081691384316
1772562351561920800,8.466920654296874,0.005275310054421425,0.08333791616111993,-0.052489261976256966
1772562351571988000,8.476988037109376,0.031788638448715205,0.11808481989353894,-0.05406067601144313
1772562351582055000,8.487054931640625,0.17308160771131514,0.09760931035876273,-0.06483034569844603
1772562351592123000,8.497122802734374,0.3131312989145517,0.041209085483849044,-0.05019640179872512
1772562351602190000,8.507190185546875,0.34785599081516266,-0.016513327905535696,-0.02891249849051237
1772562351612257000,8.517257080078124,0.27785540287196636,-0.06442892529070376,-0.04293379038460553
1772562351622324000,8.527323974609375,0.13369769182801247,-0.03879676364511251,-0.08485818453095853
1772562351632392000,8.537391845703125,-0.016355506995320318,0.0020449498310685156,-0.12561200052797794
1772562351642459000,8.547458984375,-0.07554302450120448,0.04782558101415634,-0.16885295716561377
1772562351652525800,8.55752587890625,-0.03172609460651874,0.0379258260294795,-0.15904438759572803
1772562351662592800,8.5675927734375,0.024182255098223686,-0.019247136783599853,-0.14707374462112782
1772562351672660000,8.577659912109375,0.09655717095732688,-0.053964814421534536,-0.15572320728376507
1772562351682728000,8.58772802734375,0.0675298139154911,-0.052153673346340655,-0.12615545975491405
1772562351692795000,8.597794921875,-0.07165478489100932,-0.05893821891993284,-0.1354524996060878
1772562351702862000,8.607862060546875,-0.175043847694993,-0.01621726756840944,-0.1544974648810923
1772562351712929000,8.617928955078124,-0.18871932182610035,0.02455371875911951,-0.1755243246883154
1772562351722997000,8.6279970703125,-0.060117491832375525,0.034792496439814566,-0.17394107408486306
1772562351733064000,8.63806396484375,0.06858604497015476,-0.039514556525647636,-0.1384586226195097
1772562351743131000,8.648130859375,0.16602701302468775,-0.08481237262785435,-0.09032419485189021
1772562351753197800,8.65819775390625,0.1811959405839443,-0.09085983609855175,-0.07578998499959706
1772562351763264800,8.6682646484375,0.1691623884409666,-0.061817866009473796,-0.08078362856842577
1772562351773332700,8.678332763671875,0.16295184336304663,-0.031762919485568995,-0.05937010753117501
1772562351783400000,8.68839990234375,0.12233107916116714,0.004811199674010277,-0.013913666801154613
1772562351793467000,8.698466796875,0.07166822889447212,0.0272425194516778,-0.018848785115778446
1772562351803533800,8.708533935546875,0.07676818238198757,0.0491451391801238,-0.019413287130743265
1772562351813602000,8.71860205078125,0.10406827723979949,0.06742927615046501,-0.027589287062734363
1772562351823669000,8.7286689453125,0.10909048931598662,0.06839753666073084,-0.004643295761197805
1772562351833736000,8.73873583984375,0.16953589792847631,0.0552276739642024,0.04681479653641581
1772562351843803000,8.748802978515625,0.13217267421782017,0.09433569551557303,0.09431516418419778
1772562351853870800,8.758870849609375,0.09235562761425971,0.13429448867738247,0.0724916741065681
1772562351863937800,8.768937744140626,0.012243980023264885,0.14945026449412108,0.04614274249374866
1772562351874004700,8.779004638671875,0.014659224471449852,0.14491291332542897,0.03474807277619839
1772562351884072000,8.789072021484374,0.04187456365525722,0.09860533565878868,0.01350165193416178
1772562351894139000,8.799138916015625,0.011625555863976478,0.0813847362667322,0.009454130109027027
1772562351904207000,8.80920703125,0.009637596917152404,0.09611322658210993,0.015421221819892524
1772562351914273000,8.81927294921875,-0.006847673937678336,0.11195493883639573,-0.0069940966710448265
1772562351924340000,8.829340087890625,-0.09691782096326351,0.10396218651682138,0.02128412250392139
1772562351934407000,8.839406982421876,-0.07077975562214851,0.11058744987547398,0.025959347773343324
1772562351944473900,8.849473876953125,0.030080665487051007,0.08999562048465012,0.020711510247737167
1772562351954541800,8.859541748046874,0.13282792325615883,0.004963759887218475,0.03365136358067393
1772562351964609000,8.869609130859375,0.16377601922750473,-0.026529402746260165,0.012315730085223912
1772562351974676000,8.879676025390625,0.21846564079225061,-0.04020136974602938,-0.014828881949931382
1772562351984743000,8.889742919921876,0.21003683514297009,-0.06929331645667552,-0.051356604684516784
1772562351994809900,8.899809814453125,0.09161270029246807,-0.062464347219467156,-0.08445522975325584
1772562352004877800,8.9098779296875,-0.019456980141997336,-0.035573709945380685,-0.15357399336062372
1772562352014944800,8.91994482421875,-0.05969722059369087,0.010035364063084124,-0.1953781951934099
1772562352025012000,8.930011962890624,0.011984452304244041,-0.004947393274307251,-0.1257359922338277
1772562352035079000,8.940078857421875,0.06928221054077148,-0.007283435006439685,-0.025457316535338757
1772562352045147000,8.95014697265625,0.10249591335654258,-0.016680208905041218,0.05667991859912872
1772562352055213800,8.9602138671875,0.06227203951776027,-0.018707623079419134,0.03468187567219138
1772562352065281000,8.970281005859375,-0.09956979677677154,0.02109977891296148,-0.04236256636790931
1772562352075348000,8.980347900390624,-0.1446580617815256,0.08141425462216138,-0.17106858738847075
1772562352085415000,8.990414794921875,-0.04449322172105312,0.05698182415515184,-0.1978003808390349
1772562352095483000,9.00048291015625,0.07112637710273266,0.011129004518687724,-0.14439217738695442
1772562352105549800,9.0105498046875,0.13194178807139395,0.017557868522405623,-0.08219524893201888
1772562352115616800,9.02061669921875,0.23437924923896788,0.0025020459488034248,-0.07110343461856246
1772562352125684000,9.03068408203125,0.26828677953779695,0.01028349360525608,-0.06710252841413021
1772562352135752000,9.040751953125,0.2145195335149765,0.04255523939579725,-0.04879661800339818
1772562352145819000,9.05081884765625,0.12274492065906524,0.07366320210397242,-0.0463731902487576
1772562352155885800,9.0608857421875,0.09670973117053508,0.07172726560533046,-0.01280380586311221
1772562352165953000,9.070953125,0.11652560775279998,0.051851475529372686,-0.033900296840444204
1772562352176020700,9.081020751953124,0.11445172408819199,0.030161037246882915,-0.04267228990420699
1772562352186088000,9.091087890625,0.04980360308885574,0.011484686088562011,-0.02725800928175449
1772562352196155000,9.10115478515625,0.006503390544652939,0.03575958790630102,-0.04455985721647739
1772562352206221800,9.111221923828126,-0.0038461540341377257,0.0028010288953781125,-0.09434789741002023
1772562352216288800,9.121288818359375,-0.014779635980725287,-0.01799421411305666,-0.10735431317314505
1772562352226357000,9.13135693359375,-0.0024380408018827436,-0.022443302476406097,-0.08981346885077655
1772562352236424000,9.141423828125,-0.03821604114770889,-0.003107610626518726,-0.06752594145797193
1772562352246491000,9.151490966796874,-0.10364800600111485,0.02215513318479061,-0.08206146648451686
1772562352256557800,9.161557861328125,-0.11874386832416058,-0.003926233533024788,-0.07368811734952033
1772562352266625800,9.171625732421875,-0.11224866108596324,-0.00455050291121006,-0.08056494431644677
1772562352276693000,9.18169287109375,-0.1003343514084816,-0.012060440149903297,-0.11244937128983437
1772562352286760000,9.191760009765625,-0.07203004794418812,-0.02630173147022724,-0.10868709614686667
1772562352296828000,9.201827880859375,-0.025038579666614533,-0.020457681617140767,-0.07108063826486467
1772562352306896000,9.211895751953126,0.055146133160591124,-0.0024199206233024594,-0.0235815127260983
1772562352316963000,9.221963134765625,0.06526303802728653,0.012674480395019054,0.018350553270056844
1772562352327030000,9.232030029296874,0.07222177112400531,0.020344576631486415,-0.002038593155518174
1772562352337097000,9.242096923828125,0.07446984231173992,0.010524316623806953,-0.030030104343593118
1772562352347165000,9.2521650390625,0.080762220454216,0.022779110302031037,-0.0703503512289375
1772562352357231900,9.26223193359375,0.1383937406897545,0.024172610487043857,-0.06573372427895664
1772562352367298800,9.272298828125,0.21771628372967242,0.013009995959699153,-0.00617065145894885
1772562352377365800,9.28236572265625,0.25786943041980265,0.019694880551099775,0.08219349536634982
1772562352387432700,9.2924326171875,0.2580062085419893,0.01653407843261957,0.10012406965866684
1772562352397501000,9.3025009765625,0.15948621307909489,0.041054187183082104,0.05479995007142424
1772562352407567600,9.312567626953125,0.053901686057448384,0.07735971853435039,-0.04206621376983821
1772562352417634600,9.322634521484375,-0.025272388422489165,0.0834875537648797,-0.12422500314898788
1772562352427701500,9.332701416015626,0.022740239596366882,0.05865063415020704,-0.1512172741666436
1772562352437769500,9.34276953125,0.14101298327744005,0.043567046786844726,-0.13509236105680464
1772562352447836400,9.35283642578125,0.12436989151239394,0.03741173902750015,-0.05703844971321523
1772562352457903400,9.3629033203125,0.011118190863728523,0.09044862494915723,0.02576725926734507
1772562352467970300,9.37297021484375,-0.05831657989025116,0.1505994345292449,0.03140884535089135
1772562352478037200,9.383037353515626,-0.056843000206351274,0.1414472830414772,0.010817527416720986
1772562352488105200,9.393105224609375,0.05722586204409599,0.09688625678122043,-0.00654079994559288
1772562352498172400,9.40317236328125,0.19340660285949707,0.034577392384409905,-0.05256722258329391
1772562352508239600,9.413239501953125,0.3441711648225784,-0.030155776549875734,-0.09617737785950302
1772562352518306600,9.423306640625,0.33666531923711296,-0.0650111090928316,-0.10629859357513487
1772562352528374500,9.43337451171875,0.23507658385336397,-0.08030337077081202,-0.11374459873214364
1772562352538441500,9.44344140625,0.1181587619125843,-0.019781097529828547,-0.09064612028263509
1772562352548508400,9.45350830078125,0.031816110977530475,0.034601942303776737,-0.05070223242901265
1772562352558575400,9.463575439453125,-0.0042442134410142895,0.04282821111828088,-0.02532791800200939
1772562352568643300,9.473643310546874,0.013008534654974936,0.0597784691363573,0.00016008593253791331
1772562352578710300,9.483710205078125,-0.023035423150658606,0.048609132607281204,0.04244271893203258
1772562352588777200,9.493777099609375,-0.031159692895412445,0.0377536843329668,0.002975070288032293
1772562352598844400,9.503844482421876,-0.039168811827898026,0.03411123617738485,-0.04508475787341595
1772562352608911600,9.51391162109375,-0.06894377236664295,0.029238077183067798,-0.10017024688795208
1772562352618979300,9.523979248046874,-0.08395020284056663,0.03882102130353451,-0.1363647190801799
1772562352629046500,9.534046630859375,-0.08221592639386653,0.013496610432863234,-0.17511866649687288
1772562352639113500,9.544113525390625,-0.037672435790300364,0.013573767322301864,-0.19665632537044583
1772562352649180400,9.554180419921876,0.05032499661445618,0.01462532220184803,-0.1375824243068695
1772562352659248400,9.564248291015625,0.09773790517449378,0.020648528014123438,-0.07669000257924198
1772562352669315300,9.5743154296875,0.11028174492716789,0.04334434394687414,-0.01611146910637617
1772562352679382300,9.58438232421875,0.10359773711860179,0.06144961721897125,0.03765767661258578
1772562352689449200,9.59444921875,0.12962006712555885,0.06927607306092977,0.03634535190500319
1772562352699516400,9.604516357421875,0.18404899192750454,0.04112812920212745,0.02517711135447025
1772562352709584400,9.61458447265625,0.22231296387016772,-0.00857990455776453,0.021277692763134837
1772562352719651600,9.624651611328124,0.17019816122949122,-0.03148585610985756,-0.026530279529094696
1772562352729718500,9.634718505859375,0.12414777319431304,-0.04853986676335335,-0.10507818493470548
1772562352739785500,9.644785400390624,0.0825222158640623,-0.01859977879077196,-0.14407456280514597
1772562352749853400,9.654853515625,0.057500002810359,-0.014523615393042564,-0.12709515175782143
1772562352759920400,9.66492041015625,0.05780629228055477,-0.028889117614924905,-0.06598828356191516
1772562352769987300,9.6749873046875,0.06421499027907848,-0.05215834952145815,-0.018020444532856342
1772562352780054300,9.68505419921875,0.06717793173789978,-0.015060206487774848,-0.003106587713211775
1772562352790122500,9.69512255859375,0.0405289942651987,-0.012181143920123576,-0.025100904313102364
1772562352800189400,9.705189453125,0.012259177592396735,0.028069617925584316,-0.05664272839389741
1772562352810256400,9.71525634765625,0.06020400107204914,0.05572597887516021,-0.04985854814648628
1772562352820323600,9.725323486328126,0.1654845767110586,0.014689911870658396,-0.02448109191432595
1772562352830390500,9.735390625,0.2483686116248369,-0.009140461049973965,0.012074395610019564
1772562352840458500,9.74545849609375,0.25498949106931684,-0.019145429974794386,0.022323913880437612
1772562352850525400,9.755525390625,0.13939736477434633,0.002963525980710983,-0.0008965104483067989
1772562352860592400,9.76559228515625,0.08029518746435642,0.044397067870199675,-0.018279387729987502
1772562352870659300,9.775659423828126,0.029424247404932973,0.10153934328407048,-0.020723639076948165
1772562352880727300,9.785727294921875,0.054525955435633655,0.12649579762518406,0.0328228038020432
1772562352890794500,9.79579443359375,0.11360942804515362,0.1203434124752879,0.08967837122902274
1772562352900861400,9.805861328125,0.0864694921851158,0.11364186901003122,0.08526625387519597
1772562352910928400,9.815928466796874,0.008591887256503105,0.1016562476620078,0.053483899036794895
1772562352920995600,9.82599560546875,-0.04341945500969886,0.10276771603524684,-0.02564838212803006
1772562352931063300,9.836063232421875,-0.08701543563008309,0.07935761435329913,-0.08639701147079468
1772562352941130500,9.846130615234374,-0.035001170754432674,0.08546499131768942,-0.1122112516850233
1772562352951197400,9.856197509765625,0.0628548078417778,0.06944499988704919,-0.11277480385191738
1772562352961264400,9.866264404296874,0.16644611521959304,0.04341916274875402,-0.013238324822857975
1772562352971332400,9.876332275390626,0.22185411418676376,0.020611118613183498,0.04969795075729489
1772562352981399300,9.8863994140625,0.1966553755223751,0.03845481833964586,0.04592106256708502
1772562352991466500,9.896466552734376,0.1497130070835352,0.049266719733178616,-0.003968538304790855
1772562353001533400,9.906533447265625,0.12530921818912027,0.033034839117527005,-0.03724500415846705
1772562353011601400,9.916601318359374,0.09545184006392955,0.011184241837263107,-0.05886259640045464
1772562353021668400,9.92666845703125,0.06589665975570679,-0.010368249279260635,-0.0523747687511146
1772562353031735300,9.9367353515625,0.07165536941289902,-0.006205868902802467,-0.08642740660905837
1772562353041802500,9.946802490234376,0.09558569557666778,-0.010734159982204436,-0.1153862284593284
1772562353051869400,9.956869384765625,0.09561083001792431,-0.007800152356922626,-0.16061872424036264
1772562353061937400,9.9669375,0.11932137595117091,-0.029544658914208412,-0.11527699593119323
1772562353072004400,9.97700439453125,0.14726210680007934,-0.05043868612200021,-0.05780563469342887
1772562353082071300,9.9870712890625,0.13731588232517242,-0.04139116405248642,-0.03838102245107293
1772562353092138500,9.997138427734376,0.027545009529590606,-0.035565818899869914,-0.07915244717001914
1772562353102206500,10.00720654296875,-0.09835340672433376,-0.032522213420271874,-0.12755100576654077
1772562353112273400,10.0172734375,-0.1258060617953539,-0.02462123103737831,-0.16685995671749115
1772562353122340400,10.02734033203125,-0.09459785358309745,-0.017991291503608224,-0.16106975594349204
1772562353132407600,10.037407470703124,-0.02694353650510311,-0.026360475920140743,-0.12517923513390122
1772562353142474500,10.047474609375,0.05251461561322212,-0.047880233810842034,-0.06644399144016205
1772562353152542500,10.05754248046875,0.11237141068279742,-0.017417291007936,-0.01770078412443399
1772562353162609400,10.067609375,0.11512041712999344,-0.003471475502848625,-0.01745382362604141
1772562353172676400,10.07767626953125,0.14517127200067043,-0.007197510288655757,-0.0264270383503288
1772562353182743300,10.087743408203124,0.09927928939759731,0.005159866981208324,-0.07441314368844032
1772562353192811500,10.0978115234375,0.05929156240224838,0.05798661728352308,-0.11040215643644333
1772562353202878500,10.10787841796875,0.06529694029688835,0.0908466843560338,-0.1182674099188298
1772562353212945400,10.1179453125,0.11068331146538257,0.10541881506592035,-0.0672786886986345
1772562353223012400,10.128012451171875,0.16565291901528834,0.10259557433873415,-0.0014149813644587993
1772562353233080300,10.138080322265624,0.19314532157480716,0.09773585934787989,0.02782221903577447
1772562353243147300,10.148147216796875,0.190929983612895,0.10034458054155111,0.0705021807897836
1772562353253214500,10.15821435546875,0.13334171799719333,0.06717559365034104,0.07487323548085988
1772562353263281400,10.168281494140626,-0.005405658435821533,0.08945581451952457,0.036577699356153605
1772562353273348400,10.178348388671875,-0.04225274931788444,0.13792320056855678,-0.008857114063948393
1772562353283416600,10.18841650390625,0.04809563012719154,0.11569003371149301,-0.029805428742244837
1772562353293483500,10.1984833984375,0.15411504143476484,0.04063800759762525,-0.03472637240104377
1772562353303550500,10.208550537109375,0.1556727922707796,0.01781739624142647,-0.02782864877656102
1772562353313617400,10.218617431640626,0.12509703674316405,0.018350187943875787,-0.021553587095066905
1772562353323685400,10.228685302734375,0.0785094730913639,-0.01273088675737381,-0.06815393716320395
1772562353333752300,10.23875244140625,0.004472176977992058,-0.030597382837533948,-0.08273300907053052
1772562353343819300,10.2488193359375,-0.0027098434805870055,-0.02535714409649372,-0.08472213706113398
1772562353353886500,10.258886474609374,0.00556874004304409,-0.012303308995068072,-0.08511822370663284
1772562353363953400,10.268953369140625,0.03013677958846092,-0.024503449876606465,-0.06409932801015675
1772562353374021400,10.279021484375,0.04548632441163063,-0.04185585895478725,-0.06309979557879268
1772562353384088600,10.289088623046876,-0.0045125089883804315,-0.04894640173763037,-0.1427920487139374
1772562353394155500,10.299155517578125,0.06327858621180057,-0.07603080801814795,-0.21836612594053148
1772562353404222500,10.309222412109374,0.042940147060155864,-0.05372954436093569,-0.21249263079725206
1772562353414291500,10.31929150390625,0.04060673567652702,-0.020583646084368228,-0.10924458389915526
1772562353424358400,10.3293583984375,0.07376257082521916,0.0125613754093647,-0.05365246053673327
1772562353434425300,10.33942529296875,0.07582651761770248,0.031869302469491954,-0.0036825609702616927
1772562353444492300,10.3494921875,0.12194763280153274,0.06319499958157539,-0.014702332960814237
1772562353454560500,10.359560546875,0.14863397967517375,0.06714695207774639,-0.02283500520773232
1772562353464627500,10.36962744140625,0.12044774963259697,0.02631342190802097,-0.056312838852405546
1772562353474694400,10.3796943359375,0.10295300947427749,0.044969314800202845,-0.062891267394647
1772562353484761600,10.38976171875,0.10520341874957084,0.07154577155858279,-0.05112615692950785
1772562353494828500,10.39982861328125,0.07735562688112259,0.06085369715243578,-0.059834729368239636
1772562353504896500,10.409896484375,0.030228549525141715,0.08432342006713152,-0.043685558599978684
1772562353514963500,10.41996337890625,0.071263739746809,0.08910802399516105,-0.03885601955167949
1772562353525030400,10.430030517578125,0.1336269646793604,0.09712240362465381,-0.05521598352640867
1772562353535097300,10.440097412109376,0.18161562730073927,0.0917661372885108,-0.05659034061953425
1772562353545165300,10.450165283203125,0.17254969279170035,0.06945464449822902,-0.050021629753708836
1772562353555232500,10.460232421875,0.11555822402536868,0.0451695135474205,-0.01654671871848404
1772562353565299500,10.470299560546875,0.12018880643546581,0.03799947578758001,-0.03247325971201062
1772562353575366400,10.480366455078125,0.17206337057948112,0.008060264597833156,-0.06779971689805388
1772562353585433600,10.49043359375,0.20666005218625066,0.00507248095870018,-0.08107070188149809
1772562353595501300,10.500501220703125,0.21380583228766917,0.0006324526846408844,-0.06996069432422518
1772562353605568500,10.510568603515624,0.18058043903410434,-0.009822305834293365,-0.05772380162887275
1772562353615635500,10.520635498046875,0.16596563822627067,-0.012903905236721039,-0.05430712505318224
1772562353625702400,10.530702392578124,0.11886077270209788,-0.0007686462849378586,-0.037294469323381776
1772562353635770400,10.540770263671876,0.08840718224942684,-0.026298808860778806,-0.020159794649109244
1772562353645837300,10.55083740234375,0.07029810958504676,-0.030698212863504885,-0.0410798330809921
1772562353655904300,10.560904296875,0.03195055101215839,-0.03269640094339847,-0.016704758824408052
1772562353665971500,10.570971435546875,0.032227614387869835,-0.01102291379570961,-0.03202135122604668
1772562353676039400,10.581039306640625,0.0692336952239275,-0.00710983200520277,0.0030595337010920045
1772562353686106400,10.5911064453125,0.0407207174450159,-0.02198825218528509,0.007024418744072318
1772562353696173300,10.60117333984375,0.029004560688138007,0.015432254670560358,0.008868293045088647
1772562353706240500,10.611240478515626,0.11438684215843677,0.04041764284521341,-0.02101242942307144
1772562353716307500,10.621307373046875,0.35382045217752456,-0.038187107314169404,0.11004983586743473
1772562353726375400,10.63137548828125,0.18882453576624392,-0.04035626804679632,0.1280311539663002
1772562353736442400,10.6414423828125,0.059037295380234715,0.0442263874784112,0.003785838681645691
1772562353746509300,10.65150927734375,-0.0027589433193206787,0.10050853893160819,-0.10730912232454866
1772562353756576300,10.661576171875,-0.06684007808566093,0.09918927302658558,-0.10221611003447323
1772562353766644500,10.67164453125,-0.025669278785586357,0.08642916017472743,-0.035398389911092815
1772562353776711400,10.68171142578125,-0.008231821772456169,0.061091597561538216,-0.02740483387392014
1772562353786778400,10.6917783203125,0.03425415177941322,0.045753450915217396,-0.0015036094959825276
1772562353796845300,10.70184521484375,0.10029986461699009,0.008279460306465626,0.02057948136590421
1772562353806913300,10.711913330078126,0.02125847660601139,0.055127720721066,0.05883022850081324
1772562353816980500,10.72198046875,-0.06513385868966579,0.07216302667409182,0.054180101140029725
1772562353827047400,10.73204736328125,-0.10607435636520385,0.07722352493405342,0.026027188845165073
1772562353837114400,10.7421142578125,-0.0760264241039753,0.07230915714651345,0.02384725099019706
1772562353847181300,10.752181396484374,-0.03864508021473884,0.02167231810390949,0.015897168768569826
1772562353857249500,10.76224951171875,0.014638766205310821,-0.0204801857098937,-0.028668570199422535
1772562353867316500,10.77231640625,-0.001482347512245178,-0.030918285354971885,-0.06800937759336084
1772562353877383400,10.782383544921874,-0.043137130936980246,-0.02419073066562414,-0.11477058077901602
1772562353887450400,10.792450439453125,-0.05658288796544075,0.002719488091766834,-0.12329857248645275
1772562353897518300,10.802518310546875,0.02445873395204544,0.001806464900076389,-0.09193404120132327
1772562353907585300,10.812585205078125,0.13897358640432356,-0.04732055410146713,-0.08765636388212442
1772562353917652500,10.822652587890625,0.1898848584741354,-0.07678834838718175,-0.0699715810444206
1772562353927719400,10.832719482421876,0.17649755363464353,-0.047160102842748165,-0.07739942949023097
1772562353937786400,10.842786376953125,0.14634733004271983,-0.0148836808770895,-0.09777589909732341
1772562353947854600,10.8528544921875,0.14894611436426639,-0.00312748437076807,-0.07381430101245641
1772562353957921500,10.862921630859375,0.11979133155047893,0.009461948089301585,-0.03578384556472301
1772562353967988500,10.872988525390625,0.09167758222222328,0.025848727005720138,-0.04977788412570953
1772562353978055400,10.883055419921876,0.12078501876294612,-0.001557166314125061,-0.11678736396152525
1772562353988123400,10.893123291015625,0.14638883109688758,0.005732698433101177,-0.13717957912702114
1772562353998190300,10.9031904296875,0.09830196879804134,0.00039952071160078047,-0.09376260833535342
1772562354008257300,10.91325732421875,0.04747603692412376,-0.0004369301125407219,-0.07852266136649995
1772562354018324500,10.923324462890625,0.004898293435573578,0.015193769739568232,-0.06470248153507709
1772562354028392200,10.93339208984375,-0.02896656676530838,0.038972120212018485,-0.059341210230253634
1772562354038459400,10.94345947265625,-0.10710603750050067,0.06532265926003455,-0.014231098719872534
1772562354048526600,10.953526611328124,-0.08145312532782555,0.06645137102901935,-0.03174677206836641
1772562354058593500,10.963593505859375,-0.0767360336780548,0.036842414706945416,-0.04603073348663747
1772562354068660500,10.973660400390624,-0.09440963753461837,0.013292612293362616,-0.09013137569352984
1772562354078728400,10.983728515625,-0.04397533532679081,-0.001025251394510269,-0.09118135967049747
1772562354088795400,10.99379541015625,-0.05369768791794777,-0.026791268552839753,-0.09577694383244961
1772562354098862300,11.0038623046875,-0.023348142361640928,-0.02651391291618347,-0.08545940182711928
1772562354108929300,11.01392919921875,0.06359422803223133,-0.012931377765536307,-0.047711818441376085
1772562354118997200,11.023997314453124,0.14409107554852962,-0.010109890604019164,0.015016623074375093
1772562354129064400,11.034064453125,0.15548632978796958,-0.05230798712521791,0.02605984900575131
1772562354139131400,11.04413134765625,0.1930219874560833,-0.07114332823753357,0.019425014101155103
1772562354149198300,11.0541982421875,0.13130524373352526,-0.0556178423255682,-0.05195015013087541
1772562354159266600,11.0642666015625,0.0717079763829708,0.004096037141978741,-0.08239986812602729
1772562354169333500,11.07433349609375,0.055528994998335836,-0.00001432078629732132,-0.06407835828736425
1772562354179400400,11.084400390625,0.04269640143215656,0.017110417015850542,0.018430011714436114
1772562354189467400,11.09446728515625,0.00459317300915718,0.03283843976259231,0.04953720723763108
1772562354199534300,11.104534423828126,-0.023573183289170265,0.07224895139187575,0.04248706953041255
1772562354209602300,11.114602294921875,-0.0421153866738081,0.11776625546365975,0.021286277928389608
1772562354219669200,11.124669189453124,-0.08877776912748814,0.11418635115027427,-0.014712927420064806
1772562354229736400,11.134736328125,-0.057065118524432176,0.07464198400825262,-0.042066359900310636
1772562354239803400,11.144803466796875,-0.0049491468399763105,0.06906973683387041,-0.07905735276509075
1772562354249871600,11.15487158203125,0.047588265126943585,0.06353489906042814,-0.10272811467722058
1772562354259938600,11.1649384765625,0.09339958370923995,0.08067161956131458,-0.09437394516672938
1772562354270005500,11.175005615234374,0.1195966857612133,0.09357172540575265,-0.06936210737656802
1772562354280072400,11.185072509765625,0.15204466490149496,0.09220862035900354,-0.026158085215836763
1772562354290139400,11.195139404296874,0.18365034799873828,0.11571399910897016,0.03570588495768606
1772562354300207400,11.205207275390626,0.20899171000421046,0.1132853106573224,0.021746661981754005
1772562354310274300,11.2152744140625,0.19333762927651404,0.09608663083612919,-0.00936517318394035
1772562354320341200,11.22534130859375,0.20404373220801353,0.0811260853305459,-0.035568083922192455
1772562354330408400,11.235408447265625,0.19253449620008467,0.04617839832901954,-0.07237436786983162
1772562354340476400,11.245476318359374,0.1390203481554985,0.012046119363605976,-0.05376457914169878
1772562354350543600,11.255543701171876,0.08465221363008021,0.029404665921628475,-0.06803695972003042
1772562354360610600,11.265610595703125,0.058520578029751774,0.037215047411620614,-0.09146467012390494
1772562354370677500,11.275677490234376,0.04055822035968303,0.0058329439371824264,-0.09136749335974455
1772562354380745500,11.285745361328125,0.04496142375469207,0.007118599833548069,-0.07845894848052412
1772562354390812400,11.2958125,0.05645195506215095,-0.02465337974131107,-0.05520173580534756
1772562354400879400,11.30587939453125,0.09700433020293713,-0.04204612082988023,-0.024258937063626945
1772562354410945800,11.31594580078125,0.10124795912206172,-0.03747662095725536,-0.029881964577175676
1772562354421013000,11.326012939453125,0.07850362787246704,-0.04589782782196998,-0.027452874266728756
1772562354431080700,11.336080810546875,0.02860708580315113,-0.03476180904060602,-0.09431052454169839
1772562354441148000,11.34614794921875,-0.04394903184175491,-0.03850713304877281,-0.1564997811468318
1772562354451215000,11.356215087890625,-0.004592588487267494,-0.07506283976882695,-0.19171696927212178
1772562354461282000,11.366281982421874,0.06857903070747852,-0.08702683380693196,-0.19978888777513057
1772562354471350000,11.37635009765625,0.05254267266392708,-0.0833525292083621,-0.16598839804735033
1772562354481417000,11.3864169921875,0.013006781089305877,-0.03204495129734278,-0.1385606582218781
1772562354491484000,11.39648388671875,-0.05915186167061329,0.021039865419268607,-0.11977182313241064
1772562354501550800,11.40655078125,-0.0738689538091421,0.05650748464167118,-0.10087620320022106
1772562354511618800,11.416618896484374,-0.044838089635968206,0.06448620843589306,-0.08013009656313806
1772562354521685800,11.426685791015625,0.04066109621226787,0.03834083657115698,-0.0598047726213932
1772562354531752700,11.436752685546875,0.12145312728285788,0.023147943614423273,-0.07225117988158017
1772562354541820000,11.44681982421875,0.13528466875851153,-0.0007099018350243568,-0.10235544543992728
1772562354551886800,11.456886962890625,0.05713876828253269,0.01191430967748165,-0.1254672217624262
1772562354561955000,11.466955078125,0.06344166781902313,0.06594780542105436,-0.12377272933684288
1772562354572022000,11.47702197265625,0.10375321994125843,0.06022036768496036,-0.09142430158089845
1772562354582089000,11.4870888671875,0.1849345425903797,0.06781798320710658,-0.06732968823350965
1772562354592156000,11.497156005859376,0.22461130394041537,0.033363048158586026,-0.06629526715185492
1772562354602223900,11.507223876953125,0.23239304385781287,0.019763854134082794,-0.12350805051866919
1772562354612290800,11.517290771484374,0.10931669928729533,0.0373357511818409,-0.16955485835727302
1772562354622357800,11.527357666015625,-0.027222937968373297,0.0720151426360011,-0.17912578324638306
1772562354632424700,11.5374248046875,-0.04978197577893734,0.09542261396944522,-0.17818543365634976
1772562354642492000,11.547491943359375,0.00033668460845947266,0.08598550806045532,-0.1411299607206136
1772562354652560000,11.557559814453125,0.07575520594716072,0.04724456625580788,-0.0957377443332225
1772562354662627000,11.567626953125,0.16058803684115408,0.029523616126179694,-0.04640037051662802
1772562354672694000,11.577694091796875,0.23089959042966365,0.04659750052392483,-0.038641426952928305
1772562354682761000,11.587760986328124,0.21529051788747308,0.0765381730183959,-0.025378990602120757
1772562354692829000,11.597828857421876,0.17333470568954942,0.07537497445791959,-0.01889857907425612
1772562354702895900,11.607895751953125,0.1469236686259508,0.07113602171391248,-0.03771766317151486
1772562354712962800,11.617962890625,0.0996364322721958,0.08660363995879888,-0.04787146598249674
1772562354723029800,11.62802978515625,0.06833762316703795,0.06573182458281517,-0.03319079686421901
1772562354733097000,11.638096923828124,0.059791913139820095,0.05634878694862127,-0.005683415931276976
1772562354743165000,11.6481650390625,0.05789689317345619,0.06806143657416105,0.018577530426345766
1772562354753232100,11.658232177734375,0.01830430297553539,0.056522974471747874,0.029361667030118405
1772562354763299000,11.668299072265626,-0.0039344168394804,0.053773091241717336,0.0020332228606566786
1772562354773366000,11.678365966796875,0.04579319840371608,0.024928981812298297,0.0001372165136039257
1772562354783434000,11.68843408203125,0.10981705002486705,-0.02260959895402193,-0.017572189308702944
1772562354793501000,11.6985009765625,0.11828151150941849,-0.02561900990307331,-0.0277252249347046
1772562354803567900,11.70856787109375,0.08416413785219191,-0.0033092706784605976,-0.024987835860066115
1772562354813634800,11.718634765625,0.09346621920466422,-0.005367372252047062,-0.029718992567807433
1772562354823702800,11.728702880859375,0.12424831095933914,-0.002803659243881702,-0.00470814115833491
1772562354833769700,11.738769775390624,0.19326924021542072,-0.004914367787539959,0.059845506490580735
1772562354843837000,11.7488369140625,0.19920330643951892,-0.018324468980729577,0.10450973739698528
1772562354853904100,11.758904052734374,0.14317337618172168,-0.01984071876257658,0.09046086337622254
1772562354863971000,11.76897119140625,0.04406885882914066,0.014518354696035385,0.03436583199296146
1772562354874039000,11.7790390625,-0.009610124388337134,0.025884675101935862,-0.03664261781852692
1772562354884106000,11.78910595703125,-0.03134264824688435,0.0029167642295360565,-0.08045096254795789
1772562354894173000,11.7991728515625,-0.07848316960632801,-0.014404080666601657,-0.0972209686283022
1772562354904239900,11.809239990234374,-0.08789689463973045,-0.013581073845922945,-0.04921228613220155
1772562354914307800,11.819307861328125,-0.1322410632789135,-0.028009996692836284,-0.020232531091757117
1772562354924374800,11.829374755859375,-0.16285364368557928,-0.001384147834777832,-0.01915456312932074
1772562354934441700,11.839441650390626,-0.1341577105551958,0.013899053753912448,-0.03746715900916606
1772562354944509000,11.849509033203125,-0.08893091386258602,-0.0036672903358936308,-0.03183145467713475
1772562354954577000,11.859576904296874,-0.06984568964242935,-0.014329261864721774,-0.0538889361737296
1772562354964643800,11.869643798828125,-0.04705576568543911,-0.04538929377794265,-0.08605619867648928
1772562354974711000,11.8797109375,0.023051205241680143,-0.028600656062364577,-0.09611315351687372
1772562354984778000,11.889778076171876,0.13216507543325423,-0.04739449612051248,-0.10240531246364117
1772562354994845000,11.899844970703125,0.22187983314990997,-0.07141863804757595,-0.0806649706248194
1772562355004913000,11.909912841796874,0.2618745744079351,-0.10062924270182848,-0.07586747068259865
1772562355014979800,11.919979736328125,0.23317805675566194,-0.10296499217301606,-0.11911971589922904
1772562355025046800,11.930046875,0.20603461376428603,-0.10153145223855972,-0.17413056877497582
1772562355035113700,11.94011376953125,0.2412023732572794,-0.12777619282454253,-0.21450254584755749
1772562355045182000,11.950181884765625,0.3642237727701664,-0.23177286613285542,-0.25815485976506025
1772562355055249000,11.960248779296874,0.5363192920535802,-0.44093964044302697,-0.3138650200165808
1772562355065315800,11.97031591796875,0.3370727309942245,-0.29798575223088264,-0.19077968842200935
1772562355075383000,11.980383056640624,0.04482172302305698,-0.12517068650126456,-0.2279787710795179
1772562355085450000,11.990449951171875,-0.011756488767266272,-0.008761690865457058,-0.3154083039358258
1772562355095518000,12.00051806640625,-0.023511223968863487,-0.07738923688977957,-0.2517554410515353
1772562355105585000,12.0105849609375,-0.139426006346941,-0.1480281227365136,-0.13051190139874816
1772562355115651800,12.02065185546875,-0.40956981192827224,-0.13086977492570875,-0.1767834944365546
1772562355125718800,12.03071875,-0.669214435327053,0.02427607086151838,-0.4003846714863553
1772562355135787000,12.040787109375,-0.5310469046086073,0.08488339203745127,-0.4901888610521331
1772562355145854000,12.05085400390625,-0.35331133361160755,0.01808043109178543,-0.36839280208311975
1772562355155921000,12.0609208984375,-0.355309813952446,-0.027685879305005073,-0.23343999562747775
1772562355165988000,12.070988037109375,-0.28311317726969715,0.031084581832587718,-0.13773337708488106
1772562355176055800,12.081055908203124,-0.3397767292559147,0.08814473192095756,-0.044893582682870324
1772562355186123000,12.091123046875,-0.3689841190397739,0.18213234465122222,0.02345697303097695
1772562355196190000,12.10118994140625,-0.12529460514187812,0.28971213714331384,0.0857458175530657
1772562355206257000,12.1112568359375,0.07937047383487224,0.24487813916057347,0.12740717684905975
1772562355216323800,12.12132373046875,0.19239011929333208,0.05964315231889486,0.054546632897481316
1772562355226391800,12.131391845703124,0.23909049566984175,-0.022529227194190024,-0.07176697656121105
1772562355236459000,12.141458984375,0.20805705950260162,0.022112170825898645,-0.12086637690346687
1772562355246526000,12.15152587890625,0.16745266191363334,0.036170799055695535,-0.02891911089438945
1772562355256593000,12.161593017578125,0.12340192326307296,0.06447919417321682,0.014203005136549473
1772562355266660900,12.171660888671875,0.17824819669425487,0.11830898403823376,0.009105134008266031
1772562355276727800,12.181727783203126,0.16877192781865596,0.10216361266225575,-0.0588994943447411
1772562355286795000,12.191794921875,0.08233341529369353,0.120977326464653,-0.15358232279755174
1772562355296862000,12.201862060546874,0.09642448448836803,0.12671587011665106,-0.2652410186337307
1772562355306929000,12.211928955078125,0.15928630659282206,0.10190700755268335,-0.2801651045864448
1772562355316996900,12.221996826171875,0.1785346124202013,0.08294102579802275,-0.18890505365654825
1772562355327063800,12.232063720703126,0.1911515174090862,0.08854483715444803,-0.1506162760661915
1772562355337131000,12.242131103515625,0.23768764313459395,0.13447306011468171,-0.14455927758216858
1772562355347198000,12.252197998046874,0.3162134828388691,0.19051643437594173,-0.09608385435715318
1772562355357266000,12.262265869140625,0.4833411505818367,0.16297084032446146,-0.07856164167001843
