time,seconds_elapsed,z,y,x
1772562343165855200,0.070855224609375,0.050358813256025314,-0.031019560992717743,0.017574593424797058
1772562343175923200,0.080923095703125,0.04732866957783699,-0.05296507477760315,0.0072905318811535835
1772562343185990100,0.090990234375,0.040496110916137695,-0.05887677147984505,0.0016532563604414463
1772562343196057000,0.10105712890625,0.04177975654602051,-0.044899169355630875,-0.01368335634469986
1772562343206124000,0.1111240234375,0.05107348784804344,-0.029756709933280945,-0.04057977348566055
1772562343216192300,0.121192138671875,0.06619864702224731,-0.007866589352488518,-0.0757601261138916
1772562343226259200,0.13125927734375,0.08474073559045792,0.04476446658372879,-0.09535001963376999
1772562343236326100,0.141326171875,0.09122046828269958,0.09496691823005676,-0.09978045523166656
1772562343246393000,0.15139306640625,0.08421705663204193,0.11554118245840073,-0.0903272032737732
1772562343256460300,0.161460205078125,0.06399088352918625,0.10249967873096466,-0.06568683683872223
1772562343266528300,0.1715283203125,0.0432644784450531,0.07086668163537979,-0.03620973974466324
1772562343276595200,0.18159521484375,0.020841993391513824,0.02718711644411087,-0.007667046971619129
1772562343286662100,0.191662109375,0.0039349268190562725,-0.017522457987070084,0.017272086814045906
1772562343296729000,0.20172900390625,-0.014047802425920963,-0.06252721697092056,0.031464871019124985
1772562343306797300,0.21179736328125,-0.02647518925368786,-0.08472983539104462,0.03305907920002937
1772562343316864300,0.2218642578125,-0.03117540292441845,-0.07947514951229095,0.02316596545279026
1772562343326931200,0.23193115234375,-0.02789686806499958,-0.04268540441989899,0.005396455060690641
1772562343336998100,0.241998046875,-0.014504896476864815,0.01184015441685915,-0.015700841322541237
1772562343347065000,0.252065185546875,0.0004629637114703655,0.04605118930339813,-0.03589845821261406
1772562343357133000,0.262133056640625,0.0033306553959846497,0.04207802191376686,-0.04043089225888252
1772562343367200300,0.2722001953125,-0.0023715347051620483,0.0063103665597736835,-0.04065466299653053
1772562343377267200,0.28226708984375,-0.008239278569817543,-0.01906236819922924,-0.03342204913496971
1772562343387334100,0.292334228515625,-0.010263167321681976,-0.027695439755916595,-0.023938393220305443
1772562343397402000,0.302402099609375,-0.012253081426024437,-0.03561780974268913,-0.01393129862844944
1772562343407469300,0.31246923828125,-0.021646877750754356,-0.03671623393893242,-0.0019156846683472395
1772562343417536300,0.322536376953125,-0.03248487785458565,-0.021596932783722878,0.006846382282674313
1772562343427603200,0.332603271484375,-0.035107724368572235,-0.008843864314258099,0.010651150718331337
1772562343437670100,0.342670166015625,-0.03682120144367218,-0.004036059603095055,0.004977552220225334
1772562343447738000,0.352738037109375,-0.033382076770067215,0.003331610932946205,0.0007582039106637239
1772562343457805300,0.362805419921875,-0.032231058925390244,0.005472792312502861,0.0011014852207154036
1772562343467872300,0.372872314453125,-0.02702724002301693,0.003095574676990509,0.004394864197820425
1772562343477939500,0.382939453125,-0.025801386684179306,0.0020912967156618834,0.01647975668311119
1772562343488007400,0.39300732421875,-0.019877919927239418,0.0022620242089033127,0.03340858593583107
1772562343498074400,0.403074462890625,-0.014743613079190254,0.008061323314905167,0.05422438681125641
1772562343508141300,0.413141357421875,-0.007515345700085163,0.031181592494249344,0.08382637798786163
1772562343518208300,0.423208251953125,0.0053708916530013084,0.06421011686325073,0.13016486167907715
1772562343528275200,0.433275146484375,0.0197661891579628,0.09900493919849396,0.2190421223640442
1772562343538343200,0.44334326171875,0.033387191593647,0.11637913435697556,0.3635663092136383
1772562343548410000,0.45341015625,0.03225630149245262,0.06939288973808289,0.5518255233764648
1772562343558477300,0.463477294921875,0.01948324777185917,-0.06380963325500488,0.7873181700706482
1772562343568544500,0.47354443359375,-0.002093132585287094,-0.19214893877506256,1.0671477317810059
1772562343578611500,0.483611572265625,-0.04316440224647522,-0.2581484615802765,1.3747737407684326
1772562343588679400,0.493679443359375,-0.09190548956394196,-0.21713395416736603,1.654968023300171
1772562343598746400,0.503746337890625,-0.08346539735794067,-0.08380811661481857,1.8815116882324219
1772562343608813300,0.513813232421875,0.029278354719281197,0.16813358664512634,2.087550163269043
1772562343618880300,0.52388037109375,0.2213820219039917,0.46597620844841003,2.2771737575531006
1772562343628948200,0.5339482421875,0.4642259180545807,0.7629105448722839,2.4338300228118896
1772562343639015200,0.54401513671875,0.6816844344139099,0.9695180654525757,2.4748375415802
1772562343649082000,0.55408203125,0.779793918132782,1.0141416788101196,2.3670520782470703
1772562343659149000,0.564149169921875,0.6810824871063232,0.9003905653953552,2.1251022815704346
1772562343669216500,0.574216552734375,0.4761192500591278,0.7349698543548584,1.8553991317749023
1772562343679284200,0.5842841796875,0.2622967064380646,0.5130646228790283,1.5845050811767578
1772562343689351400,0.594351318359375,0.10068250447511673,0.2919168770313263,1.3044023513793945
1772562343699418400,0.60441845703125,0.014296754263341427,0.21538189053535461,1.0544875860214233
1772562343709485300,0.6144853515625,-0.032375942915678024,0.2537785470485687,0.8109326958656311
1772562343719553300,0.62455322265625,-0.046829450875520706,0.3562591075897217,0.5682340264320374
1772562343729620200,0.6346201171875,-0.04139946401119232,0.5286228060722351,0.3540615737438202
1772562343739687200,0.644687255859375,-0.02448572777211666,0.691203236579895,0.16575613617897034
1772562343749754000,0.654754150390625,0.008237779140472412,0.8087434768676758,0.01430578250437975
1772562343759821000,0.664821044921875,0.046471718698740005,0.8736159205436707,-0.08991915732622147
1772562343769889300,0.67488916015625,0.08200760185718536,0.9058906435966492,-0.14918898046016693
1772562343779956200,0.684956298828125,0.10357706993818283,0.8825014233589172,-0.18022920191287994
1772562343790023400,0.6950234375,0.1201983168721199,0.8417335152626038,-0.17416182160377502
1772562343800090400,0.70509033203125,0.11743049323558807,0.7427778840065002,-0.15552209317684174
1772562343810158300,0.715158447265625,0.11230329424142838,0.6049597859382629,-0.10044363886117935
1772562343820225300,0.725225341796875,0.08312729746103287,0.4269501268863678,-0.04597454145550728
1772562343830292200,0.735292236328125,0.051685743033885956,0.028224648907780647,-0.059482473880052567
1772562343840359200,0.745359130859375,0.07064052671194077,-0.27318525314331055,-0.0772327110171318
1772562343850426000,0.755426025390625,0.10896999388933182,-0.37403398752212524,-0.0805831104516983
1772562343860494300,0.765494384765625,0.11997311562299728,-0.36131978034973145,-0.08504949510097504
1772562343870561300,0.775561279296875,0.09225857257843018,-0.3329617977142334,-0.11011698096990585
1772562343880628200,0.785628173828125,0.04915690794587135,-0.30753687024116516,-0.1696101278066635
1772562343890695400,0.7956953125,0.008984183892607689,-0.29968470335006714,-0.2653130888938904
1772562343900763400,0.805763427734375,-0.01749269664287567,-0.3337433338165283,-0.3902081549167633
1772562343910830300,0.815830322265625,-0.005788194946944714,-0.39298683404922485,-0.5361617803573608
1772562343920897300,0.825897216796875,0.03308383747935295,-0.4164290428161621,-0.6941130757331848
1772562343930964200,0.835964111328125,0.06426936388015747,-0.4207906723022461,-0.8460147380828857
1772562343941031200,0.84603125,0.07803736627101898,-0.41531893610954285,-0.9845622181892395
1772562343951099400,0.856099365234375,0.05998648330569267,-0.38935497403144836,-1.076955795288086
1772562343961166300,0.866166259765625,0.016424357891082764,-0.3887389600276947,-1.1460988521575928
1772562343971233300,0.8762333984375,-0.039539843797683716,-0.44283461570739746,-1.191070318222046
1772562343981300500,0.886300537109375,-0.08738034218549728,-0.5046401619911194,-1.202930212020874
1772562343991367400,0.896367431640625,-0.09587609022855759,-0.47945255041122437,-1.1744122505187988
1772562344001435400,0.906435302734375,-0.07548773288726807,-0.3934742510318756,-1.1248207092285156
1772562344011502300,0.91650244140625,-0.051256611943244934,-0.31681591272354126,-1.0617374181747437
1772562344021569300,0.9265693359375,-0.0353572741150856,-0.29631781578063965,-1.0031417608261108
1772562344031636200,0.93663623046875,-0.028995607048273087,-0.33568498492240906,-0.9498562812805176
1772562344041704200,0.9467041015625,-0.009907668456435204,-0.36965203285217285,-0.884306788444519
1772562344051771400,0.956771484375,0.01733477972447872,-0.3616722822189331,-0.8117198944091797
1772562344061838300,0.96683837890625,0.03568822145462036,-0.3220420479774475,-0.7326629161834717
1772562344071905300,0.9769052734375,0.024937665089964867,-0.26645079255104065,-0.6510301232337952
1772562344081972500,0.986972412109375,-0.007104159332811832,-0.19848401844501495,-0.5786544680595398
1772562344092040200,0.997040283203125,-0.044385652989149094,-0.18716710805892944,-0.5174685120582581
1772562344102107400,1.007107421875,-0.08252637833356857,-0.26258888840675354,-0.4777139723300934
1772562344112174300,1.01717431640625,-0.11486665904521942,-0.3730568289756775,-0.4590615928173065
1772562344122241300,1.0272412109375,-0.11445467174053192,-0.358783096075058,-0.4281068742275238
1772562344132309200,1.037309326171875,-0.10165907442569733,-0.26011547446250916,-0.3864354193210602
1772562344142376200,1.047376220703125,-0.0932629257440567,-0.1815069317817688,-0.34482911229133606
1772562344152443100,1.057443115234375,-0.09606431424617767,-0.10988166928291321,-0.3131903409957886
1772562344162510300,1.06751025390625,-0.10032989829778671,-0.06227073818445206,-0.28868022561073303
1772562344172577300,1.077577392578125,-0.10703260451555252,-0.08814575523138046,-0.2726798355579376
1772562344182645200,1.087645263671875,-0.10476332902908325,-0.1392800509929657,-0.26274624466896057
1772562344192712200,1.097712158203125,-0.11068299412727356,-0.1548825204372406,-0.24219585955142975
1772562344202779400,1.107779296875,-0.12355884164571762,-0.15544284880161285,-0.22669120132923126
1772562344212846300,1.117846435546875,-0.13056235015392303,-0.1484496146440506,-0.22547627985477448
1772562344222914300,1.127914306640625,-0.12128522247076035,-0.13618603348731995,-0.23778647184371948
1772562344232981200,1.137981201171875,-0.09279640018939972,-0.11549285799264908,-0.2590913772583008
1772562344243048200,1.148048095703125,-0.04922308772802353,-0.0777026042342186,-0.28473788499832153
1772562344253115100,1.158115234375,-0.0162642952054739,-0.016870418563485146,-0.29493075609207153
1772562344263182300,1.168182373046875,-0.007900635711848736,0.03189552202820778,-0.28160402178764343
1772562344273250300,1.178250244140625,-0.023139765486121178,0.06309642642736435,-0.2561357319355011
1772562344283317200,1.188317138671875,-0.04949680343270302,0.0738992765545845,-0.22299641370773315
1772562344293384200,1.19838427734375,-0.05968311429023743,0.05774269998073578,-0.19792747497558594
1772562344303451400,1.208451416015625,-0.059836246073246,0.03306718170642853,-0.17156590521335602
1772562344313518300,1.218518310546875,-0.06554605811834335,-0.002946745604276657,-0.15744689106941223
1772562344323586300,1.22858642578125,-0.07085427641868591,0.0028400367591530085,-0.1482163816690445
1772562344333653200,1.2386533203125,-0.07307666540145874,0.06320033967494965,-0.11658726632595062
1772562344343720200,1.24872021484375,-0.07374832034111023,0.12599341571331024,-0.08367858082056046
1772562344353787100,1.258787109375,-0.07599613815546036,0.12880383431911469,-0.04786597937345505
1772562344363855400,1.26885546875,-0.06987246870994568,0.07296480238437653,-0.03506336361169815
1772562344373922300,1.27892236328125,-0.05675513669848442,0.006094223819673061,-0.01971719227731228
1772562344383989200,1.2889892578125,-0.03781846538186073,-0.05543145537376404,-0.015967728570103645
1772562344394056400,1.299056396484375,-0.02714168094098568,-0.09918726235628128,-0.02771073393523693
1772562344404122400,1.309122314453125,-0.016266928985714912,-0.08226527273654938,-0.03299417719244957
1772562344414190300,1.3191904296875,-0.006713218055665493,-0.021726924926042557,-0.04120830446481705
1772562344424257300,1.32925732421875,0.0006336446385830641,0.012748229317367077,-0.04902974143624306
1772562344434324200,1.33932421875,0.006622152402997017,0.01510533131659031,-0.06821984797716141
1772562344444391200,1.34939111328125,0.009207548573613167,0.025124143809080124,-0.07260953634977341
1772562344454459100,1.359459228515625,0.018956493586301804,0.057979412376880646,-0.07002808153629303
1772562344464526000,1.369526123046875,0.014434444718062878,0.08943426609039307,-0.05389465391635895
1772562344474593300,1.37959326171875,0.011408102698624134,0.08203107118606567,-0.035073421895504
1772562344484660200,1.38966015625,0.01339934766292572,0.051355987787246704,-0.016629166901111603
1772562344494727200,1.39972705078125,0.023637428879737854,0.046557389199733734,-0.0033874493092298508
1772562344504795400,1.40979541015625,0.026663312688469887,0.061068154871463776,0.014084752649068832
1772562344514862300,1.4198623046875,0.01652056723833084,0.05941266193985939,0.02853313833475113
1772562344524929300,1.42992919921875,0.0004657008685171604,0.03685541823506355,0.04081137478351593
1772562344534996200,1.439996337890625,-0.007307426072657108,0.021120045334100723,0.055575162172317505
1772562344545064200,1.450064208984375,0.0012983125634491444,-0.0035070045851171017,0.06000453233718872
1772562344555131100,1.460131103515625,0.012846640311181545,-0.02380027249455452,0.05023570731282234
1772562344565198000,1.470197998046875,0.027004538103938103,-0.024181105196475983,0.03898944333195686
1772562344575265300,1.480265380859375,0.035791024565696716,-0.020647935569286346,0.023260826244950294
1772562344585332200,1.490332275390625,0.03991226479411125,-0.015143980272114277,0.010310139507055283
1772562344595400400,1.500400390625,0.04814731329679489,-0.005717508494853973,0.00010829116217792034
1772562344605467400,1.51046728515625,0.05349387601017952,-0.009181749075651169,-0.011095893569290638
1772562344615534300,1.520534423828125,0.05147429555654526,-0.0053970408625900745,-0.030420081689953804
1772562344625601300,1.530601318359375,0.04217906296253204,0.021442031487822533,-0.04400646314024925
1772562344635668200,1.540668212890625,0.02317572571337223,0.050361331552267075,-0.06287053227424622
1772562344645736200,1.550736083984375,-0.0023709118831902742,0.05531188100576401,-0.07998453825712204
1772562344655803100,1.56080322265625,-0.017506184056401253,0.03767208755016327,-0.08672968298196793
1772562344665870000,1.5708701171875,-0.02241998165845871,0.028265537694096565,-0.08676669746637344
1772562344675937300,1.580937255859375,-0.02719862014055252,0.024707961827516556,-0.08132553845643997
1772562344686005200,1.591005126953125,-0.02730781026184559,0.01372295431792736,-0.07887116819620132
1772562344696072400,1.601072509765625,-0.027593262493610382,0.004664185922592878,-0.07669191062450409
1772562344706139400,1.611139404296875,-0.014292104169726372,0.019884683191776276,-0.06640518456697464
1772562344716206300,1.621206298828125,0.0034504234790802,0.0301450714468956,-0.05581531301140785
1772562344726273300,1.631273193359375,0.020861372351646423,0.027098681777715683,-0.03616917505860329
1772562344736341200,1.64134130859375,0.02898097038269043,0.0105329230427742,-0.007374417036771774
1772562344746408200,1.651408203125,0.03327824920415878,0.0036891321651637554,0.02213207632303238
1772562344756475100,1.66147509765625,0.026740815490484238,0.0019972962327301502,0.04148399829864502
1772562344766542000,1.6715419921875,0.029382672160863876,-0.0003223172388970852,0.05527491122484207
1772562344776610000,1.681610107421875,0.029719369485974312,-0.0025331489741802216,0.06409277766942978
1772562344786677200,1.69167724609375,0.03507711738348007,-0.014325625263154507,0.06068579852581024
1772562344796744400,1.701744384765625,0.05070091784000397,-0.03462184965610504,0.04397863149642944
1772562344806811400,1.711811279296875,0.06831719726324081,-0.03449428826570511,0.01711985468864441
1772562344816878300,1.72187841796875,0.08224330842494965,-0.0069465129636228085,-0.004737874958664179
1772562344826946300,1.7319462890625,0.08447238057851791,0.022735483944416046,-0.02687646634876728
1772562344837013200,1.74201318359375,0.08232957869768143,0.055413320660591125,-0.04390304163098335
1772562344847080200,1.752080078125,0.069035604596138,0.07817243039608002,-0.05394395813345909
1772562344857147100,1.762147216796875,0.05370951443910599,0.07492589205503464,-0.05412644147872925
1772562344867215000,1.772215087890625,0.05028069391846657,0.06513930857181549,-0.042072705924510956
1772562344877282000,1.782281982421875,0.05866093561053276,0.07014165073633194,-0.02038990706205368
1772562344887349200,1.792349365234375,0.05879489332437515,0.07894126325845718,0.00681028887629509
1772562344897416400,1.80241650390625,0.05220011994242668,0.06805384159088135,0.03609916567802429
1772562344907483400,1.8124833984375,0.04231446608901024,0.020683925598859787,0.05671629309654236
1772562344917551400,1.82255126953125,0.031044648960232735,-0.045571278780698776,0.060695335268974304
1772562344927618300,1.832618408203125,0.01868331991136074,-0.059581901878118515,0.04885465279221535
1772562344937685200,1.842685302734375,0.013912895694375038,-0.013446293771266937,0.02400396205484867
1772562344947752200,1.852752197265625,0.012656150385737419,0.04598747193813324,-0.007369940169155598
1772562344957819100,1.862819091796875,0.010563364252448082,0.08156531304121017,-0.03651411831378937
1772562344967887000,1.87288720703125,0.007718842010945082,0.08531398326158524,-0.05753152072429657
1772562344977954000,1.8829541015625,0.014655934646725655,0.06974529474973679,-0.06250901520252228
1772562344988021200,1.893021240234375,0.021990813314914703,0.06830079108476639,-0.05494670197367668
1772562344998088400,1.90308837890625,0.026229850947856903,0.0733056291937828,-0.03163116052746773
1772562345008156400,1.913156494140625,0.023519553244113922,0.07372481375932693,-0.002154228975996375
1772562345018223400,1.923223388671875,0.021857915446162224,0.059824295341968536,0.029845034703612328
1772562345028290300,1.933290283203125,0.023415599018335342,0.016083208844065666,0.060804545879364014
1772562345038357200,1.943357177734375,0.028384264558553696,-0.03209345415234566,0.08372382074594498
1772562345048425200,1.95342529296875,0.02541111223399639,-0.061266519129276276,0.09822633117437363
1772562345058492200,1.9634921875,0.010070323012769222,-0.06167881563305855,0.10768359154462814
1772562345068559000,1.97355908203125,-0.005882278084754944,-0.02749847248196602,0.09629404544830322
1772562345078626000,1.9836259765625,-0.018294213339686394,0.01642778515815735,0.07646296918392181
1772562345088693200,1.993693359375,-0.022737430408596992,0.04185032099485397,0.05320292338728905
1772562345098761200,2.00376123046875,-0.017546657472848892,0.037086114287376404,0.015731561928987503
1772562345108828400,2.013828369140625,-0.0051272716373205185,0.037340179085731506,-0.014965099282562733
1772562345118895400,2.023895263671875,0.0027112667448818684,0.034686435014009476,-0.04376072809100151
1772562345128962300,2.03396240234375,0.00121723348274827,0.02292272076010704,-0.06149871274828911
1772562345139030300,2.0440302734375,-0.002536645159125328,0.021794170141220093,-0.07174695283174515
1772562345149097200,2.05409716796875,-0.0018460876308381557,0.03180312737822533,-0.0763385072350502
1772562345159164200,2.0641640625,-0.0016394946724176407,0.030586659908294678,-0.07222634553909302
1772562345169231000,2.074231201171875,-0.005342354066669941,0.002785121090710163,-0.06442888081073761
1772562345179298000,2.084298095703125,-0.003436057362705469,-0.00811847299337387,-0.04679863899946213
1772562345189366300,2.0943662109375,-0.006056341342628002,0.02005830407142639,-0.019393378868699074
1772562345199433200,2.10443310546875,-0.0070314547047019005,0.05608728900551796,0.01178696472197771
1772562345209500400,2.11450048828125,-0.02353772521018982,0.06691596657037735,0.04105217754840851
1772562345219567400,2.1245673828125,-0.031372543424367905,0.03765260428190231,0.056479956954717636
1772562345229634300,2.13463427734375,-0.023733532056212425,-0.0033829817548394203,0.06311947852373123
1772562345239702300,2.144702392578125,-0.011575419455766678,-0.048492431640625,0.062365200370550156
1772562345249769200,2.154769287109375,-0.0020570154301822186,-0.05689283460378647,0.04548821225762367
1772562345259836200,2.164836181640625,-0.003167117014527321,-0.02676563151180744,0.03405014052987099
1772562345269903000,2.174903076171875,-0.013727083802223206,0.016217520460486412,0.02726414054632187
1772562345279971300,2.184971435546875,-0.02280394174158573,0.0337209589779377,0.026523934677243233
1772562345290038300,2.195038330078125,-0.027759552001953125,0.00954025611281395,0.017376242205500603
1772562345300105200,2.205105224609375,-0.022121164947748184,-0.007144546136260033,0.024257251992821693
1772562345310172400,2.21517236328125,-0.013147908262908459,0.009773185476660728,0.027571823447942734
1772562345320240400,2.225240478515625,-0.015573526732623577,0.03597645461559296,0.033690206706523895
1772562345330307300,2.235307373046875,-0.021018626168370247,0.04976550117135048,0.03463349863886833
1772562345340374300,2.245374267578125,-0.02654190920293331,0.044689614325761795,0.04730202630162239
1772562345350441200,2.255441162109375,-0.016647201031446457,0.02851863205432892,0.05410214141011238
1772562345360508200,2.265508056640625,-0.0083842221647501,0.002230730839073658,0.06473565101623535
1772562345370576100,2.275576171875,-0.0005236356519162655,-0.016629774123430252,0.06262216717004776
1772562345380643000,2.28564306640625,0.0002418365329504013,-0.009663967415690422,0.05535465478897095
1772562345390710300,2.295710205078125,0.002440009731799364,0.021264655515551567,0.045833855867385864
1772562345400777200,2.305777099609375,-0.0017395501490682364,0.056861717253923416,0.03749348223209381
1772562345410845000,2.315844970703125,-0.0083923926576972,0.06989362835884094,0.03663408011198044
1772562345420912600,2.32591259765625,-0.012020694091916084,0.060267262160778046,0.04156309366226196
1772562345430979800,2.335979736328125,-0.0128976721316576,0.031236406415700912,0.03877236694097519
1772562345441046800,2.346046875,-0.013339661993086338,-0.006205967627465725,0.024219056591391563
1772562345451113700,2.35611376953125,-0.008192836306989193,-0.008350611664354801,0.01556351501494646
1772562345461181700,2.366181640625,-0.009735425002872944,0.0028557393234223127,0.0015455989632755518
1772562345471248600,2.37624853515625,-0.016077475622296333,-0.004671152681112289,-0.013418969698250294
1772562345481315800,2.38631591796875,-0.021902773529291153,-0.020296726375818253,-0.0260365828871727
1772562345491382800,2.3963828125,-0.01815171167254448,-0.01023929938673973,-0.027448324486613274
1772562345501450800,2.40645068359375,-0.014808917418122292,0.024221554398536682,-0.021346071735024452
1772562345511517700,2.416517578125,-0.022543270140886307,0.05375387892127037,-0.009434284642338753
1772562345521584600,2.426584716796875,-0.03492491692304611,0.046987541019916534,0.0029776564333587885
1772562345531651800,2.43665185546875,-0.0334138423204422,0.01880623586475849,0.016805587336421013
1772562345541718800,2.44671875,-0.019368067383766174,-0.011812846176326275,0.027498330920934677
1772562345551786800,2.456786865234375,-0.0006164838559925556,-0.03612324222922325,0.03233463317155838
1772562345561853700,2.466853759765625,0.011350788176059723,-0.0363079197704792,0.02798537351191044
1772562345571920600,2.476920654296875,0.021170394495129585,-0.018461011350154877,0.024426590651273727
1772562345581987800,2.48698779296875,0.021254710853099823,0.01171748898923397,0.012519572861492634
1772562345592055800,2.497055908203125,0.011851088143885136,0.039168018847703934,0.004265371710062027
1772562345602122800,2.507122802734375,-0.00002260482870042324,0.04429497569799423,-0.009608937427401543
1772562345612189700,2.517189697265625,-0.009229951538145542,0.02532288432121277,-0.014996511861681938
1772562345622256600,2.527256591796875,-0.009483132511377335,0.012143131345510483,-0.0187943447381258
1772562345632323800,2.53732373046875,0.0014006738783791661,0.012072291225194931,-0.007284961175173521
1772562345642391800,2.547391845703125,0.006176237482577562,-0.00029785092920064926,0.005322102457284927
1772562345652458800,2.557458740234375,0.00903993472456932,-0.01513512060046196,0.016811244189739227
1772562345662525700,2.567525634765625,0.011960453353822231,-0.04059460386633873,0.021771978586912155
1772562345672592600,2.577592529296875,0.022404039278626442,-0.07037246972322464,0.0064470842480659485
1772562345682659600,2.58765966796875,0.03170735761523247,-0.08081039786338806,-0.01014408003538847
1772562345692727800,2.597727783203125,0.035900503396987915,-0.05498518794775009,-0.03470348194241524
1772562345702794800,2.607794677734375,0.03399544209241867,-0.015373054891824722,-0.05774852633476257
1772562345712861700,2.61786181640625,0.02616947703063488,0.029304400086402893,-0.0627472773194313
1772562345722928600,2.6279287109375,0.012175042182207108,0.03933136910200119,-0.05702793970704079
1772562345732996600,2.63799658203125,0.002512293867766857,0.013138914480805397,-0.054920848459005356
1772562345743063800,2.648063720703125,0.004578272346407175,-0.02923516556620598,-0.03709302470088005
1772562345753130800,2.658130859375,0.009667307138442993,-0.07403885573148727,-0.02873762510716915
1772562345763197700,2.66819775390625,0.010666168294847012,-0.09540209174156189,-0.028070449829101562
1772562345773266000,2.678265869140625,0.008975593373179436,-0.08387432992458344,-0.025992652401328087
1772562345783332900,2.688332763671875,0.00403640978038311,-0.05120529234409332,-0.02662818506360054
1772562345793399800,2.69839990234375,-0.010152645409107208,-0.014980445615947247,-0.02621539495885372
1772562345803466800,2.708466796875,-0.02341093309223652,-0.0000022142194211483,-0.03238791972398758
1772562345813533700,2.71853369140625,-0.029698388651013374,-0.0055546388030052185,-0.04349755868315697
1772562345823601700,2.7286015625,-0.030946342274546623,-0.019680656492710114,-0.049286890774965286
1772562345833668600,2.738668701171875,-0.02285565808415413,-0.0342329666018486,-0.05202435702085495
1772562345843735800,2.74873583984375,-0.013065878301858902,-0.03552912920713425,-0.05129225179553032
1772562345853802800,2.758802734375,-0.0048689343966543674,-0.023914549499750137,-0.04365270957350731
1772562345863871000,2.76887109375,-0.0018941042944788933,-0.009787235409021378,-0.03994746506214142
1772562345873938000,2.77893798828125,-0.009047620929777622,0.0015612926799803972,-0.030967552214860916
1772562345884004900,2.7890048828125,-0.018979614600539207,0.007569650188088417,-0.021269116550683975
1772562345894071800,2.79907177734375,-0.03061283379793167,0.019282765686511993,-0.003641921328380704
1772562345904138800,2.809138671875,-0.03416495397686958,0.0135555574670434,0.011975235305726528
1772562345914206700,2.819206787109375,-0.03148048743605614,-0.014587131328880787,0.017990518361330032
1772562345924273700,2.829273681640625,-0.022210199385881424,-0.0386398546397686,0.019625913351774216
1772562345934340600,2.839340576171875,-0.010706141591072083,-0.04170595109462738,0.02698422782123089
1772562345944407800,2.84940771484375,0.002534109866246581,-0.03357500582933426,0.014424481429159641
1772562345954475500,2.8594755859375,0.011816823855042458,-0.02504889667034149,0.0063508423045277596
1772562345964542700,2.869542724609375,0.015738243237137794,-0.008744724094867706,0.0026675888802856207
1772562345974610000,2.87960986328125,0.009833216667175293,-0.004849851131439209,0.0018286930862814188
1772562345984676900,2.8896767578125,-0.004128303844481707,-0.014791972003877163,-0.00013893959112465382
1772562345994743800,2.899743896484375,-0.02182980254292488,-0.026998572051525116,-0.0028519018087536097
1772562346004811800,2.909811767578125,-0.03742484003305435,-0.027531277388334274,-0.011080067604780197
1772562346014878700,2.919878662109375,-0.03802085295319557,-0.012772035785019398,-0.025281373411417007
1772562346024945700,2.929945556640625,-0.03651651367545128,0.009257853962481022,-0.03327270969748497
1772562346035012600,2.9400126953125,-0.03050629049539566,0.014231307432055473,-0.048889219760894775
1772562346045080600,2.95008056640625,-0.00872206874191761,0.017201600596308708,-0.05436701327562332
1772562346055147500,2.9601474609375,0.015397647395730019,0.017438622191548347,-0.04513330012559891
1772562346065214700,2.970214599609375,0.02490181289613247,0.0011593159288167953,-0.022785216569900513
1772562346075282000,2.980281982421875,0.02206874080002308,-0.015853488817811012,-0.0052682748064398766
1772562346085348900,2.990348876953125,0.016612915322184563,-0.018458720296621323,0.011165684089064598
1772562346095416800,3.000416748046875,0.008456985466182232,-0.011967797763645649,0.01828884147107601
1772562346105483800,3.01048388671875,-0.0052079553715884686,-0.00684768334031105,0.029703263193368912
1772562346115550700,3.02055078125,-0.017349839210510254,-0.013187871314585209,0.029138673096895218
1772562346125617700,3.03061767578125,-0.028325162827968597,-0.02543994039297104,0.02196737751364708
1772562346135685600,3.040685546875,-0.030293505638837814,-0.008124598301947117,0.012347240932285786
1772562346145752600,3.050752685546875,-0.02587471902370453,0.01693621836602688,0.00036597135476768017
1772562346155819800,3.06081982421875,-0.018327319994568825,0.03489098325371742,-0.01003633625805378
1772562346165886700,3.07088671875,-0.005712538957595825,0.037558361887931824,-0.01848413608968258
1772562346175955000,3.080954833984375,0.004043418914079666,0.025186114013195038,-0.027542611584067345
1772562346186022000,3.09102197265625,0.013529593124985695,0.000055009033530950546,-0.026643645018339157
1772562346196088800,3.1010888671875,0.01470857486128807,-0.023619428277015686,-0.0289992094039917
1772562346206155800,3.11115576171875,0.014694470912218094,-0.02663295716047287,-0.03221315145492554
1772562346216222700,3.12122265625,0.013361559249460697,-0.0010860497131943703,-0.030222438275814056
1772562346226290700,3.131290771484375,0.007581179030239582,0.0278002992272377,-0.030266419053077698
1772562346236357600,3.141357666015625,0.006388615816831589,0.042915068566799164,-0.028073571622371674
1772562346246424600,3.151424560546875,0.009047923609614372,0.04131750389933586,-0.02943747490644455
1772562346256491800,3.16149169921875,0.01544776652008295,0.028535395860671997,-0.025868572294712067
1772562346266559700,3.171559814453125,0.024841194972395897,0.02245287597179413,-0.018974855542182922
1772562346276627000,3.181626953125,0.024959972128272057,0.022789500653743744,-0.008115284144878387
1772562346286694000,3.19169384765625,0.026284553110599518,0.014646493829786777,0.004266677424311638
1772562346296760800,3.2017607421875,0.024759894236922264,-0.0034390324726700783,0.013853790238499641
1772562346306827800,3.211827880859375,0.023764215409755707,-0.025185294449329376,0.02259640209376812
1772562346316895700,3.221895751953125,0.020923156291246414,-0.039083003997802734,0.028058012947440147
1772562346326962700,3.231962646484375,0.019097480922937393,-0.038046278059482574,0.031796570867300034
1772562346337029600,3.242029541015625,0.01696615293622017,-0.023251887410879135,0.03773275762796402
1772562346347096600,3.2520966796875,0.017140306532382965,-0.011416556313633919,0.04097215086221695
1772562346357164800,3.262164794921875,0.02042531594634056,-0.0018254490569233894,0.04747052863240242
1772562346367231700,3.272231689453125,0.022550705820322037,-0.009913780726492405,0.06074293702840805
1772562346377299000,3.282298828125,0.017787376418709755,-0.020290788263082504,0.0715593695640564
1772562346387366000,3.292365966796875,0.007163861766457558,-0.03298022598028183,0.07748667150735855
1772562346397433900,3.302433837890625,-0.0003102996852248907,-0.023682333528995514,0.06977442651987076
1772562346407500500,3.31250048828125,0.002836208324879408,0.00044215191155672073,0.056456416845321655
1772562346417567500,3.3225673828125,0.010583876632153988,0.01773805171251297,0.04084416478872299
1772562346427634400,3.332634521484375,0.02218717709183693,0.019387196749448776,0.023062558844685555
1772562346437701400,3.342701416015625,0.03773391619324684,0.021190423518419266,0.0021040132269263268
1772562346447769300,3.352769287109375,0.042447082698345184,0.011610082350671291,-0.012188322842121124
1772562346457836300,3.362836181640625,0.036975886672735214,0.006121573969721794,-0.0381927564740181
1772562346467903500,3.372903564453125,0.030154189094901085,0.0025182105600833893,-0.057702239602804184
1772562346477970700,3.382970703125,0.029067087918519974,0.0027515036053955555,-0.07153336703777313
1772562346488038700,3.39303857421875,0.03402881696820259,0.017979273572564125,-0.06926659494638443
1772562346498105600,3.403105712890625,0.03438141942024231,0.03023354336619377,-0.05338004231452942
1772562346508172500,3.413172607421875,0.021187009289860725,0.023969260975718498,-0.04285053908824921
1772562346518239500,3.423239501953125,0.0050112344324588776,0.0077791060321033,-0.030139273032546043
1772562346528306400,3.433306396484375,-0.004740479402244091,-0.007757267914712429,-0.016903437674045563
1772562346538374400,3.44337451171875,-0.01643362082540989,-0.02897787094116211,-0.007693161256611347
1772562346548441300,3.45344140625,-0.024755552411079407,-0.05514365807175636,-0.009239760227501392
1772562346558508300,3.46350830078125,-0.01538601890206337,-0.05831495299935341,-0.017180241644382477
1772562346568575500,3.473575439453125,-0.0006470084190368652,-0.027702074497938156,-0.02488373965024948
1772562346578643500,3.4836435546875,0.009229058399796486,0.006609294563531876,-0.031051088124513626
1772562346588710700,3.493710693359375,0.00562854390591383,0.01417884323745966,-0.03871328383684158
1772562346598777600,3.503777587890625,0.0009834584780037403,0.01595916599035263,-0.04284996911883354
1772562346608844500,3.513844482421875,0.007398724555969238,0.02402247115969658,-0.03649718686938286
1772562346618911500,3.523911376953125,0.00912152323871851,0.029643606394529343,-0.02224075421690941
1772562346628979500,3.5339794921875,0.004450786858797073,0.021976932883262634,-0.0064424509182572365
1772562346639046400,3.54404638671875,-0.004069730639457703,0.009359942749142647,0.009176455438137054
1772562346649113300,3.55411328125,-0.004517567344009876,0.0009277523495256901,0.025593537837266922
1772562346659180300,3.56418017578125,-0.004729022271931171,-0.008552301675081253,0.04153761267662048
1772562346669248500,3.57424853515625,-0.007145409472286701,-0.02398398146033287,0.04510687291622162
1772562346679315500,3.5843154296875,-0.00735100544989109,-0.03192899003624916,0.043704185634851456
1772562346689382700,3.594382568359375,-0.004454439505934715,-0.02998504973948002,0.04022996872663498
1772562346699449600,3.60444970703125,-0.001939083682373166,-0.012412982061505318,0.02933390624821186
1772562346709517600,3.614517578125,0.002874399069696665,0.010011065751314163,0.006646274123340845
1772562346719584500,3.62458447265625,0.0038373982533812523,0.030538978055119514,-0.01157081313431263
1772562346729651500,3.6346513671875,0.006804426200687885,0.04530780017375946,-0.028691742569208145
1772562346739718400,3.644718505859375,0.00890352949500084,0.04160121828317642,-0.03183240815997124
1772562346749785300,3.654785400390625,0.004698850680142641,0.02894716151058674,-0.024275675415992737
1772562346759853600,3.664853515625,-0.002196339424699545,0.005182976368814707,-0.019640978425741196
1772562346769920500,3.67492041015625,-0.006107469089329243,-0.015983933582901955,-0.00910281017422676
1772562346779987500,3.684987548828125,-0.008033732883632183,-0.028603587299585342,0.0016976394690573215
1772562346790054700,3.6950546875,-0.0005791147705167532,-0.026683971285820007,0.00535318348556757
1772562346800122600,3.70512255859375,0.005045215133577585,-0.01623159646987915,0.0009541742037981749
1772562346810189600,3.715189453125,0.010962323285639286,0.012007301673293114,0.002643213840201497
1772562346820256500,3.725256591796875,0.014807128347456455,0.04326189309358597,0.009784746915102005
1772562346830323500,3.735323486328125,0.003108202014118433,0.043797582387924194,0.01600576378405094
1772562346840390400,3.745390380859375,-0.008107168599963188,0.012581869959831238,0.024148114025592804
1772562346850458400,3.755458251953125,-0.011479523964226246,-0.03099391609430313,0.035510338842868805
1772562346860525600,3.765525634765625,-0.0072030192241072655,-0.06738974153995514,0.034381426870822906
1772562346870592500,3.775592529296875,0.00226017227396369,-0.07012663781642914,0.03214612975716591
1772562346880659500,3.785659423828125,0.009706903249025345,-0.036529794335365295,0.02976233698427677
1772562346890727400,3.7957275390625,0.010397103615105152,0.009769909083843231,0.03035786747932434
1772562346900794600,3.805794677734375,0.007742730900645256,0.047948721796274185,0.022934840992093086
1772562346910861600,3.815861572265625,0.007830025628209114,0.037351902574300766,0.01743747852742672
1772562346920928500,3.825928466796875,0.0062401182949543,0.0005139927379786968,0.010893293656408787
1772562346930995500,3.835995361328125,0.01164754293859005,-0.02571248635649681,0.00862045120447874
1772562346941063400,3.8460634765625,0.02019788697361946,-0.021773938089609146,0.01011661533266306
1772562346951130400,3.85613037109375,0.024822762235999107,-0.0009646648541092873,0.016958843916654587
1772562346961197300,3.866197265625,0.022150279954075813,0.03161564841866493,0.021229755133390427
1772562346971264500,3.876264404296875,0.026363980025053024,0.050515297800302505,0.020380845293402672
1772562346981332500,3.88633251953125,0.03251801058650017,0.04342303425073624,0.021419476717710495
1772562346991399400,3.8963994140625,0.04275691509246826,0.008107749745249748,0.017297841608524323
1772562347001466600,3.906466552734375,0.04857299104332924,-0.03690526634454727,0.011395210400223732
1772562347011533600,3.916533447265625,0.05172189697623253,-0.05152018368244171,0.006459765136241913
1772562347021600500,3.9266005859375,0.055621031671762466,-0.030799459666013718,0.005891446955502033
1772562347031668500,3.93666845703125,0.04606962576508522,0.008860278874635696,0.012320240959525108
1772562347041735400,3.9467353515625,0.03507210314273834,0.04806067794561386,0.018301166594028473
1772562347051802400,3.95680224609375,0.021004581823945045,0.0606127604842186,0.025533311069011688
1772562347061869300,3.966869384765625,0.004156359471380711,0.025521351024508476,0.019796594977378845
1772562347071937500,3.9769375,-0.003033585147932172,-0.04107994586229324,0.013414129614830017
1772562347082004500,3.98700439453125,0.002531622536480427,-0.07797005772590637,-0.002909983042627573
1772562347092071400,3.997071533203125,0.013176383450627327,-0.08242960274219513,-0.026425670832395554
1772562347102138600,4.007138671875,0.025737183168530464,-0.032415177673101425,-0.04627580940723419
1772562347112206300,4.017206298828125,0.033340513706207275,0.03285269811749458,-0.06260806322097778
1772562347122273500,4.0272734375,0.029892785474658012,0.06011228263378143,-0.07398615032434464
1772562347132340500,4.037340576171875,0.029977906495332718,0.04303823038935661,-0.07299190014600754
1772562347142407400,4.047407470703125,0.03015926480293274,0.007219248916953802,-0.06470254808664322
1772562347152474400,4.057474365234375,0.024270320311188698,-0.020686961710453033,-0.047823790460824966
1772562347162542600,4.06754248046875,0.01261179894208908,-0.01963900774717331,-0.022196458652615547
1772562347172609500,4.077609619140625,0.001223760424181819,-0.0005511362105607986,0.00027976022101938725
1772562347182676500,4.087676513671875,-0.005453317426145077,0.01665368303656578,0.012763860635459423
1772562347192743400,4.097743408203125,-0.005476458929479122,0.02125122770667076,0.03030294179916382
1772562347202811400,4.107811279296875,-0.004162454977631569,0.019070100039243698,0.04146265238523483
1772562347212878600,4.117878662109375,-0.005356655456125736,-0.0002865241840481758,0.03881307691335678
1772562347222945500,4.127945556640625,-0.012729351408779621,-0.015438047237694263,0.04181233048439026
1772562347233012500,4.138012451171875,-0.018986158072948456,-0.0097802160307765,0.04252411425113678
1772562347243079400,4.148079345703125,-0.020534252747893333,0.0022088028490543365,0.03573651611804962
1772562347253147600,4.158147705078125,-0.0147450165823102,0.012147020548582077,0.024136118590831757
1772562347263214600,4.168214599609375,-0.005957650952041149,0.01584561914205551,0.015834245830774307
1772562347273281500,4.178281494140625,0.0028807958588004112,0.014617986977100372,0.007314842194318771
1772562347283348500,4.188348388671875,0.013385102152824402,0.0006462456658482552,0.004658338613808155
1772562347293416400,4.19841650390625,0.01876058615744114,-0.0072440775111317635,0.00586099736392498
1772562347303483400,4.2084833984375,0.024093300104141235,-0.022914115339517593,0.007158488966524601
1772562347313550600,4.218550537109375,0.024363355711102486,-0.039327338337898254,0.0017373203299939632
1772562347323617500,4.228617431640625,0.02745528519153595,-0.03028164803981781,0.0024401284754276276
1772562347333685500,4.238685546875,0.03253632038831711,-0.013352303765714169,0.004077478311955929
1772562347343752400,4.24875244140625,0.028894713148474693,-0.0081258499994874,0.011928477324545383
1772562347353819600,4.258819580078125,0.017676785588264465,-0.003900569397956133,0.01759064942598343
1772562347363886600,4.268886474609375,0.004427559673786163,0.00467960350215435,0.02001092955470085
1772562347373953500,4.27895361328125,0.005250545218586922,0.015608090907335281,0.02494046650826931
1772562347384021500,4.289021484375,0.0006821583956480026,0.01484616007655859,0.031529925763607025
1772562347394088400,4.29908837890625,-0.0003206345718353987,0.007918915711343288,0.03001045621931553
1772562347404155600,4.30915576171875,0.008006004616618156,-0.00015152757987380028,0.01983664743602276
1772562347414222600,4.31922265625,0.01564219407737255,0.011862434446811676,0.021131766960024834
1772562347424290600,4.32929052734375,0.02050832100212574,0.022856228053569794,0.015703445300459862
1772562347434357800,4.339357666015625,0.017148051410913467,0.01960495300590992,0.00817125104367733
1772562347444424700,4.3494248046875,0.010412652045488358,0.00736240204423666,-0.005952024832367897
1772562347454491600,4.35949169921875,0.0027790465392172337,-0.004240679554641247,-0.008723322302103043
1772562347464558600,4.36955859375,-0.004316946491599083,-0.01256492268294096,-0.01736394688487053
1772562347474626600,4.37962646484375,-0.010789934545755386,-0.01576349511742592,-0.023292727768421173
1772562347484693500,4.389693603515625,-0.013387316837906837,-0.012175683863461018,-0.016880102455615997
1772562347494760400,4.399760498046875,-0.01801706664264202,-0.012218390591442585,-0.020443815737962723
1772562347504827400,4.409827392578125,-0.01759575493633747,-0.014689804054796696,-0.025452956557273865
1772562347514895600,4.4198955078125,-0.01773909665644169,-0.018297608941793442,-0.03326205536723137
1772562347524962600,4.429962646484375,-0.02250402420759201,-0.016429133713245392,-0.03933379799127579
1772562347535029800,4.44002978515625,-0.024890396744012833,-0.003379945643246174,-0.03721115365624428
1772562347545096700,4.4500966796875,-0.03178638964891434,0.0017248012591153383,-0.0368708036839962
1772562347555163600,4.46016357421875,-0.04000747948884964,0.007440708577632904,-0.03962387889623642
1772562347565231600,4.470231689453125,-0.042685821652412415,0.02042228728532791,-0.032606448978185654
1772562347575298600,4.480298583984375,-0.03804684430360794,0.02289292775094509,-0.02578069269657135
1772562347585365500,4.490365478515625,-0.033914417028427124,0.01310288067907095,-0.02384990081191063
1772562347595432400,4.500432373046875,-0.03107193484902382,-0.003111092373728752,-0.01772095263004303
1772562347605500700,4.510500732421875,-0.033036816865205765,-0.01916169747710228,-0.02386726252734661
1772562347615567600,4.520567626953125,-0.03516702353954315,-0.03606574609875679,-0.029213758185505867
1772562347625634600,4.530634521484375,-0.03592469170689583,-0.031170321628451347,-0.034619443118572235
1772562347635701800,4.54070166015625,-0.03504813089966774,-0.007464099209755659,-0.038737885653972626
1772562347645769500,4.55076953125,-0.03335968405008316,0.014996735379099846,-0.04292171075940132
1772562347655836700,4.560836669921875,-0.03533906117081642,0.022283580154180527,-0.04462733864784241
1772562347665903600,4.570903564453125,-0.03383783996105194,0.012771567329764366,-0.042623572051525116
1772562347675970600,4.580970458984375,-0.027632398530840874,0.006079762242734432,-0.03888837620615959
1772562347686037500,4.59103759765625,-0.023734863847494125,0.003913280554115772,-0.0240111593157053
1772562347696105700,4.601105712890625,-0.017949305474758148,0.003671109676361084,-0.007718182168900967
1772562347706172700,4.611172607421875,-0.014793459326028824,-0.004952205810695887,0.007921231910586357
1772562347716239600,4.621239501953125,-0.009816107340157032,-0.0008265073411166668,0.02312755212187767
1772562347726306600,4.631306640625,-0.0065582627430558205,-0.001530380453914404,0.03319776430726051
1772562347736374500,4.64137451171875,-0.01037086546421051,0.0032449872232973576,0.04132048040628433
1772562347746441700,4.651441650390625,-0.013171978294849396,-0.0021372614428400993,0.039345744997262955
1772562347756508700,4.6615087890625,-0.015525051392614841,-0.017541181296110153,0.03353878855705261
1772562347766575600,4.67157568359375,-0.008049292489886284,-0.024451550096273422,0.029263615608215332
1772562347776642600,4.681642578125,-0.005264482460916042,-0.022567730396986008,0.021187780424952507
1772562347786710500,4.69171044921875,0.0021582802291959524,-0.009134745225310326,0.005567009560763836
1772562347796777700,4.70177783203125,0.0068339016288518906,0.010501123033463955,-0.0011947059538215399
1772562347806844700,4.7118447265625,0.012139451690018177,0.02560470812022686,-0.01224735751748085
1772562347816911600,4.72191162109375,0.009427180513739586,0.02600453794002533,-0.022387899458408356
1772562347826979600,4.7319794921875,0.010432790033519268,0.016591064631938934,-0.03438623994588852
1772562347837046500,4.742046630859375,0.010765588842332363,0.012074004858732224,-0.036077942699193954
1772562347847113700,4.75211376953125,0.011846032924950123,0.021853666752576828,-0.0361221507191658
1772562347857180700,4.7621806640625,0.01011420227587223,0.035349443554878235,-0.030970875173807144
1772562347867247600,4.77224755859375,0.004836616106331348,0.027224939316511154,-0.01878584735095501
1772562347877315600,4.782315673828125,0.00925727654248476,0.00416547292843461,-0.009867200627923012
1772562347887382500,4.792382568359375,0.010572345927357674,-0.02419692650437355,-0.00811510719358921
1772562347897449700,4.80244970703125,0.010244691744446754,-0.03143163397908211,-0.005051508080214262
1772562347907516700,4.8125166015625,0.009002326987683773,-0.014216694049537182,-0.0007318607531487942
1772562347917583600,4.82258349609375,0.007942638359963894,0.006738095544278622,0.0024470791686326265
1772562347927650800,4.83265087890625,0.002095731208100915,0.0031604233663529158,0.005499240942299366
1772562347937717800,4.8427177734375,-0.0006782172713428736,-0.02400408685207367,0.005869687534868717
1772562347947784700,4.85278466796875,-0.001403396250680089,-0.045200448483228683,-0.003966432064771652
1772562347957852700,4.862852783203125,-0.003615384455770254,-0.043573737144470215,-0.013099593110382557
1772562347967919600,4.872919677734375,-0.006687261164188385,-0.016691479831933975,-0.023012954741716385
1772562347977986600,4.882986572265625,-0.011079879477620125,0.016095228493213654,-0.029627714306116104
1772562347988053500,4.893053466796875,-0.01300898753106594,0.025635967031121254,-0.03644344210624695
1772562347998121500,4.90312158203125,-0.012501122429966927,0.009508395567536354,-0.03812815994024277
1772562348008188700,4.913188720703125,-0.009313318878412247,-0.005734205711632967,-0.03823921084403992
1772562348018255600,4.923255615234375,-0.005010966211557388,-0.015497063286602497,-0.03491790592670441
1772562348028322800,4.93332275390625,-0.005947951227426529,-0.011461005546152592,-0.03019143082201481
1772562348038390500,4.943390625,-0.014062069356441498,-0.0065690455958247185,-0.023904772475361824
1772562348048457700,4.953457763671875,-0.023616375401616096,0.000931925605982542,-0.01858089677989483
1772562348058524700,4.963524658203125,-0.030113687738776207,0.005379937123507261,-0.012723540887236595
1772562348068591600,4.973591552734375,-0.03217364475131035,0.0020882701501250267,-0.01292700506746769
1772562348078658600,4.983658447265625,-0.031062889844179153,-0.002225163858383894,-0.010835576802492142
1772562348088726500,4.9937265625,-0.02341296151280403,-0.011974996887147427,-0.021146005019545555
1772562348098793500,5.00379345703125,-0.022772833704948425,-0.03225716948509216,-0.03226902708411217
1772562348108860700,5.013860595703125,-0.01629655994474888,-0.030746091157197952,-0.038691237568855286
1772562348118927600,5.023927734375,-0.0048674326390028,-0.011767945252358913,-0.037163712084293365
1772562348128995600,5.03399560546875,-0.0004771263338625431,0.012645483948290348,-0.028705677017569542
1772562348139062500,5.0440625,-0.004238841589540243,0.026119746267795563,-0.016631972044706345
1772562348149129700,5.054129638671875,-0.02450922131538391,0.013724250718951225,-0.010293001309037209
1772562348159196700,5.06419677734375,-0.039686840027570724,-0.014935889281332493,-0.013146579265594482
1772562348169263600,5.074263671875,-0.04873146861791611,-0.026649538427591324,-0.017142917960882187
1772562348179331600,5.08433154296875,-0.05377922207117081,-0.03190821781754494,-0.02671698108315468
1772562348189398500,5.0943984375,-0.05232451111078262,-0.027698751538991928,-0.03998052701354027
1772562348199465500,5.104465576171875,-0.0395546518266201,-0.00598866306245327,-0.051515210419893265
1772562348209532700,5.11453271484375,-0.019808009266853333,0.01985650509595871,-0.05526289716362953
1772562348219600600,5.1246005859375,-0.0047270613722503185,0.04165235161781311,-0.05621417984366417
1772562348229667600,5.13466748046875,0.0018740250961855054,0.05156022310256958,-0.04074382781982422
1772562348239734500,5.144734619140625,0.003938241396099329,0.04747386649250984,-0.023011434823274612
1772562348249801700,5.1548017578125,-0.001551525667309761,0.023261331021785736,0.004335640463978052
1772562348259870500,5.164870361328125,-0.00816521979868412,0.001889997161924839,0.026347732171416283
1772562348269937400,5.1749375,-0.01186441257596016,-0.01853194087743759,0.04885978624224663
1772562348280004600,5.185004638671875,-0.008901646360754967,-0.02857472002506256,0.0521080456674099
1772562348290071800,5.19507177734375,-0.0020576054230332375,-0.017092525959014893,0.04848633334040642
1772562348300139800,5.205139892578125,0.007142018526792526,0.013897879980504513,0.03642034903168678
1772562348310206700,5.215206787109375,0.0026175682432949543,0.03499738499522209,0.030251292511820793
1772562348320273700,5.225273681640625,-0.004029149189591408,0.03341200575232506,0.02510872855782509
1772562348330340600,5.235340576171875,-0.003987801726907492,0.020501472055912018,0.02428637072443962
1772562348340407600,5.245407470703125,-0.006410479079931974,-0.005400432273745537,0.02301231399178505
1772562348350475500,5.2554755859375,-0.005294150672852993,-0.026849206537008286,0.01558020431548357
1772562348360542500,5.26554248046875,-0.006114138290286064,-0.033231470733881,-0.0011324635706841946
1772562348370609400,5.275609375,-0.0022512171417474747,-0.00994673278182745,-0.010980186052620411
1772562348380676600,5.285676513671875,0.0024418053217232227,0.028197191655635834,-0.024509310722351074
1772562348390744600,5.29574462890625,0.003248301101848483,0.05160599201917648,-0.021581482142210007
1772562348400811800,5.305811767578125,-0.000708623556420207,0.04221568629145622,-0.011457475833594799
1772562348410878700,5.315878662109375,-0.002791657578200102,0.01038973219692707,-0.006473686546087265
1772562348420945700,5.325945556640625,-0.006916627753525972,-0.01964220218360424,-0.0009066149359568954
1772562348431012600,5.3360126953125,-0.009471057914197445,-0.028679780662059784,0.004794553853571415
1772562348441080800,5.346080810546875,-0.006339979358017445,-0.005067928694188595,0.007521897554397583
1772562348451147800,5.356147705078125,-0.0037360256537795067,0.02889593318104744,0.010388954542577267
1772562348461214700,5.366214599609375,-0.008144622668623924,0.03949744626879692,0.014488624408841133
1772562348471281700,5.37628173828125,-0.009389372542500496,0.02266397513449192,0.020527036860585213
1772562348481349600,5.386349609375,-0.008983774110674858,-0.0041876123286783695,0.019337669014930725
1772562348491416600,5.39641650390625,-0.002075714524835348,-0.015318862162530422,0.01992286927998066
1772562348501483800,5.40648388671875,0.002516640117391944,-0.0027679158374667168,0.011526720598340034
1772562348511550700,5.41655078125,0.003957234788686037,0.020677372813224792,0.010126912035048008
1772562348521619000,5.426618896484375,0.0022088694386184216,0.03347892314195633,0.02100805565714836
1772562348531686000,5.436685791015625,-0.00840400904417038,0.020902641117572784,0.029701512306928635
1772562348541752800,5.4467529296875,-0.016003338620066643,-0.01207261998206377,0.0385914109647274
1772562348551819800,5.45681982421875,-0.016716357320547104,-0.04450155049562454,0.045662689954042435
1772562348561886700,5.46688671875,-0.001934748375788331,-0.043437883257865906,0.041688188910484314
1772562348571954700,5.47695458984375,0.006486608646810055,-0.016957160085439682,0.03529238700866699
1772562348582021600,5.487021728515625,0.011910402216017246,0.013246550224721432,0.022036505863070488
1772562348592088600,5.497088623046875,0.008124912157654762,0.028136691078543663,0.013155789114534855
1772562348602155800,5.50715576171875,0.009381923824548721,0.024857541546225548,0.009931232780218124
1772562348612223700,5.5172236328125,0.004515789914876223,0.013245439156889915,0.02285224385559559
1772562348622291000,5.527291015625,-0.005640174727886915,-0.013965941965579987,0.031680088490247726
1772562348632358000,5.53735791015625,-0.016247034072875977,-0.035410456359386444,0.03816496580839157
1772562348642424800,5.5474248046875,-0.017635341733694077,-0.025971416383981705,0.039828110486269
1772562348652491800,5.55749169921875,-0.015868328511714935,-0.00038544321432709694,0.048392150551080704
1772562348662559700,5.567559814453125,-0.010094860568642616,0.02247859537601471,0.04962892085313797
1772562348672626700,5.577626708984375,-0.0038509154692292213,0.02971680834889412,0.047950420528650284
1772562348682693600,5.587693603515625,0.005416885018348694,0.013902691192924976,0.04474344104528427
1772562348692760800,5.5977607421875,-0.00028926064260303974,-0.0042756120674312115,0.04693728685379028
1772562348702828500,5.60782861328125,-0.011191709898412228,-0.018272655084729195,0.04391966015100479
1772562348712895700,5.617895751953125,-0.02550210803747177,-0.02872229367494583,0.05229589715600014
1772562348722963000,5.627962890625,-0.04028664901852608,-0.027620546519756317,0.05117097869515419
1772562348733030000,5.63802978515625,-0.041421350091695786,-0.021540608257055283,0.044585540890693665
1772562348743096800,5.648096923828125,-0.03206034004688263,-0.02073633298277855,0.0275889802724123
1772562348753164800,5.658164794921875,-0.023794149979948997,-0.005577702075242996,0.006319758482277393
1772562348763231700,5.668231689453125,-0.010202974081039429,0.02630459889769554,-0.008488215506076813
1772562348773298700,5.678298583984375,0.003020515898242593,0.05481220781803131,-0.010923613794147968
1772562348783365600,5.68836572265625,0.01022010575979948,0.05190297216176987,-0.007791469804942608
1772562348793433600,5.69843359375,0.013802691362798214,0.022059312090277672,0.0037559072952717543
1772562348803500500,5.70850048828125,0.017152681946754456,-0.01651258021593094,0.017051737755537033
1772562348813567700,5.718567626953125,0.014364765956997871,-0.05513695254921913,0.027761390432715416
1772562348823634700,5.728634765625,0.014735744334757328,-0.06775873899459839,0.03577617183327675
1772562348833702000,5.738701904296875,0.011456944979727268,-0.0592944473028183,0.036194391548633575
1772562348843769900,5.748769775390625,0.015281244181096554,-0.03440134972333908,0.035710494965314865
1772562348853836800,5.7588369140625,0.012261327356100082,-0.004420638550072908,0.028704538941383362
1772562348863903700,5.76890380859375,0.010112689808011055,0.021349439397454262,0.023127613589167595
1772562348873970700,5.778970703125,0.01106974482536316,0.0327930748462677,0.01611993834376335
1772562348884038700,5.78903857421875,0.022660620510578156,0.020898334681987762,0.014215512201189995
1772562348894105600,5.799105712890625,0.03248711675405502,-0.010301181115210056,0.009665349498391151
1772562348904172500,5.809172607421875,0.047363270074129105,-0.04177414998412132,0.016485439613461494
1772562348914239700,5.81923974609375,0.04845776781439781,-0.052731480449438095,0.018396344035863876
1772562348924307700,5.8293076171875,0.04587689787149429,-0.03227866813540459,0.025003913789987564
1772562348934375000,5.839375,0.03921942785382271,0.00684743607416749,0.030152693390846252
1772562348944441900,5.84944189453125,0.03651631623506546,0.03414164111018181,0.034021999686956406
1772562348954508800,5.8595087890625,0.035877808928489685,0.025427527725696564,0.03213194012641907
1772562348964575700,5.86957568359375,0.044061169028282166,-0.010783206671476364,0.031221937388181686
1772562348974643700,5.879643798828125,0.05206146091222763,-0.037916120141744614,0.024196378886699677
1772562348984710700,5.889710693359375,0.055884696543216705,-0.05235657840967178,0.01113410759717226
1772562348994777600,5.899777587890625,0.06678662449121475,-0.029776064679026604,-0.0021910574287176132
1772562349004844500,5.909844482421875,0.06870010495185852,0.014642002061009407,-0.0068800849840044975
1772562349014912800,5.919912841796875,0.05933694541454315,0.049940843135118484,-0.003182095242664218
1772562349024979700,5.929979736328125,0.04862571135163307,0.059329286217689514,0.006492103915661573
1772562349035047000,5.940046875,0.04108542203903198,0.033413488417863846,0.022003963589668274
1772562349045113900,5.95011376953125,0.027736062183976173,0.0018347897566854954,0.04068790376186371
1772562349055180800,5.960180908203125,0.0272686667740345,-0.020232800394296646,0.049973852932453156
1772562349065248800,5.970248779296875,0.03194144740700722,-0.02417774125933647,0.06321188807487488
1772562349075315700,5.980315673828125,0.03791084513068199,-0.02080143243074417,0.06412696838378906
1772562349085382700,5.990382568359375,0.04170291870832443,-0.00559691246598959,0.06272720545530319
1772562349095449600,6.00044970703125,0.04673045128583908,0.00684460299089551,0.06049076467752457
1772562349105517600,6.010517578125,0.04247365519404411,-0.0011299666948616505,0.05448240786790848
1772562349115584800,6.020584716796875,0.03783699497580528,-0.018458694219589233,0.042198244482278824
1772562349125651700,6.030651611328125,0.030218755826354027,-0.02994224615395069,0.025783851742744446
1772562349135719000,6.040718994140625,0.020192747935652733,-0.018987517803907394,0.012240764684975147
1772562349145785900,6.050785888671875,0.003787409979850054,-0.0022591371089220047,0.013473276048898697
1772562349155853800,6.060853759765625,-0.008359907194972038,0.018076850101351738,0.024052392691373825
1772562349165920800,6.070920654296875,-0.013754406943917274,0.01971975527703762,0.04194750636816025
1772562349175987700,6.08098779296875,-0.019588498398661613,-0.00115483021363616,0.0645037367939949
1772562349186054700,6.0910546875,-0.030841952189803123,-0.03902231901884079,0.08183798938989639
1772562349196122600,6.10112255859375,-0.039580125361680984,-0.06611318141222,0.08770666271448135
1772562349206189600,6.111189453125,-0.04759357497096062,-0.06349077075719833,0.09393792599439621
1772562349216256800,6.1212568359375,-0.04747693985700607,-0.03948993235826492,0.09744348376989365
1772562349226324000,6.131323974609375,-0.04672912508249283,-0.00987238623201847,0.09330546110868454
1772562349236391700,6.1413916015625,-0.048549555242061615,-0.0018413672223687172,0.0804433673620224
1772562349246459000,6.151458984375,-0.04896234720945358,-0.01608475297689438,0.0670095831155777
1772562349256525800,6.16152587890625,-0.04879824072122574,-0.037659451365470886,0.045023124665021896
1772562349266592800,6.1715927734375,-0.046071697026491165,-0.051444776356220245,0.017385371029376984
1772562349276659700,6.18165966796875,-0.03764355555176735,-0.041441623121500015,-0.010282324627041817
1772562349286727700,6.191727783203125,-0.023349571973085403,-0.010647758841514587,-0.024817058816552162
1772562349296794600,6.201794677734375,-0.015722215175628662,0.013664791360497475,-0.03663279116153717
1772562349306861600,6.211861572265625,-0.011776742525398731,0.03438045457005501,-0.03851404786109924
1772562349316928500,6.221928466796875,-0.011575317941606045,0.03903048858046532,-0.027347199618816376
1772562349326996700,6.231996826171875,-0.01723506674170494,0.03121570497751236,-0.016016248613595963
1772562349337063700,6.242063720703125,-0.022134648635983467,0.013399682007730007,0.008258108049631119
1772562349347131000,6.252130859375,-0.028695080429315567,-0.011346942745149136,0.024531355127692223
1772562349357197800,6.26219775390625,-0.03646761551499367,-0.035237085074186325,0.04002651572227478
1772562349367264800,6.2722646484375,-0.03540368378162384,-0.044567737728357315,0.048185110092163086
1772562349377332700,6.282332763671875,-0.030055513605475426,-0.04126105085015297,0.044222816824913025
1772562349387399700,6.292399658203125,-0.02099118009209633,-0.028490927070379257,0.032920096069574356
1772562349397466600,6.302466552734375,-0.009546050801873207,0.000006102491170167923,0.01973145082592964
1772562349407533600,6.312533447265625,0.0008152429945766926,0.028724299743771553,0.006150127854198217
1772562349417601500,6.3226015625,0.003416862338781357,0.03100854903459549,-0.011951034888625145
1772562349427668500,6.33266845703125,0.0008604940958321095,0.010044676251709461,-0.022665465250611305
1772562349437735700,6.342735595703125,0.007787914015352726,-0.011148306541144848,-0.026055289432406425
1772562349447802600,6.352802734375,0.011191167868673801,-0.029776055365800858,-0.021734310314059258
1772562349457870800,6.362870849609375,0.01829780824482441,-0.031666018068790436,-0.019542908295989037
1772562349467937800,6.372937744140625,0.01221887581050396,-0.015662018209695816,-0.015523132868111134
1772562349478004700,6.383004638671875,0.0029460322111845016,0.00868569128215313,-0.0107693150639534
1772562349488071700,6.39307177734375,0.00037288619205355644,0.024846818298101425,-0.00218967511318624
1772562349498138600,6.403138671875,0.0020689573138952255,0.027499523013830185,0.0031696066725999117
1772562349508206600,6.41320654296875,0.0036061336286365986,0.012460384517908096,0.01067519374191761
1772562349518273500,6.4232734375,0.010048212483525276,-0.0205621886998415,0.017197784036397934
1772562349528340500,6.433340576171875,0.015425668098032475,-0.051175761967897415,0.024964360520243645
1772562349538407700,6.44340771484375,0.018885290250182152,-0.05714751407504082,0.01628463715314865
1772562349548475400,6.453475341796875,0.017583802342414856,-0.028726793825626373,0.0075478702783584595
1772562349558542800,6.46354296875,0.00958937220275402,0.008891251869499683,-0.0016380329616367817
1772562349568609800,6.47360986328125,-0.00043929298408329487,0.030651409178972244,-0.009242156520485878
1772562349578676700,6.4836767578125,-0.001814618008211255,0.020750634372234344,-0.018968313932418823
1772562349588743700,6.49374365234375,0.0012552078114822507,-0.0011131181381642818,-0.02135743573307991
1772562349598811600,6.503811767578125,0.005575195420533419,-0.02590915374457836,-0.01999375782907009
1772562349608878600,6.513878662109375,0.006475610192865133,-0.03564034029841423,-0.022962914779782295
1772562349618945500,6.523945556640625,0.005555924493819475,-0.02203299105167389,-0.02711111679673195
1772562349629012500,6.534012451171875,0.004668026696890593,-0.0025474419817328453,-0.021907035261392593
1772562349639080400,6.54408056640625,-0.0023657442070543766,0.00267068506218493,-0.01626652292907238
1772562349649147400,6.5541474609375,-0.009538702666759491,-0.0006888923235237598,-0.009734854102134705
1772562349659214800,6.56421484375,-0.016179917380213737,-0.01615987718105316,-0.003977315500378609
1772562349669281800,6.57428173828125,-0.02660699374973774,-0.038100067526102066,-0.0034340303391218185
1772562349679349800,6.584349853515625,-0.032855577766895294,-0.042799320071935654,-0.005186085123568773
1772562349689416700,6.594416748046875,-0.03680131584405899,-0.03218262642621994,-0.007030057720839977
1772562349699483600,6.604483642578125,-0.04034552723169327,-0.01672469824552536,-0.01271977648139
1772562349709550600,6.614550537109375,-0.0403527170419693,-0.007677142508327961,-0.02168184518814087
1772562349719617500,6.624617431640625,-0.0428994819521904,-0.003962540067732334,-0.03435681760311127
1772562349729685500,6.634685546875,-0.04638529196381569,-0.0040901051834225655,-0.04762362316250801
1772562349739752400,6.64475244140625,-0.04061351343989372,0.003873927053064108,-0.06228240579366684
1772562349749819400,6.6548193359375,-0.03362618014216423,0.021609781309962273,-0.07168257236480713
1772562349759886600,6.664886474609375,-0.02168387360870838,0.028329558670520782,-0.07850028574466705
1772562349769954600,6.67495458984375,-0.018162908032536507,0.028511717915534973,-0.07934770733118057
1772562349780021800,6.685021728515625,-0.01644364930689335,0.012858678586781025,-0.07545814663171768
1772562349790088700,6.695088623046875,-0.014892359264194965,-0.011632549576461315,-0.06641644984483719
1772562349800155600,6.70515576171875,-0.015610523521900177,-0.020856522023677826,-0.055083416402339935
1772562349810222600,6.71522265625,-0.018565034493803978,-0.015609030611813068,-0.04907212778925896
1772562349820290600,6.72529052734375,-0.01803886517882347,-0.0033247931860387325,-0.047669846564531326
1772562349830357500,6.735357421875,-0.011209722608327866,0.021432751789689064,-0.043379493057727814
1772562349840424400,6.745424560546875,0.0026671031955629587,0.036164116114377975,-0.03639138489961624
1772562349850491600,6.75549169921875,0.013741858303546906,0.0370408296585083,-0.029312701895833015
1772562349860559600,6.7655595703125,0.018974702805280685,0.012938156723976135,-0.02385854721069336
1772562349870626800,6.775626708984375,0.02327118068933487,-0.011247607879340649,-0.0162309892475605
1772562349880693800,6.78569384765625,0.025260284543037415,-0.02910447306931019,-0.010357348248362541
1772562349890760700,6.7957607421875,0.025197701528668404,-0.03073273040354252,-0.0025966304820030928
1772562349900828700,6.80582861328125,0.022323917597532272,-0.01371081918478012,-0.002210321370512247
1772562349910895600,6.8158955078125,0.020595526322722435,-0.002933806274086237,-0.007621065713465214
1772562349920962600,6.825962646484375,0.017146896570920944,0.0015208735130727291,-0.020316798239946365
1772562349931029500,6.836029541015625,0.021076390519738197,0.0054692761041224,-0.03311168774962425
1772562349941096400,6.846096435546875,0.016562508419156075,0.008189278654754162,-0.042211923748254776
1772562349951164700,6.85616455078125,0.020074952393770218,0.006629198789596558,-0.05234391987323761
1772562349961231600,6.866231689453125,0.01656109094619751,0.01473829336464405,-0.059971317648887634
1772562349971298800,6.876298828125,0.009391330182552338,0.025845006108283997,-0.06617062538862228
1772562349981365800,6.88636572265625,0.002390513429418206,0.032677602022886276,-0.06457707285881042
1772562349991433700,6.896433837890625,0.00025385920889675617,0.02482766844332218,-0.0636817216873169
1772562350001500700,6.906500732421875,0.0012118724407628179,0.013181790709495544,-0.0545746386051178
1772562350011567600,6.916567626953125,0.002503505442291498,0.009575337171554565,-0.03897863253951073
1772562350021634600,6.926634521484375,-0.002742831129580736,0.004632927943021059,-0.027414971962571144
1772562350031701500,6.936701416015625,-0.005161513574421406,0.00237510004080832,-0.020748548209667206
1772562350041769500,6.94676953125,-0.0036109534557908773,0.018347347155213356,-0.010169913060963154
1772562350051836700,6.956836669921875,0.0008794025052338839,0.04176558926701546,-0.0019553923048079014
1772562350061903600,6.966903564453125,0.002121959812939167,0.04057556390762329,-0.0052618468180298805
1772562350071970800,6.976970703125,0.00183913204818964,0.01837252266705036,-0.003830664325505495
1772562350082038500,6.98703857421875,0.009698369540274143,-0.009947026148438454,-0.006633450277149677
1772562350092105700,6.997105712890625,0.01019132137298584,-0.03157961741089821,-0.016864515841007233
1772562350102172700,7.007172607421875,-0.0016297423280775547,-0.02629765123128891,-0.03085777908563614
1772562350112239600,7.017239501953125,-0.008721208199858665,0.013838579878211021,-0.03929360583424568
1772562350122307600,7.0273076171875,-0.014030027203261852,0.06268429011106491,-0.03633497655391693
1772562350132374500,7.03737451171875,-0.018166448920965195,0.07123969495296478,-0.03354557976126671
1772562350142441500,7.04744140625,-0.0149221858009696,0.04546802118420601,-0.0285087451338768
1772562350152508700,7.0575087890625,-0.00775828305631876,0.005741646979004145,-0.01822414994239807
1772562350162575600,7.06757568359375,-0.0015374897047877312,-0.03494023159146309,-0.010183901526033878
1772562350172643600,7.0776435546875,0.00047852308489382267,-0.04559394344687462,-0.01070641353726387
1772562350182710500,7.08771044921875,0.0017526419833302498,-0.03056517243385315,-0.005481645464897156
1772562350192777700,7.09777783203125,0.0022839426528662443,-0.0027761533856391907,-0.009889177046716213
1772562350202844700,7.1078447265625,0.005373135209083557,0.013735320419073105,-0.01951291598379612
1772562350212912600,7.11791259765625,0.00984751246869564,0.015852000564336777,-0.029897911474108696
1772562350222979600,7.1279794921875,0.017968561500310898,0.01947115734219551,-0.039372529834508896
1772562350233046500,7.138046630859375,0.028109878301620483,0.019552916288375854,-0.04209001734852791
1772562350243113500,7.148113525390625,0.026124758645892143,0.0009637852199375629,-0.051937587559223175
1772562350253180400,7.158180419921875,0.027168184518814087,-0.013639924116432667,-0.05683913454413414
1772562350263248600,7.16824853515625,0.03220759332180023,-0.019893445074558258,-0.055176205933094025
1772562350273315600,7.178315673828125,0.032041944563388824,-0.017569836229085922,-0.05388563871383667
1772562350283382500,7.188382568359375,0.028774412348866463,-0.0054250131361186504,-0.0465749055147171
1772562350293449700,7.19844970703125,0.029403716325759888,0.021554939448833466,-0.03141619265079498
1772562350303517700,7.208517578125,0.02719332091510296,0.04001876711845398,-0.014256078749895096
1772562350313584600,7.218584716796875,0.017311129719018936,0.023019010201096535,0.0010778708383440971
1772562350323651600,7.228651611328125,0.010716008022427559,-0.007585177663713694,0.01351587288081646
1772562350333718500,7.238718505859375,0.009018509648740292,-0.0411391407251358,0.019432084634900093
1772562350343786800,7.248786865234375,0.007172004785388708,-0.06267324090003967,0.01158555131405592
1772562350353853700,7.258853759765625,0.00996805727481842,-0.060343239456415176,-0.004687161184847355
1772562350363920600,7.268920654296875,0.012706086039543152,-0.02965451590716839,-0.03085576370358467
1772562350373987600,7.278987548828125,0.014769237488508224,0.0012890179641544819,-0.06390798836946487
1772562350384054800,7.2890546875,0.0163112822920084,0.03599412739276886,-0.09152030199766159
1772562350394122500,7.29912255859375,0.01642419956624508,0.06799733638763428,-0.0958748385310173
1772562350404189700,7.309189697265625,0.015596127137541771,0.058835458010435104,-0.08306296169757843
1772562350414257400,7.31925732421875,0.008111579343676567,0.02799684926867485,-0.06150973588228226
1772562350424324400,7.329324462890625,0.009076356887817383,-0.004489419050514698,-0.03559834510087967
1772562350434392300,7.339392333984375,0.007782593369483948,-0.02114083245396614,-0.009803233668208122
1772562350444459300,7.349459228515625,-0.0018133935518562794,-0.020107224583625793,-0.004102839156985283
1772562350454526200,7.359526123046875,-0.0034408513456583023,0.010627783834934235,0.004393177106976509
1772562350464593200,7.36959326171875,0.0005706849042326212,0.02829628437757492,-0.0029858339112251997
1772562350474660400,7.379660400390625,-0.004661095328629017,0.03958569094538689,-0.003073185682296753
1772562350484728300,7.389728271484375,-0.003062959760427475,0.03267465531826019,-0.010479207150638103
1772562350494795300,7.399795166015625,0.0032873477321118116,0.016673587262630463,-0.008877049200236797
1772562350504862200,7.4098623046875,0.012440376915037632,0.002142153913155198,-0.014787441119551659
1772562350514929400,7.419929443359375,0.02376973070204258,-0.009268692694604397,-0.015045767650008202
1772562350524997000,7.4299970703125,0.027903404086828232,-0.019780954346060753,-0.008785310201346874
1772562350535064300,7.440064208984375,0.02488364465534687,-0.029007473960518837,-0.0009377739625051618
1772562350545131300,7.45013134765625,0.01844191737473011,-0.023182732984423637,0.007798053324222565
1772562350555198200,7.4601982421875,0.006570611149072647,-0.008741743862628937,0.014609353616833687
1772562350565265200,7.47026513671875,-0.007683340925723314,-0.0007333867251873016,0.019960278645157814
1772562350575333400,7.48033349609375,-0.016929570585489273,-0.0015887939371168613,0.016248898580670357
1772562350585400300,7.490400390625,-0.012629272416234016,-0.01449538767337799,0.01321763638406992
1772562350595467300,7.50046728515625,-0.001869036816060543,-0.03271167352795601,-0.0014736911980435252
1772562350605534200,7.5105341796875,0.00888326670974493,-0.036535874009132385,-0.019166870042681694
1772562350615602200,7.520602294921875,0.012283324263989925,-0.005050120875239372,-0.03520415723323822
1772562350625669000,7.530669189453125,0.007567001506686211,0.033052295446395874,-0.0434551015496254
1772562350635736300,7.540736328125,0.00023212330415844917,0.048653364181518555,-0.04540666565299034
1772562350645803300,7.55080322265625,-0.006358382757753134,0.03799578547477722,-0.03224552422761917
1772562350655871500,7.56087158203125,-0.017571622505784035,-0.0023505710996687412,-0.013942152261734009
1772562350665938400,7.5709384765625,-0.020603684708476067,-0.0353931225836277,0.00714160967618227
1772562350676005400,7.58100537109375,-0.022092923521995544,-0.0416659340262413,0.02251683734357357
1772562350686072300,7.591072265625,-0.025330007076263428,-0.026945147663354874,0.04397343471646309
1772562350696139300,7.60113916015625,-0.029032601043581963,0.002049218863248825,0.04993465170264244
1772562350706207200,7.611207275390625,-0.022970452904701233,0.009851561859250069,0.04629240185022354
1772562350716274200,7.621274169921875,-0.01633305475115776,0.0042570591904222965,0.03866084665060043
1772562350726341000,7.631341064453125,-0.006484408397227526,-0.005896668881177902,0.027698436751961708
1772562350736408300,7.641408203125,-0.005416480358690023,-0.011711413972079754,0.010032890364527702
1772562350746476300,7.651476318359375,-0.006900649052113295,-0.006225463468581438,-0.003944482654333115
1772562350756543500,7.66154345703125,-0.0028891293331980705,0.010759646072983742,-0.019912531599402428
1772562350766610400,7.6716103515625,-0.005409198813140392,0.0269213505089283,-0.03469282016158104
1772562350776677400,7.681677490234375,-0.003435264341533184,0.03843286260962486,-0.041700929403305054
1772562350786744300,7.691744384765625,0.0012608689721673727,0.041306447237730026,-0.03676539286971092
1772562350796812300,7.701812255859375,0.0026989758480340242,0.03531593456864357,-0.02394706755876541
1772562350806879200,7.711879150390625,0.003263118676841259,0.014530193991959095,-0.009587734006345272
1772562350816946200,7.7219462890625,-0.003129000775516033,-0.010730422101914883,-0.002731691813096404
1772562350827013400,7.732013427734375,-0.009794903919100761,-0.02989543415606022,0.009346581995487213
1772562350837081000,7.7420810546875,-0.013262072578072548,-0.032035816460847855,0.01725643500685692
1772562350847148300,7.752148193359375,-0.007233640179038048,-0.02036771923303604,0.029699433594942093
1772562350857215200,7.76221533203125,-0.00004283897578716278,-0.00516106840223074,0.03223103657364845
1772562350867282400,7.772282470703125,0.004410062450915575,0.00023137079551815987,0.034805309027433395
1772562350877350400,7.782350341796875,0.0024518403224647045,-0.01182156428694725,0.02045726217329502
1772562350887417300,7.792417236328125,-0.004399147350341082,-0.04074288159608841,0.0016347256023436785
1772562350897484300,7.802484375,-0.011215774342417717,-0.04896938428282738,-0.029499225318431854
1772562350907551200,7.81255126953125,-0.017250515520572662,-0.032893504947423935,-0.04293867573142052
1772562350917618200,7.8226181640625,-0.022325433790683746,0.00491006625816226,-0.047150466591119766
1772562350927686100,7.83268603515625,-0.020974762737751007,0.036394789814949036,-0.041722510010004044
1772562350937753000,7.842753173828125,-0.01350592914968729,0.033457592129707336,-0.03039156086742878
1772562350947820300,7.8528203125,-0.0043587638065218925,0.010370034724473953,-0.017664732411503792
1772562350957887200,7.86288720703125,0.009514441713690758,-0.006600426509976387,-0.000993344816379249
1772562350967955500,7.87295556640625,0.020138414576649666,-0.01989664137363434,0.010922386310994625
1772562350978022400,7.8830224609375,0.02135734260082245,-0.02454731985926628,0.024015018716454506
1772562350988089300,7.89308935546875,0.018489832058548927,-0.02084788680076599,0.039337415248155594
1772562350998156300,7.90315625,0.011355224065482616,-0.0245070680975914,0.04838124290108681
1772562351008224300,7.913224365234375,0.003115318715572357,-0.02676698938012123,0.055207088589668274
1772562351018291200,7.923291259765625,-0.004520496819168329,-0.01536573376506567,0.06360110640525818
1772562351028358100,7.933358154296875,-0.008970224298536777,-0.0031666080467402935,0.0628434494137764
1772562351038425000,7.943425048828125,-0.010055462829768658,-0.0030771256424486637,0.052719179540872574
1772562351048492300,7.9534921875,-0.004220460541546345,-0.002722366712987423,0.0314059741795063
1772562351058560300,7.963560302734375,0.004770371597260237,-0.004892576485872269,0.006988782901316881
1772562351068627500,7.97362744140625,0.019002411514520645,-0.005216240417212248,-0.007202112581580877
1772562351078694400,7.9836943359375,0.02739776112139225,0.002116773510351777,-0.02294432371854782
1772562351088761300,7.99376123046875,0.027095915749669075,0.011469884775578976,-0.030087212100625038
1772562351098829300,8.003829345703124,0.02285882644355297,0.011938601732254028,-0.03465213626623154
1772562351108896300,8.013896240234375,0.014788038097321987,0.0073869479820132256,-0.031775377690792084
1772562351118963200,8.023963134765625,0.00554207619279623,0.00009121838957071304,-0.03157830238342285
1772562351129030100,8.034030029296876,0.002120803575962782,-0.0026077451184391975,-0.029675260186195374
1772562351139097000,8.04409716796875,0.0070678917691111565,0.0037662649992853403,-0.0185799989849329
1772562351149165300,8.054165283203124,0.016685286536812782,0.008819833397865295,-0.02016669698059559
1772562351159232300,8.064232177734375,0.029935577884316444,0.015157358720898628,-0.021336358040571213
1772562351169299500,8.074299560546875,0.040189992636442184,0.01333046518266201,-0.01893189176917076
1772562351179366400,8.084366455078126,0.042869932949543,0.007327700033783913,-0.01639762707054615
1772562351189434400,8.094434326171875,0.035996463149785995,-0.002322280313819647,-0.008229431696236134
1772562351199501300,8.104501220703124,0.022032976150512695,-0.017357688397169113,-0.008133025839924812
1772562351209568300,8.114568359375,0.017985079437494278,-0.013035201467573643,0.0011976503301411867
1772562351219635200,8.12463525390625,0.019662337377667427,0.014796430245041847,0.013315299525856972
1772562351229702100,8.1347021484375,0.015656212344765663,0.03060329519212246,0.015269020572304726
1772562351239770000,8.14477001953125,0.017888206988573074,0.028102854266762733,0.01255792286247015
1772562351249837300,8.15483740234375,0.025229228660464287,0.0023905914276838303,0.0038209655322134495
1772562351259904500,8.164904541015625,0.03746112436056137,-0.021463874727487564,-0.01581159234046936
1772562351269971500,8.174971435546874,0.05118730664253235,-0.019621258601546288,-0.03778541088104248
1772562351280039400,8.185039306640626,0.05932912230491638,0.01910589635372162,-0.05066712200641632
1772562351290106400,8.1951064453125,0.05377727001905441,0.0657772347331047,-0.06192563474178314
1772562351300173300,8.20517333984375,0.03418732434511185,0.09355426579713821,-0.05846725404262543
1772562351310240300,8.215240234375,0.011517064645886421,0.08848734945058823,-0.05801336467266083
1772562351320308200,8.22530810546875,-0.002166789025068283,0.056098248809576035,-0.054871365427970886
1772562351330375200,8.235375244140625,-0.002917896956205368,0.027156807482242584,-0.061826806515455246
1772562351340442000,8.245442138671875,0.008932637050747871,0.013413832522928715,-0.05788692459464073
1772562351350509000,8.255509033203126,0.020982488989830017,-0.009598180651664734,-0.06368795037269592
1772562351360576500,8.265576416015625,0.03744668513536453,-0.00074423523619771,-0.06253959238529205
1772562351370644200,8.275644287109374,0.048976290971040726,0.023013798519968987,-0.062429413199424744
1772562351380711400,8.28571142578125,0.04972011223435402,0.048575084656476974,-0.0567060187458992
1772562351390778400,8.2957783203125,0.03972144424915314,0.05337642878293991,-0.04464355856180191
1772562351400845300,8.30584521484375,0.023860719054937363,0.03304852172732353,-0.020708929747343063
1772562351410913000,8.3159130859375,0.00553756020963192,-0.00034596771001815796,0.007836440578103065
1772562351420980000,8.32597998046875,-0.01655176281929016,-0.0438537672162056,0.034486960619688034
1772562351431047000,8.336046875,-0.029674507677555084,-0.07325667887926102,0.04506416246294975
1772562351441113900,8.34611376953125,-0.03703654929995537,-0.07823892682790756,0.05197080597281456
1772562351451181000,8.35618115234375,-0.032673317939043045,-0.06420581787824631,0.03819724917411804
1772562351461248800,8.366248779296875,-0.018705036491155624,-0.04611629247665405,0.013718540780246258
1772562351471316000,8.37631591796875,-0.004093059338629246,-0.0158672071993351,-0.013797810301184654
1772562351481383000,8.3863828125,0.015977054834365845,0.02106897160410881,-0.032765112817287445
1772562351491449900,8.396449951171874,0.024179330095648766,0.05216822028160095,-0.0413622111082077
1772562351501518000,8.40651806640625,0.02794317528605461,0.060858115553855896,-0.03689209371805191
1772562351511585000,8.4165849609375,0.012617216445505619,0.041181616485118866,-0.023164832964539528
1772562351521652000,8.42665185546875,-0.005485087633132935,-0.005243405234068632,0.0048550828360021114
1772562351531719000,8.436718994140625,-0.018501507118344307,-0.048791155219078064,0.019249839708209038
1772562351541785900,8.446785888671876,-0.020716724917292595,-0.06656748801469803,0.031255368143320084
1772562351551853800,8.456853759765625,-0.018239080905914307,-0.050879430025815964,0.03792288526892662
1772562351561920800,8.466920654296874,-0.00904984213411808,-0.007829963229596615,0.026560507714748383
1772562351571988000,8.476988037109376,-0.005161270499229431,0.026108181104063988,0.015291822142899036
1772562351582055000,8.487054931640625,0.0012649375712499022,0.020751498639583588,0.0011757370084524155
1772562351592123000,8.497122802734374,-0.0005537238903343678,-0.008284308016300201,-0.023044951260089874
1772562351602190000,8.507190185546875,-0.0013526719994843006,-0.03758813440799713,-0.035146623849868774
1772562351612257000,8.517257080078124,-0.0059191263280808926,-0.043838899582624435,-0.05129813775420189
1772562351622324000,8.527323974609375,-0.005817126948386431,-0.022136803716421127,-0.056206341832876205
1772562351632392000,8.537391845703125,-0.001982186222448945,0.01958923414349556,-0.05378309264779091
1772562351642459000,8.547458984375,-0.0023893837351351976,0.040321677923202515,-0.05055028200149536
1772562351652525800,8.55752587890625,-0.01309818122535944,0.02819441258907318,-0.044013019651174545
1772562351662592800,8.5675927734375,-0.022249335423111916,-0.009107420220971107,-0.02882581204175949
1772562351672660000,8.577659912109375,-0.02749595046043396,-0.04523688182234764,-0.014388296753168106
1772562351682728000,8.58772802734375,-0.02762538008391857,-0.05312196910381317,-0.006041151005774736
1772562351692795000,8.597794921875,-0.02955431304872036,-0.029442396014928818,-0.0007708691991865635
1772562351702862000,8.607862060546875,-0.0310030709952116,0.012921839952468872,0.0042800819501280785
1772562351712929000,8.617928955078124,-0.027641359716653824,0.04615961015224457,0.007047220133244991
1772562351722997000,8.6279970703125,-0.030908523127436638,0.04933755844831467,-0.00036755274049937725
1772562351733064000,8.63806396484375,-0.03748520463705063,0.02673938497900963,-0.000647298526018858
1772562351743131000,8.648130859375,-0.03803940862417221,0.003381598275154829,-0.006743274163454771
1772562351753197800,8.65819775390625,-0.04490058124065399,-0.009015356190502644,-0.007349702063947916
1772562351763264800,8.6682646484375,-0.04896136745810509,-0.0092646274715662,-0.0141530130058527
1772562351773332700,8.678332763671875,-0.045734256505966187,-0.007397395558655262,-0.018055900931358337
1772562351783400000,8.68839990234375,-0.04041112959384918,-0.00025533000007271767,-0.019365109503269196
1772562351793467000,8.698466796875,-0.040089502930641174,0.0077491020783782005,-0.020458972081542015
1772562351803533800,8.708533935546875,-0.04149805009365082,0.011605892330408096,-0.01507299579679966
1772562351813602000,8.71860205078125,-0.04460454359650612,0.010470285080373287,-0.014035592786967754
1772562351823669000,8.7286689453125,-0.03887981176376343,0.001175586599856615,-0.0181973148137331
1772562351833736000,8.73873583984375,-0.03555307537317276,-0.012101300992071629,-0.02254316210746765
1772562351843803000,8.748802978515625,-0.02190704084932804,-0.020407699048519135,-0.026594629511237144
1772562351853870800,8.758870849609375,-0.013357391580939293,-0.012935413047671318,-0.02739579789340496
1772562351863937800,8.768937744140626,-0.011099297553300858,0.0013031777925789356,-0.029162006452679634
1772562351874004700,8.779004638671875,-0.008160930126905441,0.007546416483819485,-0.02826674096286297
1772562351884072000,8.789072021484374,-0.007619509473443031,-0.000572496559470892,-0.020973939448595047
1772562351894139000,8.799138916015625,-0.006840824149549007,-0.007872166112065315,-0.014079472050070763
1772562351904207000,8.80920703125,-0.005433609709143639,-0.010972618125379086,-0.009494306519627571
1772562351914273000,8.81927294921875,-0.0029962051194161177,-0.0012741400860249996,-0.0020949929021298885
1772562351924340000,8.829340087890625,0.009897489100694656,0.021609604358673096,0.007024202961474657
1772562351934407000,8.839406982421876,0.015663759782910347,0.027989018708467484,0.016822658479213715
1772562351944473900,8.849473876953125,0.020067032426595688,0.01202976144850254,0.01643703319132328
1772562351954541800,8.859541748046874,0.021890763193368912,-0.012511533685028553,0.019637620076537132
1772562351964609000,8.869609130859375,0.016540054231882095,-0.03835128992795944,0.022940875962376595
1772562351974676000,8.879676025390625,0.010495193302631378,-0.06308196485042572,0.016522318124771118
1772562351984743000,8.889742919921876,0.00972580537199974,-0.054366499185562134,-0.0016681387787684798
1772562351994809900,8.899809814453125,0.011774593032896519,-0.010828053578734398,-0.02335338480770588
1772562352004877800,8.9098779296875,0.006204857490956783,0.044495921581983566,-0.03809718042612076
1772562352014944800,8.91994482421875,0.000991719774901867,0.07361385971307755,-0.04836951941251755
1772562352025012000,8.930011962890624,-0.004019816871732473,0.057843416929244995,-0.04103197902441025
1772562352035079000,8.940078857421875,0.007569886744022369,0.0190561655908823,-0.027246151119470596
1772562352045147000,8.95014697265625,0.017422784119844437,-0.024547237902879715,-0.02022126503288746
1772562352055213800,8.9602138671875,0.02628578245639801,-0.03463182970881462,-0.004852429963648319
1772562352065281000,8.970281005859375,0.025468550622463226,-0.018577877432107925,0.015274093486368656
1772562352075348000,8.980347900390624,0.011520510539412498,-0.0013829125091433525,0.028768597170710564
1772562352085415000,8.990414794921875,0.0010609619785100222,-0.0004196213558316231,0.037385597825050354
1772562352095483000,9.00048291015625,-0.006291759200394154,-0.01060168445110321,0.037864163517951965
1772562352105549800,9.0105498046875,-0.012649363838136196,-0.02096502110362053,0.035877157002687454
1772562352115616800,9.02061669921875,-0.016576729714870453,-0.02289155125617981,0.01646697334945202
1772562352125684000,9.03068408203125,-0.017978878691792488,-0.014531969092786312,-0.0046698893420398235
1772562352135752000,9.040751953125,-0.011077562347054482,0.01322562713176012,-0.031115345656871796
1772562352145819000,9.05081884765625,-0.002229197882115841,0.03710150718688965,-0.04627995565533638
1772562352155885800,9.0608857421875,0.0045629278756678104,0.04277084395289421,-0.05116472765803337
1772562352165953000,9.070953125,0.0033282069489359856,0.020459365099668503,-0.04750899225473404
1772562352176020700,9.081020751953124,0.004463778808712959,-0.0020326278172433376,-0.036344755440950394
1772562352186088000,9.091087890625,0.007206920068711042,-0.010025075636804104,-0.020166747272014618
1772562352196155000,9.10115478515625,0.0029136380180716515,-0.011763587594032288,-0.012925880029797554
1772562352206221800,9.111221923828126,-0.0038205443415790796,-0.010117582976818085,-0.011612813919782639
1772562352216288800,9.121288818359375,-0.008771094493567944,0.0017507937736809254,-0.0211796872317791
1772562352226357000,9.13135693359375,-0.006200349889695644,0.01603793539106846,-0.019595220685005188
1772562352236424000,9.141423828125,-0.0037110934499651194,0.031019015237689018,-0.01738745905458927
1772562352246491000,9.151490966796874,-0.0015309285372495651,0.030475452542304993,-0.007136242929846048
1772562352256557800,9.161557861328125,-0.003717383835464716,0.025550469756126404,0.014446014538407326
1772562352266625800,9.171625732421875,-0.00825890526175499,0.012887885794043541,0.03223418444395065
1772562352276693000,9.18169287109375,-0.01644546166062355,-0.003534764051437378,0.0528385266661644
1772562352286760000,9.191760009765625,-0.024106284603476524,-0.01473908219486475,0.06374713033437729
1772562352296828000,9.201827880859375,-0.025418169796466827,-0.017652686685323715,0.06689129769802094
1772562352306896000,9.211895751953126,-0.020634066313505173,-0.013858480378985405,0.062397751957178116
1772562352316963000,9.221963134765625,-0.01445142924785614,-0.0017965813167393208,0.05875110998749733
1772562352327030000,9.232030029296874,-0.008542674593627453,0.01314694806933403,0.04619617015123367
1772562352337097000,9.242096923828125,-0.009238116443157196,0.02805836871266365,0.03873537480831146
1772562352347165000,9.2521650390625,-0.012854956090450287,0.03775414079427719,0.028227606788277626
1772562352357231900,9.26223193359375,-0.015744315460324287,0.029821842908859253,0.01960848830640316
1772562352367298800,9.272298828125,-0.01182227861136198,0.006138618104159832,0.010925518348813057
1772562352377365800,9.28236572265625,-0.004611514043062925,-0.015306592918932438,-0.000575569923967123
1772562352387432700,9.2924326171875,0.00882706232368946,-0.020440101623535156,-0.010512356646358967
1772562352397501000,9.3025009765625,0.014385794289410114,-0.0026581399142742157,-0.016210025176405907
1772562352407567600,9.312567626953125,0.013312273658812046,0.024001166224479675,-0.012692254967987537
1772562352417634600,9.322634521484375,0.004236798267811537,0.038712359964847565,-0.0011761022033169866
1772562352427701500,9.332701416015626,-0.009433473460376263,0.010888186283409595,0.008842176757752895
1772562352437769500,9.34276953125,-0.02187844179570675,-0.031805772334337234,0.011257322505116463
1772562352447836400,9.35283642578125,-0.015258090570569038,-0.04448748007416725,0.019457727670669556
1772562352457903400,9.3629033203125,0.004773391410708427,-0.023921512067317963,0.023235879838466644
1772562352467970300,9.37297021484375,0.01766415685415268,0.012329970486462116,0.024463597685098648
1772562352478037200,9.383037353515626,0.0292175505310297,0.03313532471656799,0.02598934806883335
1772562352488105200,9.393105224609375,0.030679360032081604,0.026145057752728462,0.029139867052435875
1772562352498172400,9.40317236328125,0.021537363529205322,-0.00611542072147131,0.027169305831193924
1772562352508239600,9.413239501953125,0.001073366031050682,-0.04249366745352745,0.019090872257947922
1772562352518306600,9.423306640625,-0.01235879771411419,-0.060586702078580856,0.0058764563873410225
1772562352528374500,9.43337451171875,-0.01651359535753727,-0.041091833263635635,-0.012421590276062489
1772562352538441500,9.44344140625,-0.0140220383182168,-0.0019927052780985832,-0.03259776160120964
1772562352548508400,9.45350830078125,-0.007198486477136612,0.027883168309926987,-0.03946951404213905
1772562352558575400,9.463575439453125,0.0032763327471911907,0.03285728022456169,-0.04144437611103058
1772562352568643300,9.473643310546874,0.016195327043533325,0.023009706288576126,-0.031856730580329895
1772562352578710300,9.483710205078125,0.019303785637021065,-0.0052602533251047134,-0.01469844114035368
1772562352588777200,9.493777099609375,0.020990364253520966,-0.02876345068216324,0.007865456864237785
1772562352598844400,9.503844482421876,0.017344050109386444,-0.03587651997804642,0.019244713708758354
1772562352608911600,9.51391162109375,0.009450973942875862,-0.03358859941363335,0.032176222652196884
1772562352618979300,9.523979248046874,0.005292628426104784,-0.006461072713136673,0.03515806421637535
1772562352629046500,9.534046630859375,-0.006771491374820471,0.01594756357371807,0.040407951921224594
1772562352639113500,9.544113525390625,-0.01859062910079956,0.028456300497055054,0.03525922819972038
1772562352649180400,9.554180419921876,-0.023977404460310936,0.026482896879315376,0.03458065539598465
1772562352659248400,9.564248291015625,-0.021174155175685883,0.019243545830249786,0.02716679498553276
1772562352669315300,9.5743154296875,-0.012912495993077755,0.00873311422765255,0.028681334108114243
1772562352679382300,9.58438232421875,-0.004840790294110775,0.0022672871127724648,0.028618190437555313
1772562352689449200,9.59444921875,0.0008469230961054564,-0.002330660354346037,0.02607007697224617
1772562352699516400,9.604516357421875,0.007429804652929306,-0.010443936102092266,0.012087671086192131
1772562352709584400,9.61458447265625,0.013039221055805683,-0.014761452563107014,0.001741823274642229
1772562352719651600,9.624651611328124,0.007983939722180367,-0.005421153269708157,-0.013343945145606995
1772562352729718500,9.634718505859375,-0.00013177702203392982,0.01125902310013771,-0.01776079833507538
1772562352739785500,9.644785400390624,-0.007296309806406498,0.026582516729831696,-0.017231691628694534
1772562352749853400,9.654853515625,-0.015690060332417488,0.018470793962478638,-0.010240892879664898
1772562352759920400,9.66492041015625,-0.018125079572200775,0.00536442780867219,0.004399352706968784
1772562352769987300,9.6749873046875,-0.014108765870332718,-0.011599109508097172,0.018649129197001457
1772562352780054300,9.68505419921875,-0.012366973794996738,-0.017324406653642654,0.026658421382308006
1772562352790122500,9.69512255859375,-0.007846790365874767,-0.005140446126461029,0.03570198267698288
1772562352800189400,9.705189453125,-0.006163961254060268,0.010963743552565575,0.03820063918828964
1772562352810256400,9.71525634765625,-0.008501151576638222,0.013379762880504131,0.03108254075050354
1772562352820323600,9.725323486328126,-0.008438964374363422,0.0005668038502335548,0.017073310911655426
1772562352830390500,9.735390625,-0.008156935684382915,-0.02031850442290306,0.0061338432133197784
1772562352840458500,9.74545849609375,-0.006390104070305824,-0.022612135857343674,-0.009881924837827682
1772562352850525400,9.755525390625,-0.0035655556712299585,-0.0037692049518227577,-0.021268002688884735
1772562352860592400,9.76559228515625,-0.001669599674642086,0.021864168345928192,-0.03178780525922775
1772562352870659300,9.775659423828126,0.0010715920943766832,0.037636205554008484,-0.030233051627874374
1772562352880727300,9.785727294921875,0.0097093116492033,0.023619135841727257,-0.029051750898361206
1772562352890794500,9.79579443359375,0.017691336572170258,-0.0005863350816071033,-0.020996754989027977
1772562352900861400,9.805861328125,0.030285675078630447,-0.01758585125207901,-0.009608886204659939
1772562352910928400,9.815928466796874,0.03447562828660011,-0.02703900635242462,0.011351522989571095
1772562352920995600,9.82599560546875,0.027291830629110336,-0.013926088809967041,0.020305857062339783
1772562352931063300,9.836063232421875,0.021849660202860832,0.005038014147430658,0.029150748625397682
1772562352941130500,9.846130615234374,0.012284400872886181,0.022524088621139526,0.026418685913085938
1772562352951197400,9.856197509765625,0.009759457781910896,0.02447592094540596,0.017069127410650253
1772562352961264400,9.866264404296874,0.01634342037141323,0.016795966774225235,0.0022851836401969194
1772562352971332400,9.876332275390626,0.02655770815908909,0.0033158441074192524,-0.009675338864326477
1772562352981399300,9.8863994140625,0.03702212870121002,-0.007165273651480675,-0.022639162838459015
1772562352991466500,9.896466552734376,0.0398421511054039,-0.00891363900154829,-0.024154501035809517
1772562353001533400,9.906533447265625,0.03951699659228325,-0.006241929717361927,-0.027875659987330437
1772562353011601400,9.916601318359374,0.03736356273293495,0.0011150529608130455,-0.026981636881828308
1772562353021668400,9.92666845703125,0.0357448048889637,0.007737650536000729,-0.02410483919084072
1772562353031735300,9.9367353515625,0.031065097078680992,0.004898721352219582,-0.01184950489550829
1772562353041802500,9.946802490234376,0.01956993155181408,-0.0023520109243690968,-0.0073656304739415646
1772562353051869400,9.956869384765625,0.007271187379956245,-0.012666167691349983,-0.0016302467556670308
1772562353061937400,9.9669375,0.0054282741621136665,-0.03211115673184395,-0.00020397151820361614
1772562353072004400,9.97700439453125,0.006017365492880344,-0.04446369782090187,-0.002268454059958458
1772562353082071300,9.9870712890625,0.01554536260664463,-0.038372594863176346,-0.013475987128913403
1772562353092138500,9.997138427734376,0.018206126987934113,-0.004731545690447092,-0.020372776314616203
1772562353102206500,10.00720654296875,0.017397234216332436,0.03072243370115757,-0.024391435086727142
1772562353112273400,10.0172734375,0.012955080717802048,0.05280430242419243,-0.019655268639326096
1772562353122340400,10.02734033203125,0.008993532508611679,0.0543358139693737,-0.008554210886359215
1772562353132407600,10.037407470703124,0.0063378289341926575,0.021987196058034897,0.0017732609994709492
1772562353142474500,10.047474609375,0.005809537135064602,-0.015491425059735775,0.012772103771567345
1772562353152542500,10.05754248046875,0.006794906686991453,-0.03764306753873825,0.02681761607527733
1772562353162609400,10.067609375,0.010646834969520569,-0.04969460517168045,0.02640160359442234
1772562353172676400,10.07767626953125,0.008721635676920414,-0.042919524013996124,0.016635525971651077
1772562353182743300,10.087743408203124,0.007891165092587471,-0.01000958401709795,0.0019697004463523626
1772562353192811500,10.0978115234375,0.005375010892748833,0.025792621076107025,-0.011205489747226238
1772562353202878500,10.10787841796875,0.002727885963395238,0.04839896410703659,-0.0229417085647583
1772562353212945400,10.1179453125,-0.0013755126856267452,0.04169871658086777,-0.030305881053209305
1772562353223012400,10.128012451171875,0.0015930782537907362,0.019563699141144753,-0.027773357927799225
1772562353233080300,10.138080322265624,0.007688787765800953,-0.007955275475978851,-0.024820711463689804
1772562353243147300,10.148147216796875,0.010887322947382927,-0.037290748208761215,-0.017655756324529648
1772562353253214500,10.15821435546875,0.01584186777472496,-0.04195234552025795,-0.004050997085869312
1772562353263281400,10.168281494140626,0.024085309356451035,-0.02216470241546631,-0.0010754718678072095
1772562353273348400,10.178348388671875,0.028544772416353226,-0.0060568396002054214,0.006563805043697357
1772562353283416600,10.18841650390625,0.025857191532850266,-0.004094578325748444,-0.0033522204030305147
1772562353293483500,10.1984833984375,0.02696320228278637,-0.009823570027947426,-0.009870307520031929
1772562353303550500,10.208550537109375,0.03146849945187569,-0.01962813176214695,-0.01621471904218197
1772562353313617400,10.218617431640626,0.03260619938373566,-0.02570786327123642,-0.021477125585079193
1772562353323685400,10.228685302734375,0.02921278588473797,-0.020883571356534958,-0.02657502517104149
1772562353333752300,10.23875244140625,0.02724098041653633,-0.01141949649900198,-0.02477845549583435
1772562353343819300,10.2488193359375,0.027476482093334198,-0.0020520491525530815,-0.020919546484947205
1772562353353886500,10.258886474609374,0.027033332735300064,0.005827179178595543,-0.023259665817022324
1772562353363953400,10.268953369140625,0.03112085908651352,-0.00004145223647356033,-0.01861562207341194
1772562353374021400,10.279021484375,0.030606336891651154,0.0013324725441634655,-0.008691085502505302
1772562353384088600,10.289088623046876,0.013692340813577175,-0.011961309239268303,-0.0015718095237389207
1772562353394155500,10.299155517578125,-0.0072166696190834045,-0.014782927930355072,0.005773988086730242
1772562353404222500,10.309222412109374,-0.01907050795853138,-0.009998735971748829,0.00799983274191618
1772562353414291500,10.31929150390625,-0.014962848275899887,-0.010803275741636753,0.001566967461258173
1772562353424358400,10.3293583984375,-0.010703286156058311,0.0023878831416368484,-0.005737906321883202
1772562353434425300,10.33942529296875,-0.004803584888577461,0.01437344029545784,-0.018108822405338287
1772562353444492300,10.3494921875,0.0009353514760732651,0.019279930740594864,-0.029610799625515938
1772562353454560500,10.359560546875,-0.00013284222222864628,0.022588375955820084,-0.03514484688639641
1772562353464627500,10.36962744140625,-0.0062102945521473885,0.02234361693263054,-0.03240950033068657
1772562353474694400,10.3796943359375,-0.010031664744019508,0.009629951789975166,-0.024075405672192574
1772562353484761600,10.38976171875,-0.014458784833550453,-0.0052038393914699554,-0.016670765355229378
1772562353494828500,10.39982861328125,-0.015628444030880928,-0.00923799630254507,0.0026155803352594376
1772562353504896500,10.409896484375,-0.011138005182147026,-0.012209586799144745,0.013044354505836964
1772562353514963500,10.41996337890625,-0.009812548756599426,-0.01217736303806305,0.017163731157779694
1772562353525030400,10.430030517578125,-0.011137381196022034,-0.013580163940787315,0.011269040405750275
1772562353535097300,10.440097412109376,-0.008397254161536694,-0.009645342826843262,-0.0006105224601924419
1772562353545165300,10.450165283203125,-0.0007950006984174252,0.0021701171062886715,-0.011373002082109451
1772562353555232500,10.460232421875,0.0012431165669113398,0.0064183915965259075,-0.014987977221608162
1772562353565299500,10.470299560546875,-0.003677078988403082,0.0010548653081059456,-0.014144401997327805
1772562353575366400,10.480366455078125,-0.008711518719792366,-0.013203964568674564,-0.0182720348238945
1772562353585433600,10.49043359375,-0.009153762832283974,-0.030364133417606354,-0.0234537236392498
1772562353595501300,10.500501220703125,-0.009598510339856148,-0.034892305731773376,-0.03603289648890495
1772562353605568500,10.510568603515624,-0.009194904938340187,-0.032842591404914856,-0.05604170635342598
1772562353615635500,10.520635498046875,-0.0017090255860239267,-0.016193309798836708,-0.0792333111166954
1772562353625702400,10.530702392578124,0.0020334520377218723,-0.003499903716146946,-0.09234423190355301
1772562353635770400,10.540770263671876,0.004163980949670076,0.014603733085095882,-0.10750746726989746
1772562353645837300,10.55083740234375,0.009017348289489746,0.013538945466279984,-0.1136607825756073
1772562353655904300,10.560904296875,0.014718376100063324,0.02127782627940178,-0.11027057468891144
1772562353665971500,10.570971435546875,0.01875491254031658,0.007094336673617363,-0.10523009300231934
1772562353676039400,10.581039306640625,0.016502412036061287,-0.01320028305053711,-0.09203306585550308
1772562353686106400,10.5911064453125,0.020267300307750702,-0.019954003393650055,-0.07919494807720184
1772562353696173300,10.60117333984375,0.022011402994394302,-0.016004271805286407,-0.06867679953575134
1772562353706240500,10.611240478515626,0.017080407589673996,-0.09044244885444641,-0.06756585836410522
1772562353716307500,10.621307373046875,0.016574673354625702,-0.1376379281282425,-0.06619992107152939
1772562353726375400,10.63137548828125,0.01863160915672779,-0.1284821331501007,-0.06863825768232346
1772562353736442400,10.6414423828125,0.01652211882174015,-0.09438195824623108,-0.0806666910648346
1772562353746509300,10.65150927734375,0.006202902644872665,-0.04870634153485298,-0.09007297456264496
1772562353756576300,10.661576171875,-0.003214567434042692,-0.01682431250810623,-0.09667761623859406
1772562353766644500,10.67164453125,-0.010999264195561409,0.0025660584215074778,-0.09263116866350174
1772562353776711400,10.68171142578125,-0.014177482575178146,0.010086825117468834,-0.08767609298229218
1772562353786778400,10.6917783203125,-0.024140814319252968,-0.015064102597534657,-0.07937145233154297
1772562353796845300,10.70184521484375,-0.014054358005523682,-0.037119604647159576,-0.07370717823505402
1772562353806913300,10.711913330078126,0.0010661128908395767,-0.048890866339206696,-0.06611927598714828
1772562353816980500,10.72198046875,0.010732588358223438,-0.0277328509837389,-0.05575238913297653
1772562353827047400,10.73204736328125,0.017808176577091217,-0.017871975898742676,-0.04661304131150246
1772562353837114400,10.7421142578125,0.02480296790599823,-0.01693693920969963,-0.03552097827196121
1772562353847181300,10.752181396484374,0.025487544015049934,-0.03381172567605972,-0.026935044676065445
1772562353857249500,10.76224951171875,0.023669935762882233,-0.04770117625594139,-0.023038040846586227
1772562353867316500,10.77231640625,0.01689726859331131,-0.03879128023982048,-0.01852390728890896
1772562353877383400,10.782383544921874,0.010682248510420322,-0.006346787326037884,-0.013352581299841404
1772562353887450400,10.792450439453125,0.010144205763936043,0.022652940824627876,-0.012116709724068642
1772562353897518300,10.802518310546875,0.011305609717965126,0.023122722283005714,-0.015945803374052048
1772562353907585300,10.812585205078125,0.00836342852562666,0.002839067718014121,-0.016843833029270172
1772562353917652500,10.822652587890625,0.002515127183869481,-0.01649494841694832,-0.015274431556463242
1772562353927719400,10.832719482421876,-0.00015716254711151123,-0.01904505118727684,-0.024191901087760925
1772562353937786400,10.842786376953125,-0.0013206976000219584,-0.020872512832283974,-0.027125639840960503
1772562353947854600,10.8528544921875,0.004789206199347973,-0.014680084772408009,-0.035229116678237915
1772562353957921500,10.862921630859375,0.011913161724805832,0.0008767708204686642,-0.047805096954107285
1772562353967988500,10.872988525390625,0.0086126159876585,0.02491803839802742,-0.06029074639081955
1772562353978055400,10.883055419921876,-0.002180110663175583,0.029472045600414276,-0.0753549113869667
1772562353988123400,10.893123291015625,-0.009682150557637215,0.02501334622502327,-0.08159646391868591
1772562353998190300,10.9031904296875,-0.016655903309583664,0.01285654865205288,-0.07926832884550095
1772562354008257300,10.91325732421875,-0.017033178359270096,0.006870098877698183,-0.07568791508674622
1772562354018324500,10.923324462890625,-0.01741880364716053,-0.0029343287460505962,-0.06703823059797287
1772562354028392200,10.93339208984375,-0.015652712434530258,-0.0003100666217505932,-0.051695216447114944
1772562354038459400,10.94345947265625,-0.008395066484808922,0.014127728529274464,-0.037980999797582626
1772562354048526600,10.953526611328124,-0.008715145289897919,0.013314983807504177,-0.02721288800239563
1772562354058593500,10.963593505859375,-0.004115599673241377,0.010910149663686752,-0.007327598053961992
1772562354068660500,10.973660400390624,-0.010480135679244995,-0.005061722826212645,0.0072591956704854965
1772562354078728400,10.983728515625,-0.021475529298186302,-0.02424580231308937,0.03165614604949951
1772562354088795400,10.99379541015625,-0.029715172946453094,-0.013260948471724987,0.04482180252671242
1772562354098862300,11.0038623046875,-0.03491739183664322,-0.0068230219185352325,0.04833398014307022
1772562354108929300,11.01392919921875,-0.03352188691496849,-0.005731739103794098,0.042328931391239166
1772562354118997200,11.023997314453124,-0.027402479201555252,0.0018817060627043247,0.03530271351337433
1772562354129064400,11.034064453125,-0.023558001965284348,-0.014186762273311615,0.01934780180454254
1772562354139131400,11.04413134765625,-0.024330586194992065,-0.019677134230732918,0.010959111154079437
1772562354149198300,11.0541982421875,-0.03256000950932503,-0.012801812030375004,-0.001571366097778082
1772562354159266600,11.0642666015625,-0.0354498028755188,0.007848071865737438,-0.015495703555643559
1772562354169333500,11.07433349609375,-0.029157832264900208,0.012046173214912415,-0.019486945122480392
1772562354179400400,11.084400390625,-0.02514418214559555,0.010759333148598671,-0.01881769299507141
1772562354189467400,11.09446728515625,-0.016705257818102837,0.01036066934466362,-0.01913531869649887
1772562354199534300,11.104534423828126,-0.007531733252108097,0.010390495881438255,-0.016860978677868843
1772562354209602300,11.114602294921875,0.004467298276722431,0.019085008651018143,-0.0017739295726642013
1772562354219669200,11.124669189453124,0.002982852514833212,0.016004528850317,0.012172511778771877
1772562354229736400,11.134736328125,-0.004355732351541519,0.01032821275293827,0.02647254429757595
1772562354239803400,11.144803466796875,-0.016531439498066902,-0.000007514841854572296,0.04577833041548729
1772562354249871600,11.15487158203125,-0.023267999291419983,-0.00792756024748087,0.05554807558655739
1772562354259938600,11.1649384765625,-0.03041725419461727,-0.02222687005996704,0.06207681819796562
1772562354270005500,11.175005615234374,-0.03334370255470276,-0.034672100096940994,0.059028737246990204
1772562354280072400,11.185072509765625,-0.027179284021258354,-0.035335756838321686,0.049466125667095184
1772562354290139400,11.195139404296874,-0.019505038857460022,-0.026005592197179794,0.029570968821644783
1772562354300207400,11.205207275390626,-0.007120540365576744,-0.005471024662256241,0.008893919177353382
1772562354310274300,11.2152744140625,-0.00038604624569416046,0.013934986665844917,-0.011224157176911831
1772562354320341200,11.22534130859375,0.0025199949741363525,0.014919291250407696,-0.025893112644553185
1772562354330408400,11.235408447265625,0.002952480921521783,0.016829736530780792,-0.03264951333403587
1772562354340476400,11.245476318359374,0.0007543077226728201,0.00742851197719574,-0.028886999934911728
1772562354350543600,11.255543701171876,-0.0029494131449609995,0.002568490570411086,-0.021140843629837036
1772562354360610600,11.265610595703125,-0.008492782711982727,0.00041186297312378883,-0.0062724146991968155
1772562354370677500,11.275677490234376,-0.013931043446063995,-0.013331345282495022,0.005343127064406872
1772562354380745500,11.285745361328125,-0.010954693891108036,-0.028862364590168,0.01841498725116253
1772562354390812400,11.2958125,-0.012417301535606384,-0.0375533252954483,0.018091678619384766
1772562354400879400,11.30587939453125,-0.007089914754033089,-0.04439418762922287,0.01721842773258686
1772562354410945800,11.31594580078125,0.0023622673470526934,-0.038213375955820084,0.005136947147548199
1772562354421013000,11.326012939453125,0.007504032924771309,-0.023223239928483963,-0.0043982346542179585
1772562354431080700,11.336080810546875,0.008027259260416031,0.001226745080202818,-0.007020218297839165
1772562354441148000,11.34614794921875,-0.003208351321518421,0.019864877685904503,-0.0049067335203289986
1772562354451215000,11.356215087890625,-0.022252973169088364,0.009619279764592648,-0.003313313703984022
1772562354461282000,11.366281982421874,-0.0393398143351078,-0.012946482747793198,0.004152059555053711
1772562354471350000,11.37635009765625,-0.046174902468919754,-0.025234006345272064,0.0038795163854956627
1772562354481417000,11.3864169921875,-0.048172276467084885,-0.023005474358797073,0.018112247809767723
1772562354491484000,11.39648388671875,-0.04668108746409416,-0.008617167361080647,0.02256583981215954
1772562354501550800,11.40655078125,-0.038169361650943756,0.005067751742899418,0.024666275829076767
1772562354511618800,11.416618896484374,-0.03325974568724632,0.008033492602407932,0.025296101346611977
1772562354521685800,11.426685791015625,-0.027984287589788437,-0.008754808455705643,0.02356131747364998
1772562354531752700,11.436752685546875,-0.030076194554567337,-0.02820368856191635,0.01591229997575283
1772562354541820000,11.44681982421875,-0.030206158757209778,-0.029206369072198868,0.012393997982144356
1772562354551886800,11.456886962890625,-0.02805965580046177,-0.015928830951452255,0.007835883647203445
1772562354561955000,11.466955078125,-0.029064998030662537,-0.012576178647577763,0.009498761966824532
1772562354572022000,11.47702197265625,-0.02349213697016239,-0.011918850243091583,0.0043330020271241665
1772562354582089000,11.4870888671875,-0.018818821758031845,-0.02495635487139225,-0.0012607015669345856
1772562354592156000,11.497156005859376,-0.01973620057106018,-0.043622937053442,-0.014369591139256954
1772562354602223900,11.507223876953125,-0.021574581041932106,-0.04570765793323517,-0.031311023980379105
1772562354612290800,11.517290771484374,-0.024416979402303696,-0.02217135950922966,-0.03638393059372902
1772562354622357800,11.527357666015625,-0.02866019308567047,0.006754296366125345,-0.02597096748650074
1772562354632424700,11.5374248046875,-0.03223299980163574,0.014382539317011833,-0.012159066274762154
1772562354642492000,11.547491943359375,-0.037961460649967194,0.0006313072517514229,0.0016195964999496937
1772562354652560000,11.557559814453125,-0.043693363666534424,-0.029334820806980133,0.013109346851706505
1772562354662627000,11.567626953125,-0.04516955465078354,-0.05591663345694542,0.015236947685480118
1772562354672694000,11.577694091796875,-0.04112642630934715,-0.07189236581325531,0.010406670160591602
1772562354682761000,11.587760986328124,-0.03415533900260925,-0.0624418705701828,-0.005354449152946472
1772562354692829000,11.597828857421876,-0.026935355737805367,-0.04113534837961197,-0.024669695645570755
1772562354702895900,11.607895751953125,-0.01920073665678501,-0.01669977977871895,-0.041799146682024
1772562354712962800,11.617962890625,-0.017999187111854553,-0.004513096529990435,-0.050440333783626556
1772562354723029800,11.62802978515625,-0.016603421419858932,0.004145106766372919,-0.04643786698579788
1772562354733097000,11.638096923828124,-0.010999785736203194,-0.010294239968061447,-0.04025562107563019
1772562354743165000,11.6481650390625,-0.005584514234215021,-0.017140429466962814,-0.023448675870895386
1772562354753232100,11.658232177734375,0.00020236964337527752,-0.01792074367403984,-0.011500226333737373
1772562354763299000,11.668299072265626,0.0037971045821905136,-0.020785240456461906,0.0035386444069445133
1772562354773366000,11.678365966796875,0.0004152413457632065,-0.028653584420681,0.006540394388139248
1772562354783434000,11.68843408203125,-0.004589637275785208,-0.037655070424079895,0.008070913143455982
1772562354793501000,11.6985009765625,-0.0035139862447977066,-0.031578801572322845,0.0003072659019380808
1772562354803567900,11.70856787109375,-0.002658579032868147,-0.016006233170628548,-0.00040539586916565895
1772562354813634800,11.718634765625,-0.003608992788940668,-0.009536943398416042,-0.010719260200858116
1772562354823702800,11.728702880859375,0.0005079875700175762,-0.023830130696296692,-0.011758158914744854
1772562354833769700,11.738769775390624,0.009163555689156055,-0.04176905006170273,-0.023384684696793556
1772562354843837000,11.7488369140625,0.017374614253640175,-0.05140569806098938,-0.034082602709531784
1772562354853904100,11.758904052734374,0.02909410372376442,-0.03968887776136398,-0.043845828622579575
1772562354863971000,11.76897119140625,0.03817415237426758,-0.01218322105705738,-0.0545211061835289
1772562354874039000,11.7790390625,0.03713293373584747,0.009362329728901386,-0.06077821925282478
1772562354884106000,11.78910595703125,0.03211687132716179,0.02206560969352722,-0.05575016885995865
1772562354894173000,11.7991728515625,0.028312992304563522,0.018637090921401978,-0.04004587605595589
1772562354904239900,11.809239990234374,0.025135308504104614,0.0036184596829116344,-0.02478276751935482
1772562354914307800,11.819307861328125,0.027890173718333244,0.0007527829147875309,0.00021201418712735176
1772562354924374800,11.829374755859375,0.02816048450767994,-0.0030387593433260918,0.021403586491942406
1772562354934441700,11.839441650390626,0.029414119198918343,-0.009382178075611591,0.03967190906405449
1772562354944509000,11.849509033203125,0.03169378638267517,-0.0114216273650527,0.05075012519955635
1772562354954577000,11.859576904296874,0.03617047518491745,-0.005418027751147747,0.0589701347053051
1772562354964643800,11.869643798828125,0.034086816012859344,0.0008470588363707066,0.06527703255414963
1772562354974711000,11.8797109375,0.031078407540917397,0.004695868119597435,0.05799151211977005
1772562354984778000,11.889778076171876,0.025530509650707245,-0.005370880477130413,0.04886672645807266
1772562354994845000,11.899844970703125,0.026623642072081566,-0.012451762333512306,0.027849793434143066
1772562355004913000,11.909912841796874,0.028553901240229607,-0.01146026886999607,0.008474498055875301
1772562355014979800,11.919979736328125,0.02336111105978489,-0.004550253972411156,-0.018926475197076797
1772562355025046800,11.930046875,0.01373405009508133,0.0014146938920021057,-0.03838539496064186
1772562355035113700,11.94011376953125,-0.011917239055037498,-0.004903283901512623,-0.07383956015110016
1772562355045182000,11.950181884765625,-0.0793551355600357,-0.07450100034475327,-0.10844627022743225
1772562355055249000,11.960248779296874,-0.1311282366514206,-0.15474839508533478,-0.13912802934646606
1772562355065315800,11.97031591796875,-0.16256499290466309,-0.16902266442775726,-0.14200983941555023
1772562355075383000,11.980383056640624,-0.18733397126197815,-0.1735599786043167,-0.13003002107143402
1772562355085450000,11.990449951171875,-0.2222709357738495,-0.20958243310451508,-0.12142349779605865
1772562355095518000,12.00051806640625,-0.2613154351711273,-0.2739601731300354,-0.10768208652734756
1772562355105585000,12.0105849609375,-0.3106616735458374,-0.30162402987480164,-0.0747222751379013
1772562355115651800,12.02065185546875,-0.3600362539291382,-0.24154454469680786,-0.03569565340876579
1772562355125718800,12.03071875,-0.40632811188697815,-0.1706157773733139,-0.0023467508144676685
1772562355135787000,12.040787109375,-0.44431954622268677,-0.1630208045244217,0.032136254012584686
1772562355145854000,12.05085400390625,-0.46082955598831177,-0.17575737833976746,0.08265002071857452
1772562355155921000,12.0609208984375,-0.459459513425827,-0.20682772994041443,0.14226418733596802
