time,seconds_elapsed,z,y,x
1772562343154530000,0.059530029296875,0.05043201521039009,-0.031504396349191666,0.015544604510068893
1772562343164597200,0.06959716796875,0.047439154237508774,-0.031127825379371643,0.020240822806954384
1772562343174665200,0.079665283203125,0.04613340646028519,-0.05841777101159096,0.01022467389702797
1772562343184732200,0.089732177734375,0.03725176304578781,-0.06609566509723663,0.004611529875546694
1772562343194799000,0.099799072265625,0.036189962178468704,-0.05506884306669235,-0.010262757539749146
1772562343204866000,0.109865966796875,0.046483345329761505,-0.036126311868429184,-0.03459552675485611
1772562343214934000,0.11993408203125,0.0610114224255085,-0.01601198874413967,-0.0674341693520546
1772562343225001200,0.130001220703125,0.07779945433139801,0.03363705426454544,-0.09135574847459793
1772562343235068200,0.140068115234375,0.08694075793027878,0.08603368699550629,-0.09696649014949799
1772562343245135000,0.150135009765625,0.08351673185825348,0.10754190385341644,-0.08938580751419067
1772562343255202000,0.1602021484375,0.06577421724796295,0.09973431378602982,-0.0687476396560669
1772562343265270300,0.170270263671875,0.04302043840289116,0.06962727755308151,-0.03903954476118088
1772562343275337200,0.180337158203125,0.02220224030315876,0.02942952699959278,-0.004973985720425844
1772562343285404200,0.190404052734375,0.0015150723047554493,-0.017048757523298264,0.01907222718000412
1772562343295471000,0.20047119140625,-0.01582077518105507,-0.060630325227975845,0.033007219433784485
1772562343305539000,0.2105390625,-0.0280340313911438,-0.0889892578125,0.03513162210583687
1772562343315606000,0.22060595703125,-0.03286846727132797,-0.0868091955780983,0.028895830735564232
1772562343325673200,0.230673095703125,-0.02851153537631035,-0.055325575172901154,0.006944991648197174
1772562343335740200,0.240740234375,-0.01877635158598423,-0.0016831178218126297,-0.011518171988427639
1772562343345807000,0.25080712890625,-0.0028876655269414186,0.03882143273949623,-0.03133581951260567
1772562343355875300,0.260875244140625,-0.0016881778137758374,0.040047816932201385,-0.03695854917168617
1772562343365942300,0.2709423828125,-0.004852812271565199,0.0038250982761383057,-0.03909919783473015
1772562343376009200,0.28100927734375,-0.009898170828819275,-0.02201555296778679,-0.034933749586343765
1772562343386076200,0.291076171875,-0.012908607721328735,-0.0320170558989048,-0.02496393956243992
1772562343396144000,0.30114404296875,-0.014369351789355278,-0.03923662006855011,-0.011198059655725956
1772562343406211300,0.31121142578125,-0.022965237498283386,-0.04247448965907097,-0.0013006879016757011
1772562343416278300,0.3212783203125,-0.03629941865801811,-0.03319869935512543,0.009269132278859615
1772562343426345500,0.331345458984375,-0.040579915046691895,-0.015498531982302666,0.014600514434278011
1772562343436412400,0.341412353515625,-0.04086567461490631,-0.007720770314335823,0.007778827100992203
1772562343446480400,0.35148046875,-0.035899676382541656,0.0000031957933970261365,0.004309793468564749
1772562343456547300,0.36154736328125,-0.035237882286310196,0.002067944500595331,0.00469462014734745
1772562343466614300,0.3716142578125,-0.03184874355792999,-0.000945954816415906,0.008580705150961876
1772562343476681200,0.38168115234375,-0.026913372799754143,-0.0021827267482876778,0.018683141097426414
1772562343486749200,0.391749267578125,-0.024412931874394417,-0.0028668928425759077,0.03562723472714424
1772562343496816400,0.40181640625,-0.017187243327498436,0.00205276464112103,0.0515579991042614
1772562343506883300,0.41188330078125,-0.013064136728644371,0.021580925211310387,0.08083759248256683
1772562343516950300,0.4219501953125,-0.00020772656716872007,0.05422968417406082,0.12678749859333038
1772562343527017500,0.432017578125,0.0152575159445405,0.08995119482278824,0.2071973979473114
1772562343537085200,0.442085205078125,0.029396237805485725,0.11138244718313217,0.3438716232776642
1772562343547152400,0.45215234375,0.03110785223543644,0.0757560133934021,0.5291064381599426
1772562343557219300,0.46221923828125,0.017528394237160683,-0.049070075154304504,0.7558570504188538
1772562343567286300,0.472286376953125,-0.001939580193720758,-0.18427449464797974,1.0361377000808716
1772562343577353200,0.482353271484375,-0.041308026760816574,-0.25866565108299255,1.339999794960022
1772562343587421200,0.492421142578125,-0.09072750806808472,-0.23135972023010254,1.6245274543762207
1772562343597488400,0.50248828125,-0.09290304034948349,-0.11478117853403091,1.856218695640564
1772562343607555300,0.512555419921875,0.006143912672996521,0.1271425038576126,2.0630733966827393
1772562343617622300,0.522622314453125,0.1914471983909607,0.42181596159935,2.256561517715454
1772562343627690200,0.532690185546875,0.4290432333946228,0.7231339812278748,2.419187068939209
1772562343637757200,0.542757080078125,0.6566635966300964,0.9422668814659119,2.481311082839966
1772562343647824400,0.552824462890625,0.7732927799224854,1.0148332118988037,2.39483904838562
1772562343657891300,0.562891357421875,0.697550356388092,0.9114181399345398,2.160947561264038
1772562343667958300,0.572958251953125,0.5005451440811157,0.753367006778717,1.8911136388778687
1772562343678026200,0.583026123046875,0.28239575028419495,0.5391345620155334,1.6196101903915405
1772562343688093200,0.59309326171875,0.11569251120090485,0.3077026903629303,1.3412302732467651
1772562343698160000,0.60316015625,0.020738035440444946,0.21002593636512756,1.0814255475997925
1772562343708227300,0.613227294921875,-0.03220454230904579,0.24024242162704468,0.8429208397865295
1772562343718295300,0.62329541015625,-0.050700459629297256,0.3331761062145233,0.6011137962341309
1772562343728362200,0.6333623046875,-0.04772091656923294,0.5001035928726196,0.38364991545677185
1772562343738429200,0.64342919921875,-0.02966388501226902,0.6657468676567078,0.18941013514995575
1772562343748496400,0.653496337890625,-0.0002657834847923368,0.7923372983932495,0.0317523367702961
1772562343758563300,0.663563232421875,0.04019695520401001,0.860291063785553,-0.0745040625333786
1772562343768631300,0.67363134765625,0.07582738250494003,0.900122344493866,-0.14086177945137024
1772562343778698200,0.6836982421875,0.09892284870147705,0.8827675580978394,-0.17621630430221558
1772562343788765200,0.69376513671875,0.116167351603508,0.8427793979644775,-0.17438457906246185
1772562343798832000,0.70383203125,0.11433988809585571,0.7527448534965515,-0.15513712167739868
1772562343808900400,0.713900390625,0.10964340716600418,0.6237189769744873,-0.10428645461797714
1772562343818967300,0.72396728515625,0.08518174290657043,0.4483540952205658,-0.04543619230389595
1772562343829034200,0.7340341796875,0.047142479568719864,0.07544948160648346,-0.05282992497086525
1772562343839101400,0.744101318359375,0.06256511062383652,-0.2516290545463562,-0.07295889407396317
1772562343849168400,0.75416845703125,0.1031213253736496,-0.3756820261478424,-0.07680156826972961
1772562343859236400,0.764236328125,0.11747229844331741,-0.3713842034339905,-0.08172255754470825
1772562343869303300,0.77430322265625,0.0947483479976654,-0.34064653515815735,-0.10151224583387375
1772562343879370200,0.784370361328125,0.050761446356773376,-0.31290918588638306,-0.15498824417591095
1772562343889437200,0.794437255859375,0.009749566204845905,-0.30625900626182556,-0.24599646031856537
1772562343899505400,0.80450537109375,-0.01804531365633011,-0.33367836475372314,-0.37307292222976685
1772562343909572400,0.814572265625,-0.013028183951973915,-0.3934687376022339,-0.5162755846977234
1772562343919639300,0.824639404296875,0.02365046739578247,-0.4192414879798889,-0.6757422089576721
1772562343929706200,0.834706298828125,0.05903535708785057,-0.4231534004211426,-0.8275996446609497
1772562343939773400,0.8447734375,0.07103396207094193,-0.42265963554382324,-0.9653727412223816
1772562343949841200,0.854841064453125,0.06250971555709839,-0.3984176814556122,-1.0658295154571533
1772562343959908400,0.864908447265625,0.021618209779262543,-0.39112329483032227,-1.14002525806427
1772562343969975300,0.874975341796875,-0.03557903319597244,-0.43795523047447205,-1.1843549013137817
1772562343980042200,0.885042236328125,-0.08719322830438614,-0.5099977254867554,-1.2011322975158691
1772562343990109200,0.895109130859375,-0.09958384931087494,-0.49334633350372314,-1.176493763923645
1772562344000177400,0.905177490234375,-0.08383578062057495,-0.41006234288215637,-1.1321702003479004
1772562344010244400,0.915244384765625,-0.05714930593967438,-0.32824763655662537,-1.0675952434539795
1772562344020311300,0.925311279296875,-0.03854819014668465,-0.30024290084838867,-1.0064929723739624
1772562344030378200,0.935378173828125,-0.031002923846244812,-0.3354693353176117,-0.9508899450302124
1772562344040446200,0.9454462890625,-0.017715880647301674,-0.3739805221557617,-0.8865048289299011
1772562344050513200,0.95551318359375,0.008293350227177143,-0.3709130883216858,-0.8177891373634338
1772562344060580400,0.965580322265625,0.03062608651816845,-0.33372071385383606,-0.7392623424530029
1772562344070647300,0.975647216796875,0.02419321984052658,-0.27950912714004517,-0.659520149230957
1772562344080714200,0.98571435546875,-0.004911401774734259,-0.20932446420192719,-0.5859726667404175
1772562344090782500,0.995782470703125,-0.04264546558260918,-0.18951480090618134,-0.5210389494895935
1772562344100849400,1.005849365234375,-0.08148180693387985,-0.2559060752391815,-0.4764501750469208
1772562344110916400,1.015916259765625,-0.11497905105352402,-0.3685697615146637,-0.4601244628429413
1772562344120983300,1.0259833984375,-0.11831572651863098,-0.3722156286239624,-0.4315604567527771
1772562344131051300,1.03605126953125,-0.10676159709692001,-0.27738234400749207,-0.3881773054599762
1772562344141118200,1.0461181640625,-0.09550894796848297,-0.19670693576335907,-0.34785810112953186
1772562344151185200,1.05618505859375,-0.10020676255226135,-0.12321194261312485,-0.3159736692905426
1772562344161252400,1.06625244140625,-0.10473600029945374,-0.07063475251197815,-0.2912028133869171
1772562344171319300,1.0763193359375,-0.10896456986665726,-0.08774423599243164,-0.2707872986793518
1772562344181387300,1.08638720703125,-0.11005806177854538,-0.1399504393339157,-0.2576688230037689
1772562344191454200,1.0964541015625,-0.11363787949085236,-0.15948952734470367,-0.2380615621805191
1772562344201521400,1.106521484375,-0.1252274215221405,-0.16171886026859283,-0.22428104281425476
1772562344211588400,1.11658837890625,-0.13474902510643005,-0.15497413277626038,-0.2211451679468155
1772562344221656300,1.12665625,-0.1280738115310669,-0.1440834105014801,-0.22991761565208435
1772562344231723300,1.13672314453125,-0.10063100606203079,-0.12271419912576675,-0.25298404693603516
1772562344241790200,1.146790283203125,-0.05656980350613594,-0.09031818062067032,-0.2766744792461395
1772562344251857400,1.156857421875,-0.024634772911667824,-0.028652682900428772,-0.29055461287498474
1772562344261924400,1.16692431640625,-0.011212972924113274,0.020263459533452988,-0.2828623354434967
1772562344271992300,1.176992431640625,-0.024206802248954773,0.05512077733874321,-0.25462350249290466
1772562344282059300,1.187059326171875,-0.04685565456748009,0.06954126060009003,-0.22586002945899963
1772562344292126200,1.197126220703125,-0.06282529979944229,0.055152732878923416,-0.1971665918827057
1772562344302193400,1.207193359375,-0.061466023325920105,0.03274702653288841,-0.17386554181575775
1772562344312260400,1.21726025390625,-0.06862619519233704,-0.00207673292607069,-0.1580362319946289
1772562344322328300,1.227328369140625,-0.0746779665350914,-0.006654440425336361,-0.14726534485816956
1772562344332395300,1.237395263671875,-0.07407635450363159,0.051063716411590576,-0.12081883102655411
1772562344342462200,1.247462158203125,-0.0768500417470932,0.11457904428243637,-0.08567815274000168
1772562344352529400,1.257529296875,-0.0788511410355568,0.1285606324672699,-0.049669284373521805
1772562344362597000,1.26759716796875,-0.07607825845479965,0.07558637112379074,-0.03401815518736839
1772562344372664300,1.277664306640625,-0.060916878283023834,0.011541874147951603,-0.019602196291089058
1772562344382731300,1.287731201171875,-0.04410301148891449,-0.053820088505744934,-0.013101154938340187
1772562344392798200,1.297798095703125,-0.03285781666636467,-0.1046110987663269,-0.022904783487319946
1772562344402864000,1.307864013671875,-0.019844278693199158,-0.09076585620641708,-0.031316377222537994
1772562344412932000,1.31793212890625,-0.009030246175825596,-0.032827720046043396,-0.03375237062573433
1772562344422999000,1.3279990234375,-0.004221909213811159,0.004568386357277632,-0.04566522315144539
1772562344433066200,1.338066162109375,0.0012199940392747521,0.007675762753933668,-0.06173606961965561
1772562344443133400,1.348133544921875,0.00860494002699852,0.02088211290538311,-0.0697130337357521
1772562344453201400,1.358201416015625,0.013422331772744656,0.04773876070976257,-0.07001716643571854
1772562344463268400,1.368268310546875,0.011413242667913437,0.07803594321012497,-0.054675497114658356
1772562344473335300,1.378335205078125,0.009280850179493427,0.08008844405412674,-0.03514174371957779
1772562344483402200,1.38840234375,0.009664878249168396,0.05020058527588844,-0.020135894417762756
1772562344493469200,1.39846923828125,0.02069009840488434,0.03863181546330452,-0.0001637844106880948
1772562344503537200,1.408537109375,0.024088557809591293,0.05301235243678093,0.014675615355372429
1772562344513604000,1.41860400390625,0.01721121184527874,0.05901724845170975,0.025645708665251732
1772562344523671000,1.428671142578125,0.00011371697473805398,0.0362783782184124,0.042030006647109985
1772562344533738200,1.43873828125,-0.010192183777689934,0.018942000344395638,0.05628484487533569
1772562344543806200,1.44880615234375,-0.0028943235520273447,-0.005834985990077257,0.062373362481594086
1772562344553873400,1.458873291015625,0.009400691837072372,-0.024987109005451202,0.05655036121606827
1772562344563940400,1.4689404296875,0.023066436871886253,-0.029293173924088478,0.047027431428432465
1772562344574007300,1.47900732421875,0.032487902790308,-0.0291174054145813,0.030654581263661385
1772562344584074200,1.48907421875,0.03578995540738106,-0.021080251783132553,0.013589578680694103
1772562344594142200,1.49914208984375,0.04524923861026764,-0.011531753465533257,0.0019078885670751333
1772562344604209200,1.509209228515625,0.05158436298370361,-0.015243668109178543,-0.006704241503030062
1772562344614276000,1.519276123046875,0.048584312200546265,-0.012867062352597713,-0.022662168368697166
1772562344624343000,1.529343017578125,0.04141774773597717,0.007765777874737978,-0.03857215866446495
1772562344634410200,1.53941015625,0.02123338356614113,0.04337304085493088,-0.057322144508361816
1772562344644478200,1.549478271484375,-0.0014889733865857124,0.053044840693473816,-0.07741516083478928
1772562344654545400,1.55954541015625,-0.019408585503697395,0.0333358533680439,-0.08490636944770813
1772562344664612400,1.5696123046875,-0.024774588644504547,0.023932762444019318,-0.08574073761701584
1772562344674679300,1.57967919921875,-0.02941967360675335,0.021403025835752487,-0.07871291786432266
1772562344684747300,1.589747314453125,-0.03135073184967041,0.009563145227730274,-0.07708040624856949
1772562344694814200,1.599814208984375,-0.03293851017951965,-0.0019022959750145674,-0.07616587728261948
1772562344704881200,1.609881103515625,-0.0189643707126379,0.012194348499178886,-0.06770927459001541
1772562344714948000,1.619947998046875,-0.0003920173039659858,0.024814004078507423,-0.055400408804416656
1772562344725015000,1.63001513671875,0.01581731252372265,0.01907968521118164,-0.034380342811346054
1772562344735083300,1.640083251953125,0.02503691054880619,0.006376939360052347,-0.007845672778785229
1772562344745150200,1.650150146484375,0.029998378828167915,-0.001026382320560515,0.019047461450099945
1772562344755217400,1.660217529296875,0.026157567277550697,-0.00478436890989542,0.043895021080970764
1772562344765284400,1.670284423828125,0.025682194158434868,-0.004234692547470331,0.05878182500600815
1772562344775352300,1.680352294921875,0.02377244085073471,-0.007458448875695467,0.06754016131162643
1772562344785419300,1.690419189453125,0.03259655833244324,-0.01727113127708435,0.06524238735437393
1772562344795486200,1.700486328125,0.04559731110930443,-0.040756482630968094,0.04837978258728981
1772562344805553200,1.71055322265625,0.06252063810825348,-0.04189098998904228,0.02393968775868416
1772562344815620000,1.7206201171875,0.07748094201087952,-0.014825818128883839,-0.0002950782363768667
1772562344825688300,1.730688232421875,0.08268369734287262,0.011215902864933014,-0.0237580593675375
1772562344835755300,1.74075537109375,0.08077873289585114,0.04440474882721901,-0.03927896171808243
1772562344845822200,1.750822265625,0.068814218044281,0.07376929372549057,-0.05102669820189476
1772562344855889400,1.760889404296875,0.05302726477384567,0.07055645436048508,-0.05272526293992996
1772562344865957400,1.770957275390625,0.04542340710759163,0.06186683103442192,-0.041428398340940475
1772562344876024300,1.7810244140625,0.05445631593465805,0.06551536172628403,-0.020241355523467064
1772562344886091300,1.79109130859375,0.054427288472652435,0.07171040773391724,0.009753560647368431
1772562344896158200,1.801158203125,0.05053960531949997,0.06432785838842392,0.0342266783118248
1772562344906225200,1.81122509765625,0.03923049196600914,0.022367622703313828,0.05548696219921112
1772562344916293000,1.821293212890625,0.02834056131541729,-0.04270938038825989,0.06519471853971481
1772562344926360000,1.831360107421875,0.016443155705928802,-0.0672602653503418,0.053471215069293976
1772562344936427300,1.84142724609375,0.009622533805668354,-0.028477979823946953,0.029635390266776085
1772562344946494500,1.851494384765625,0.009260077029466629,0.03331960737705231,0.00029640982393175364
1772562344956561400,1.8615615234375,0.0065199509263038635,0.07229097187519073,-0.02960290014743805
1772562344966629400,1.87162939453125,0.0052078114822506905,0.08065889030694962,-0.054603058844804764
1772562344976696300,1.8816962890625,0.01038313191384077,0.06593747437000275,-0.06030648201704025
1772562344986763300,1.89176318359375,0.017477260902523994,0.061108361929655075,-0.05571386218070984
1772562344996830200,1.901830322265625,0.02310771681368351,0.06946935504674911,-0.032524652779102325
1772562345006898200,1.911898193359375,0.022172413766384125,0.07050932198762894,-0.004756139125674963
1772562345016965000,1.921965087890625,0.017838651314377785,0.0567018948495388,0.02822071872651577
1772562345027032000,1.932031982421875,0.021514879539608955,0.020504476502537727,0.060810886323451996
1772562345037099300,1.942099365234375,0.026270752772688866,-0.03406742215156555,0.08350075036287308
1772562345047167200,1.952167236328125,0.023307187482714653,-0.06315180659294128,0.10175938159227371
1772562345057234200,1.962234130859375,0.007198524195700884,-0.06717398017644882,0.10782952606678009
1772562345067301400,1.97230126953125,-0.005928196478635073,-0.0389828197658062,0.10001687705516815
1772562345077368300,1.982368408203125,-0.02425713650882244,0.006293049547821283,0.082339346408844
1772562345087435300,1.992435302734375,-0.026920830830931664,0.03490951284766197,0.05903109535574913
1772562345097503200,2.002503173828125,-0.02304033748805523,0.03172197565436363,0.023913322016596794
1772562345107570200,2.012570068359375,-0.010567422956228256,0.03254356235265732,-0.008549812249839306
1772562345117637000,2.02263720703125,-0.000693220819812268,0.029497971758246422,-0.03780011087656021
1772562345127704000,2.0327041015625,-0.00245143985375762,0.018152372911572456,-0.05409306287765503
1772562345137772300,2.042772216796875,-0.0060323262587189674,0.016476977616548538,-0.06952928006649017
1772562345147839200,2.052839111328125,-0.005030977539718151,0.025726135820150375,-0.07246461510658264
1772562345157906200,2.06290625,-0.004521514754742384,0.027245203033089638,-0.06959452480077744
1772562345167973400,2.072973388671875,-0.007486412301659584,0.001990180229768157,-0.06427805870771408
1772562345178040300,2.083040283203125,-0.006836866959929466,-0.014571219682693481,-0.04835954308509827
1772562345188108300,2.0931083984375,-0.006179865449666977,0.010850517079234123,-0.020442157983779907
1772562345198175200,2.10317529296875,-0.012888101860880852,0.04861707240343094,0.011270231567323208
1772562345208242200,2.1132421875,-0.0273812897503376,0.0606476329267025,0.04156582057476044
1772562345218309000,2.12330908203125,-0.03525146469473839,0.039209987968206406,0.05838421359658241
1772562345228376000,2.1333759765625,-0.028604745864868164,-0.00245090713724494,0.06737344712018967
1772562345238444300,2.1434443359375,-0.015983493998646736,-0.047317180782556534,0.06487859785556793
1772562345248511200,2.15351123046875,-0.0023995081428438425,-0.06295792758464813,0.04905995354056358
1772562345258578200,2.163578125,-0.0032197616528719664,-0.03786269202828407,0.03796922042965889
1772562345268645400,2.173645263671875,-0.01522822119295597,0.005828594323247671,0.032161664217710495
1772562345278713300,2.18371337890625,-0.025537583976984024,0.028121383860707283,0.02804148755967617
1772562345288780300,2.1937802734375,-0.031857799738645554,0.00768774701282382,0.022730080410838127
1772562345298847200,2.20384716796875,-0.025067802518606186,-0.011697402223944664,0.02526567503809929
1772562345308914200,2.2139140625,-0.015561383217573166,0.0010210559703409672,0.030819963663816452
1772562345318982100,2.223982177734375,-0.016043415293097496,0.028783177956938744,0.03411749005317688
1772562345329049300,2.23404931640625,-0.024865668267011642,0.04373070225119591,0.03503841161727905
1772562345339116300,2.2441162109375,-0.029290243983268738,0.04357863590121269,0.04513312503695488
1772562345349183200,2.254183349609375,-0.021522335708141327,0.024836907163262367,0.05373193696141243
1772562345359250400,2.26425048828125,-0.011247861199080944,-0.0030684941448271275,0.06294301152229309
1772562345369318100,2.274318115234375,-0.006114351563155651,-0.022053370252251625,0.06429722905158997
1772562345379385300,2.28438525390625,-0.0017845842521637678,-0.01872122287750244,0.05772614851593971
1772562345389452300,2.294452392578125,-0.0009664611425250769,0.009501892141997814,0.04892466589808464
1772562345399519200,2.304519287109375,-0.004090881906449795,0.04681597650051117,0.04307876154780388
1772562345409586700,2.314586669921875,-0.008551144041121006,0.06514837592840195,0.03984115645289421
1772562345419655000,2.324655029296875,-0.014533136039972305,0.05732747167348862,0.04164385050535202
1772562345429721900,2.334721923828125,-0.016138223931193352,0.030846329405903816,0.03963209688663483
1772562345439788800,2.344788818359375,-0.01647857576608658,-0.007131146267056465,0.02930036373436451
1772562345449855700,2.354855712890625,-0.013392504304647446,-0.013672668486833572,0.020191820338368416
1772562345459923700,2.364923828125,-0.012841496616601944,-0.0035153725184500217,0.006727677304297686
1772562345469990700,2.37499072265625,-0.018141454085707664,-0.007133277133107185,-0.005080245900899172
1772562345480057600,2.3850576171875,-0.024294953793287277,-0.02395646460354328,-0.02263553813099861
1772562345490124800,2.395124755859375,-0.020791031420230865,-0.019763318821787834,-0.02510055899620056
1772562345500192800,2.40519287109375,-0.01865650899708271,0.013174391351640224,-0.020206201821565628
1772562345510259700,2.415259765625,-0.020927919074892998,0.04878484830260277,-0.00888004433363676
1772562345520327000,2.425326904296875,-0.036194223910570145,0.044683314859867096,0.0046629286371171474
1772562345530393900,2.435393798828125,-0.0397237092256546,0.016440758481621742,0.01955585740506649
1772562345540460800,2.445460693359375,-0.024824656546115875,-0.011800467036664486,0.02550962008535862
1772562345550528800,2.45552880859375,-0.0065652248449623585,-0.04053623974323273,0.034872230142354965
1772562345560595700,2.465595703125,0.007172425277531147,-0.04469689726829529,0.03392254561185837
1772562345570662700,2.47566259765625,0.018379006534814835,-0.024390295147895813,0.029871612787246704
1772562345580729600,2.4857294921875,0.017707889899611473,0.005840578582137823,0.015135010704398155
1772562345590797600,2.495797607421875,0.010334929451346397,0.030286267399787903,0.007462976034730673
1772562345600864800,2.50586474609375,-0.0027395938523113728,0.04183293506503105,-0.002941727638244629
1772562345610931700,2.515931640625,-0.012025503441691399,0.023182816803455353,-0.012251339852809906
1772562345620999000,2.5259990234375,-0.012841496616601944,0.003123888047412038,-0.01507082860916853
1772562345631065900,2.53606591796875,-0.005411543417721987,0.005428587552160025,-0.005652026738971472
1772562345641133800,2.5461337890625,0.003409378696233034,-0.001392300589941442,0.007640342693775892
1772562345651200800,2.55620068359375,0.004792358260601759,-0.021975073963403702,0.017524931579828262
1772562345661267700,2.566267822265625,0.008404936641454697,-0.040106140077114105,0.02340385876595974
1772562345671334700,2.576334716796875,0.01697126030921936,-0.0744425430893898,0.01260980125516653
1772562345681401900,2.58640185546875,0.03021276369690895,-0.0865498036146164,-0.004318049177527428
1772562345691469600,2.596469482421875,0.03340083360671997,-0.06389562785625458,-0.029737655073404312
1772562345701536800,2.606536865234375,0.03190679848194122,-0.022480541840195656,-0.054484546184539795
1772562345711603700,2.616603759765625,0.024672856554389,0.02027571015059948,-0.060984525829553604
1772562345721670700,2.626670654296875,0.010377539321780205,0.03422827646136284,-0.056419067084789276
1772562345731739000,2.63673876953125,0.0005219795857556164,0.011671037413179874,-0.05176759138703346
1772562345741805800,2.646805908203125,-0.0008756473544053733,-0.030642064288258553,-0.0355454757809639
1772562345751872800,2.656872802734375,0.006482400465756655,-0.07346595823764801,-0.02894589677453041
1772562345761939700,2.666939697265625,0.00890933908522129,-0.09826425462961197,-0.02569124847650528
1772562345772007700,2.677007568359375,0.007819573394954205,-0.09343966841697693,-0.026391660794615746
1772562345782074600,2.68707470703125,0.0005060005933046341,-0.06392332166433334,-0.022492526099085808
1772562345792141600,2.6971416015625,-0.013046293519437313,-0.023603862151503563,-0.02636316418647766
1772562345802208800,2.707208740234375,-0.02429921366274357,-0.00444055488333106,-0.031451933085918427
1772562345812275700,2.717275634765625,-0.034571826457977295,-0.011266768909990788,-0.036858681589365005
1772562345822344000,2.727343994140625,-0.035704467445611954,-0.02316071279346943,-0.046483878046274185
1772562345832411000,2.737410888671875,-0.026575684547424316,-0.0369657427072525,-0.04956675320863724
1772562345842477800,2.747477783203125,-0.015866581350564957,-0.03928402438759804,-0.046669766306877136
1772562345852544800,2.757544677734375,-0.0087218526750803,-0.031683627516031265,-0.04285958409309387
1772562345862612700,2.76761279296875,-0.004025900736451149,-0.016457004472613335,-0.03893834352493286
1772562345872679700,2.7776796875,-0.010905911214649677,-0.004822984803467989,-0.030191458761692047
1772562345882746600,2.78774658203125,-0.019957728683948517,0.0027148264925926924,-0.019762253388762474
1772562345892813600,2.7978134765625,-0.03142743185162544,0.012865198776125908,-0.006494917441159487
1772562345902880800,2.807880859375,-0.036134034395217896,0.008582303300499916,0.01215573213994503
1772562345912948700,2.81794873046875,-0.03676041215658188,-0.016930513083934784,0.023332752287387848
1772562345923016000,2.828015869140625,-0.028676385059952736,-0.04342550411820412,0.024563400074839592
1772562345933083000,2.838082763671875,-0.015401859767735004,-0.04795181378722191,0.02815254218876362
1772562345943149800,2.84814990234375,-0.004286091309040785,-0.04080308973789215,0.018935075029730797
1772562345953217800,2.8582177734375,0.008903746493160725,-0.03056616522371769,0.011240936815738678
1772562345963284700,2.86828466796875,0.011346664279699326,-0.01434991043061018,0.005656820256263018
1772562345973351700,2.8783515625,0.009045426733791828,-0.008579373359680176,0.003882622579112649
1772562345983418600,2.888418701171875,-0.006895989179611206,-0.02117426134645939,0.004035487771034241
1772562345993485600,2.898485595703125,-0.023858994245529175,-0.03343971446156502,0.0008396946941502392
1772562346003553500,2.908553466796875,-0.03845151886343956,-0.03515372797846794,-0.009339706040918827
1772562346013620700,2.918620849609375,-0.04188966006040573,-0.01949913240969181,-0.02004827745258808
1772562346023688000,2.92868798828125,-0.041904840618371964,0.0019198728259652853,-0.027534421533346176
1772562346033755000,2.9387548828125,-0.034456778317689896,0.005147890187799931,-0.04409102723002434
1772562346043822800,2.94882275390625,-0.014157630503177643,0.00875114742666483,-0.051352936774492264
1772562346053889800,2.958889892578125,0.0096848513931036,0.012016449123620987,-0.0466814860701561
1772562346063956700,2.968956787109375,0.020010193809866905,-0.002764361212030053,-0.023499999195337296
1772562346074023700,2.979023681640625,0.02255990356206894,-0.0191957987844944,-0.004203000571578741
1772562346084090600,2.989090576171875,0.011334946379065514,-0.02443690039217472,0.012103267945349216
1772562346094158600,2.99915869140625,0.00577879324555397,-0.01769963465631008,0.021987590938806534
1772562346104225500,3.0092255859375,-0.008400674909353256,-0.01215493306517601,0.033490315079689026
1772562346114292700,3.019292724609375,-0.020960142835974693,-0.0160633884370327,0.032167255878448486
1772562346124360000,3.02935986328125,-0.030700387433171272,-0.02870834432542324,0.025498434901237488
1772562346134428000,3.039427978515625,-0.03225088119506836,-0.018494589254260063,0.016504142433404922
1772562346144494800,3.049494873046875,-0.029343774542212486,0.007141266483813524,0.00740332156419754
1772562346154561800,3.059561767578125,-0.021455490961670876,0.028125111013650894,-0.005517803598195314
1772562346164628700,3.069628662109375,-0.011835620738565922,0.033361151814460754,-0.01453100610524416
1772562346174696700,3.07969677734375,-0.00035899411886930466,0.02014841139316559,-0.022274145856499672
1772562346184763600,3.089763671875,0.010478473268449306,-0.0024517059791833162,-0.022898124530911446
1772562346194830600,3.09983056640625,0.011989551596343517,-0.02743695117533207,-0.025113075971603394
1772562346204897500,3.1098974609375,0.008930644020438194,-0.03435877338051796,-0.02954217977821827
1772562346214964700,3.11996484375,0.00782649777829647,-0.00782383419573307,-0.02966521680355072
1772562346225032700,3.13003271484375,0.005496498197317123,0.01937316544353962,-0.027404192835092545
1772562346235100000,3.140099853515625,0.003215766977518797,0.0379849337041378,-0.0285890344530344
1772562346245166800,3.150166748046875,0.005323659162968397,0.036985982209444046,-0.02610963024199009
1772562346255233800,3.16023388671875,0.012013785541057587,0.026205504313111305,-0.024267522618174553
1772562346265301800,3.1703017578125,0.019053852185606956,0.018256235867738724,-0.019835224375128746
1772562346275368700,3.18036865234375,0.022395320236682892,0.013697968795895576,-0.00618039770051837
1772562346285435600,3.190435546875,0.02214711345732212,0.011078749783337116,0.003323358716443181
1772562346295502600,3.200502685546875,0.021017933264374733,-0.006596117280423641,0.01588043011724949
1772562346305569500,3.210569580078125,0.022937273606657982,-0.02677568793296814,0.026728816330432892
1772562346315637800,3.2206376953125,0.018618958070874214,-0.044064927846193314,0.030437001958489418
1772562346325704700,3.23070458984375,0.014964035712182522,-0.04597681388258934,0.036484505981206894
1772562346335772000,3.24077197265625,0.013787451200187206,-0.03230946883559227,0.03711274638772011
1772562346345838800,3.2508388671875,0.014358965680003166,-0.01955718919634819,0.04165370389819145
1772562346355906800,3.26090673828125,0.0178154818713665,-0.009346630424261093,0.05019738897681236
1772562346365973800,3.270973876953125,0.018397117033600807,-0.015592275187373161,0.06538379937410355
1772562346376040700,3.281040771484375,0.015976568683981895,-0.024867266416549683,0.07277034223079681
1772562346386107600,3.291107666015625,0.00765845226123929,-0.036446426063776016,0.08013318479061127
1772562346396176000,3.30117578125,-0.002638926263898611,-0.0328998938202858,0.07329978048801422
1772562346406242600,3.31124267578125,-0.003044259501621127,-0.00815113727003336,0.06089663878083229
1772562346416309500,3.3213095703125,0.009277653880417347,0.010617757216095924,0.045225001871585846
1772562346426376700,3.331376708984375,0.02251090109348297,0.015153386630117893,0.025432122871279716
1772562346436443600,3.341443603515625,0.030458839610219002,0.017296964302659035,0.0091170659288764
1772562346446511600,3.35151171875,0.03810823708772659,0.007358846720308065,-0.009807622991502285
1772562346456578600,3.36157861328125,0.034932151436805725,0.000532632227987051,-0.029891053214669228
1772562346466645500,3.3716455078125,0.029501432552933693,-0.001430916483514011,-0.04992654547095299
1772562346476712400,3.38171240234375,0.024326112121343613,-0.004742024466395378,-0.06616011261940002
1772562346486780400,3.391780517578125,0.028536835685372353,0.009438509121537209,-0.06637396663427353
1772562346496847400,3.401847412109375,0.03398885950446129,0.026625752449035645,-0.053464025259017944
1772562346506914300,3.411914306640625,0.024401213973760605,0.02178492397069931,-0.042149052023887634
1772562346516981500,3.4219814453125,0.0051713259890675545,0.005118861794471741,-0.029942452907562256
1772562346527048700,3.432048583984375,-0.007314638234674931,-0.011325358413159847,-0.014517157338559628
1772562346537116400,3.442116455078125,-0.018029866740107536,-0.034514568746089935,-0.007762582041323185
1772562346547183600,3.45218359375,-0.028594626113772392,-0.05768353492021561,-0.003413107246160507
1772562346557250600,3.46225048828125,-0.02027038484811783,-0.06360267847776413,-0.014300642535090446
1772562346567317500,3.4723173828125,-0.005014732480049133,-0.03669223561882973,-0.02141580916941166
1772562346577385500,3.482385498046875,0.006144977640360594,-0.004838164895772934,-0.025781529024243355
1772562346587452400,3.492452392578125,0.002490588231012225,0.009816678240895271,-0.03568902239203453
1772562346597519400,3.502519287109375,-0.0003043993201572448,0.011974371038377285,-0.03858121484518051
1772562346607586300,3.51258642578125,0.0019267969764769077,0.01727512665092945,-0.033371806144714355
1772562346617653500,3.522653564453125,0.005348426289856434,0.02514450065791607,-0.019575832411646843
1772562346627721500,3.532721435546875,0.0010042780777439475,0.01745249330997467,-0.004881840664893389
1772562346637788400,3.542788330078125,-0.0059692091308534145,0.00466559175401926,0.010610832832753658
1772562346647855600,3.552855712890625,-0.0070222229696810246,-0.0012884372845292091,0.02913285233080387
1772562346657922600,3.562922607421875,-0.0076334187760949135,-0.014312360435724258,0.042630285024642944
1772562346667990500,3.572990478515625,-0.010028932243585587,-0.02702682465314865,0.04687802493572235
1772562346678057500,3.583057373046875,-0.010877414606511593,-0.03766961395740509,0.049980610609054565
1772562346688124400,3.59312451171875,-0.009541839361190796,-0.03531724587082863,0.04532007873058319
1772562346698191400,3.60319140625,-0.00433003343641758,-0.022309565916657448,0.03133795037865639
1772562346708259600,3.613259521484375,0.0015630092239007354,0.0004948153509758413,0.015476161614060402
1772562346718326500,3.623326416015625,0.002237055217847228,0.02503504604101181,-0.0022383867762982845
1772562346728393500,3.6333935546875,0.003014165675267577,0.03785550221800804,-0.020349746569991112
1772562346738460400,3.64346044921875,0.0049470881931483746,0.03795430809259415,-0.027366111055016518
1772562346748527600,3.653527587890625,0.0046576024033129215,0.02528351917862892,-0.023440077900886536
1772562346758595600,3.663595703125,-0.004718588665127754,0.005914348177611828,-0.01822773925960064
1772562346768662500,3.67366259765625,-0.010550645180046558,-0.02262062393128872,-0.010356234386563301
1772562346778729500,3.6837294921875,-0.010720288380980492,-0.03407807648181915,0.0011595403775572777
1772562346788796400,3.69379638671875,-0.004609399009495974,-0.035228293389081955,0.009769540280103683
1772562346798864600,3.70386474609375,0.0015749934827908874,-0.02677089348435402,0.00669412175193429
1772562346808931600,3.713931640625,0.007379885762929916,0.0006032059900462627,0.005982525181025267
1772562346818998500,3.72399853515625,0.009319731965661049,0.03635161742568016,0.009465939365327358
1772562346829065500,3.7340654296875,0.0015363775892183185,0.040772996842861176,0.019146529957652092
1772562346839132700,3.744132568359375,-0.006592921447008848,0.01284842099994421,0.026698455214500427
1772562346849200400,3.754200439453125,-0.014814632013440132,-0.031311582773923874,0.03552230820059776
1772562346859267600,3.764267578125,-0.010222011245787144,-0.07184862345457077,0.039044339209795
1772562346869334500,3.77433447265625,-0.0007981493836268783,-0.07698532938957214,0.03668690845370293
1772562346879401500,3.7844013671875,0.0067657604813575745,-0.04694141075015068,0.03564534708857536
1772562346889469400,3.794469482421875,0.009541839361190796,-0.00038456046604551375,0.03273690864443779
1772562346899536600,3.80453662109375,0.008095476776361465,0.036796629428863525,0.026195917278528214
1772562346909603600,3.814603515625,0.004426972474902868,0.033665552735328674,0.020355604588985443
1772562346919670500,3.82467041015625,0.0024889903143048286,0.002217081608250737,0.012795424088835716
1772562346929737500,3.834737548828125,0.007888282649219036,-0.030192790552973747,0.0086028091609478
1772562346939805400,3.844805419921875,0.019695142284035683,-0.029643911868333817,0.009240902960300446
1772562346949872400,3.854872314453125,0.022487731650471687,-0.010487528517842293,0.01816941611468792
1772562346959939600,3.864939697265625,0.020066386088728905,0.018862636759877205,0.025659024715423584
1772562346970006500,3.875006591796875,0.02322862297296524,0.04385161027312279,0.024236364290118217
1772562346980074500,3.885074462890625,0.027346136048436165,0.042085666209459305,0.026938673108816147
1772562346990141400,3.895141357421875,0.03766029328107834,0.009865946136415005,0.022537000477313995
1772562347000208400,3.90520849609375,0.04572727531194687,-0.0377255417406559,0.013214338570833206
1772562347010275600,3.915275634765625,0.047504667192697525,-0.05862975865602493,0.007407582364976406
1772562347020342500,3.925342529296875,0.0515151210129261,-0.03937244042754173,0.008963934145867825
1772562347030410500,3.935410400390625,0.04605058208107948,0.00020879182557109743,0.011897938326001167
1772562347040477400,3.9454775390625,0.034575819969177246,0.04030587896704674,0.021810756996273994
1772562347050544400,3.95554443359375,0.020564131438732147,0.05699297785758972,0.02623772993683815
1772562347060611600,3.965611572265625,0.003078880487009883,0.030002640560269356,0.02695837989449501
1772562347070679600,3.975679443359375,-0.007165501359850168,-0.03778013586997986,0.02040647156536579
1772562347080746500,3.98574658203125,-0.0014676681021228433,-0.08127141743898392,0.0013488910626620054
1772562347090813400,3.9958134765625,0.010691792704164982,-0.08937036246061325,-0.01919206976890564
1772562347100880400,4.00588037109375,0.020689832046628,-0.04592727869749069,-0.041672613471746445
1772562347110948600,4.015948486328125,0.02731604315340519,0.020180368795990944,-0.05871790647506714
1772562347121015600,4.026015625,0.028842566534876823,0.052324458956718445,-0.06847280263900757
1772562347131082500,4.03608251953125,0.02857891470193863,0.042455047369003296,-0.07296662032604218
1772562347141149400,4.0461494140625,0.028569325804710388,0.006133259739726782,-0.06376060098409653
1772562347151216400,4.05621630859375,0.020667994394898415,-0.02279559336602688,-0.04386679083108902
1772562347161284400,4.066284423828125,0.010237723588943481,-0.025239042937755585,-0.025014007464051247
1772562347171351600,4.0763515625,-0.0003110571997240186,-0.006076801102608442,0.0028666264843195677
1772562347181418500,4.08641845703125,-0.004703408572822809,0.010359430685639381,0.018625881522893906
1772562347191485400,4.0964853515625,-0.008718390017747879,0.014840731397271156,0.03134354203939438
1772562347201553700,4.1065537109375,-0.006313023157417774,0.016987772658467293,0.03873434662818909
1772562347211620600,4.11662060546875,-0.009196427650749683,-0.0010197244118899107,0.043777573853731155
1772562347221687600,4.1266875,-0.014422082342207432,-0.02292742021381855,0.04614938423037529
1772562347231754500,4.13675439453125,-0.02340865321457386,-0.015964850783348083,0.0408579520881176
1772562347241821400,4.146821533203125,-0.02383023127913475,-0.0032109732273966074,0.0412619523704052
1772562347251889400,4.156889404296875,-0.01895824447274208,0.0073388731107115746,0.03285595029592514
1772562347261956400,4.166956298828125,-0.01038313191384077,0.008913333527743816,0.018925754353404045
1772562347272023600,4.1770234375,-0.00008921589324017987,0.00965662207454443,0.012220979668200016
1772562347282090500,4.187090576171875,0.009644904173910618,-0.0023129554465413094,0.007516772020608187
1772562347292158700,4.19715869140625,0.01642344892024994,-0.011630557477474213,0.010544519871473312
1772562347302225700,4.2072255859375,0.02232607826590538,-0.026550117880105972,0.010404437780380249
1772562347312292600,4.217292724609375,0.020531639456748962,-0.043234556913375854,0.005894640926271677
1772562347322359600,4.227359619140625,0.02203206531703472,-0.03982943668961525,0.005664277356117964
1772562347332427500,4.237427490234375,0.02828836254775524,-0.023379890248179436,0.008714129216969013
1772562347342494500,4.247494384765625,0.027159715071320534,-0.015602661296725273,0.017131315544247627
1772562347352561400,4.2575615234375,0.019404057413339615,-0.01037540938705206,0.02143098972737789
1772562347362628400,4.26762841796875,0.002439721953123808,-0.00023808660625945777,0.024684840813279152
1772562347372695600,4.277695556640625,0.0006974819116294384,0.008837966248393059,0.030113693326711655
1772562347382763300,4.28776318359375,-0.00038456046604551375,0.010526676662266254,0.03307086601853371
1772562347392830700,4.297830810546875,-0.004004861693829298,0.005345496814697981,0.03152410313487053
1772562347402897700,4.307897705078125,0.003029612125828862,-0.005192098673433065,0.027219902724027634
1772562347412964600,4.317964599609375,0.010435863398015499,0.0018953717080876231,0.023134879767894745
1772562347423032600,4.328032470703125,0.015960857272148132,0.014212491922080517,0.01908261515200138
1772562347433099500,4.338099609375,0.014595188200473785,0.01456056721508503,0.01184973493218422
1772562347443166700,4.348166748046875,0.007523962762206793,0.003567836945876479,-0.00293293921276927
1772562347453233700,4.358233642578125,0.0010655306978151202,-0.007779093459248543,-0.006548446603119373
1772562347463300600,4.368300537109375,-0.006676278542727232,-0.02160036750137806,-0.012444951571524143
1772562347473368600,4.37836865234375,-0.014214089140295982,-0.019087674096226692,-0.016101738438010216
1772562347483435500,4.388435546875,-0.018862370401620865,-0.0188975241035223,-0.017522800713777542
1772562347493502700,4.398502685546875,-0.019633889198303223,-0.014681740663945675,-0.01865917257964611
1772562347503569700,4.408569580078125,-0.01782134175300598,-0.017782459035515785,-0.024597754701972008
1772562347513637600,4.4186376953125,-0.017962755635380745,-0.024529578164219856,-0.03015657141804695
1772562347523704600,4.42870458984375,-0.022847259417176247,-0.022603578865528107,-0.03608609735965729
1772562347533771500,4.438771484375,-0.025547970086336136,-0.012774650938808918,-0.03151930868625641
1772562347543838500,4.44883837890625,-0.03313611447811127,-0.004482100252062082,-0.035039741545915604
1772562347553905700,4.45890576171875,-0.045397043228149414,-0.0014413028256967664,-0.03803260251879692
1772562347563973600,4.4689736328125,-0.04518958181142807,0.013101154938340187,-0.032579246908426285
1772562347574040600,4.47904052734375,-0.041553303599357605,0.018321482464671135,-0.023513581603765488
1772562347584107500,4.489107421875,-0.03749570995569229,0.010247843340039253,-0.020107664167881012
1772562347594174700,4.4991748046875,-0.03569860756397247,-0.007795338984578848,-0.018445320427417755
1772562347604242700,4.50924267578125,-0.035343874245882034,-0.022586269304156303,-0.018499381840229034
1772562347614309600,4.5193095703125,-0.03717000409960747,-0.03952450677752495,-0.02682974934577942
1772562347624376600,4.52937646484375,-0.04092293232679367,-0.038113296031951904,-0.0317201130092144
1772562347634443500,4.539443603515625,-0.03871091082692146,-0.016201872378587723,-0.03708318620920181
1772562347644511700,4.54951171875,-0.036849625408649445,0.0097463708370924,-0.04152187705039978
1772562347654578700,4.55957861328125,-0.037702903151512146,0.016042083501815796,-0.04006752371788025
1772562347664645600,4.569645751953125,-0.03746428340673447,0.009367402642965317,-0.043542418628931046
1772562347674712600,4.579712646484375,-0.03352733328938484,0.0010793792316690087,-0.03729623928666115
1772562347684779500,4.589779541015625,-0.024400414898991585,-0.0002612560929264873,-0.021946310997009277
1772562347694847500,4.599847412109375,-0.020910607650876045,-0.00245117349550128,-0.00794314406812191
1772562347704914700,4.609914794921875,-0.01654648594558239,-0.007183610461652279,0.006935404147952795
1772562347714981600,4.619981689453125,-0.012337892316281796,-0.0057156761176884174,0.024574585258960724
1772562347725048600,4.630048583984375,-0.010092315264046192,-0.007110373582690954,0.038775358349084854
1772562347735116800,4.64011669921875,-0.012618323788046837,-0.004367584362626076,0.043779972940683365
1772562347745183700,4.650183837890625,-0.015340873040258884,-0.007684551179409027,0.04035594314336777
1772562347755250700,4.660250732421875,-0.016411464661359787,-0.02148718200623989,0.04099297150969505
1772562347765317600,4.670317626953125,-0.01426548883318901,-0.030011428520083427,0.03308924287557602
1772562347775384600,4.680384521484375,-0.009840380400419235,-0.027474502101540565,0.02532453089952469
1772562347785452500,4.69045263671875,-0.000818123109638691,-0.018394986167550087,0.01092455256730318
1772562347795519500,4.70051953125,0.0016104135429486632,0.00475374236702919,0.0009006810723803937
1772562347805586700,4.710586669921875,0.008066448383033276,0.0217156819999218,-0.011091266758739948
1772562347815653600,4.720653564453125,0.00932372733950615,0.023003851994872093,-0.01870817318558693
1772562347825721600,4.7307216796875,0.004553472623229027,0.01116423774510622,-0.029335783794522285
1772562347835788800,4.740788818359375,0.00865980051457882,0.008126369677484035,-0.03308125585317612
1772562347845855700,4.750855712890625,0.009197226725518703,0.014829546213150024,-0.0344993881881237
1772562347855922700,4.760922607421875,0.00694978516548872,0.028930451720952988,-0.02654239535331726
1772562347865989600,4.77098974609375,0.0030357372015714645,0.023419305682182312,-0.017728397622704506
1772562347876057600,4.7810576171875,0.004580636974424124,0.000999750685878098,-0.010908840224146843
1772562347886124500,4.79112451171875,0.007474960293620825,-0.027383953332901,-0.005657086614519358
1772562347896191500,4.80119140625,0.0075697689317166805,-0.03628477081656456,-0.004289553500711918
1772562347906258700,4.8112587890625,0.008793491870164871,-0.022701051086187363,0.000601075473241508
1772562347916324600,4.82132470703125,0.0038514635525643826,0.0010106696281582117,0.007802529260516167
1772562347926392600,4.831392578125,-0.0012900352012366056,-0.0016194682102650404,0.01019617822021246
1772562347936459500,4.84145947265625,-0.0052027516067028046,-0.026023877784609795,0.0070701600052416325
1772562347946526500,4.8515263671875,-0.00498091010376811,-0.0485353097319603,0.0036844832357019186
1772562347956593400,4.861593505859375,-0.004944158717989922,-0.05366269499063492,-0.00866246409714222
1772562347966661600,4.87166162109375,-0.00890667550265789,-0.02502492628991604,-0.017825335264205933
1772562347976728600,4.881728515625,-0.01601598411798477,0.007666441611945629,-0.026520824059844017
1772562347986795800,4.891795654296875,-0.016531039029359818,0.021710088476538658,-0.03147749975323677
1772562347996862700,4.90186279296875,-0.01625460386276245,0.0049497513100504875,-0.03328125923871994
1772562348006929700,4.9119296875,-0.012064652517437935,-0.009364739991724491,-0.03472549095749855
1772562348016997600,4.92199755859375,-0.008802812546491623,-0.019830163568258286,-0.03163622319698334
1772562348027064600,4.932064697265625,-0.011138671077787876,-0.019183814525604248,-0.028143754228949547
1772562348037131500,4.942131591796875,-0.013865748420357704,-0.012081963010132313,-0.022116754204034805
1772562348047198500,4.952198486328125,-0.02684253267943859,-0.005601426586508751,-0.019458919763565063
1772562348057266700,4.9622666015625,-0.03305382281541824,-0.0005147890187799931,-0.011480354703962803
1772562348067333600,4.972333740234375,-0.035421907901763916,-0.0009933591354638338,-0.005827528890222311
1772562348077400600,4.982400634765625,-0.031265512108802795,-0.006642722524702549,-0.009255017153918743
1772562348087467800,4.9924677734375,-0.027242006734013557,-0.015411180444061756,-0.015741677954792976
1772562348097534700,5.00253466796875,-0.025652898475527763,-0.0343497171998024,-0.029816485941410065
1772562348107602700,5.012602783203125,-0.017966749146580696,-0.03723179176449776,-0.036731116473674774
1772562348117669600,5.022669677734375,-0.00681263254955411,-0.018071677535772324,-0.03531218320131302
1772562348127736600,5.032736572265625,-0.0038930089212954044,0.003926298581063747,-0.028257470577955246
1772562348137803500,5.042803466796875,-0.008980445563793182,0.022782810032367706,-0.017785388976335526
1772562348147871700,5.052871826171875,-0.024277109652757645,0.011530954390764236,-0.007644603960216045
1772562348157938700,5.062938720703125,-0.04061666876077652,-0.01565432734787464,-0.007784153334796429
1772562348168005600,5.073005615234375,-0.05269596725702286,-0.03178269788622856,-0.012131230905652046
1772562348178072600,5.083072509765625,-0.05663371831178665,-0.03873914107680321,-0.023794544860720634
1772562348188139800,5.093139892578125,-0.05568217113614082,-0.036262933164834976,-0.033008817583322525
1772562348198207700,5.103207763671875,-0.04658401384949684,-0.014198643155395985,-0.04607987776398659
1772562348208274700,5.113274658203125,-0.025041703134775162,0.013103284873068333,-0.05349544808268547
1772562348218341600,5.123341552734375,-0.012796754948794842,0.0339939184486866,-0.054795071482658386
1772562348228408600,5.13340869140625,-0.00133850472047925,0.04517893120646477,-0.04019562155008316
1772562348238476500,5.1434765625,0.0033659692853689194,0.044187966734170914,-0.02257002331316471
1772562348248543500,5.15354345703125,-0.0031973912846297026,0.021939121186733246,0.00170761882327497
1772562348258610700,5.163610595703125,-0.00896952673792839,-0.001330249011516571,0.02654319442808628
1772562348268677600,5.173677734375,-0.01531850267201662,-0.022602779790759087,0.0506645105779171
1772562348278744600,5.18374462890625,-0.012647085823118687,-0.03484373539686203,0.056123457849025726
1772562348288812500,5.1938125,-0.0073655047453939915,-0.026044650003314018,0.05326082557439804
1772562348298879700,5.203879638671875,0.0023401195649057627,0.006392385344952345,0.04153040051460266
1772562348308946700,5.21394677734375,-0.0002103897277265787,0.026023345068097115,0.03623497113585472
1772562348319013600,5.224013671875,-0.0064925202168524265,0.028486236929893494,0.027463315054774284
1772562348329081600,5.23408154296875,-0.006853645201772451,0.019084211438894272,0.028416460379958153
1772562348339148500,5.2441484375,-0.00603392394259572,-0.005419799126684666,0.026078738272190094
1772562348349215500,5.254215576171875,-0.0075940038077533245,-0.03232758119702339,0.019707391038537025
1772562348359282700,5.26428271484375,-0.011777297593653202,-0.038480814546346664,0.00339153571985662
1772562348369349600,5.274349609375,-0.005874134600162506,-0.01756328158080578,-0.008695753291249275
1772562348379417600,5.28441748046875,-0.0038013961166143417,0.015780827030539513,-0.01956358179450035
1772562348389484500,5.294484619140625,-0.003611246356740594,0.04351658374071121,-0.018306834623217583
1772562348399551700,5.3045517578125,-0.0026205505710095167,0.04095648601651192,-0.008217183873057365
1772562348409619000,5.314618896484375,-0.006592388730496168,0.012113654054701328,-0.0019571571610867977
1772562348419687000,5.32468701171875,-0.008963667787611485,-0.01979474350810051,0.0006836334359832108
1772562348429753900,5.33475390625,-0.011640144512057304,-0.035465583205223083,0.004885302856564522
1772562348439820800,5.34482080078125,-0.011070494540035725,-0.016396550461649895,0.007707454264163971
1772562348449887700,5.3548876953125,-0.007421431131660938,0.019819511100649834,0.012005530297756195
1772562348459955700,5.364955810546875,-0.010684601962566376,0.03374384716153145,0.01715901307761669
1772562348470022700,5.375022705078125,-0.012732306495308876,0.020892232656478882,0.024657675996422768
1772562348480089600,5.385089599609375,-0.008467254228889942,-0.006148706190288067,0.025294970721006393
1772562348490156500,5.395156494140625,-0.004806206561625004,-0.019816847518086433,0.02069888636469841
1772562348500223700,5.4052236328125,0.0000351537273672875,-0.011990083381533623,0.018133463338017464
1772562348510291700,5.415291748046875,0.00042637207661755383,0.012462794780731201,0.014241253957152367
1772562348520359000,5.42535888671875,0.00009693906031316146,0.02635064721107483,0.021613681688904762
1772562348530425900,5.43542578125,-0.010759437456727028,0.01889832317829132,0.03224821761250496
1772562348540492800,5.445492919921875,-0.018017349764704704,-0.014749917201697826,0.04241057485342026
1772562348550560800,5.455560791015625,-0.017848504707217216,-0.04586895555257797,0.04737364128232002
1772562348560627700,5.465627685546875,-0.008225705474615097,-0.04999179393053055,0.04370433837175369
1772562348570694700,5.475694580078125,0.002160090021789074,-0.028653481975197792,0.0381937250494957
1772562348580761600,5.48576171875,0.006426207721233368,0.004139084834605455,0.027453728020191193
1772562348590828500,5.49582861328125,0.0060054282657802105,0.02154683694243431,0.01565299555659294
1772562348600896800,5.505896728515625,0.004001133143901825,0.018184863030910492,0.015311045572161674
1772562348610963700,5.515963623046875,0.003754790872335434,0.010824950411915779,0.022949257865548134
1772562348621031000,5.526031005859375,-0.009163937531411648,-0.01738857664167881,0.03670128807425499
1772562348631097900,5.536097900390625,-0.016452476382255554,-0.03772687166929245,0.0404219925403595
1772562348641165800,5.546165771484375,-0.021270135417580605,-0.034399520605802536,0.04319966956973076
1772562348651232800,5.556232666015625,-0.019755594432353973,-0.01137036643922329,0.053936734795570374
1772562348661299700,5.5662998046875,-0.01756541058421135,0.016351277008652687,0.0526546873152256
1772562348671366700,5.57636669921875,-0.00717748561874032,0.026317624375224113,0.052504751831293106
1772562348681433600,5.58643359375,0.0004679173871409148,0.011469169519841671,0.04856114462018013
1772562348691501800,5.596501708984375,-0.000017310547264060006,-0.008263256400823593,0.05168689787387848
1772562348701568800,5.60656884765625,-0.012533901259303093,-0.023182816803455353,0.04730040207505226
1772562348711635700,5.6166357421875,-0.027367176488041878,-0.030041255056858063,0.051650676876306534
1772562348721703000,5.626702880859375,-0.03966645151376724,-0.032871928066015244,0.05476630851626396
1772562348731771000,5.63677099609375,-0.04461114481091499,-0.026568759232759476,0.04826739802956581
1772562348741837800,5.646837890625,-0.038473621010780334,-0.023239275440573692,0.03219415619969368
1772562348751904800,5.65690478515625,-0.02990703284740448,-0.012371182441711426,0.011954396963119507
1772562348761971700,5.6669716796875,-0.015024756081402302,0.01654914952814579,-0.007695470005273819
1772562348772038700,5.67703857421875,-0.0009315737406723201,0.04665112495422363,-0.008558068424463272
1772562348782106600,5.687106689453125,0.009545568376779556,0.048050083220005035,-0.005096491426229477
1772562348792173800,5.697173828125,0.00999351218342781,0.021564148366451263,0.0033017871901392937
1772562348802240800,5.70724072265625,0.013363742269575596,-0.016225041821599007,0.020606741309165955
1772562348812307700,5.7173076171875,0.010876350104808807,-0.05747634172439575,0.030540598556399345
1772562348822375700,5.727375732421875,0.011729094199836254,-0.07303213328123093,0.03647012636065483
1772562348832443000,5.73744287109375,0.009965548291802406,-0.06854603439569473,0.03940333053469658
1772562348842509800,5.747509765625,0.011152519844472408,-0.042343463748693466,0.0370648093521595
1772562348852576800,5.75757666015625,0.010217750445008278,-0.012735769152641296,0.03429245948791504
1772562348862644700,5.767644775390625,0.007105580065399408,0.013706224970519543,0.02454289421439171
1772562348872711700,5.777711669921875,0.008763664402067661,0.02726038359105587,0.018064221367239952
1772562348882778600,5.787778564453125,0.01678856648504734,0.01870764046907425,0.014839665964245796
1772562348892845600,5.797845458984375,0.03117762692272663,-0.011409780941903591,0.013419668190181255
1772562348902912800,5.807912841796875,0.04141614958643913,-0.044019654393196106,0.017668742686510086
1772562348912980700,5.817980712890625,0.045393045991659164,-0.057364221662282944,0.02099263295531273
1772562348923047700,5.828047607421875,0.043422307819128036,-0.0427866131067276,0.02576262131333351
1772562348933115000,5.838114990234375,0.03623230755329132,-0.003162237349897623,0.03500432148575783
1772562348943181800,5.848181884765625,0.031193340197205544,0.027093403041362762,0.03588103502988815
1772562348953249800,5.858249755859375,0.03340669348835945,0.020745491608977318,0.03543176129460335
1772562348963316700,5.868316650390625,0.03939560800790787,-0.010782873257994652,0.03526584431529045
1772562348973383700,5.8783837890625,0.04838830605149269,-0.03753912076354027,0.03229935094714165
1772562348983450600,5.88845068359375,0.054114099591970444,-0.05674051120877266,0.016625581309199333
1772562348993517600,5.898517578125,0.06029130518436432,-0.0379875972867012,0.0012708604335784912
1772562349003585800,5.908585693359375,0.06461627781391144,0.0016567525453865528,-0.0005102616851218045
1772562349013652700,5.91865283203125,0.06010088697075844,0.042399656027555466,-0.0026293389964848757
1772562349023719700,5.9287197265625,0.05043840780854225,0.05270795151591301,0.010269948281347752
1772562349033787000,5.938786865234375,0.03711807355284691,0.030915837734937668,0.02491360530257225
1772562349043854600,5.9488544921875,0.027330957353115082,0.0015686018159613013,0.04176262766122818
1772562349053921800,5.958921875,0.024570057168602943,-0.023326361551880836,0.053829144686460495
1772562349063988700,5.96898876953125,0.029169868677854538,-0.030822893604636192,0.0597514808177948
1772562349074055700,5.9790556640625,0.03293105214834213,-0.027636688202619553,0.06701019406318665
1772562349084124000,5.9891240234375,0.039438217878341675,-0.011300325393676758,0.06476088613271713
1772562349094190800,5.99919091796875,0.044249486178159714,0.001255414099432528,0.06394729018211365
1772562349104257800,6.0092578125,0.04110828787088394,-0.00461765518411994,0.057561032474040985
1772562349114324700,6.01932470703125,0.03526664525270462,-0.023806529119610786,0.048290032893419266
1772562349124391700,6.0293916015625,0.03049958497285843,-0.03428659960627556,0.03195234015583992
1772562349134459600,6.039459716796875,0.016394153237342834,-0.027416177093982697,0.01972843147814274
1772562349144526800,6.04952685546875,0.004311391618102789,-0.01085664238780737,0.016036756336688995
1772562349154593800,6.05959375,-0.010750648565590382,0.008666991256177425,0.02695571817457676
1772562349164660700,6.06966064453125,-0.01913800835609436,0.016953416168689728,0.04065714776515961
1772562349174728700,6.079728759765625,-0.025591911748051643,-0.002332130214199424,0.06469883769750595
1772562349184796000,6.0897958984375,-0.0313107855618,-0.03928402438759804,0.08016540855169296
1772562349194862800,6.09986279296875,-0.04238287732005119,-0.06818118691444397,0.08929605782032013
1772562349204929800,6.1099296875,-0.050571031868457794,-0.06993594020605087,0.09775585681200027
1772562349214996700,6.119996826171875,-0.053104497492313385,-0.04713102802634239,0.10117988288402557
1772562349225064700,6.130064697265625,-0.052394233644008636,-0.017605891451239586,0.09783308953046799
1772562349235131600,6.140131591796875,-0.05178916081786156,-0.006946056615561247,0.08672131597995758
1772562349245198800,6.15019873046875,-0.05102669820189476,-0.019365176558494568,0.07298099994659424
1772562349255265800,6.160265869140625,-0.0536712184548378,-0.03880465403199196,0.05416470021009445
1772562349265333800,6.170333740234375,-0.04911508038640022,-0.05644862726330757,0.024689100682735443
1772562349275400700,6.180400634765625,-0.03922862932085991,-0.047928642481565475,-0.0020210728980600834
1772562349285467600,6.190467529296875,-0.02737330086529255,-0.018367022275924683,-0.01852494850754738
1772562349295534800,6.200534912109375,-0.017907094210386276,0.005648298189043999,-0.031083883717656136
1772562349305602800,6.210602783203125,-0.01555232796818018,0.024825988337397575,-0.03772713989019394
1772562349315669800,6.220669677734375,-0.016228770837187767,0.0355481393635273,-0.026971962302923203
1772562349325736700,6.23073681640625,-0.018092185258865356,0.028077973052859306,-0.012577044777572155
1772562349335803600,6.2408037109375,-0.023746874183416367,0.012055597268044949,0.006433132104575634
1772562349345870800,6.250870849609375,-0.030436735600233078,-0.013324061408638954,0.028020182624459267
1772562349355938600,6.2609384765625,-0.038349252194166183,-0.03675055876374245,0.043228697031736374
1772562349366005800,6.271005859375,-0.0406893715262413,-0.04766365885734558,0.05209489166736603
1772562349376072700,6.28107275390625,-0.034930817782878876,-0.04940297082066536,0.04921867698431015
1772562349386139600,6.2911396484375,-0.02630377560853958,-0.03487835451960564,0.040647029876708984
1772562349396207900,6.301207763671875,-0.015139005146920681,-0.011089402250945568,0.028137361630797386
1772562349406274800,6.31127490234375,-0.0029904635157436132,0.020532172173261642,0.008411328308284283
1772562349416341500,6.321341552734375,-0.003176884725689888,0.027058782055974007,-0.00478463526815176
1772562349426408400,6.331408447265625,-0.0012431635987013578,0.0071095749735832214,-0.01613369584083557
1772562349436475400,6.341475341796875,0.002031459240242839,-0.014572285115718842,-0.020538831129670143
1772562349446543600,6.351543701171875,0.00965395849198103,-0.03436543047428131,-0.018367554992437363
1772562349456610600,6.361610595703125,0.01197889819741249,-0.03959507867693901,-0.0160647202283144
1772562349466677800,6.371677734375,0.009553823620080948,-0.02448989637196064,-0.012418320402503014
1772562349476744700,6.38174462890625,0.0018269284628331661,-0.0021369203459471464,-0.008477373979985714
1772562349486812700,6.391812744140625,-0.002510828198865056,0.018608305603265762,0.0003406183095648885
1772562349496879600,6.401879638671875,-0.0046152579598128796,0.022540463134646416,0.005645368713885546
1772562349506946600,6.411946533203125,-0.0029579729307442904,0.008326905779540539,0.014112623408436775
1772562349517013500,6.422013427734375,0.0057444386184215546,-0.020788902416825294,0.01883281022310257
1772562349527080400,6.43208056640625,0.011373828165233135,-0.053414490073919296,0.023804664611816406
1772562349537148700,6.442148681640625,0.017431454733014107,-0.06382132321596146,0.02088264562189579
1772562349547215600,6.452215576171875,0.011553059332072735,-0.03874846175312996,0.01347745954990387
1772562349557282600,6.462282470703125,0.006365753710269928,-0.0014032195322215557,0.006715959403663874
1772562349567349800,6.472349853515625,-0.0026343988720327616,0.023379623889923096,-0.006140983197838068
1772562349577417700,6.482417724609375,-0.005762814078480005,0.017601363360881805,-0.017284180968999863
1772562349587484700,6.492484619140625,-0.0019622170366346836,-0.004150004126131535,-0.01745462417602539
1772562349597551600,6.502551513671875,0.0014655375853180885,-0.024938106536865234,-0.015660185366868973
1772562349607618600,6.51261865234375,0.0025827335193753242,-0.04060228914022446,-0.019652796909213066
1772562349617686500,6.5226865234375,0.0025241440162062645,-0.029628731310367584,-0.022832611575722694
1772562349627753700,6.532753662109375,0.0011914982460439205,-0.007318899035453796,-0.01949167624115944
1772562349637820700,6.542820556640625,-0.005629390012472868,0.0011851066956296563,-0.015923839062452316
1772562349647887600,6.5528876953125,-0.012989302165806293,-0.00493244081735611,-0.00836818479001522
1772562349657954800,6.562954833984375,-0.018686601892113686,-0.02064189501106739,-0.0047087352722883224
1772562349668022500,6.5730224609375,-0.028013525530695915,-0.04012371599674225,-0.0002996056282427162
1772562349678089700,6.58308984375,-0.03670714795589447,-0.050162769854068756,-0.001139033935032785
1772562349688156700,6.59315673828125,-0.03881077840924263,-0.03720329329371452,-0.006617955397814512
1772562349698223600,6.6032236328125,-0.041609227657318115,-0.025412149727344513,-0.006843258626759052
1772562349708291600,6.61329150390625,-0.04508918151259422,-0.011950668878853321,-0.015614645555615425
1772562349718358500,6.623358642578125,-0.0462881363928318,-0.007647267077118158,-0.029266009107232094
1772562349728425500,6.633425537109375,-0.04838084802031517,-0.009243831969797611,-0.04289766773581505
1772562349738492700,6.64349267578125,-0.04447532072663307,-0.002898584585636854,-0.05690962076187134
1772562349748560600,6.653560546875,-0.03621126711368561,0.01185346394777298,-0.06860861927270889
1772562349758627600,6.663627685546875,-0.027634290978312492,0.02226162888109684,-0.07605908066034317
1772562349768694500,6.673694580078125,-0.021290641278028488,0.02387950010597706,-0.07702767103910446
1772562349778761700,6.68376171875,-0.019588882103562355,0.009194031357765198,-0.07135886698961258
1772562349788828700,6.69382861328125,-0.020861072465777397,-0.01739124022424221,-0.06402398645877838
1772562349798896600,6.703896728515625,-0.017903633415699005,-0.02538391947746277,-0.05595514550805092
1772562349808963600,6.713963623046875,-0.019599800929427147,-0.02473970130085945,-0.043957602232694626
1772562349819030500,6.724030517578125,-0.021678930148482323,-0.01187849696725607,-0.04209818318486214
1772562349829097500,6.734097412109375,-0.01607137732207775,0.012865731492638588,-0.03939827159047127
1772562349839165700,6.744165771484375,-0.0025827335193753242,0.030426615849137306,-0.03129373863339424
1772562349849232600,6.754232666015625,0.00905714463442564,0.031743016093969345,-0.026080869138240814
1772562349859299600,6.764299560546875,0.014672951772809029,0.010301905684173107,-0.021450430154800415
1772562349869366500,6.774366455078125,0.01907915249466896,-0.015988286584615707,-0.014480139128863811
1772562349879433700,6.784433837890625,0.02016465738415718,-0.035410989075899124,-0.006429936271160841
1772562349889501700,6.794501708984375,0.023508520796895027,-0.03604055941104889,-0.003207244910299778
1772562349899568600,6.804568603515625,0.020614197477698326,-0.022123411297798157,0.0017712684348225594
1772562349909635600,6.814635498046875,0.017190704122185707,-0.008290420286357403,-0.005488774739205837
1772562349919702500,6.82470263671875,0.012401009909808636,-0.004178233444690704,-0.018075406551361084
1772562349929770800,6.834770751953125,0.016502277925610542,-0.0017246630741283298,-0.028723256662487984
1772562349939837700,6.844837646484375,0.01624315232038498,0.0018229337874799967,-0.0382017157971859
1772562349949904600,6.854904541015625,0.014481470920145512,0.0007475492893718183,-0.050144392997026443
1772562349959971600,6.8649716796875,0.01483593787997961,0.008420116268098354,-0.05444273725152016
1772562349970039600,6.87503955078125,0.00863157119601965,0.019524699077010155,-0.06053098663687706
1772562349980106500,6.8851064453125,0.001868473831564188,0.026460902765393257,-0.06138426437973976
1772562349990173700,6.895173583984375,-0.0030780816450715065,0.020005133002996445,-0.06272250413894653
1772562350000240600,6.90524072265625,-0.0030240193009376526,0.00993279181420803,-0.05317693576216698
1772562350010307600,6.9153076171875,-0.00072597770486027,0.003069825703278184,-0.04111867398023605
1772562350020375800,6.925375732421875,-0.0032533176708966494,0.0005629922379739583,-0.026025475934147835
1772562350030442800,6.93544287109375,-0.009572732262313366,-0.004773450084030628,-0.017539313063025475
1772562350040509700,6.945509765625,-0.00615110294893384,0.008839031681418419,-0.007178816944360733
1772562350050576600,6.95557666015625,-0.002915895078331232,0.035054657608270645,0.001005343277938664
1772562350060644600,6.96564453125,-0.00041278995922766626,0.035955335944890976,-0.0022887205705046654
1772562350070711600,6.975711669921875,-0.0005576659459620714,0.017854630947113037,-0.001609081868082285
1772562350080778500,6.985778564453125,0.00504003232344985,-0.011098723858594894,-0.002856240142136812
1772562350090845700,6.995845703125,0.004889563657343388,-0.03711780905723572,-0.013362943194806576
1772562350100912600,7.00591259765625,-0.003424825146794319,-0.03485438600182533,-0.026879817247390747
1772562350110980600,7.015980712890625,-0.010731739923357964,0.002719353651627898,-0.03374757617712021
1772562350121047800,7.0260478515625,-0.014712633565068245,0.053940728306770325,-0.032106004655361176
1772562350131114800,7.03611474609375,-0.019962523132562637,0.06701046228408813,-0.03062155842781067
1772562350141181700,7.046181640625,-0.01823839172720909,0.04482286423444748,-0.026741066947579384
1772562350151249700,7.056249755859375,-0.014062289148569107,0.005674397107213736,-0.017310013994574547
1772562350161316600,7.066316650390625,-0.003887682454660535,-0.03584694862365723,-0.009442503564059734
1772562350171383600,7.076383544921875,-0.0011800467036664486,-0.05367494747042656,-0.008524245582520962
1772562350181450500,7.086450439453125,-0.00105301383882761,-0.041788727045059204,-0.0017901768442243338
1772562350191517700,7.096517578125,-0.0015486282063648105,-0.011655057780444622,-0.004160390235483646
1772562350201585400,7.10658544921875,0.0013651363551616669,0.010824152268469334,-0.01612197794020176
1772562350211652600,7.116652587890625,0.006589459255337715,0.012612997554242611,-0.02611522376537323
1772562350221719600,7.126719482421875,0.012166917324066162,0.014797587879002094,-0.035420309752225876
1772562350231786800,7.136786865234375,0.02375859208405018,0.015085475519299507,-0.04176262766122818
1772562350241854700,7.146854736328125,0.02406672015786171,0.00026844663079828024,-0.0468660406768322
1772562350251921700,7.156921630859375,0.026091255247592926,-0.018250642344355583,-0.05375004559755325
1772562350261988600,7.166988525390625,0.030161364004015923,-0.02510109171271324,-0.05132816731929779
1772562350272055600,7.1770556640625,0.0309872105717659,-0.023688284680247307,-0.0513385534286499
1772562350282123500,7.18712353515625,0.027565848082304,-0.014111291617155075,-0.044198885560035706
1772562350292190500,7.1971904296875,0.02587660402059555,0.013455620966851711,-0.031433023512363434
1772562350302257700,7.207257568359375,0.025349564850330353,0.03343678638339043,-0.013770673424005508
1772562350312324600,7.21732470703125,0.01552463136613369,0.023872043937444687,0.00130894361063838
1772562350322391600,7.2273916015625,0.007660582661628723,-0.010180998593568802,0.016112657263875008
1772562350332459800,7.237459716796875,0.004619785584509373,-0.041732002049684525,0.021152690052986145
1772562350342526700,7.247526611328125,0.004424842074513435,-0.06726346164941788,0.015979498624801636
1772562350352593700,7.25759375,0.005209143273532391,-0.0695660263299942,-0.0013198626693338156
1772562350362660600,7.26766064453125,0.009892311878502369,-0.03937457129359245,-0.023663250729441643
1772562350372728600,7.277728515625,0.01284629013389349,-0.0065529742278158665,-0.056752759963274
1772562350382795500,7.28779541015625,0.011396997608244419,0.027004186064004898,-0.09022256731987
1772562350392862500,7.297862548828125,0.01734117418527603,0.06010062247514725,-0.09538058191537857
1772562350402929700,7.3079296875,0.01061855535954237,0.057314954698085785,-0.0817960649728775
1772562350412997000,7.3179970703125,0.005829659756273031,0.027296336367726326,-0.062421832233667374
1772562350423065000,7.328065185546875,0.004006992094218731,-0.008988967165350914,-0.03443413972854614
1772562350433132300,7.33813232421875,0.0028277444653213024,-0.026015354320406914,-0.011532019823789597
1772562350443199500,7.348199462890625,-0.006521814968436956,-0.028873194009065628,-0.001657285145483911
1772562350453266400,7.358266357421875,-0.005124720744788647,-0.001365668955259025,0.00577932596206665
1772562350463334400,7.36833447265625,-0.004038683604449034,0.021992916241288185,0.001374457380734384
1772562350473401300,7.3784013671875,-0.006866161711513996,0.03442481905221939,-0.0010639328975230455
1772562350483468300,7.38846826171875,-0.00794660672545433,0.02978159673511982,-0.00672235107049346
1772562350493535200,7.39853515625,-0.0006271744496189058,0.01623889058828354,-0.007126086391508579
1772562350503603200,7.408603271484375,0.008974053896963596,0.0003709783486556262,-0.013220996595919132
1772562350513670100,7.418670166015625,0.017914285883307457,-0.013611682690680027,-0.012937103398144245
1772562350523737000,7.428737060546875,0.021320201456546783,-0.02503318153321743,-0.007755657657980919
1772562350533804300,7.43880419921875,0.02087758481502533,-0.030907582491636276,0.0017963021527975798
1772562350543871500,7.44887158203125,0.015745939686894417,-0.029827937483787537,0.004973187111318111
1772562350553939500,7.458939453125,0.004772384651005268,-0.01642397977411747,0.0161262396723032
1772562350564006400,7.46900634765625,-0.01019484642893076,-0.008008924312889576,0.020142287015914917
1772562350574073300,7.4790732421875,-0.017978200688958168,-0.006214752793312073,0.02263207547366619
1772562350584140300,7.489140380859375,-0.019531089812517166,-0.019236279651522636,0.016461264342069626
1772562350594208300,7.499208251953125,-0.009357549250125885,-0.03753219544887543,0.003156911116093397
1772562350604275200,7.509275146484375,0.00498064374551177,-0.041419077664613724,-0.013943511992692947
1772562350614342100,7.519342041015625,0.009693906642496586,-0.013290771283209324,-0.02906307764351368
1772562350624409000,7.5294091796875,0.0038192393258213997,0.021318871527910233,-0.03845817595720291
1772562350634476300,7.539476318359375,-0.002635730430483818,0.043603405356407166,-0.043118175119161606
1772562350644544300,7.549544189453125,-0.009678726084530354,0.03724883496761322,-0.03098827600479126
1772562350654611500,7.559611572265625,-0.01895851083099842,-0.005601692944765091,-0.015566975809633732
1772562350664678400,7.569678466796875,-0.02430427446961403,-0.03790716826915741,0.006515423767268658
1772562350674745300,7.579745361328125,-0.025064073503017426,-0.04773716256022453,0.026995930820703506
1772562350684813300,7.589813232421875,-0.028087826445698738,-0.036376915872097015,0.04249313101172447
1772562350694880300,7.59988037109375,-0.03026283159852028,-0.00549250328913331,0.05381156504154205
1772562350704947200,7.609947265625,-0.029284652322530746,0.00638013519346714,0.05199369415640831
1772562350715014100,7.62001416015625,-0.018977154046297073,0.0005632585380226374,0.043949346989393234
1772562350725082400,7.630082275390625,-0.01104625966399908,-0.010037986561655998,0.02983699180185795
1772562350735149300,7.6401494140625,-0.007496532052755356,-0.018094316124916077,0.015739548951387405
1772562350745216300,7.65021630859375,-0.005976399872452021,-0.013525130227208138,0.0022309301421046257
1772562350755283500,7.660283447265625,-0.009974070824682713,0.0019656792283058167,-0.015975771471858025
1772562350765350400,7.670350341796875,-0.008403604850172997,0.018941467627882957,-0.027966920286417007
1772562350775418400,7.68041845703125,-0.008187090046703815,0.03190813213586807,-0.036793701350688934
1772562350785485300,7.6904853515625,-0.004743888974189758,0.0367143377661705,-0.03573216497898102
1772562350795552300,7.70055224609375,0.00029348034877330065,0.028429243713617325,-0.022105036303400993
1772562350805619200,7.710619140625,0.0010255833622068167,0.01261060032993555,-0.0075487298890948296
1772562350815687200,7.720687255859375,-0.0062341936863958836,-0.013725665397942066,0.0009286442655138671
1772562350825754400,7.73075439453125,-0.012295016087591648,-0.03223783150315285,0.009345032274723053
1772562350835821300,7.7408212890625,-0.01643250323832035,-0.038290929049253464,0.022038988769054413
1772562350845888300,7.75088818359375,-0.01184946857392788,-0.027651067823171616,0.03116537630558014
1772562350855955500,7.76095556640625,-0.003991279285401106,-0.012496083974838257,0.036975063383579254
1772562350866023400,7.7710234375,0.0008841694798320532,-0.004208859521895647,0.036562804132699966
1772562350876090400,7.78109033203125,0.0005845638806931674,-0.015986956655979156,0.02526727318763733
1772562350886157300,7.7911572265625,-0.005802761763334274,-0.0418798066675663,0.008009457029402256
1772562350896224300,7.801224365234375,-0.014256167225539684,-0.0561990886926651,-0.020072244107723236
1772562350906292200,7.811292236328125,-0.01974174752831459,-0.04149817302823067,-0.03960413485765457
1772562350916359200,7.821359130859375,-0.025244370102882385,-0.007655256427824497,-0.04318954795598984
1772562350926426000,7.831426025390625,-0.02569977007806301,0.029094502329826355,-0.04435973986983299
1772562350936493300,7.841493408203125,-0.020313527435064316,0.02864016592502594,-0.032585639506578445
1772562350946561300,7.851561279296875,-0.007391870021820068,0.00800386443734169,-0.01824185438454151
1772562350956628200,7.861628173828125,0.007478688843548298,-0.009290170855820179,0.0003150519623886794
1772562350966695400,7.8716953125,0.015103052370250225,-0.020141221582889557,0.011798069812357426
1772562350976762400,7.881762451171875,0.018440525978803635,-0.028861209750175476,0.02635783702135086
1772562350986829300,7.891829345703125,0.018062356859445572,-0.026065954938530922,0.04339035227894783
1772562350996897300,7.901897216796875,0.008020642213523388,-0.03185193985700607,0.05080112814903259
1772562351006964200,7.911964111328125,0.0013816480059176683,-0.03068627417087555,0.05630375072360039
1772562351017031200,7.92203125,-0.006358297076076269,-0.01889779046177864,0.06871328502893448
1772562351027098000,7.93209814453125,-0.011154649779200554,-0.010360495187342167,0.06586210429668427
1772562351037166300,7.942166259765625,-0.01458666566759348,-0.008438225835561752,0.056778326630592346
1772562351047233300,7.9522333984375,-0.008244880475103855,-0.008897887542843819,0.03707892447710037
1772562351057300200,7.96230029296875,0.0007637945818714797,-0.010510964319109917,0.015605324879288673
1772562351067367400,7.972367431640625,0.013676397502422333,-0.010214287787675858,-0.001270327833481133
1772562351077434400,7.982434326171875,0.02227015234529972,-0.004942294210195541,-0.018623486161231995
1772562351087502300,7.99250244140625,0.02622840739786625,0.00458836043253541,-0.028070250526070595
1772562351097569300,8.0025693359375,0.02250983566045761,0.008296279236674309,-0.030493993312120438
1772562351107636200,8.01263623046875,0.012373845092952251,0.004561728797852993,-0.0296724084764719
1772562351117703200,8.022703125,0.0002825613773893565,-0.005505020264536142,-0.02990596741437912
1772562351127771400,8.032771484375,-0.0015044197207316756,-0.006183859892189503,-0.021075190976262093
1772562351137838300,8.04283837890625,0.0026940538082271814,-0.004060788080096245,-0.017970744520425797
1772562351147905300,8.0529052734375,0.013129650615155697,0.001672198879532516,-0.016758473590016365
1772562351157972200,8.06297216796875,0.024530643597245216,0.009924269281327724,-0.018034927546977997
1772562351168040200,8.073040283203126,0.035960398614406586,0.007415305823087692,-0.012737632729113102
1772562351178107100,8.083107177734375,0.04008190706372261,0.004531368613243103,-0.018685536459088326
1772562351188174300,8.09317431640625,0.03423679992556572,-0.005929794628173113,-0.007232612930238247
1772562351198241300,8.1032412109375,0.019785689190030098,-0.02647528238594532,-0.0057708038948476315
1772562351208308200,8.11330810546875,0.015372831374406815,-0.02040354162454605,0.006639793049544096
1772562351218376400,8.12337646484375,0.017190171405673027,0.007693605963140726,0.01618056744337082
1772562351228443400,8.133443359375,0.012564794160425663,0.02485208585858345,0.019580092281103134
1772562351238510300,8.14351025390625,0.016811471432447433,0.025259284302592278,0.014149108901619911
1772562351248577300,8.153577392578125,0.02123205177485943,-0.0009837717516347766,0.008344748988747597
1772562351258645200,8.163645263671874,0.03195873275399208,-0.02672482095658779,-0.009979397058486938
1772562351268712200,8.173712158203125,0.047864194959402084,-0.02629285678267479,-0.03493880853056908
1772562351278779400,8.183779296875,0.05750856548547745,0.007613711059093475,-0.045944057404994965
1772562351288846300,8.193846435546876,0.05188610032200813,0.05553755909204483,-0.05956053361296654
1772562351298913300,8.203913330078125,0.03628823161125183,0.0848911851644516,-0.05704597383737564
1772562351308981200,8.213981201171874,0.011263307183980942,0.08780734986066818,-0.05584995076060295
1772562351319048200,8.224048095703125,-0.0033742249943315983,0.055327437818050385,-0.05309091508388519
1772562351329115400,8.234115478515625,-0.007663778495043516,0.02219558320939541,-0.05832429230213165
1772562351339182300,8.244182373046876,0.0041089910082519054,0.012783706188201904,-0.05443447828292847
1772562351349250300,8.254250244140625,0.016917996108531952,-0.014481470920145512,-0.06077280268073082
1772562351359317200,8.264317138671874,0.032889239490032196,-0.007366036996245384,-0.06292277574539185
1772562351369384200,8.27438427734375,0.04425081983208656,0.01375309657305479,-0.06227162852883339
1772562351379451400,8.284451416015624,0.048342764377593994,0.038611043244600296,-0.05613570660352707
1772562351389518300,8.294518310546875,0.03722939267754555,0.05095452815294266,-0.0432627834379673
1772562351399586300,8.30458642578125,0.023753533139824867,0.03285035863518715,-0.020482638850808144
1772562351409653200,8.3146533203125,0.004229366313666105,-0.003215500619262457,0.004493551794439554
1772562351419720000,8.324719970703125,-0.014969095587730408,-0.04584045708179474,0.03225860372185707
1772562351429787000,8.334786865234374,-0.0339323990046978,-0.07709424942731857,0.047688160091638565
1772562351439854800,8.344854736328125,-0.04138205945491791,-0.08317264914512634,0.054544467478990555
1772562351449921800,8.354921875,-0.036793701350688934,-0.07126219570636749,0.04313335567712784
1772562351459988700,8.36498876953125,-0.025133315473794937,-0.05471544340252876,0.01992683671414852
1772562351470056000,8.375055908203125,-0.011265969835221767,-0.0254619512706995,-0.0048978193663060665
1772562351480124000,8.3851240234375,0.00935328844934702,0.012367986142635345,-0.02942606620490551
1772562351490191000,8.395191162109375,0.020372383296489716,0.043782901018857956,-0.04187580943107605
1772562351500258000,8.405258056640625,0.024037692695856094,0.05636260658502579,-0.034864239394664764
1772562351510325000,8.415324951171876,0.009300291538238525,0.0400153249502182,-0.020779579877853394
1772562351520392000,8.425391845703125,-0.0038629150949418545,-0.0030980552546679974,0.0029111013282090425
1772562351530460000,8.4354599609375,-0.019775303080677986,-0.051064781844615936,0.021647239103913307
1772562351540526800,8.44552685546875,-0.02364620752632618,-0.07196953147649765,0.033903639763593674
1772562351550593800,8.45559375,-0.02117186412215233,-0.056529320776462555,0.035894617438316345
1772562351560660700,8.46566064453125,-0.014889467507600784,-0.017797106876969337,0.030831947922706604
1772562351570729000,8.47572900390625,-0.005215002223849297,0.020540695637464523,0.017890850082039833
1772562351580796000,8.4857958984375,-0.0018319884547963738,0.01581544801592827,0.005905027035623789
1772562351590863000,8.495863037109375,-0.004014449194073677,-0.011375692673027515,-0.017225591465830803
1772562351600930000,8.505929931640624,-0.0031886028591543436,-0.0390363484621048,-0.032347820699214935
1772562351610997000,8.5159970703125,-0.006207562051713467,-0.050944406539201736,-0.04694220796227455
1772562351621065000,8.52606494140625,-0.007508516311645508,-0.030851922929286957,-0.052687712013721466
1772562351631132000,8.5361318359375,-0.005446164403110743,0.007446464616805315,-0.050269827246665955
1772562351641198800,8.54619873046875,-0.00809228140860796,0.0336996391415596,-0.0516890287399292
1772562351651265800,8.556265869140624,-0.01308384444564581,0.025728799402713776,-0.04210910573601723
1772562351661333800,8.566333740234375,-0.022226208820939064,-0.008095743134617805,-0.029408222064375877
1772562351671401000,8.57640087890625,-0.02985110692679882,-0.0472940132021904,-0.014646054245531559
1772562351681468000,8.586468017578126,-0.02899916097521782,-0.05814506113529205,-0.004178499802947044
1772562351691535000,8.59653515625,-0.03454545885324478,-0.036245089024305344,0.0014687333023175597
1772562351701602800,8.606602783203124,-0.03275501728057861,0.00439075380563736,0.005328985396772623
1772562351711670000,8.616669921875,-0.03406316041946411,0.03949228301644325,0.00869069341570139
1772562351721737000,8.626737060546875,-0.03521790727972984,0.044918205589056015,0.003204581793397665
1772562351731804000,8.636803955078125,-0.039795882999897,0.024386299774050713,0.0017102820565924048
1772562351741870800,8.646870849609375,-0.041438519954681396,0.0027297399938106537,-0.0041121868416666985
1772562351751938800,8.656938720703126,-0.04700452834367752,-0.012137888930737972,-0.003869839245453477
1772562351762005800,8.667005859375,-0.05169062316417694,-0.014664163812994957,-0.011176754720509052
1772562351772072700,8.67707275390625,-0.04970763623714447,-0.013406885787844658,-0.013588779605925083
1772562351782140000,8.687139892578125,-0.043288618326187134,-0.005900499876588583,-0.014823420904576778
1772562351792208000,8.697207763671875,-0.04408863186836243,0.0008934905636124313,-0.01552383229136467
1772562351802274800,8.70727490234375,-0.04591209813952446,0.0046996804885566235,-0.011483816429972649
1772562351812342000,8.717342041015625,-0.046789877116680145,0.0057561565190553665,-0.011383416131138802
1772562351822409000,8.727408935546874,-0.04307103902101517,-0.0038365498185157776,-0.018982212990522385
1772562351832476000,8.737475830078125,-0.040048349648714066,-0.017678329721093178,-0.017674867063760757
1772562351842543900,8.7475439453125,-0.026633474975824356,-0.025535186752676964,-0.024176176637411118
1772562351852610800,8.75761083984375,-0.018485533073544502,-0.019518839195370674,-0.024531442672014236
1772562351862677800,8.767677734375,-0.010969826951622963,-0.003251187037676573,-0.023874705657362938
1772562351872744700,8.77774462890625,-0.011513643898069859,-0.0014455638593062758,-0.022167352959513664
1772562351882813000,8.78781298828125,-0.011454255320131779,-0.0073074474930763245,-0.019845610484480858
1772562351892880000,8.7978798828125,-0.011411645449697971,-0.011797537095844746,-0.0113975303247571
1772562351902947000,8.807947021484376,-0.011363175697624683,-0.014820757322013378,-0.008188420906662941
1772562351913014000,8.818013916015625,-0.007616374175995588,-0.010175139643251896,0.001455151243135333
1772562351923081000,8.8280810546875,0.0025510420091450214,0.012778379023075104,0.009675264358520508
1772562351933149000,8.83814892578125,0.011604191735386848,0.02105947956442833,0.01907089725136757
1772562351943215900,8.8482158203125,0.016680976375937462,0.008979646489024162,0.01811002753674984
1772562351953282800,8.85828271484375,0.02184218168258667,-0.015676697716116905,0.02256336621940136
1772562351963349800,8.868349853515625,0.017255419865250587,-0.041722677648067474,0.0269466619938612
1772562351973418000,8.87841796875,0.009914948605000973,-0.0644221305847168,0.018674351274967194
1772562351983485000,8.88848486328125,0.005066397599875927,-0.062299858778715134,0.0015720640076324344
1772562351993552000,8.8985517578125,0.007077882997691631,-0.02321930229663849,-0.018135327845811844
1772562352003619000,8.908619140625,0.004185690078884363,0.03313558176159859,-0.03454120084643364
1772562352013686000,8.91868603515625,-0.004673315212130547,0.0695796087384224,-0.043353866785764694
1772562352023754000,8.92875390625,-0.009970076382160187,0.05618790537118912,-0.037151362746953964
1772562352033821000,8.938821044921875,0.0017949705943465233,0.018579808995127678,-0.026809509843587875
1772562352043887900,8.948887939453124,0.01248117070645094,-0.024060329422354698,-0.016825851052999496
1772562352053954800,8.958954833984375,0.021858427673578262,-0.040948498994112015,-0.002281263703480363
1772562352064023000,8.96902294921875,0.02526993677020073,-0.023859526962041855,0.015866048634052277
1772562352074090000,8.979090087890626,0.01025583315640688,-0.006142048165202141,0.031084416434168816
1772562352084157000,8.989156982421875,-0.004495948553085327,-0.0049042110331356525,0.03834818676114082
1772562352094224000,8.999223876953126,-0.00818043202161789,-0.01423326414078474,0.04608120769262314
1772562352104291800,9.009291748046875,-0.015446334145963192,-0.02317669242620468,0.038724493235349655
1772562352114358800,9.01935888671875,-0.020185962319374084,-0.027187146246433258,0.023357253521680832
1772562352124426000,9.029426025390626,-0.0213010273873806,-0.019659722223877907,0.002665824256837368
1772562352134493000,9.039492919921875,-0.01654621958732605,0.003096990054473281,-0.022158032283186913
1772562352144559900,9.049559814453126,-0.005181978922337294,0.030218621715903282,-0.043229494243860245
1772562352154627800,9.0596279296875,0.00173717993311584,0.0378565676510334,-0.04507213830947876
1772562352164695000,9.069695068359374,0.0022176143247634172,0.018579808995127678,-0.043466515839099884
1772562352174762000,9.079761962890625,0.0001531317684566602,-0.004415787290781736,-0.036249615252017975
1772562352184829000,9.089828857421875,0.0020959076937288046,-0.015163772739470005,-0.02009567990899086
1772562352194897000,9.09989697265625,-0.00022530343267135322,-0.020261861383914948,-0.012589295394718647
1772562352204963800,9.1099638671875,-0.003994208760559559,-0.014538728632032871,-0.011169563978910446
1772562352215030800,9.12003076171875,-0.01101536676287651,-0.0043987431563436985,-0.014082263223826885
1772562352225098000,9.130097900390625,-0.012150405906140804,0.006030195392668247,-0.019704995676875114
1772562352235165000,9.1401650390625,-0.008657137863337994,0.022537000477313995,-0.016090819612145424
1772562352245233000,9.15023291015625,-0.005075186025351286,0.030892135575413704,-0.007778294384479523
1772562352255299800,9.1602998046875,-0.0036975329276174307,0.021880265325307846,0.011300858110189438
1772562352265366800,9.17036669921875,-0.011262508109211922,0.01104519423097372,0.03320882096886635
1772562352275434000,9.18043408203125,-0.01906690187752247,-0.005585980135947466,0.05259370431303978
1772562352285502000,9.190501953125,-0.027249731123447418,-0.01876676268875599,0.06494065374135971
1772562352295569000,9.20056884765625,-0.028670793399214745,-0.02322409674525261,0.0703897476196289
1772562352305635800,9.2106357421875,-0.025921344757080078,-0.023183083161711693,0.06547008454799652
1772562352315703000,9.220703125,-0.018500979989767075,-0.010510697960853577,0.06030382215976715
1772562352325770000,9.23077001953125,-0.012776781804859638,0.006278135813772678,0.05062003433704376
1772562352335838000,9.240837890625,-0.012863866984844208,0.021463479846715927,0.04440954327583313
1772562352345905000,9.25090478515625,-0.016205601394176483,0.031264446675777435,0.033304959535598755
1772562352355971800,9.260971923828125,-0.018377674743533134,0.028785042464733124,0.023132748901844025
1772562352366038800,9.271038818359376,-0.016804546117782593,0.004457066301256418,0.015127553604543209
1772562352376107000,9.28110693359375,-0.007723966147750616,-0.01756301522254944,0.003954794257879257
1772562352386174000,9.291174072265624,0.004209392238408327,-0.023444872349500656,-0.009771670214831829
1772562352396241000,9.301240966796875,0.011172226630151272,-0.011532818898558617,-0.013845774345099926
1772562352406307800,9.311307861328125,0.009256881661713123,0.016333166509866714,-0.009720804169774055
1772562352416375300,9.321375244140626,0.0030093719251453876,0.03327300027012825,-0.0006572681595571339
1772562352426442500,9.3314423828125,-0.01182363647967577,0.010065949521958828,0.010662497952580452
1772562352436509400,9.341509521484374,-0.021818213164806366,-0.03361521661281586,0.012229502201080322
1772562352446576400,9.351576416015625,-0.018389126285910606,-0.04935130476951599,0.0197441428899765
1772562352456643300,9.361643310546874,0.0005411543534137309,-0.03173103183507919,0.02321663871407509
1772562352466711600,9.371711669921876,0.012221778742969036,0.0020663465838879347,0.02725399099290371
1772562352476778500,9.381778564453125,0.027124295011162758,0.027055585756897926,0.028674256056547165
1772562352486845400,9.391845458984376,0.030118221417069435,0.020198745653033257,0.03316647559404373
1772562352496912400,9.401912353515625,0.01563914678990841,-0.006628075148910284,0.029564550146460533
1772562352506980400,9.41198046875,0.001472461735829711,-0.04343456029891968,0.025362348183989525
1772562352517047300,9.42204736328125,-0.014985607005655766,-0.06534811109304428,0.009855293668806553
1772562352527114500,9.432114501953125,-0.019869845360517502,-0.051665324717760086,-0.008343150839209557
1772562352537181400,9.442181396484376,-0.01744343899190426,-0.013892645947635174,-0.027783960103988647
1772562352547248400,9.452248291015625,-0.010643589310348034,0.021347632631659508,-0.036683179438114166
1772562352557316400,9.46231640625,-0.0009435579413548112,0.03069080039858818,-0.03796868771314621
1772562352567383600,9.472383544921875,0.011070760898292065,0.0198685135692358,-0.030916104093194008
1772562352577450500,9.482450439453125,0.016895892098546028,-0.00487358495593071,-0.014491857029497623
1772562352587517400,9.492517333984376,0.01985333301126957,-0.03136537969112396,0.005828860681504011
1772562352597585400,9.50258544921875,0.01278876606374979,-0.04540982469916344,0.02244139276444912
1772562352607652400,9.51265234375,0.007697600871324539,-0.03737746551632881,0.033240512013435364
1772562352617719300,9.52271923828125,0.003695402294397354,-0.018490061163902283,0.03857934847474098
1772562352627786500,9.532786376953124,-0.008104798384010792,0.007760451175272465,0.042930424213409424
1772562352637853400,9.542853515625,-0.019389409571886063,0.021862421184778214,0.03982571139931679
1772562352647921400,9.55292138671875,-0.02804654836654663,0.021393705159425735,0.03569461405277252
1772562352657988400,9.56298828125,-0.026343990117311478,0.014374944381415844,0.031138211488723755
1772562352668055300,9.57305517578125,-0.01726767048239708,0.004199006129056215,0.028778918087482452
1772562352678122500,9.58312255859375,-0.007197725586593151,-0.003960386849939823,0.030403979122638702
1772562352688190500,9.5931904296875,-0.005297559779137373,-0.007741809356957674,0.028129372745752335
1772562352698257400,9.60325732421875,0.00546240946277976,-0.015490809455513954,0.018813634291291237
1772562352708324400,9.613324462890626,0.010092847980558872,-0.020969996228814125,0.0062914518639445305
1772562352718391300,9.623391357421875,0.007125820033252239,-0.01125079020857811,-0.008895490318536758
1772562352728459300,9.633459228515624,0.0001603222917765379,0.004777178168296814,-0.01576431654393673
1772562352738526500,9.6435263671875,-0.010793792083859444,0.020592359825968742,-0.013129117898643017
1772562352748593400,9.653593505859375,-0.019414443522691727,0.015917712822556496,-0.008194279856979847
1772562352758660400,9.663660400390626,-0.02149277552962303,0.00296329939737916,0.0028338697738945484
1772562352768727300,9.673727294921875,-0.01768978126347065,-0.015307850204408169,0.020382769405841827
1772562352778795500,9.68379541015625,-0.015657790005207062,-0.025229455903172493,0.029794912785291672
1772562352788862500,9.693862548828125,-0.012033226899802685,-0.014252439141273499,0.03840251639485359
1772562352798929400,9.703929443359375,-0.010906177572906017,0.0036432044580578804,0.043109919875860214
1772562352808996400,9.713996337890626,-0.010251039639115334,0.009002016857266426,0.036183036863803864
1772562352819064300,9.724064208984375,-0.010450243949890137,-0.0010751180816441774,0.023390809074044228
1772562352829131300,9.73413134765625,-0.012389558367431164,-0.021584387868642807,0.006735667120665312
1772562352839198500,9.744198486328125,-0.010958641767501831,-0.028414065018296242,-0.005316734779626131
1772562352849265400,9.754265380859374,-0.005203284323215485,-0.013590909540653229,-0.0157129168510437
1772562352859332400,9.764332275390625,-0.005026716738939285,0.013941914774477482,-0.028739769011735916
1772562352869400600,9.774400634765625,-0.0018988338997587562,0.030492395162582397,-0.02827877551317215
1772562352879467500,9.784467529296874,0.0049223206005990505,0.022596122696995735,-0.027935227379202843
1772562352889534500,9.794534423828125,0.014842063188552856,-0.003352919826284051,-0.02135429158806801
1772562352899601400,9.804601318359374,0.027961859479546547,-0.019949473440647125,-0.007214503362774849
1772562352909669400,9.81466943359375,0.03242025896906853,-0.03200507164001465,0.013864416629076004
1772562352919736300,9.824736328125,0.02720019593834877,-0.023032881319522858,0.021029651165008545
1772562352929803300,9.83480322265625,0.020808342844247818,-0.004752943757921457,0.03171158954501152
1772562352939870500,9.844870361328125,0.009547964669764042,0.014021809212863445,0.03127430006861687
1772562352949938200,9.854938232421874,0.006997988559305668,0.019227223470807076,0.018938004970550537
1772562352960005600,9.865005615234375,0.010720554739236832,0.012975719757378101,0.009410546161234379
1772562352970072600,9.875072509765625,0.022467758506536484,-0.002171275205910206,-0.004895955324172974
1772562352980139500,9.885139404296876,0.03190067410469055,-0.011173025704920292,-0.016988836228847504
1772562352990206500,9.89520654296875,0.03343891724944115,-0.018086059018969536,-0.01906423829495907
1772562353000274400,9.9052744140625,0.03503122180700302,-0.011863317340612411,-0.023606259375810623
1772562353010341400,9.91534130859375,0.03369218483567238,-0.003707120195031166,-0.023003052920103073
1772562353020408300,9.925408203125,0.03489593043923378,0.0012365056900307536,-0.02026985213160515
1772562353030475300,9.935475341796876,0.02600150741636753,-0.00046312372433021665,-0.010480337776243687
1772562353040543200,9.945543212890625,0.016473781317472458,-0.0037374801468104124,-0.0062855929136276245
1772562353050610200,9.955610107421874,0.004878644831478596,-0.01513074990361929,-0.000055926382628967986
1772562353060677600,9.965677734375,0.0012202603975310922,-0.03621393069624901,0.004560130648314953
1772562353070744600,9.97574462890625,0.004366252571344376,-0.05059713125228882,0.0006697850185446441
1772562353080811500,9.9858115234375,0.01170219574123621,-0.04677069932222366,-0.010756241157650948
1772562353090879500,9.99587939453125,0.016216786578297615,-0.015048191882669926,-0.017833592370152473
1772562353100946400,10.005946533203126,0.01816888339817524,0.023330623283982277,-0.02003149874508381
1772562353111013400,10.016013427734375,0.008522914722561836,0.04480768367648125,-0.016952885314822197
1772562353121080300,10.026080322265624,0.007202785462141037,0.05127650499343872,-0.00962972454726696
1772562353131148300,10.036148193359375,0.004705273080617189,0.02130608819425106,0.001583249308168888
1772562353141215200,10.04621533203125,0.00327275856398046,-0.013411945663392544,0.017061807215213776
1772562353151282400,10.056282470703126,0.004013383761048317,-0.040860615670681,0.023994015529751778
1772562353161349400,10.066349365234375,0.006223274860531092,-0.053879741579294205,0.02960875816643238
1772562353171417600,10.07641748046875,0.005805957596749067,-0.052140966057777405,0.020679978653788567
1772562353181484500,10.086484619140625,0.005020857788622379,-0.01930791698396206,0.007818241603672504
1772562353191551500,10.096551513671875,0.000574177538510412,0.014646853320300579,-0.009124788455665112
1772562353201618400,10.106618408203126,-0.0008679241873323917,0.039441946893930435,-0.018459169194102287
1772562353211685400,10.116685302734375,-0.004766792058944702,0.039563123136758804,-0.026574885472655296
1772562353221753300,10.12675341796875,-0.0010538127971813083,0.019051454961299896,-0.025655029341578484
1772562353231820300,10.1368203125,0.003718305379152298,-0.010155964642763138,-0.02009301818907261
1772562353241887200,10.14688720703125,0.007714112289249897,-0.042299784719944,-0.017315341159701347
1772562353251954400,10.156954345703125,0.011799401603639126,-0.04813077673316002,-0.005449360236525536
1772562353262022400,10.1670224609375,0.021341508254408836,-0.03001728653907776,0.003457848448306322
1772562353272089600,10.177089599609374,0.02484090067446232,-0.01176185067743063,0.0068419273011386395
1772562353282156500,10.187156494140625,0.022654445841908455,-0.010884072631597519,0.0016200009267777205
1772562353292223500,10.197223388671874,0.02177507057785988,-0.01449744962155819,-0.005136172287166119
1772562353302291500,10.20729150390625,0.026938140392303467,-0.02322249859571457,-0.01209714263677597
1772562353312358400,10.2173583984375,0.028904352337121964,-0.030067354440689087,-0.015973107889294624
1772562353322425300,10.22742529296875,0.026219885796308517,-0.025959961116313934,-0.024526914581656456
1772562353332492300,10.2374921875,0.02526674047112465,-0.018660768866539,-0.02305605076253414
1772562353342559200,10.247559326171874,0.023569507524371147,-0.0046120621263980865,-0.01738405041396618
1772562353352627500,10.25762744140625,0.024097878485918045,-0.00042876892257481813,-0.016771789640188217
1772562353362694400,10.2676943359375,0.028017252683639526,-0.005132710561156273,-0.017064737156033516
1772562353372761600,10.27776171875,0.028538966551423073,-0.002412291243672371,-0.007604124024510384
1772562353382828500,10.28782861328125,0.014868161641061306,-0.015744075179100037,0.0010101370280608535
1772562353392896500,10.297896484375,-0.009321063756942749,-0.02165602706372738,0.011947207152843475
1772562353402963500,10.30796337890625,-0.0209465604275465,-0.018384333699941635,0.012227904051542282
1772562353413031400,10.318031494140625,-0.017893780022859573,-0.016458602622151375,0.004239219706505537
1772562353423098400,10.328098388671876,-0.011976768262684345,-0.004128698725253344,-0.0021462414879351854
1772562353433165300,10.338165283203125,-0.006986270658671856,0.008962069638073444,-0.014365890063345432
1772562353443233500,10.348233642578125,-0.003144926857203245,0.014514760114252567,-0.026998061686754227
1772562353453300500,10.358300537109375,-0.004011253360658884,0.01708311215043068,-0.03159867227077484
1772562353463367400,10.368367431640625,-0.010645720176398754,0.01612570695579052,-0.030189594253897667
1772562353473434400,10.378434326171876,-0.011917646043002605,0.005125786177814007,-0.025250228121876717
1772562353483502300,10.38850244140625,-0.01642611064016819,-0.010372745804488659,-0.015327290631830692
1772562353493569300,10.3985693359375,-0.01721760258078575,-0.013009541667997837,0.000773381965700537
1772562353503636500,10.408636474609375,-0.015531555749475956,-0.016995761543512344,0.01630200818181038
1772562353513703400,10.418703369140625,-0.014370150864124298,-0.020433103665709496,0.01872255466878414
1772562353523770400,10.428770263671876,-0.014742461033165455,-0.017289508134126663,0.0124220484867692
1772562353533838600,10.438838623046875,-0.012197543866932392,-0.015802931040525436,0.0038567897863686085
1772562353543905500,10.448905517578124,-0.0038005972746759653,-0.0033039175905287266,-0.008889365009963512
1772562353553972500,10.458972412109375,-0.0021899172570556402,0.0012945625931024551,-0.010971690528094769
1772562353564039400,10.469039306640624,-0.006551908794790506,-0.0025832662358880043,-0.013010607101023197
1772562353574107400,10.479107421875,-0.009891512803733349,-0.017168866470456123,-0.015991216525435448
1772562353584174300,10.48917431640625,-0.011905661784112453,-0.03214249014854431,-0.021089572459459305
1772562353594241300,10.4992412109375,-0.014277739450335503,-0.03918894752860069,-0.03313185274600983
1772562353604308500,10.50930859375,-0.013081979937851429,-0.039267778396606445,-0.05005411058664322
1772562353614376200,10.519376220703125,-0.005929794628173113,-0.026262495666742325,-0.06991144269704819
1772562353624443400,10.529443359375,-0.0017310547409579158,-0.010912302881479263,-0.08984493464231491
1772562353634510600,10.539510498046875,0.0016990967560559511,0.007242732681334019,-0.10569899529218674
1772562353644577500,10.54957763671875,0.004704740364104509,0.008519452065229416,-0.10825137048959732
1772562353654644500,10.55964453125,0.010457434691488743,0.016895892098546028,-0.1063607931137085
1772562353664712400,10.56971240234375,0.013605823740363121,0.005401423200964928,-0.10272850841283798
1772562353674779400,10.579779296875,0.013253221288323402,-0.017283115535974503,-0.08908060938119888
1772562353684846300,10.589846435546875,0.017660751938819885,-0.023923708125948906,-0.07756296545267105
1772562353694913300,10.599913330078126,0.018244251608848572,-0.02093191258609295,-0.06419869512319565
1772562353704981200,10.609981201171875,0.011986088939011097,-0.0847306028008461,-0.06326818466186523
1772562353715048200,10.620048095703124,0.013857225887477398,-0.14056643843650818,-0.06911569088697433
1772562353725115400,10.630115478515625,0.019416840746998787,-0.13771551847457886,-0.06878865510225296
1772562353735182600,10.6401826171875,0.014852982014417648,-0.10817520320415497,-0.07558877021074295
1772562353745250600,10.65025048828125,0.0028096348978579044,-0.0592806339263916,-0.08541423082351685
1772562353755317500,10.6603173828125,-0.005566272884607315,-0.02611495740711689,-0.092734195291996
1772562353765384400,10.670384521484374,-0.013496100902557373,-0.0037579864729195833,-0.09307614713907242
1772562353775451400,10.680451416015625,-0.015328622423112392,0.0031518512405455112,-0.08414390683174133
1772562353785518300,10.690518310546874,-0.02748994715511799,-0.01823253370821476,-0.07746683061122894
1772562353795586300,10.70058642578125,-0.018447184935212135,-0.042036399245262146,-0.07414852827787399
1772562353805653200,10.7106533203125,-0.00532658863812685,-0.054372694343328476,-0.061950720846652985
1772562353815720200,10.72072021484375,0.006049636751413345,-0.035229627043008804,-0.05450212210416794
1772562353825787400,10.730787353515625,0.013709153980016708,-0.024114124476909637,-0.04396559298038483
1772562353835855400,10.74085546875,0.019939087331295013,-0.02231888845562935,-0.03569647669792175
1772562353845922600,10.750922607421876,0.022519158199429512,-0.03663923591375351,-0.02689126878976822
1772562353855989500,10.760989501953125,0.018756376579403877,-0.05037129297852516,-0.020864535123109818
1772562353866056400,10.771056396484376,0.014326474629342556,-0.046792540699243546,-0.014278803952038288
1772562353876123400,10.781123291015625,0.0075609805062413216,-0.015955263748764992,-0.00947978813201189
1772562353886191400,10.79119140625,0.0067971860989928246,0.015596536919474602,-0.012715528719127178
1772562353896258300,10.80125830078125,0.0070698936469852924,0.0214802585542202,-0.012003399431705475
1772562353906325200,10.8113251953125,0.006939132697880268,-0.0001978728687390685,-0.013252155855298042
1772562353916392400,10.821392333984376,0.0019827233627438545,-0.017519604414701462,-0.015321165323257446
1772562353926460400,10.83146044921875,-0.002645584288984537,-0.0264838058501482,-0.021752700209617615
1772562353936527600,10.841527587890624,-0.0035843485966324806,-0.02468031272292137,-0.023870445787906647
1772562353946594600,10.851594482421875,-0.00032384038786403835,-0.021770808845758438,-0.03164501115679741
1772562353956661500,10.86166162109375,0.00866273045539856,-0.007215036079287529,-0.040949564427137375
1772562353966729500,10.8717294921875,0.005868275184184313,0.015607722103595734,-0.05639616400003433
1772562353976796400,10.88179638671875,-0.005536978133022785,0.024943433701992035,-0.07088775187730789
1772562353986863400,10.89186328125,-0.015678562223911285,0.020266123116016388,-0.07651235163211823
1772562353996930300,10.901930419921875,-0.017099624499678612,0.011846805922687054,-0.0779493898153305
1772562354006997200,10.911997314453124,-0.022038189694285393,0.001856755930930376,-0.06991357356309891
1772562354017065500,10.9220654296875,-0.021194234490394592,-0.006191849708557129,-0.0683247298002243
1772562354027132400,10.93213232421875,-0.02063044346868992,-0.005495432764291763,-0.050034936517477036
1772562354037199600,10.94219970703125,-0.010606039315462112,0.008377239108085632,-0.03723685070872307
1772562354047266600,10.9522666015625,-0.009241435676813126,0.010990865528583527,-0.024034496396780014
1772562354057334500,10.96233447265625,-0.009749566204845905,0.00788641907274723,-0.007672833278775215
1772562354067401500,10.9724013671875,-0.013647102750837803,-0.010131729766726494,0.007673632353544235
1772562354077468400,10.982468505859375,-0.02550322934985161,-0.027658792212605476,0.03217897564172745
1772562354087535400,10.992535400390626,-0.03521950542926788,-0.022157233208417892,0.04878245294094086
1772562354097603300,11.002603271484375,-0.03831436485052109,-0.012134693562984467,0.050990212708711624
1772562354107670300,11.012670166015624,-0.03682006523013115,-0.011726696975529194,0.0475187823176384
1772562354117737200,11.0227373046875,-0.03075231984257698,-0.0027867318131029606,0.036557476967573166
1772562354127804400,11.032804443359375,-0.02640497498214245,-0.017420802265405655,0.026522420346736908
1772562354137871600,11.04287158203125,-0.02785506658256054,-0.02593972161412239,0.016210928559303284
1772562354147939300,11.052939208984375,-0.03388765826821327,-0.019454125314950943,0.004601942375302315
1772562354158006500,11.063006591796874,-0.03792767599225044,0.00336144189350307,-0.010976218618452549
1772562354168073500,11.073073486328125,-0.035527367144823074,0.008406533859670162,-0.017055949196219444
1772562354178140400,11.083140380859374,-0.0276755690574646,0.0034767568577080965,-0.01950445957481861
1772562354188208400,11.09320849609375,-0.021189972758293152,0.0049406965263187885,-0.018854115158319473
1772562354198275300,11.103275390625,-0.012206599116325378,0.0043992758728563786,-0.014736069366335869
1772562354208342300,11.11334228515625,-0.0004996090428903699,0.01287585124373436,-0.002546514617279172
1772562354218409200,11.1234091796875,0.002886067610234022,0.014282266609370708,0.009416138753294945
1772562354228476400,11.133476318359374,-0.0052472264505922794,0.007275755982846022,0.02413170225918293
1772562354238544400,11.14354443359375,-0.0170343779027462,-0.0021736719645559788,0.042280878871679306
1772562354248611300,11.153611328125,-0.026883013546466827,-0.012971991673111916,0.055382031947374344
1772562354258678500,11.163678466796876,-0.03520379215478897,-0.02467764914035797,0.06472759693861008
1772562354268745500,11.173745361328125,-0.03560752794146538,-0.03683391585946083,0.06019383296370506
1772562354278813400,11.1838134765625,-0.03169374540448189,-0.042399656027555466,0.05236387252807617
1772562354288880400,11.19388037109375,-0.023964455351233482,-0.03262798488140106,0.03489832952618599
1772562354298947300,11.203947265625,-0.013605557382106781,-0.015385880134999752,0.015965649858117104
1772562354309014300,11.21401416015625,-0.001919073867611587,0.006932741031050682,-0.007903196848928928
1772562354319082500,11.22408251953125,-0.0000828243064461276,0.008404403924942017,-0.02141394466161728
1772562354329149400,11.2341494140625,-0.00024208133982028812,0.01110112015157938,-0.03279389813542366
1772562354339216400,11.24421630859375,-0.0013662016717717052,0.0036850159522145987,-0.025914421305060387
1772562354349283600,11.25428369140625,-0.006476275157183409,-0.0025473134592175484,-0.017299361526966095
1772562354359350500,11.2643505859375,-0.0102566322311759,-0.004454403184354305,-0.0065622953698039055
1772562354369418500,11.27441845703125,-0.01410703081637621,-0.014249242842197418,0.007250722497701645
1772562354379485400,11.2844853515625,-0.017284447327256203,-0.03184075281023979,0.020247481763362885
1772562354389552400,11.294552490234375,-0.01623649336397648,-0.04170164093375206,0.022586269304156303
1772562354399619300,11.304619384765624,-0.011864116415381432,-0.047636762261390686,0.02160223014652729
1772562354409687600,11.3146875,-0.0028130970895290375,-0.046190131455659866,0.00911626685410738
1772562354419754000,11.32475390625,0.0035020567011088133,-0.03362001106142998,-0.0011728560784831643
1772562354429821000,11.334821044921876,0.004844556096941233,-0.008435030467808247,-0.006238987669348717
1772562354439888100,11.34488818359375,-0.005101551301777363,0.012515791691839695,-0.0033630398102104664
1772562354449955800,11.354955810546874,-0.025831064209342003,0.005696501582860947,0.0024445154704153538
1772562354460023000,11.36502294921875,-0.041844386607408524,-0.015414642170071602,0.006097307428717613
1772562354470090000,11.375090087890625,-0.04950736463069916,-0.03158881887793541,0.012003399431705475
1772562354480157000,11.385156982421876,-0.05072096735239029,-0.030821828171610832,0.018726283684372902
1772562354490223900,11.395223876953125,-0.04993639886379242,-0.018602712079882622,0.025854766368865967
1772562354500291800,11.405291748046874,-0.043541353195905685,-0.002653307281434536,0.02646729350090027
1772562354510358800,11.41535888671875,-0.035477034747600555,0.0015241270884871483,0.030011162161827087
1772562354520425700,11.42542578125,-0.03145486116409302,-0.010220679454505444,0.027993816882371902
1772562354530493000,11.435492919921876,-0.03279896080493927,-0.030882015824317932,0.022591328248381615
1772562354540561000,11.445560791015625,-0.03391961753368378,-0.03622351959347725,0.0155517952516675
1772562354550627800,11.4556279296875,-0.032047681510448456,-0.02431199699640274,0.014243383891880512
1772562354560695000,11.465695068359375,-0.03423546999692917,-0.017736386507749557,0.01095464639365673
1772562354570762000,11.475761962890624,-0.028324315324425697,-0.01853693276643753,0.006953780073672533
1772562354580829000,11.485828857421875,-0.023259783163666725,-0.030111029744148254,0.0007073355955071747
1772562354590897000,11.49589697265625,-0.022611036896705627,-0.04705166444182396,-0.00960042979568243
1772562354600963800,11.5059638671875,-0.02474103309214115,-0.049617622047662735,-0.028991704806685448
1772562354611030800,11.51603076171875,-0.027605794370174408,-0.029888123273849487,-0.029569344595074654
1772562354621097700,11.52609765625,-0.03163941949605942,-0.0019861855544149876,-0.02707982063293457
1772562354631166000,11.536166015625,-0.03542110696434975,0.010468087159097195,-0.011900868266820908
1772562354641233000,11.54623291015625,-0.040280312299728394,-0.0041247038170695305,0.005869606975466013
1772562354651299800,11.5562998046875,-0.0459645614027977,-0.03117176704108715,0.017553161829710007
1772562354661367000,11.566366943359375,-0.047388020902872086,-0.05753519758582115,0.018989136442542076
1772562354671434800,11.576434814453124,-0.045629534870386124,-0.0774359330534935,0.013918212614953518
1772562354681502000,11.586501953125,-0.040162067860364914,-0.06816786527633667,-0.0022237394005060196
1772562354691569000,11.59656884765625,-0.032458607107400894,-0.04834196716547012,-0.020175309851765633
1772562354701635800,11.6066357421875,-0.02515142597258091,-0.024832112714648247,-0.039681900292634964
1772562354711702800,11.616702880859375,-0.023666713386774063,-0.010243582539260387,-0.044793568551540375
1772562354721771000,11.62677099609375,-0.019576098769903183,-0.0016365124611184,-0.04482739418745041
1772562354731838000,11.636837890625,-0.015063105151057243,-0.013666809536516666,-0.03783313184976578
1772562354741905000,11.64690478515625,-0.008327971212565899,-0.02177347242832184,-0.024640630930662155
1772562354751971800,11.656971923828126,-0.0020213392563164234,-0.022527946159243584,-0.007758054416626692
1772562354762039800,11.667039794921875,0.0006556702428497374,-0.02586408704519272,0.006086121778935194
1772562354772107000,11.67710693359375,-0.0035412053111940622,-0.03441976010799408,0.012320049107074738
1772562354782174000,11.687174072265625,-0.007788148242980242,-0.04247262701392174,0.009239571169018745
1772562354792241000,11.697240966796874,-0.0076275598257780075,-0.037993986159563065,0.005764412228018045
1772562354802307800,11.707307861328125,-0.005183043889701366,-0.023674169555306435,0.0016945693641901016
1772562354812376000,11.7173759765625,-0.004434163216501474,-0.015368303284049034,-0.005618204362690449
1772562354822443000,11.727443115234376,-0.0021789984311908484,-0.02526487596333027,-0.011116034351289272
1772562354832510000,11.737510009765625,0.003847202518954873,-0.04416506364941597,-0.01781787909567356
1772562354842577000,11.747576904296874,0.014643125236034393,-0.05426669865846634,-0.03026709146797657
1772562354852644900,11.757644775390625,0.025972478091716766,-0.04705938696861267,-0.043057721108198166
1772562354862711800,11.7677119140625,0.03459392860531807,-0.019302591681480408,-0.05058807507157326
1772562354872779000,11.777779052734376,0.034514300525188446,0.003951332066208124,-0.05555753409862518
1772562354882846000,11.787845947265625,0.030780017375946045,0.019402991980314255,-0.05511411651968956
1772562354892914000,11.797913818359374,0.0265346709638834,0.01503780484199524,-0.04224519059062004
1772562354902980900,11.80798095703125,0.02293514274060726,0.0006732470938004553,-0.02334393747150898
1772562354913048000,11.818048095703125,0.023791614919900894,-0.006923686247318983,-0.00037151097785681486
1772562354923115000,11.828114990234376,0.02569311298429966,-0.008194812573492527,0.022464295849204063
1772562354933182000,11.838181884765625,0.027280090376734734,-0.013427391648292542,0.0401117317378521
1772562354943250000,11.84825,0.02834109403192997,-0.018270883709192276,0.05329278111457825
1772562354953316900,11.85831689453125,0.03329244256019592,-0.01155678741633892,0.061697185039520264
1772562354963383800,11.8683837890625,0.032339032739400864,-0.00686083547770977,0.06731884926557541
1772562354973451000,11.878450927734375,0.029746709391474724,-0.0014239922165870667,0.06307058036327362
1772562354983518700,11.888518798828125,0.02503957226872444,-0.009736782871186733,0.05161392688751221
1772562354993586000,11.8985859375,0.025303758680820465,-0.016103602945804596,0.030972296372056007
1772562355003652900,11.90865283203125,0.025729332119226456,-0.01900351792573929,0.012230833992362022
1772562355013719800,11.9187197265625,0.020846160128712654,-0.011412976309657097,-0.012041749432682991
1772562355023788000,11.9287880859375,0.01212617103010416,-0.006490389816462994,-0.03283997252583504
1772562355033855000,11.93885498046875,-0.01056502666324377,-0.008901881985366344,-0.06809889525175095
1772562355043922000,11.948921875,-0.07149708271026611,-0.06722670793533325,-0.1000797301530838
1772562355053988900,11.95898876953125,-0.12947356700897217,-0.1557198166847229,-0.13421319425106049
1772562355064055800,11.969055908203124,-0.16465499997138977,-0.17447566986083984,-0.14203357696533203
1772562355074123800,11.979123779296875,-0.18746177852153778,-0.17889252305030823,-0.126723051071167
1772562355084190700,11.989190673828125,-0.21880771219730377,-0.20805679261684418,-0.12280501425266266
1772562355094258000,11.9992578125,-0.25932398438453674,-0.268534779548645,-0.10607929527759552
1772562355104324900,12.009324951171875,-0.30690985918045044,-0.3088047206401825,-0.07833714783191681
1772562355114393000,12.01939306640625,-0.35528913140296936,-0.25925713777542114,-0.03959694504737854
1772562355124460000,12.0294599609375,-0.4044926166534424,-0.1815519481897354,-0.0036599822342395782
1772562355134527000,12.03952685546875,-0.4443050026893616,-0.16826437413692474,0.030234334990382195
