time,seconds_elapsed,z,y,x
1772457981290735400,0.0677353515625,-0.3001857101917267,-0.1482965052127838,-0.43771564960479736
1772457981300804400,0.077804443359375,-0.32322898507118225,-0.13328346610069275,-0.3473639190196991
1772457981310872300,0.087872314453125,-0.3323526978492737,-0.15215489268302917,-0.26521071791648865
1772457981320940300,0.097940185546875,-0.3258003294467926,-0.20839744806289673,-0.21822352707386017
1772457981331008300,0.10800830078125,-0.30601170659065247,-0.28960680961608887,-0.20463980734348297
1772457981341077000,0.118076904296875,-0.27975600957870483,-0.3490140736103058,-0.21868735551834106
1772457981351145200,0.128145263671875,-0.24263791739940643,-0.3658159673213959,-0.24084432423114777
1772457981361213200,0.138213134765625,-0.20120777189731598,-0.33489808440208435,-0.2643311321735382
1772457981371282200,0.1482822265625,-0.16318581998348236,-0.26892200112342834,-0.29281097650527954
1772457981381350100,0.15835009765625,-0.1217694878578186,-0.18431080877780914,-0.31705421209335327
1772457981391418000,0.168418212890625,-0.08802377432584763,-0.11566037684679031,-0.34399473667144775
1772457981401486000,0.178486083984375,-0.056804221123456955,-0.0719524547457695,-0.3630857765674591
1772457981411555000,0.18855517578125,-0.03241286054253578,-0.03186122328042984,-0.3704605996608734
1772457981421623300,0.198623291015625,-0.01941460184752941,0.02208526059985161,-0.3598821759223938
1772457981431691300,0.208691162109375,-0.01616235077381134,0.06895982474088669,-0.33063584566116333
1772457981441760000,0.218760009765625,-0.020631462335586548,0.09949929267168045,-0.29643499851226807
1772457981451828200,0.228828125,-0.028896847739815712,0.12079819291830063,-0.26327091455459595
1772457981461896200,0.238896240234375,-0.03270241990685463,0.122074194252491,-0.24261297285556793
1772457981471965200,0.248965087890625,-0.025869015604257584,0.11351772397756577,-0.2231207638978958
1772457981482033200,0.259033203125,-0.014548106119036674,0.12386098504066467,-0.19621090590953827
1772457981492101000,0.26910107421875,0.0003378994297236204,0.1581561118364334,-0.15227754414081573
1772457981502169000,0.279169189453125,0.020975328981876373,0.1815672218799591,-0.10617505013942719
1772457981512238300,0.28923828125,0.0391245037317276,0.15731647610664368,-0.07883184403181076
1772457981522306300,0.299306396484375,0.04982725903391838,0.11315598338842392,-0.06805586814880371
1772457981532374000,0.3093740234375,0.056410059332847595,0.08483699709177017,-0.06274845451116562
1772457981542442000,0.31944189453125,0.05810156464576721,0.093997061252594,-0.057882241904735565
1772457981552511200,0.32951123046875,0.06383401900529861,0.13854296505451202,-0.0363742858171463
1772457981562579200,0.3395791015625,0.07903074473142624,0.2124597281217575,-0.001731192460283637
1772457981572647200,0.349647216796875,0.10430040955543518,0.23692192137241364,0.033451296389102936
1772457981582716200,0.359716064453125,0.11105547100305557,0.16779285669326782,0.044760555028915405
1772457981592784100,0.3697841796875,0.11409227550029755,0.09866786003112793,0.04832306504249573
1772457981602852000,0.37985205078125,0.11123255640268326,0.08545669913291931,0.05509233474731445
1772457981612921300,0.38992138671875,0.10054129362106323,0.11466197669506073,0.06342031061649323
1772457981622989000,0.399989013671875,0.08985911309719086,0.1778668314218521,0.07647223770618439
1772457981633057000,0.41005712890625,0.08672644197940826,0.23593279719352722,0.08633285760879517
1772457981643125000,0.420125,0.08106007426977158,0.25634169578552246,0.09558896720409393
1772457981653194200,0.4301943359375,0.07997243851423264,0.26178228855133057,0.09907983988523483
1772457981663262200,0.44026220703125,0.08408112078905106,0.27500322461128235,0.11597437411546707
1772457981673330200,0.450330078125,0.0879746600985527,0.276079922914505,0.13258184492588043
1772457981683399200,0.460399169921875,0.08906957507133484,0.27768537402153015,0.15036515891551971
1772457981693467100,0.470467041015625,0.08515552431344986,0.29811155796051025,0.1739029735326767
1772457981703535000,0.48053515625,0.07530895620584488,0.3395819664001465,0.19728660583496094
1772457981713603300,0.490603271484375,0.06308824568986893,0.36895984411239624,0.21397344768047333
1772457981723672000,0.500672119140625,0.052406180649995804,0.3761371970176697,0.21761229634284973
1772457981733740000,0.510739990234375,0.04210027679800987,0.3606168329715729,0.2109661102294922
1772457981743808300,0.520808349609375,0.017534488812088966,0.3284461200237274,0.19983503222465515
1772457981753877200,0.530877197265625,-0.014377370476722717,0.28340408205986023,0.19121332466602325
1772457981763945200,0.5409453125,-0.05572917312383652,0.24336573481559753,0.2015082836151123
1772457981774013000,0.551012939453125,-0.09173671156167984,0.19122369587421417,0.22039781510829926
1772457981784081200,0.5610810546875,-0.13046766817569733,0.11394723504781723,0.25061753392219543
1772457981794150100,0.571150146484375,-0.16439926624298096,0.024449041113257408,0.28250595927238464
1772457981804218000,0.581218017578125,-0.19879856705665588,-0.056780364364385605,0.3286890387535095
1772457981814286300,0.591286376953125,-0.22428235411643982,-0.09912675619125366,0.3688886761665344
1772457981824355000,0.60135498046875,-0.2357385903596878,-0.11046260595321655,0.4185430407524109
1772457981834423000,0.611423095703125,-0.230346217751503,-0.11058244854211807,0.4569668471813202
1772457981844491300,0.6214912109375,-0.2134154587984085,-0.11673703044652939,0.4704262316226959
1772457981854559200,0.631559326171875,-0.18772847950458527,-0.149296835064888,0.44890257716178894
1772457981864628000,0.6416279296875,-0.15626992285251617,-0.20978739857673645,0.4093431830406189
1772457981874696200,0.6516962890625,-0.13231052458286285,-0.28208261728286743,0.34093958139419556
1772457981884764200,0.66176416015625,-0.10431329160928726,-0.31829768419265747,0.2693045437335968
1772457981894833200,0.671833251953125,-0.07029646635055542,-0.3092767298221588,0.21307003498077393
1772457981904901400,0.6819013671875,-0.037825893610715866,-0.27821043133735657,0.1689380258321762
1772457981914969000,0.691968994140625,-0.013579410500824451,-0.211842879652977,0.14612673223018646
1772457981925037000,0.702037109375,0.007864602841436863,-0.11275466531515121,0.14964042603969574
1772457981935106000,0.71210595703125,0.03350471705198288,-0.00873824954032898,0.1835576444864273
1772457981945174300,0.72217431640625,0.07060585170984268,0.07626888900995255,0.22793471813201904
1772457981955242200,0.7322421875,0.10216457396745682,0.16233666241168976,0.2660088539123535
1772457981965311000,0.74231103515625,0.12916702032089233,0.23439578711986542,0.2907767593860626
1772457981975379200,0.752379150390625,0.15117138624191284,0.28027141094207764,0.29066863656044006
1772457981985447200,0.762447265625,0.16667281091213226,0.2913879156112671,0.262734979391098
1772457981995515100,0.77251513671875,0.1790061742067337,0.2851758301258087,0.22557561099529266
1772457982005584100,0.782584228515625,0.1949259340763092,0.26683589816093445,0.19450382888317108
1772457982015652000,0.792652099609375,0.21309295296669006,0.22727195918560028,0.17235271632671356
1772457982025720000,0.802719970703125,0.22118784487247467,0.12652774155139923,0.15097816288471222
1772457982035789300,0.812789306640625,0.21477948129177094,0.022847682237625122,0.14309147000312805
1772457982045857300,0.822857177734375,0.1967775821685791,-0.008771231397986412,0.13613715767860413
1772457982055925200,0.83292529296875,0.18408814072608948,-0.004085133317857981,0.1164659932255745
1772457982065993000,0.842992919921875,0.18082629144191742,-0.03221265971660614,0.08564435690641403
1772457982076062200,0.853062255859375,0.17680783569812775,-0.09521186351776123,0.0432036817073822
1772457982086130200,0.863130126953125,0.1577683389186859,-0.16763684153556824,-0.017375675961375237
1772457982096198100,0.8731982421875,0.10896190255880356,-0.2324608564376831,-0.09310931712388992
1772457982106267100,0.88326708984375,0.04532098397612572,-0.25899994373321533,-0.16411557793617249
1772457982116335000,0.893335205078125,-0.007077509071677923,-0.23619022965431213,-0.22733715176582336
1772457982126403000,0.903403076171875,-0.03476134315133095,-0.18449081480503082,-0.28501763939857483
1772457982136471300,0.91347119140625,-0.04627711698412895,-0.10494565963745117,-0.3291539251804352
1772457982146540300,0.923540283203125,-0.04941646009683609,-0.014947880990803242,-0.3481442332267761
1772457982156608000,0.93360791015625,-0.048657458275556564,0.05624427646398544,-0.3577856719493866
1772457982166676000,0.943676025390625,-0.045109476894140244,0.11591411381959915,-0.34571143984794617
1772457982176745200,0.9537451171875,-0.03445363789796829,0.14510129392147064,-0.31869474053382874
1772457982186813200,0.963813232421875,-0.015923937782645226,0.1460525393486023,-0.2752125561237335
1772457982196881200,0.973881103515625,0.00479385768994689,0.14041464030742645,-0.22330914437770844
1772457982206949000,0.98394921875,0.02511155977845192,0.1340479850769043,-0.16520355641841888
1772457982217018000,0.99401806640625,0.04430815950036049,0.1334114968776703,-0.10682705789804459
1772457982227086000,1.004086181640625,0.06386259198188782,0.14005199074745178,-0.04304663836956024
1772457982237154300,1.014154296875,0.07496504485607147,0.13905197381973267,0.012399578467011452
1772457982247223000,1.02422314453125,0.07807368040084839,0.10974568128585815,0.057112082839012146
1772457982257291000,1.034291015625,0.0793599858880043,0.06481122970581055,0.09940095245838165
1772457982267359200,1.044359130859375,0.07249447703361511,0.010578744113445282,0.12990130484104156
1772457982277427200,1.05442724609375,0.057285964488983154,-0.062502920627594,0.14898550510406494
1772457982287496200,1.06449609375,0.025138072669506073,-0.15633921325206757,0.1684681922197342
1772457982297564200,1.074564208984375,-0.0034285918809473515,-0.25777554512023926,0.17755863070487976
1772457982307632000,1.084632080078125,-0.036837346851825714,-0.3372194468975067,0.16825632750988007
1772457982317701000,1.094701171875,-0.052784621715545654,-0.402987539768219,0.15215378999710083
1772457982327769000,1.10476904296875,-0.06123559549450874,-0.4470843970775604,0.13612277805805206
1772457982337837000,1.114837158203125,-0.05558383837342262,-0.4664011299610138,0.12372283637523651
1772457982347905000,1.124905029296875,-0.053981438279151917,-0.4580917954444885,0.1207706481218338
1772457982357973800,1.134973876953125,-0.05363282933831215,-0.4264076352119446,0.12046811729669571
1772457982368042000,1.1450419921875,-0.057400744408369064,-0.42767244577407837,0.11864577978849411
1772457982378110000,1.15510986328125,-0.06902144849300385,-0.46120113134384155,0.10798115283250809
1772457982388179000,1.165178955078125,-0.08821650594472885,-0.474460244178772,0.1044013500213623
1772457982398247000,1.175246826171875,-0.11678317189216614,-0.4479953646659851,0.10914497077465057
1772457982408315000,1.18531494140625,-0.14161807298660278,-0.3909846544265747,0.12298905849456787
1772457982418382800,1.1953828125,-0.16605603694915771,-0.3235715329647064,0.14436039328575134
1772457982428452000,1.2054521484375,-0.19633910059928894,-0.3093790113925934,0.13776054978370667
1772457982438520000,1.21552001953125,-0.22526396811008453,-0.3682098388671875,0.11450369656085968
1772457982448587800,1.225587890625,-0.2595612108707428,-0.4254552721977234,0.07642722874879837
1772457982458655700,1.23565576171875,-0.292155921459198,-0.4332101345062256,0.042094554752111435
1772457982468725000,1.24572509765625,-0.3216795325279236,-0.39109528064727783,0.011812541633844376
1772457982478793000,1.25579296875,-0.34835749864578247,-0.3025584816932678,-0.0024063424207270145
1772457982488861000,1.26586083984375,-0.3735732138156891,-0.19214528799057007,-0.012484503909945488
1772457982498930000,1.275929931640625,-0.3917596638202667,-0.0976744294166565,-0.018172483891248703
1772457982508998000,1.285997802734375,-0.39493802189826965,-0.025777440518140793,-0.024011334404349327
1772457982519065900,1.29606591796875,-0.38568300008773804,0.01936420612037182,-0.021345242857933044
1772457982529133800,1.3061337890625,-0.36953091621398926,0.035235557705163956,-0.00540191400796175
1772457982539202800,1.316202880859375,-0.34478244185447693,0.025952313095331192,0.014187498949468136
1772457982549270800,1.326270751953125,-0.31821727752685547,-0.01476942840963602,0.036997295916080475
1772457982559338800,1.3363388671875,-0.29098644852638245,-0.06791360676288605,0.061003558337688446
1772457982569408000,1.346407958984375,-0.2668900787830353,-0.13095693290233612,0.08676783740520477
1772457982579476000,1.35647607421875,-0.25602543354034424,-0.187675341963768,0.11228012293577194
1772457982589544000,1.3665439453125,-0.25933563709259033,-0.2166285663843155,0.1401112824678421
1772457982599612000,1.37661181640625,-0.26891636848449707,-0.2424236685037613,0.15208351612091064
1772457982609681000,1.386680908203125,-0.28111740946769714,-0.27571722865104675,0.15205910801887512
1772457982619748900,1.396748779296875,-0.28692734241485596,-0.31772884726524353,0.13694779574871063
1772457982629817000,1.406817138671875,-0.27783194184303284,-0.37939202785491943,0.11443120241165161
1772457982639885800,1.4168857421875,-0.26111075282096863,-0.4589901566505432,0.07529205828905106
1772457982649953800,1.426953857421875,-0.25339019298553467,-0.5117494463920593,0.04275677725672722
1772457982660022000,1.43702197265625,-0.2511976361274719,-0.535749077796936,0.010766353458166122
1772457982670090000,1.447090087890625,-0.2638440430164337,-0.532708466053009,0.0035482579842209816
1772457982680159000,1.457158935546875,-0.2858915627002716,-0.46997660398483276,0.013104213401675224
1772457982690226700,1.467226806640625,-0.31948772072792053,-0.3512607514858246,0.0535879023373127
1772457982700295000,1.477294921875,-0.3637057840824127,-0.19778837263584137,0.12370333075523376
1772457982710364000,1.487364013671875,-0.40107259154319763,-0.015093103982508183,0.20959222316741943
1772457982720431900,1.497431884765625,-0.42426127195358276,0.14832404255867004,0.29612764716148376
1772457982730500000,1.5075,-0.42698782682418823,0.23492948710918427,0.3587843179702759
1772457982740567800,1.51756787109375,-0.4216068983078003,0.2512991428375244,0.39623233675956726
1772457982750636800,1.52763671875,-0.4175978899002075,0.22380323708057404,0.41023799777030945
1772457982760705000,1.537705078125,-0.41028058528900146,0.1804613620042801,0.40896129608154297
1772457982770773000,1.54777294921875,-0.40774381160736084,0.12238166481256485,0.383859783411026
1772457982780841700,1.557841796875,-0.41354259848594666,0.08022835105657578,0.3387088179588318
1772457982790910000,1.567909912109375,-0.4240597188472748,0.06446397304534912,0.2750186622142792
1772457982800978000,1.57797802734375,-0.43471238017082214,0.0720214918255806,0.19725196063518524
1772457982811046000,1.5880458984375,-0.45412731170654297,0.0902484580874443,0.11184113472700119
1772457982821115100,1.598115234375,-0.47412392497062683,0.11719192564487457,0.017833415418863297
1772457982831182800,1.608182861328125,-0.5131676197052002,0.15258517861366272,-0.07439237833023071
1772457982841250800,1.618250732421875,-0.5556588768959045,0.20916590094566345,-0.17386063933372498
1772457982851319800,1.62831982421875,-0.5970175266265869,0.2738649845123291,-0.27395883202552795
1772457982861388000,1.638387939453125,-0.6328016519546509,0.3336758315563202,-0.35656315088272095
1772457982871456000,1.6484560546875,-0.6508637070655823,0.37542280554771423,-0.4241520166397095
1772457982881524000,1.65852392578125,-0.6508764624595642,0.39116206765174866,-0.47118663787841797
1772457982891593000,1.668593017578125,-0.6298379898071289,0.39924299716949463,-0.4958237409591675
1772457982901661000,1.678660888671875,-0.5904708504676819,0.393353670835495,-0.5166286826133728
1772457982911729000,1.68872900390625,-0.534438967704773,0.35279354453086853,-0.5194106101989746
1772457982921798000,1.6987978515625,-0.4657493531703949,0.2794532775878906,-0.5089694261550903
1772457982931865900,1.708865966796875,-0.3966297507286072,0.17766208946704865,-0.47663596272468567
1772457982941933800,1.718933837890625,-0.33812305331230164,0.05162879079580307,-0.4063924252986908
1772457982952001800,1.729001708984375,-0.2910640835762024,-0.06337248533964157,-0.3204347491264343
1772457982962071000,1.739071044921875,-0.2509518265724182,-0.16105297207832336,-0.20820647478103638
1772457982972139000,1.749138916015625,-0.22210043668746948,-0.2594618499279022,-0.1078919917345047
1772457982982206700,1.759206787109375,-0.18688732385635376,-0.3557737171649933,-0.024465009570121765
1772457982992276000,1.76927587890625,-0.15296876430511475,-0.4262542724609375,0.0443921759724617
1772457983002344000,1.779343994140625,-0.11760757118463516,-0.46348899602890015,0.08489672094583511
1772457983012412000,1.789411865234375,-0.08358205109834671,-0.4874873757362366,0.12074924260377884
1772457983022480100,1.799480224609375,-0.06679482012987137,-0.4925100803375244,0.14818619191646576
1772457983032548900,1.809548828125,-0.05757438391447067,-0.4898575246334076,0.17451170086860657
1772457983042616800,1.819616943359375,-0.06373640894889832,-0.4775547981262207,0.19570326805114746
1772457983052685000,1.82968505859375,-0.07632450759410858,-0.4556959867477417,0.2000562995672226
1772457983062753800,1.83975390625,-0.08323914557695389,-0.4305240511894226,0.1779874861240387
1772457983072821800,1.84982177734375,-0.08856892585754395,-0.3897249698638916,0.12761659920215607
1772457983082889700,1.8598896484375,-0.10208579897880554,-0.3228287398815155,0.052215851843357086
1772457983092958000,1.8699580078125,-0.11158351600170135,-0.23910224437713623,-0.04200991615653038
1772457983103027000,1.88002685546875,-0.12242338806390762,-0.15783055126667023,-0.14872172474861145
1772457983113095000,1.890094970703125,-0.14038822054862976,-0.08356373012065887,-0.26370325684547424
1772457983123163000,1.900162841796875,-0.16478943824768066,-0.016014249995350838,-0.3752598762512207
1772457983133230800,1.91023095703125,-0.19514282047748566,0.04933386296033859,-0.462242990732193
1772457983143299800,1.9202998046875,-0.2295849472284317,0.09360252320766449,-0.5199054479598999
1772457983153368000,1.9303681640625,-0.26220354437828064,0.11451985687017441,-0.5254577994346619
1772457983163436000,1.94043603515625,-0.28129681944847107,0.12119160592556,-0.4872249364852905
1772457983173504800,1.9505048828125,-0.27915504574775696,0.11030226200819016,-0.41222578287124634
1772457983183573000,1.960572998046875,-0.24202550947666168,0.11547252535820007,-0.30887410044670105
1772457983193641000,1.970640869140625,-0.17737320065498352,0.13651292026042938,-0.1960039585828781
1772457983203709000,1.980708984375,-0.09702350199222565,0.1739249974489212,-0.07642083615064621
1772457983213778000,1.99077783203125,-0.005900725722312927,0.22506548464298248,0.03953437879681587
1772457983223846000,2.000845947265625,0.08901087194681168,0.23099660873413086,0.12091206759214401
1772457983233913900,2.010913818359375,0.16203105449676514,0.15111245214939117,0.15017277002334595
1772457983243982800,2.02098291015625,0.20633913576602936,0.0528402253985405,0.15392543375492096
1772457983254051000,2.031051025390625,0.2192145437002182,-0.007380958180874586,0.17062924802303314
1772457983264118800,2.041118896484375,0.20224061608314514,-0.017811762169003487,0.18290267884731293
1772457983274186800,2.051186767578125,0.16996487975120544,-0.012514017522335052,0.20366476476192474
1772457983284256000,2.061256103515625,0.12318699806928635,-0.013442661613225937,0.21313336491584778
1772457983294324000,2.071323974609375,0.0681619942188263,-0.01570751518011093,0.22035424411296844
1772457983304392000,2.081391845703125,0.019526010379195213,-0.005705481860786676,0.2216184437274933
1772457983314461000,2.0914609375,-0.020685650408267975,0.03414732962846756,0.22251568734645844
1772457983324529000,2.10152880859375,-0.0534028522670269,0.10518501698970795,0.22505846619606018
1772457983334597400,2.111597412109375,-0.0744912326335907,0.1656452864408493,0.22176022827625275
1772457983344665600,2.12166552734375,-0.08117017149925232,0.20145708322525024,0.21230201423168182
1772457983354734300,2.131734375,-0.07823018729686737,0.21820130944252014,0.20471251010894775
1772457983364802300,2.14180224609375,-0.062078651040792465,0.22985610365867615,0.2078198939561844
1772457983374870500,2.15187060546875,-0.030123652890324593,0.21425741910934448,0.22164182364940643
1772457983384939500,2.161939453125,0.020181594416499138,0.1341436803340912,0.25057175755500793
1772457983395007500,2.172007568359375,0.07200195640325546,-0.008913299068808556,0.2601224184036255
1772457983405075500,2.182075439453125,0.1151515543460846,-0.18099825084209442,0.258520245552063
1772457983415143400,2.192143310546875,0.15612879395484924,-0.3138016164302826,0.25529101490974426
1772457983425212400,2.20221240234375,0.19197386503219604,-0.37693077325820923,0.25262251496315
1772457983435280600,2.21228076171875,0.22684037685394287,-0.3811975419521332,0.2597976624965668
1772457983445348600,2.2223486328125,0.2633807957172394,-0.31510427594184875,0.28606733679771423
1772457983455416300,2.232416259765625,0.29866471886634827,-0.21007511019706726,0.32191145420074463
1772457983465485300,2.2424853515625,0.32594534754753113,-0.10702089965343475,0.34592437744140625
1772457983475553500,2.252553466796875,0.33131733536720276,-0.014434382319450378,0.36182183027267456
1772457983485621500,2.26262158203125,0.32119545340538025,0.084445059299469,0.37211546301841736
1772457983495690200,2.272690185546875,0.30209434032440186,0.14771389961242676,0.3817064166069031
1772457983505758500,2.282758544921875,0.28261303901672363,0.19744762778282166,0.38237085938453674
1772457983515826400,2.292826416015625,0.25710156559944153,0.24504180252552032,0.3868715465068817
1772457983525894400,2.302894287109375,0.24331465363502502,0.2853732705116272,0.3961278796195984
1772457983535963600,2.312963623046875,0.23094651103019714,0.29183870553970337,0.41007715463638306
1772457983546031400,2.32303125,0.22677573561668396,0.2613561749458313,0.4154164791107178
1772457983556099300,2.333099365234375,0.21959389746189117,0.19652222096920013,0.40221357345581055
1772457983566168600,2.34316845703125,0.2134193629026413,0.1088767945766449,0.3628685772418976
1772457983576236500,2.353236572265625,0.204341322183609,0.012330427765846252,0.3006637990474701
1772457983586304500,2.363304443359375,0.184819296002388,-0.08065464347600937,0.2015228420495987
1772457983596372500,2.37337255859375,0.16707071661949158,-0.15840929746627808,0.08334051817655563
1772457983606441500,2.38344140625,0.15405504405498505,-0.20633341372013092,-0.05964113399386406
1772457983616509400,2.393509521484375,0.13740260899066925,-0.23536129295825958,-0.21482324600219727
1772457983626577400,2.403577392578125,0.10963328927755356,-0.2374982237815857,-0.3828231692314148
1772457983636646400,2.413646484375,0.07145372778177261,-0.20287121832370758,-0.5568900108337402
1772457983646714400,2.42371435546875,0.02015937678515911,-0.10090997070074081,-0.7092329263687134
1772457983656782300,2.4337822265625,-0.04133768379688263,0.05737380310893059,-0.8200998902320862
1772457983666850300,2.443850341796875,-0.0886324942111969,0.24920423328876495,-0.8731588125228882
1772457983676919600,2.45391943359375,-0.11529809236526489,0.451568067073822,-0.862054705619812
1772457983686987500,2.463987548828125,-0.11890454590320587,0.6119186282157898,-0.7987593412399292
1772457983697055200,2.47405517578125,-0.10476496070623398,0.6893972158432007,-0.6997793316841125
1772457983707124500,2.48412451171875,-0.08084311336278915,0.7101637721061707,-0.5817046165466309
1772457983717192400,2.4941923828125,-0.04965074360370636,0.6828440427780151,-0.45089995861053467
1772457983727260400,2.504260498046875,-0.012914566323161125,0.591776967048645,-0.3437149226665497
1772457983737328600,2.51432861328125,0.03479735925793648,0.44729021191596985,-0.25113654136657715
1772457983747397400,2.5243974609375,0.07651977241039276,0.28821852803230286,-0.17112639546394348
1772457983757465300,2.53446533203125,0.10978832095861435,0.138339102268219,-0.11125139892101288
1772457983767533600,2.544533447265625,0.13651235401630402,0.039902012795209885,-0.06517738103866577
1772457983777602600,2.5546025390625,0.1540197879076004,-0.0035817339085042477,-0.03239088132977486
1772457983787670300,2.564670166015625,0.17489098012447357,-0.0380220003426075,-0.02784273587167263
1772457983797738500,2.574738525390625,0.18267063796520233,-0.0682741329073906,-0.05414687469601631
1772457983807806500,2.584806396484375,0.1832573413848877,-0.09049394726753235,-0.09746531397104263
1772457983817875500,2.59487548828125,0.17472052574157715,-0.11671841144561768,-0.1500025987625122
1772457983827943700,2.604943603515625,0.16245320439338684,-0.1502326875925064,-0.21022333204746246
1772457983838011400,2.615011474609375,0.1395692229270935,-0.17229802906513214,-0.2571834623813629
1772457983848080400,2.625080322265625,0.10625308752059937,-0.17743739485740662,-0.2997620701789856
1772457983858148400,2.6351484375,0.06732355058193207,-0.18906766176223755,-0.32605308294296265
1772457983868216600,2.645216552734375,0.03238021209836006,-0.18561753630638123,-0.3426230251789093
1772457983878284500,2.655284423828125,0.00315918424166739,-0.1502409279346466,-0.32350265979766846
1772457983888353300,2.665353271484375,-0.017431044951081276,-0.10400339215993881,-0.2819238007068634
1772457983898421500,2.67542138671875,-0.025431198999285698,-0.0726633295416832,-0.23966443538665771
1772457983908489500,2.685489501953125,-0.026126550510525703,-0.0795380175113678,-0.20139162242412567
1772457983918558500,2.695558349609375,-0.03553386405110359,-0.11540063470602036,-0.1725933700799942
1772457983928626400,2.70562646484375,-0.04976153373718262,-0.163161501288414,-0.1432410627603531
1772457983938694400,2.7156943359375,-0.06766649335622787,-0.22248128056526184,-0.11526922881603241
1772457983948762400,2.725762451171875,-0.08804446458816528,-0.2674032151699066,-0.08707007765769958
1772457983958831600,2.73583154296875,-0.1141674593091011,-0.28600171208381653,-0.04306616261601448
1772457983968899600,2.745899658203125,-0.14538103342056274,-0.2868667244911194,-0.006528392434120178
1772457983978967600,2.755967529296875,-0.1850774735212326,-0.27751728892326355,0.020392397418618202
1772457983989035300,2.76603515625,-0.22131749987602234,-0.24851681292057037,0.030210142955183983
1772457983999104500,2.7761044921875,-0.23996716737747192,-0.19257478415966034,0.03739609196782112
1772457984009172500,2.78617236328125,-0.2513010501861572,-0.11887605488300323,0.02450665831565857
1772457984019240400,2.796240478515625,-0.25235843658447266,-0.04100054129958153,0.028902322053909302
1772457984029309400,2.806309326171875,-0.24345919489860535,0.03433788940310478,0.027698304504156113
1772457984039377400,2.81637744140625,-0.22839795053005219,0.06431788951158524,0.03339134529232979
1772457984049445400,2.8264453125,-0.2079925388097763,0.016712557524442673,0.010777912102639675
1772457984059513300,2.836513427734375,-0.19332200288772583,-0.05960831046104431,-0.019536709412932396
1772457984069582300,2.846582275390625,-0.18370160460472107,-0.10312622785568237,-0.03983745723962784
1772457984079650300,2.856650390625,-0.18628095090389252,-0.0979083776473999,-0.05599318444728851
1772457984089718300,2.86671826171875,-0.17970667779445648,-0.08186043798923492,-0.06961126625537872
1772457984099787500,2.87678759765625,-0.15987420082092285,-0.08138995617628098,-0.07741580158472061
1772457984109855500,2.88685546875,-0.13383089005947113,-0.10665563493967056,-0.07404983788728714
1772457984119923500,2.89692333984375,-0.11037122458219528,-0.1447831690311432,-0.08122581243515015
1772457984129991400,2.906991455078125,-0.1111893504858017,-0.19585594534873962,-0.10325281322002411
1772457984140060400,2.917060302734375,-0.12664447724819183,-0.2241930365562439,-0.13305997848510742
1772457984150128400,2.92712841796875,-0.1495833396911621,-0.23317775130271912,-0.1714281439781189
1772457984160196600,2.937196533203125,-0.17427656054496765,-0.2426224946975708,-0.1898055076599121
1772457984170265300,2.947265380859375,-0.1917239874601364,-0.24847081303596497,-0.19194722175598145
1772457984180333300,2.957333251953125,-0.21014368534088135,-0.25387802720069885,-0.17522260546684265
1772457984190401500,2.967401611328125,-0.22323419153690338,-0.2517685294151306,-0.14529931545257568
1772457984200469500,2.977469482421875,-0.2414667308330536,-0.24995574355125427,-0.1112680658698082
1772457984210538500,2.98753857421875,-0.26493024826049805,-0.23570357263088226,-0.07573217898607254
1772457984220606500,2.9976064453125,-0.30011361837387085,-0.18958432972431183,-0.03806506097316742
1772457984230674400,3.00767431640625,-0.3318643569946289,-0.12883204221725464,-0.01343241985887289
1772457984240743400,3.017743408203125,-0.3433815836906433,-0.08959314972162247,0.006497917231172323
1772457984250811400,3.027811279296875,-0.34642449021339417,-0.06854192912578583,0.03038487397134304
1772457984260879600,3.037879638671875,-0.34275397658348083,-0.041273102164268494,0.06308496743440628
1772457984270947600,3.047947509765625,-0.33508485555648804,0.004302637185901403,0.10231226682662964
1772457984281016300,3.058016357421875,-0.32587558031082153,0.06734129786491394,0.155962735414505
1772457984291084500,3.06808447265625,-0.3127235770225525,0.1339261829853058,0.2201949954032898
1772457984301152500,3.078152587890625,-0.3057607412338257,0.1698482185602188,0.267204612493515
1772457984311221200,3.08822119140625,-0.2993750274181366,0.1792377233505249,0.30224862694740295
1772457984321289500,3.09828955078125,-0.29746806621551514,0.17483006417751312,0.3191297948360443
1772457984331357400,3.108357421875,-0.2951178252696991,0.15005441009998322,0.32079240679740906
1772457984341425200,3.118425048828125,-0.2933526039123535,0.10982560366392136,0.3033708333969116
1772457984351494400,3.128494384765625,-0.28957223892211914,0.0547034926712513,0.2703894376754761
1772457984361562400,3.138562255859375,-0.28976982831954956,-0.007620868738740683,0.22062839567661285
1772457984371630000,3.148630126953125,-0.2807249426841736,-0.07975045591592789,0.15775994956493378
1772457984381699300,3.15869921875,-0.27189821004867554,-0.16802500188350677,0.08675388991832733
1772457984391767300,3.168767333984375,-0.2736242115497589,-0.2746683657169342,0.009699046611785889
1772457984401835300,3.178835205078125,-0.29780101776123047,-0.38115254044532776,-0.09392266720533371
1772457984411903500,3.188903564453125,-0.3291645348072052,-0.4680163264274597,-0.2230050265789032
1772457984421972200,3.19897216796875,-0.36138978600502014,-0.5015955567359924,-0.35076963901519775
1772457984432040200,3.209040283203125,-0.4004775285720825,-0.45786163210868835,-0.46663498878479004
1772457984442108400,3.2191083984375,-0.4433170258998871,-0.3457416296005249,-0.5735201835632324
1772457984452176400,3.22917626953125,-0.4876099228858948,-0.16510315239429474,-0.641022801399231
1772457984462245000,3.2392451171875,-0.5163586735725403,0.06490138918161392,-0.6689544320106506
1772457984472313000,3.24931298828125,-0.5206884145736694,0.28147178888320923,-0.6619247198104858
1772457984482381300,3.25938134765625,-0.48679614067077637,0.42068514227867126,-0.6240429282188416
1772457984492450300,3.2694501953125,-0.43078187108039856,0.4784190058708191,-0.5628030300140381
1772457984502518300,3.279518310546875,-0.3639615476131439,0.5045235753059387,-0.4899751842021942
1772457984512586200,3.289586181640625,-0.29431694746017456,0.49663639068603516,-0.40601688623428345
1772457984522654200,3.299654296875,-0.21211086213588715,0.43211135268211365,-0.32172173261642456
1772457984532723200,3.30972314453125,-0.12975500524044037,0.3108786642551422,-0.25507453083992004
1772457984542791400,3.31979150390625,-0.05776210501790047,0.15141171216964722,-0.19943854212760925
1772457984552859400,3.329859375,-0.01074452605098486,-0.01660125143826008,-0.1517045795917511
1772457984562928000,3.33992822265625,0.018807223066687584,-0.1775137335062027,-0.12147153168916702
1772457984572996400,3.349996337890625,0.0334109328687191,-0.302890807390213,-0.10753601044416428
1772457984583064300,3.360064208984375,0.04017632454633713,-0.3666864335536957,-0.11151930689811707
1772457984593132300,3.37013232421875,0.044246699661016464,-0.3556468188762665,-0.12741172313690186
1772457984603201300,3.380201171875,0.05493364855647087,-0.2905658781528473,-0.1533808559179306
1772457984613269200,3.390269287109375,0.06601852178573608,-0.1941210925579071,-0.17909768223762512
1772457984623337200,3.400337158203125,0.07628227025270462,-0.1016378253698349,-0.2162380814552307
1772457984633406200,3.41040625,0.08856263756752014,-0.035071853548288345,-0.2617451250553131
1772457984643474400,3.420474365234375,0.10966254770755768,0.015123879536986351,-0.3035358190536499
1772457984653542400,3.43054248046875,0.14528338611125946,0.0429278127849102,-0.32095688581466675
1772457984663610000,3.440610107421875,0.19875088334083557,0.05433788150548935,-0.3169773519039154
1772457984673679400,3.450679443359375,0.25303810834884644,0.04283329099416733,-0.2924669682979584
1772457984683747300,3.460747314453125,0.2944422662258148,0.028146756812930107,-0.24781163036823273
1772457984693815300,3.470815185546875,0.3279901146888733,0.029139583930373192,-0.1903667151927948
1772457984703884300,3.48088427734375,0.3506421148777008,0.05208558589220047,-0.11501654237508774
1772457984713952300,3.4909521484375,0.37575146555900574,0.10787907242774963,-0.0321727879345417
1772457984724020200,3.501020263671875,0.3967444896697998,0.1764359176158905,0.07388067245483398
1772457984734088200,3.511088134765625,0.4180849492549896,0.19450759887695312,0.1697707176208496
1772457984744157400,3.521157470703125,0.4237946569919586,0.1527842879295349,0.23414210975170135
1772457984754225200,3.53122509765625,0.40746548771858215,0.10203509777784348,0.285853773355484
1772457984764293000,3.541293212890625,0.3784444034099579,0.07407768815755844,0.3316524922847748
1772457984774361300,3.551361328125,0.34089064598083496,0.09103323519229889,0.3690747022628784
1772457984784430300,3.561430419921875,0.30941957235336304,0.1187674030661583,0.40618404746055603
1772457984794498300,3.571498291015625,0.3020697832107544,0.13037799298763275,0.43954867124557495
1772457984804566300,3.581566162109375,0.3222437798976898,0.10973933339118958,0.4541366994380951
1772457984814635300,3.59163525390625,0.3571615517139435,0.06498358398675919,0.47031593322753906
1772457984824703200,3.601703125,0.3932083547115326,0.011536458507180214,0.47045090794563293
1772457984834771500,3.611771484375,0.4191664457321167,-0.04238216578960419,0.46468356251716614
1772457984844839400,3.62183935546875,0.4345627725124359,-0.10188591480255127,0.4380170404911041
1772457984854908200,3.631908203125,0.44180870056152344,-0.166330948472023,0.3916093409061432
1772457984864976100,3.64197607421875,0.4327440559864044,-0.23109403252601624,0.3219674527645111
1772457984875044400,3.65204443359375,0.41948363184928894,-0.25066399574279785,0.2386469841003418
1772457984885113300,3.66211328125,0.39955613017082214,-0.21505317091941833,0.16476024687290192
1772457984895181000,3.67218115234375,0.3818722069263458,-0.13789713382720947,0.0990733802318573
1772457984905249300,3.682249267578125,0.3663196563720703,-0.0349016971886158,0.05443912371993065
1772457984915317200,3.692317138671875,0.3634093701839447,0.08050106465816498,0.03291891887784004
1772457984925386200,3.70238623046875,0.37381765246391296,0.1831894814968109,0.03548417612910271
1772457984935454500,3.712454345703125,0.3899180591106415,0.264659583568573,0.06743519008159637
1772457984945522400,3.7225224609375,0.41087448596954346,0.31803542375564575,0.1145160123705864
1772457984955591200,3.732591064453125,0.4356432259082794,0.37288030982017517,0.1737271398305893
1772457984965659400,3.742659423828125,0.4654395282268524,0.44512155652046204,0.24955356121063232
1772457984975727400,3.752727294921875,0.5101001858711243,0.5206277370452881,0.310578852891922
1772457984985795300,3.76279541015625,0.5693921446800232,0.5674005150794983,0.3489208221435547
1772457984995864300,3.7728642578125,0.6330864429473877,0.5542724132537842,0.35494568943977356
1772457985005932300,3.782932373046875,0.6973819136619568,0.4887846112251282,0.3287349343299866
1772457985016000300,3.793000244140625,0.7586756348609924,0.38921141624450684,0.2727201581001282
1772457985026069200,3.8030693359375,0.8030039668083191,0.3070017993450165,0.20245712995529175
1772457985036137200,3.81313720703125,0.8346125483512878,0.26474088430404663,0.12359718978404999
1772457985046205200,3.823205078125,0.8438937067985535,0.24076849222183228,0.04842052236199379
1772457985056273200,3.833273193359375,0.8361737132072449,0.21162739396095276,-0.02889450639486313
1772457985066342400,3.84334228515625,0.8062782287597656,0.1843673437833786,-0.10961326211690903
1772457985076410400,3.853410400390625,0.7626620531082153,0.16976283490657806,-0.20817898213863373
1772457985086478300,3.863478271484375,0.719443142414093,0.1818237155675888,-0.30555278062820435
1772457985096546000,3.873546142578125,0.6802935600280762,0.19988660514354706,-0.4071851372718811
1772457985106615300,3.883615234375,0.6516682505607605,0.2098451405763626,-0.508312463760376
1772457985116683300,3.893683349609375,0.6204062104225159,0.22661906480789185,-0.596177339553833
1772457985126751200,3.903751220703125,0.5932208299636841,0.25290486216545105,-0.6827647089958191
1772457985136820200,3.9138203125,0.582315981388092,0.283203661441803,-0.7564336061477661
1772457985146888200,3.92388818359375,0.5784692168235779,0.3022206723690033,-0.8099133968353271
1772457985156956200,3.9339560546875,0.587274432182312,0.322561651468277,-0.8501055240631104
1772457985167024400,3.9440244140625,0.601376473903656,0.3601684868335724,-0.8510099053382874
1772457985177093400,3.95409326171875,0.6260508894920349,0.39987704157829285,-0.8220922350883484
1772457985187161000,3.9641611328125,0.6576718688011169,0.4209395945072174,-0.7618025541305542
1772457985197229300,3.974229248046875,0.6935640573501587,0.4354165196418762,-0.6814741492271423
1772457985207298300,3.98429833984375,0.7256556153297424,0.43442708253860474,-0.5719947218894958
1772457985217366300,3.9943662109375,0.7474985718727112,0.4077911972999573,-0.4612759053707123
1772457985227434500,4.0044345703125,0.7500370144844055,0.3589569330215454,-0.3493978679180145
1772457985237502500,4.01450244140625,0.7418158650398254,0.2817226052284241,-0.24988140165805817
1772457985247571200,4.0245712890625,0.7282581925392151,0.19950683414936066,-0.15770100057125092
1772457985257639200,4.03463916015625,0.7195286154747009,0.12826195359230042,-0.07936491817235947
1772457985267707400,4.044707275390625,0.7178604602813721,0.06839998811483383,-0.011899828910827637
1772457985277776100,4.054776123046875,0.7233029007911682,0.036276672035455704,0.028540005907416344
1772457985287844000,4.064843994140625,0.7354220151901245,0.03322139009833336,0.06006263196468353
1772457985297912300,4.074912353515625,0.7490595579147339,0.04520934075117111,0.06841323524713516
1772457985307980300,4.084980224609375,0.76041579246521,0.04516085609793663,0.08282697945833206
1772457985318049300,4.09504931640625,0.7666776776313782,0.033155590295791626,0.08499399572610855
1772457985328117200,4.1051171875,0.7651684284210205,0.0007369094528257847,0.10207929462194443
1772457985338185000,4.11518505859375,0.7527331113815308,-0.03516276925802231,0.11658605933189392
1772457985348254000,4.12525390625,0.7254866361618042,-0.06730438023805618,0.14705388247966766
1772457985358322200,4.135322265625,0.6821333169937134,-0.07225146889686584,0.19447200000286102
1772457985368390100,4.14539013671875,0.6200593709945679,-0.06063329800963402,0.25279733538627625
1772457985378458000,4.1554580078125,0.5505695343017578,-0.036779098212718964,0.3089607357978821
1772457985388526800,4.16552685546875,0.4815088212490082,-0.014126131311058998,0.357398122549057
1772457985398595000,4.175594970703125,0.40765565633773804,-0.01347312331199646,0.3995162844657898
1772457985408663000,4.1856630859375,0.33759334683418274,-0.04180395230650902,0.41834914684295654
1772457985418731000,4.19573095703125,0.2676084041595459,-0.10216157138347626,0.4262312948703766
1772457985428800000,4.205800048828125,0.20466622710227966,-0.18359404802322388,0.4160275161266327
1772457985438868000,4.215867919921875,0.14701439440250397,-0.2615996301174164,0.38764646649360657
1772457985448936000,4.22593603515625,0.09821207076311111,-0.3393923342227936,0.3415977358818054
1772457985459005200,4.236005126953125,0.04956597089767456,-0.404583603143692,0.2875446379184723
1772457985469073200,4.2460732421875,-0.002601505955681205,-0.43541833758354187,0.240708127617836
1772457985479141000,4.25614111328125,-0.05329397693276405,-0.42581576108932495,0.19876892864704132
1772457985489208800,4.266208740234375,-0.09147319197654724,-0.37851443886756897,0.15918858349323273
1772457985499278000,4.276278076171875,-0.10982397198677063,-0.32064953446388245,0.1120905801653862
1772457985509346000,4.286345947265625,-0.10889168083667755,-0.24757303297519684,0.07584502547979355
1772457985519414000,4.2964140625,-0.09560170769691467,-0.16676820814609528,0.03882575407624245
1772457985529483000,4.30648291015625,-0.06961305439472198,-0.07873453944921494,0.010634097270667553
1772457985539551000,4.316551025390625,-0.02970212511718273,-0.0050097196362912655,-0.009595807641744614
1772457985549619000,4.326618896484375,0.023873498663306236,0.05245623365044594,-0.026005953550338745
1772457985559688200,4.336688232421875,0.08929431438446045,0.11321225762367249,-0.024938292801380157
1772457985569757000,4.3467568359375,0.15312133729457855,0.1615428775548935,0.0028360900469124317
1772457985579825000,4.356824951171875,0.21706196665763855,0.1344771683216095,0.01592712476849556
1772457985589893000,4.36689306640625,0.28068244457244873,0.02903672680258751,0.0023661539889872074
1772457985599962000,4.376962158203125,0.3420238494873047,-0.10216762870550156,-0.031782492995262146
1772457985610029800,4.38702978515625,0.41233888268470764,-0.2326274961233139,-0.08395419269800186
1772457985620098000,4.39709814453125,0.4800116717815399,-0.3102099299430847,-0.15040645003318787
1772457985630166000,4.407166015625,0.5357873439788818,-0.3195703625679016,-0.20585231482982635
1772457985640235000,4.417235107421875,0.5715025067329407,-0.3042009770870209,-0.27440953254699707
1772457985650303200,4.42730322265625,0.5970907211303711,-0.25454097986221313,-0.3306138515472412
1772457985660371000,4.437370849609375,0.6200844645500183,-0.16484703123569489,-0.38043439388275146
1772457985670440000,4.44743994140625,0.6365017890930176,-0.045059073716402054,-0.4166826605796814
1772457985680508200,4.457508056640625,0.6422291994094849,0.09773162752389908,-0.443909227848053
1772457985690576100,4.467576171875,0.6364270448684692,0.24114103615283966,-0.47038352489471436
1772457985700644000,4.47764404296875,0.6465097665786743,0.3573022484779358,-0.49068665504455566
1772457985710713000,4.487713134765625,0.6773025989532471,0.44513261318206787,-0.4931476414203644
1772457985720781000,4.497781005859375,0.7144374847412109,0.47317594289779663,-0.4891915023326874
1772457985730849000,4.50784912109375,0.7537854313850403,0.4455709457397461,-0.4731645882129669
1772457985740918000,4.51791796875,0.788323700428009,0.3975861072540283,-0.44683897495269775
1772457985750986000,4.527986083984375,0.8242357969284058,0.3233445882797241,-0.4158669412136078
1772457985761054000,4.538053955078125,0.853882908821106,0.23522989451885223,-0.37947162985801697
1772457985771122000,4.548121826171875,0.8812856078147888,0.1472063660621643,-0.34261244535446167
1772457985781191200,4.558191162109375,0.9193043112754822,0.042968109250068665,-0.2954265773296356
1772457985791259100,4.568259033203125,0.9669167399406433,-0.08799830079078674,-0.2302931398153305
1772457985801327000,4.5783271484375,1.0185282230377197,-0.21743619441986084,-0.14238671958446503
1772457985811394800,4.588394775390625,1.0694283246994019,-0.29366400837898254,-0.023861536756157875
1772457985821464000,4.598464111328125,1.1133347749710083,-0.3098110258579254,0.10073845088481903
1772457985831532000,4.608531982421875,1.1419428586959839,-0.27527105808258057,0.2216312736272812
1772457985841600000,4.61860009765625,1.1638699769973755,-0.20040664076805115,0.32412782311439514
1772457985851669000,4.6286689453125,1.1753895282745361,-0.10693420469760895,0.4050021171569824
1772457985861737000,4.638737060546875,1.176081657409668,-0.02215566299855709,0.458238422870636
1772457985871805000,4.648804931640625,1.175641655921936,0.039195843040943146,0.4782763123512268
1772457985881873200,4.658873046875,1.1802183389663696,0.06904269009828568,0.4706628620624542
1772457985891942100,4.668942138671875,1.1833722591400146,0.07013559341430664,0.4388431906700134
1772457985902009900,4.679009765625,1.191835880279541,0.06785672158002853,0.3932131230831146
1772457985912078000,4.689078125,1.1961746215820312,0.07549124956130981,0.3505237400531769
1772457985922147000,4.69914697265625,1.197904348373413,0.10144348442554474,0.30941545963287354
1772457985932215000,4.709215087890625,1.1938663721084595,0.13716700673103333,0.27833935618400574
1772457985942283000,4.719282958984375,1.1855934858322144,0.15588583052158356,0.24639365077018738
1772457985952351000,4.72935107421875,1.179770827293396,0.17043736577033997,0.21695250272750854
1772457985962420000,4.739419921875,1.176188588142395,0.17710299789905548,0.19358432292938232
1772457985972488000,4.749488037109375,1.1857527494430542,0.16996008157730103,0.16379350423812866
1772457985982556200,4.75955615234375,1.1984901428222656,0.16056284308433533,0.14794130623340607
1772457985992624000,4.7696240234375,1.215043544769287,0.1467549055814743,0.13491345942020416
1772457986002692900,4.77969287109375,1.229022741317749,0.1390724927186966,0.12671464681625366
1772457986012761000,4.789760986328125,1.2453901767730713,0.1496354639530182,0.12937721610069275
1772457986022829000,4.7998291015625,1.2617433071136475,0.15934161841869354,0.13263480365276337
1772457986032898000,4.80989794921875,1.2789671421051025,0.15815965831279755,0.12920986115932465
1772457986042966000,4.819966064453125,1.2967826128005981,0.17466220259666443,0.12558503448963165
1772457986053034000,4.830033935546875,1.3105790615081787,0.2199084311723709,0.12507231533527374
1772457986063102000,4.84010205078125,1.3227590322494507,0.25564539432525635,0.12098996341228485
1772457986073171200,4.850171142578125,1.3390694856643677,0.2700408101081848,0.11818044632673264
1772457986083239200,4.8602392578125,1.358669638633728,0.27679112553596497,0.1183554157614708
1772457986093307100,4.87030712890625,1.37869131565094,0.2723464071750641,0.1244577094912529
1772457986103376000,4.8803759765625,1.3946268558502197,0.2501351237297058,0.12453734129667282
1772457986113444000,4.890444091796875,1.4055787324905396,0.22521096467971802,0.11807865649461746
1772457986123512000,4.900511962890625,1.4190887212753296,0.20858165621757507,0.10091804713010788
1772457986133580000,4.910580078125,1.434770941734314,0.1983186900615692,0.07135454565286636
1772457986143649000,4.92064892578125,1.4511665105819702,0.19557644426822662,0.027258453890681267
1772457986153717000,4.930717041015625,1.4702085256576538,0.21235129237174988,-0.016567818820476532
1772457986163785000,4.940784912109375,1.4876954555511475,0.24439871311187744,-0.06472469121217728
1772457986173854200,4.950854248046875,1.508581280708313,0.2726655602455139,-0.12175817042589188
1772457986183922200,4.960922119140625,1.5343897342681885,0.29729634523391724,-0.17595243453979492
1772457986193990000,4.970989990234375,1.5611695051193237,0.3191932737827301,-0.2269820272922516
1772457986204057900,4.981057861328125,1.592329502105713,0.3284949064254761,-0.27486592531204224
1772457986214127000,4.991127197265625,1.6210476160049438,0.31282150745391846,-0.32408058643341064
1772457986224195000,5.001195068359375,1.651284098625183,0.29745587706565857,-0.37334081530570984
1772457986234263000,5.011262939453125,1.6805001497268677,0.2863415479660034,-0.4219016134738922
1772457986244331000,5.0213310546875,1.718290090560913,0.25077393651008606,-0.4791518747806549
1772457986254400000,5.03139990234375,1.7553883790969849,0.1944570541381836,-0.5334977507591248
1772457986264468000,5.041468017578125,1.7985920906066895,0.14935243129730225,-0.5602785348892212
1772457986274536200,5.0515361328125,1.8364983797073364,0.11168086528778076,-0.5574331283569336
1772457986284605000,5.06160498046875,1.8694547414779663,0.08613501489162445,-0.5314790606498718
1772457986294673000,5.0716728515625,1.9015250205993652,0.08292650431394577,-0.48733943700790405
1772457986304741000,5.0817412109375,1.9278922080993652,0.09698054194450378,-0.42865484952926636
1772457986314809000,5.09180908203125,1.9511888027191162,0.12689746916294098,-0.3581426739692688
1772457986324878000,5.101878173828125,1.9673826694488525,0.16122721135616302,-0.28704240918159485
1772457986334947000,5.111947021484375,1.9773063659667969,0.20101454854011536,-0.2244536578655243
1772457986345015000,5.12201513671875,1.985054850578308,0.22895830869674683,-0.17289592325687408
1772457986355084300,5.132084228515625,1.9859875440597534,0.2469034343957901,-0.13557055592536926
1772457986365152000,5.142152099609375,1.9765578508377075,0.2548966407775879,-0.10952537506818771
1772457986375220000,5.152219970703125,1.9546523094177246,0.26959797739982605,-0.09254542738199234
1772457986385288200,5.1622880859375,1.9328655004501343,0.2949371635913849,-0.07662611454725266
1772457986395357200,5.172357177734375,1.9165246486663818,0.33494338393211365,-0.05684240162372589
1772457986405425200,5.182425048828125,1.9035507440567017,0.3984573781490326,-0.034242548048496246
1772457986415493400,5.192493408203125,1.8978800773620605,0.4892149865627289,0.0024284720420837402
1772457986425561000,5.20256103515625,1.9085843563079834,0.5893687009811401,0.042584411799907684
1772457986435630000,5.212630126953125,1.92514967918396,0.6330790519714355,0.07182915508747101
1772457986445698300,5.2226982421875,1.9426871538162231,0.6002963185310364,0.07161876559257507
1772457986455766300,5.232766357421875,1.9521042108535767,0.5326471924781799,0.049030277878046036
1772457986465835000,5.2428349609375,1.9515215158462524,0.4955027401447296,0.026456527411937714
1772457986475903200,5.2529033203125,1.9420281648635864,0.504866361618042,0.00589554850012064
1772457986485971200,5.26297119140625,1.9211268424987793,0.5193347334861755,-0.004222865216434002
1772457986496039200,5.2730390625,1.8974294662475586,0.4977286159992218,-0.012329014018177986
1772457986506108200,5.283108154296875,1.8766075372695923,0.45248788595199585,-0.013154594227671623
1772457986516176100,5.293176025390625,1.8641027212142944,0.4359862208366394,0.01111576147377491
1772457986526244000,5.303244140625,1.8608864545822144,0.4540562927722931,0.05161498486995697
1772457986536313000,5.31331298828125,1.8632813692092896,0.45794177055358887,0.09656112641096115
1772457986546381300,5.32338134765625,1.8706059455871582,0.43180444836616516,0.12710358202457428
1772457986556449300,5.33344921875,1.890062689781189,0.38653844594955444,0.13725608587265015
1772457986566517000,5.34351708984375,1.9219905138015747,0.34265220165252686,0.14052484929561615
1772457986576586200,5.353586181640625,1.9659518003463745,0.32157400250434875,0.14614596962928772
1772457986586654200,5.363654296875,2.014726161956787,0.33423998951911926,0.14897584915161133
1772457986596722200,5.37372216796875,2.0496532917022705,0.36984506249427795,0.15990255773067474
1772457986606790100,5.3837900390625,2.073744535446167,0.43779030442237854,0.17163565754890442
1772457986616859100,5.393859130859375,2.0860097408294678,0.5041870474815369,0.1901068389415741
1772457986626927000,5.403927001953125,2.0852975845336914,0.5474237203598022,0.20688368380069733
1772457986636995000,5.4139951171875,2.07720685005188,0.5723778605461121,0.22643731534481049
1772457986647064300,5.424064208984375,2.069200277328491,0.5853878855705261,0.2520049810409546
1772457986657132000,5.434132080078125,2.0669009685516357,0.581215500831604,0.27589792013168335
1772457986667200000,5.444199951171875,2.0651779174804688,0.5552472472190857,0.284999281167984
1772457986677268200,5.454268310546875,2.0680437088012695,0.5250244140625,0.2887611985206604
1772457986687337200,5.464337158203125,2.0715339183807373,0.4989970624446869,0.2852080166339874
1772457986697405200,5.4744052734375,2.0791101455688477,0.44862428307533264,0.27700120210647583
1772457986707473200,5.48447314453125,2.0851073265075684,0.37642812728881836,0.2522825300693512
1772457986717542100,5.494542236328125,2.088827133178711,0.2929723858833313,0.22187484800815582
1772457986727610000,5.504610107421875,2.0925118923187256,0.2292405217885971,0.1915193498134613
1772457986737678000,5.514677978515625,2.087655544281006,0.18448807299137115,0.1613001823425293
1772457986747746300,5.524746337890625,2.080380916595459,0.14579713344573975,0.12079325318336487
1772457986757815000,5.53481494140625,2.0663490295410156,0.0942755863070488,0.07131940871477127
1772457986767883000,5.544883056640625,2.046945095062256,0.03513849899172783,0.010191339068114758
1772457986777951200,5.554951171875,2.013219118118286,-0.03899309039115906,-0.06445600837469101
1772457986788020200,5.565020263671875,1.9534387588500977,-0.12982632219791412,-0.15787702798843384
1772457986798088200,5.575088134765625,1.8806443214416504,-0.20157814025878906,-0.2679288983345032
1772457986808156200,5.58515625,1.7993996143341064,-0.20515450835227966,-0.365790992975235
1772457986818224000,5.59522412109375,1.7095458507537842,-0.11826195567846298,-0.43971237540245056
1772457986828293000,5.605293212890625,1.6277040243148804,0.03628767281770706,-0.4696367084980011
1772457986838361300,5.615361328125,1.566227912902832,0.2331884205341339,-0.45090973377227783
1772457986848429300,5.62542919921875,1.5293692350387573,0.40858927369117737,-0.3927425444126129
1772457986858498000,5.635498046875,1.5122218132019043,0.5385817289352417,-0.3095661699771881
1772457986868566000,5.64556591796875,1.5069658756256104,0.6527042984962463,-0.23215341567993164
1772457986878634200,5.65563427734375,1.5159566402435303,0.7248244881629944,-0.17981629073619843
1772457986888702200,5.6657021484375,1.5382486581802368,0.7549563050270081,-0.14975425601005554
1772457986898771000,5.67577099609375,1.5686407089233398,0.7446414828300476,-0.13614137470722198
1772457986908839200,5.685839111328125,1.5972026586532593,0.714042067527771,-0.11670456826686859
1772457986918907100,5.6959072265625,1.6180039644241333,0.6546868085861206,-0.08270236849784851
1772457986928975000,5.70597509765625,1.6276828050613403,0.5765358209609985,-0.02330722287297249
1772457986939044400,5.71604443359375,1.6168261766433716,0.48809003829956055,0.06197014078497887
1772457986949112000,5.726112060546875,1.5902398824691772,0.4148603081703186,0.1679418534040451
1772457986959180000,5.736179931640625,1.5508067607879639,0.36311662197113037,0.28835198283195496
1772457986969249300,5.746249267578125,1.504698634147644,0.3221750557422638,0.399076372385025
1772457986979317200,5.756317138671875,1.4587976932525635,0.2908618748188019,0.4851975440979004
1772457986989385200,5.76638525390625,1.4180833101272583,0.26163315773010254,0.5384575724601746
1772457986999453200,5.776453125,1.3831678628921509,0.24875479936599731,0.5626556873321533
1772457987009522200,5.786522216796875,1.3525830507278442,0.2564212381839752,0.5578436255455017
1772457987019590100,5.796590087890625,1.3188319206237793,0.2771224081516266,0.5388051867485046
1772457987029658000,5.806658203125,1.2766426801681519,0.3072691261768341,0.4989326298236847
1772457987039727000,5.81672705078125,1.2285667657852173,0.3310787081718445,0.44560277462005615
1772457987049795000,5.826795166015625,1.1744047403335571,0.3623708486557007,0.38673412799835205
1772457987059863000,5.836863037109375,1.1156286001205444,0.36805805563926697,0.3123731017112732
1772457987069931300,5.84693115234375,1.0409841537475586,0.3457772433757782,0.22681400179862976
1772457987080000300,5.857000244140625,0.9605751633644104,0.31577444076538086,0.13648082315921783
1772457987090068200,5.867068115234375,0.8804997801780701,0.2981799840927124,0.056476280093193054
1772457987100136000,5.877135986328125,0.7912996411323547,0.30543583631515503,-0.009161338210105896
1772457987110204200,5.8872041015625,0.6993513107299805,0.33164799213409424,-0.06100935861468315
1772457987120273200,5.897273193359375,0.6254734992980957,0.38067713379859924,-0.1156027689576149
1772457987130341000,5.907341064453125,0.582485020160675,0.43998920917510986,-0.16915467381477356
1772457987140409300,5.917409423828125,0.5696762800216675,0.4992365539073944,-0.22638466954231262
1772457987150478000,5.92747802734375,0.5855029225349426,0.5546180605888367,-0.27751097083091736
1772457987160546000,5.937546142578125,0.6145785450935364,0.6053851246833801,-0.3144836723804474
1772457987170614300,5.9476142578125,0.6559483408927917,0.6301535964012146,-0.33522409200668335
1772457987180682200,5.95768212890625,0.6973860263824463,0.6332835555076599,-0.3389393091201782
1772457987190751000,5.9677509765625,0.7358239889144897,0.6250807642936707,-0.31668832898139954
1772457987200819200,5.977819091796875,0.7727479934692383,0.5972364544868469,-0.2687346041202545
1772457987210887200,5.98788720703125,0.804222583770752,0.5413737297058105,-0.19740185141563416
1772457987220956200,5.9979560546875,0.8330898284912109,0.4604015648365021,-0.12178447097539902
1772457987231024400,6.0080244140625,0.852138340473175,0.3790228068828583,-0.05463046953082085
1772457987241092000,6.018092041015625,0.8728203177452087,0.29163771867752075,0.0009321670513600111
1772457987251160000,6.02816015625,0.9033380150794983,0.2063041776418686,0.03927928954362869
1772457987261229000,6.03822900390625,0.9325993657112122,0.13902164995670319,0.06265826523303986
1772457987271297300,6.04829736328125,0.9587172269821167,0.09557884186506271,0.06925144791603088
1772457987281365200,6.058365234375,0.971397876739502,0.0807223692536354,0.06667888909578323
1772457987291434000,6.06843408203125,0.9754077792167664,0.09143173694610596,0.05756795033812523
1772457987301502200,6.078502197265625,0.977476954460144,0.1107558086514473,0.059203650802373886
1772457987311570200,6.088570068359375,0.9760923981666565,0.12235759943723679,0.06664399802684784
1772457987321638100,6.09863818359375,0.9698877930641174,0.13526837527751923,0.08549626916646957
1772457987331707100,6.10870703125,0.9611246585845947,0.14421473443508148,0.11725073307752609
1772457987341774300,6.1187744140625,0.9448889493942261,0.12710657715797424,0.16952219605445862
1772457987351842000,6.128842041015625,0.9122641682624817,0.1045762449502945,0.234683096408844
1772457987361910300,6.13891015625,0.8730016946792603,0.08926569670438766,0.2982175648212433
1772457987371979300,6.148979248046875,0.8243792653083801,0.07439087331295013,0.3347145915031433
1772457987382047200,6.159047119140625,0.7918068170547485,0.061407532542943954,0.33856579661369324
1772457987392115500,6.169115478515625,0.7744269967079163,0.03817251697182655,0.30048951506614685
1772457987402184200,6.17918408203125,0.7761993408203125,-0.008947367779910564,0.21761217713356018
1772457987412252200,6.189252197265625,0.7802625298500061,-0.06757313013076782,0.09949033707380295
1772457987422320400,6.1993203125,0.782495379447937,-0.13458077609539032,-0.0483132004737854
1772457987432388400,6.209388427734375,0.7749202847480774,-0.1943197399377823,-0.2196442037820816
1772457987442457000,6.21945703125,0.7552350759506226,-0.24056442081928253,-0.412958025932312
1772457987452525300,6.229525390625,0.7331414818763733,-0.26448413729667664,-0.6116437315940857
1772457987462593300,6.23959326171875,0.7064530849456787,-0.23567785322666168,-0.7985433340072632
1772457987472661200,6.2496611328125,0.6861792802810669,-0.1426914632320404,-0.9512713551521301
1772457987482730500,6.25973046875,0.6790082454681396,-0.03341919556260109,-1.053852915763855
1772457987492798200,6.269798095703125,0.6864411234855652,0.09515529125928879,-1.0824629068374634
1772457987502866200,6.2798662109375,0.7086753249168396,0.21925435960292816,-1.0223441123962402
1772457987512935200,6.28993505859375,0.7482725381851196,0.2961041033267975,-0.8976690173149109
1772457987523003400,6.30000341796875,0.7854294776916504,0.3356461822986603,-0.7439733743667603
1772457987533071400,6.3100712890625,0.8257238864898682,0.33932241797447205,-0.5827760100364685
1772457987543139300,6.320139404296875,0.8725001811981201,0.3006223738193512,-0.42607197165489197
1772457987553208300,6.330208251953125,0.9203087091445923,0.2214766889810562,-0.285412073135376
1772457987563276300,6.3402763671875,0.9513248205184937,0.10562661290168762,-0.16435036063194275
1772457987573344300,6.35034423828125,0.9596375823020935,-0.041480012238025665,-0.05820075795054436
1772457987583413200,6.360413330078125,0.9451223015785217,-0.17547184228897095,0.019645817577838898
1772457987593481200,6.370481201171875,0.9115979075431824,-0.27043643593788147,0.06230859085917473
1772457987603549200,6.380549072265625,0.8758012056350708,-0.3030959665775299,0.07961252331733704
1772457987613617200,6.3906171875,0.8377590179443359,-0.272716760635376,0.07166565209627151
1772457987623686400,6.400686279296875,0.803400456905365,-0.22274896502494812,0.04388751462101936
1772457987633754400,6.41075439453125,0.7699609994888306,-0.17268259823322296,-0.004335139412432909
1772457987643822000,6.420822021484375,0.729933500289917,-0.10706622898578644,-0.056555673480033875
1772457987653891300,6.430891357421875,0.6965219974517822,-0.03754041716456413,-0.10047173500061035
1772457987663959300,6.440959228515625,0.6757500171661377,0.026390239596366882,-0.1329990029335022
1772457987674027300,6.45102734375,0.6712679266929626,0.08387670665979385,-0.151376411318779
1772457987684095500,6.461095458984375,0.6710895895957947,0.12618322670459747,-0.1552809476852417
1772457987694164200,6.471164306640625,0.6777712106704712,0.1524883359670639,-0.14977459609508514
1772457987704232200,6.481232177734375,0.68060302734375,0.1620457023382187,-0.12385039031505585
1772457987714300400,6.491300537109375,0.6872355937957764,0.1595175564289093,-0.09079710394144058
1772457987724369400,6.501369384765625,0.6897773146629333,0.15553027391433716,-0.04334742948412895
1772457987734437000,6.51143701171875,0.6984227299690247,0.14446137845516205,0.004043253138661385
1772457987744505000,6.521505126953125,0.7129998803138733,0.1319642812013626,0.053686562925577164
1772457987754573300,6.5315732421875,0.727594792842865,0.12235960364341736,0.09806814044713974
1772457987764642300,6.541642333984375,0.7473509907722473,0.11263617873191833,0.12972143292427063
1772457987774710300,6.551710205078125,0.7655462622642517,0.10706032067537308,0.14664049446582794
1772457987784778200,6.5617783203125,0.7821906805038452,0.11727561056613922,0.15714722871780396
1772457987794846200,6.57184619140625,0.7989286184310913,0.13974709808826447,0.1671077162027359
1772457987804915200,6.581915283203125,0.8092942833900452,0.15773314237594604,0.16189612448215485
1772457987814983400,6.5919833984375,0.8032315969467163,0.15357674658298492,0.14557547867298126
1772457987825051400,6.602051513671875,0.7826278805732727,0.14833571016788483,0.12358400225639343
1772457987835120000,6.6121201171875,0.7577959895133972,0.16075855493545532,0.10111810266971588
1772457987845188400,6.622188232421875,0.7247618436813354,0.17735716700553894,0.08306895941495895
1772457987855256300,6.63225634765625,0.697526752948761,0.18061529099941254,0.061469122767448425
1772457987865324300,6.64232421875,0.6793426275253296,0.20505264401435852,0.04572366178035736
1772457987875393300,6.652393310546875,0.6721709966659546,0.24417607486248016,0.03996644169092178
1772457987885461200,6.662461181640625,0.6664227247238159,0.17227992415428162,0.0009696693159639835
1772457987895529200,6.672529296875,0.6457443237304688,0.0005060345865786076,-0.0752798318862915
1772457987905597200,6.68259716796875,0.6237122416496277,-0.13060063123703003,-0.15067128837108612
1772457987915666400,6.69266650390625,0.5949103832244873,-0.18098364770412445,-0.1956014782190323
1772457987925734400,6.702734375,0.5388782024383545,-0.18402528762817383,-0.21832287311553955
1772457987935802000,6.712802001953125,0.4655795097351074,-0.14122189581394196,-0.21526183187961578
1772457987945871400,6.722871337890625,0.3934037387371063,-0.04542890191078186,-0.17148733139038086
1772457987955939300,6.732939208984375,0.34266039729118347,0.07793350517749786,-0.08995120227336884
1772457987966007300,6.74300732421875,0.3282771110534668,0.19640092551708221,0.041032902896404266
1772457987976075300,6.7530751953125,0.3433670997619629,0.2854415774345398,0.1849365383386612
1772457987986144300,6.763144287109375,0.3885393440723419,0.2988269031047821,0.3213675320148468
1772457987996212200,6.773212158203125,0.44414669275283813,0.23880934715270996,0.4212145209312439
1772457988006280200,6.7832802734375,0.500734806060791,0.16333319246768951,0.49335777759552
1772457988016348400,6.793348388671875,0.5476130843162537,0.10225839167833328,0.5275429487228394
1772457988026417200,6.803417236328125,0.579436719417572,0.058900412172079086,0.5372819900512695
1772457988036485000,6.813485107421875,0.5932273864746094,0.044396303594112396,0.5220149159431458
1772457988046553300,6.82355322265625,0.5766180157661438,0.03843589872121811,0.4882979094982147
1772457988056622300,6.833622314453125,0.5362250804901123,0.02791987732052803,0.4478152096271515
1772457988066690300,6.843690185546875,0.4817388653755188,0.029307834804058075,0.41019997000694275
1772457988076758300,6.85375830078125,0.4235256314277649,0.04740907624363899,0.38154834508895874
1772457988086826200,6.863826171875,0.3705886900424957,0.0985943078994751,0.3715607523918152
1772457988096895200,6.873895263671875,0.3280971646308899,0.16418316960334778,0.3700757920742035
1772457988106963500,6.88396337890625,0.294170618057251,0.23041652143001556,0.37250831723213196
1772457988117031400,6.894031494140625,0.2641240358352661,0.2624780535697937,0.3676576316356659
1772457988127100200,6.90410009765625,0.24214942753314972,0.25847363471984863,0.36911511421203613
1772457988137168100,6.914168212890625,0.21778683364391327,0.23857823014259338,0.3830775320529938
1772457988147236400,6.924236328125,0.19371001422405243,0.22150979936122894,0.4020671546459198
1772457988157304300,6.93430419921875,0.17023292183876038,0.22647179663181305,0.4310612678527832
1772457988167373000,6.944373046875,0.1545751839876175,0.22886763513088226,0.44280368089675903
1772457988177441300,6.954441162109375,0.15188352763652802,0.21648339927196503,0.422338604927063
1772457988187509200,6.96450927734375,0.1702231615781784,0.20373621582984924,0.380790650844574
1772457988197578200,6.974578125,0.1995147466659546,0.2007036656141281,0.3098682761192322
1772457988207646500,6.984646484375,0.23361170291900635,0.20742307603359222,0.22030968964099884
1772457988217714400,6.99471435546875,0.2628774344921112,0.20244616270065308,0.11458884179592133
1772457988227782100,7.0047822265625,0.2825925350189209,0.17349863052368164,-0.011572051793336868
1772457988237851400,7.014851318359375,0.2968881130218506,0.1219203844666481,-0.1485850214958191
1772457988247919400,7.02491943359375,0.3025653660297394,0.06270971149206161,-0.2799164950847626
1772457988257987300,7.0349873046875,0.30233287811279297,0.02091273106634617,-0.4039502739906311
1772457988268055300,7.04505517578125,0.2888961434364319,-0.00488957017660141,-0.5235965251922607
1772457988278124300,7.055124267578125,0.272602379322052,-0.008703483268618584,-0.6291224360466003
1772457988288192300,7.065192138671875,0.24865081906318665,-0.008543857373297215,-0.7195138335227966
1772457988298260200,7.07526025390625,0.2232503890991211,-0.01110741589218378,-0.8073736429214478
1772457988308329200,7.0853291015625,0.20413456857204437,-0.0011907885782420635,-0.8695295453071594
1772457988318397200,7.095397216796875,0.19819359481334686,0.05940438061952591,-0.8939850926399231
1772457988328465200,7.105465087890625,0.2004784345626831,0.1531970500946045,-0.8716263771057129
1772457988338533400,7.115533447265625,0.2198806256055832,0.2527276277542114,-0.805134117603302
1772457988348602600,7.1256025390625,0.261981725692749,0.31748291850090027,-0.7146133184432983
1772457988358670600,7.135670654296875,0.3142334818840027,0.3387354910373688,-0.617367684841156
1772457988368738300,7.14573828125,0.36254340410232544,0.338420569896698,-0.5148168206214905
1772457988378807600,7.1558076171875,0.40735694766044617,0.3203052282333374,-0.43267539143562317
1772457988388875500,7.16587548828125,0.44190534949302673,0.2961713969707489,-0.3711683452129364
1772457988398943500,7.175943603515625,0.4936084747314453,0.2594336271286011,-0.3408282697200775
1772457988409011500,7.186011474609375,0.5458561778068542,0.21717827022075653,-0.32819467782974243
1772457988419080400,7.19608056640625,0.5948796272277832,0.16159597039222717,-0.33070844411849976
1772457988429148400,7.2061484375,0.6279852986335754,0.10033968836069107,-0.3352173864841461
1772457988439216400,7.21621630859375,0.6535415053367615,0.044646333903074265,-0.3155185282230377
1772457988449284600,7.22628466796875,0.6673086881637573,-0.02155989408493042,-0.27999943494796753
1772457988459353300,7.236353271484375,0.6675742268562317,-0.08664994686841965,-0.21949030458927155
1772457988469421300,7.24642138671875,0.6650306582450867,-0.14528152346611023,-0.13950888812541962
1772457988479489500,7.256489501953125,0.6575924754142761,-0.19301949441432953,-0.045601826161146164
1772457988489558500,7.26655859375,0.6420886516571045,-0.24653594195842743,0.040507521480321884
1772457988499626500,7.27662646484375,0.6096401214599609,-0.2847658693790436,0.12378430366516113
1772457988509694500,7.286694580078125,0.5682674050331116,-0.3083745837211609,0.1950383484363556
1772457988519762400,7.296762451171875,0.5235078930854797,-0.3292500376701355,0.25096046924591064
1772457988529831400,7.30683154296875,0.47612887620925903,-0.34798887372016907,0.288601815700531
1772457988539899400,7.3168994140625,0.42854031920433044,-0.3625555634498596,0.31242164969444275
1772457988549967600,7.326967529296875,0.38235047459602356,-0.3614670932292938,0.33073943853378296
1772457988560035600,7.33703564453125,0.33485379815101624,-0.33478087186813354,0.3475503921508789
1772457988570104300,7.347104248046875,0.2972092032432556,-0.29783064126968384,0.36715269088745117
1772457988580172500,7.357172607421875,0.2609372138977051,-0.24994727969169617,0.40314772725105286
1772457988590240500,7.367240478515625,0.2288137972354889,-0.1842312067747116,0.4585709869861603
1772457988600309200,7.377309326171875,0.20268899202346802,-0.10528977960348129,0.5236043334007263
1772457988610377500,7.38737744140625,0.18491004407405853,-0.06269299238920212,0.5826612710952759
1772457988620445400,7.397445556640625,0.15459156036376953,-0.18282204866409302,0.5747436881065369
1772457988630513400,7.407513427734375,0.08369947969913483,-0.4051657021045685,0.49296146631240845
1772457988640582700,7.417582763671875,-0.0020124930888414383,-0.5276855230331421,0.38604673743247986
1772457988650650600,7.427650634765625,-0.08529642969369888,-0.47359639406204224,0.2869304418563843
1772457988660718300,7.43771826171875,-0.16367459297180176,-0.3462024927139282,0.17687425017356873
1772457988670786300,7.447786376953125,-0.24135516583919525,-0.2523112893104553,0.06981119513511658
1772457988680855600,7.45785546875,-0.3335817754268646,-0.1358930766582489,-0.011670884676277637
1772457988690923500,7.467923583984375,-0.42840462923049927,-0.0029088961891829967,-0.07084203511476517
1772457988700991500,7.477991455078125,-0.49744945764541626,0.11890328675508499,-0.12135528028011322
1772457988711060500,7.488060546875,-0.5186594724655151,0.21371233463287354,-0.17336873710155487
1772457988721128400,7.49812841796875,-0.49436795711517334,0.2757781147956848,-0.2430410385131836
1772457988731196400,7.508196533203125,-0.44410526752471924,0.31172019243240356,-0.3029194474220276
1772457988741264400,7.518264404296875,-0.38568297028541565,0.33114129304885864,-0.3476320803165436
1772457988751333400,7.52833349609375,-0.33144962787628174,0.3343793451786041,-0.35072630643844604
1772457988761401300,7.5384013671875,-0.2780500650405884,0.3222089409828186,-0.32388484477996826
1772457988771469300,7.54846923828125,-0.2304052710533142,0.2972911596298218,-0.2569137513637543
1772457988781538600,7.55853857421875,-0.19269730150699615,0.26477235555648804,-0.1648501604795456
1772457988791606500,7.5686064453125,-0.16105866432189941,0.23102745413780212,-0.048302024602890015
1772457988801674200,7.57867431640625,-0.13115376234054565,0.19442443549633026,0.08361019939184189
1772457988811742500,7.588742431640625,-0.10009823739528656,0.14143939316272736,0.20171092450618744
1772457988821811500,7.5988115234375,-0.0617830716073513,0.06566287577152252,0.29084745049476624
1772457988831879400,7.60887939453125,-0.015600396320223808,-0.04045823961496353,0.3461892604827881
1772457988841947600,7.61894775390625,0.03331548348069191,-0.14621156454086304,0.3741820156574249
1772457988852016400,7.629016357421875,0.0768522098660469,-0.23468506336212158,0.3774154782295227
1772457988862084400,7.63908447265625,0.114409439265728,-0.276573121547699,0.3695503771305084
1772457988872152300,7.64915234375,0.14162041246891022,-0.2796708047389984,0.33823835849761963
1772457988882220500,7.659220458984375,0.16487914323806763,-0.25280269980430603,0.2732367217540741
1772457988892289300,7.669289306640625,0.17725902795791626,-0.23266606032848358,0.19063800573349
1772457988902357200,7.679357177734375,0.18336673080921173,-0.222770556807518,0.08925305306911469
1772457988912425500,7.689425537109375,0.18747806549072266,-0.23709174990653992,-0.011400345712900162
1772457988922493400,7.699493408203125,0.17712555825710297,-0.3037528097629547,-0.13453692197799683
1772457988932562400,7.7095625,0.15963822603225708,-0.4078674614429474,-0.2601739168167114
1772457988942630700,7.719630615234375,0.13188809156417847,-0.4972847104072571,-0.3817078173160553
1772457988952698400,7.729698486328125,0.09606752544641495,-0.5384659171104431,-0.49303051829338074
1772457988962767400,7.739767333984375,0.05246439203619957,-0.522635817527771,-0.5737810134887695
1772457988972835600,7.749835693359375,0.01172634307295084,-0.4206031262874603,-0.6062670350074768
1772457988982903600,7.759903564453125,-0.018306124955415726,-0.23748284578323364,-0.5867993235588074
1772457988992971500,7.769971435546875,-0.02851147949695587,-0.032496798783540726,-0.5114721059799194
1772457989003040500,7.78004052734375,-0.01459699496626854,0.16522692143917084,-0.4030313789844513
1772457989013108500,7.7901083984375,0.004344181157648563,0.2997184097766876,-0.2723144292831421
1772457989023176400,7.800176513671875,0.024248912930488586,0.33639466762542725,-0.14602228999137878
1772457989033244400,7.810244384765625,0.04726065322756767,0.28783634305000305,-0.034670744091272354
1772457989043313400,7.8203134765625,0.06803198158740997,0.19422224164009094,0.05892392247915268
1772457989053381400,7.83038134765625,0.07627024501562119,0.08136310428380966,0.13014113903045654
1772457989063449300,7.840449462890625,0.08303120732307434,-0.016923515126109123,0.17634166777133942
1772457989073518600,7.8505185546875,0.08440745621919632,-0.06901795417070389,0.2013155221939087
1772457989083586600,7.860586669921875,0.08789645880460739,-0.0790005475282669,0.2170044630765915
1772457989093654300,7.870654296875,0.09105443954467773,-0.09228625893592834,0.19856128096580505
1772457989103722200,7.88072216796875,0.09346380084753036,-0.13159692287445068,0.14780008792877197
1772457989113791500,7.89079150390625,0.08919210731983185,-0.179979607462883,0.08928107470273972
1772457989123859500,7.900859375,0.0808606743812561,-0.19453005492687225,0.035244207829236984
1772457989133927400,7.910927490234375,0.06941815465688705,-0.19454680383205414,-0.010501223616302013
1772457989143995600,7.92099560546875,0.06294800341129303,-0.17110192775726318,-0.039731282740831375
1772457989154064400,7.931064453125,0.061751607805490494,-0.1246194913983345,-0.059901006519794464
1772457989164132400,7.94113232421875,0.05782397836446762,-0.06184825673699379,-0.08579812198877335
1772457989174200600,7.95120068359375,0.056629620492458344,0.012806868180632591,-0.11619825661182404
1772457989184269300,7.961269287109375,0.052608244121074677,0.12697604298591614,-0.1459106206893921
1772457989194337300,7.971337158203125,0.048993512988090515,0.23867352306842804,-0.1589633822441101
1772457989204405500,7.981405517578125,0.05367108806967735,0.30674606561660767,-0.17696741223335266
1772457989214472400,7.991472412109375,0.06570540368556976,0.3253951370716095,-0.16633599996566772
1772457989224541400,8.00154150390625,0.08324125409126282,0.30780574679374695,-0.14491672813892365
1772457989234609400,8.011609375,0.10353551059961319,0.25752225518226624,-0.10880391299724579
1772457989244677600,8.021677734375,0.12375369668006897,0.19563093781471252,-0.0611458458006382
1772457989254745600,8.03174560546875,0.14321529865264893,0.14812412858009338,-0.009242449887096882
1772457989264814300,8.041814453125,0.16295278072357178,0.12615251541137695,0.04532518610358238
1772457989274882600,8.051882568359375,0.191945880651474,0.11801396310329437,0.08889248967170715
1772457989284950500,8.061950439453126,0.23212659358978271,0.11028094589710236,0.12723082304000854
1772457989295019300,8.072019287109375,0.27332979440689087,0.10486496984958649,0.17327450215816498
1772457989305087200,8.082087158203125,0.31856465339660645,0.10861176997423172,0.22638805210590363
1772457989315155500,8.092155517578124,0.3475160598754883,0.11209088563919067,0.281200110912323
1772457989325223400,8.102223388671876,0.3591042757034302,0.05353330075740814,0.3011421263217926
1772457989335292400,8.11229248046875,0.34991681575775146,-0.07480613142251968,0.2881637513637543
1772457989345360100,8.122360107421875,0.31917649507522583,-0.18178343772888184,0.27238771319389343
1772457989355428000,8.132427978515626,0.24779115617275238,-0.21386025846004486,0.27366364002227783
1772457989365496000,8.14249609375,0.14779983460903168,-0.1584358811378479,0.28517621755599976
1772457989375565000,8.15256494140625,0.05279935151338577,-0.05401087924838066,0.3133862614631653
1772457989385633300,8.16263330078125,-0.01979549042880535,0.04628562927246094,0.346326619386673
1772457989395701200,8.172701171875,-0.050784386694431305,0.12361334264278412,0.3713800311088562
1772457989405770000,8.18277001953125,-0.058143500238657,0.14154812693595886,0.37675029039382935
1772457989415838200,8.192838134765625,-0.0544094480574131,0.11819864064455032,0.35793763399124146
1772457989425906200,8.20290625,-0.04431340470910072,0.07103831321001053,0.3251200318336487
1772457989435974100,8.21297412109375,-0.030422979965806007,0.01591932587325573,0.28200167417526245
1772457989446043100,8.223043212890625,-0.01167299598455429,-0.03517341613769531,0.23200401663780212
1772457989456111000,8.233111083984374,0.014242025092244148,-0.07407601922750473,0.18265628814697266
1772457989466179000,8.243178955078125,0.03356379270553589,-0.09447583556175232,0.12000194936990738
1772457989476247000,8.2532470703125,0.05067693069577217,-0.09080073237419128,0.07255230844020844
1772457989486316300,8.26331640625,0.07010974735021591,-0.07009385526180267,0.042453259229660034
1772457989496384300,8.27338427734375,0.09347047656774521,-0.02895520254969597,0.04594185948371887
1772457989506452000,8.283451904296875,0.11405058950185776,0.011097938753664494,0.07261049002408981
1772457989516521200,8.293521240234375,0.13642048835754395,0.044158849865198135,0.12454665452241898
1772457989526589200,8.303589111328124,0.16377781331539154,0.07741853594779968,0.19584904611110687
1772457989536657200,8.3136572265625,0.18934941291809082,0.1150856763124466,0.26968008279800415
1772457989546725400,8.323725341796875,0.2047797590494156,0.13302499055862427,0.33734622597694397
1772457989556794000,8.333794189453124,0.2165464609861374,0.1377074271440506,0.3906320333480835
1772457989566863000,8.343863037109376,0.21991616487503052,0.13865071535110474,0.42389917373657227
1772457989576931300,8.353931396484375,0.21141669154167175,0.1430065780878067,0.45511436462402344
1772457989587000000,8.364,0.191018745303154,0.1466923952102661,0.4830016493797302
1772457989597068000,8.374068115234374,0.16347070038318634,0.1705193966627121,0.5085489749908447
1772457989607136300,8.38413623046875,0.13614799082279205,0.20323845744132996,0.5267915725708008
1772457989617204200,8.394204345703125,0.10521421581506729,0.22724808752536774,0.5361467599868774
1772457989627273000,8.40427294921875,0.07637271285057068,0.23352354764938354,0.5272318124771118
1772457989637341200,8.414341064453126,0.061775702983140945,0.2096792608499527,0.5031645894050598
1772457989647409200,8.4244091796875,0.056416623294353485,0.14892323315143585,0.46062058210372925
1772457989657477000,8.43447705078125,0.0676937997341156,0.0894617810845375,0.3900989294052124
1772457989667546400,8.44454638671875,0.07458765804767609,0.061772897839546204,0.30932366847991943
1772457989677614300,8.4546142578125,0.07443065196275711,0.05476677417755127,0.22316958010196686
1772457989687682000,8.46468212890625,0.07858278602361679,0.029516812413930893,0.11130110174417496
1772457989697751000,8.4747509765625,0.07602285593748093,-0.037038881331682205,-0.039770182222127914
1772457989707819300,8.4848193359375,0.07065338641405106,-0.1298130303621292,-0.24393238127231598
1772457989717887200,8.49488720703125,0.054382845759391785,-0.23050232231616974,-0.49469318985939026
1772457989727955200,8.504955078125,0.03352044150233269,-0.29369673132896423,-0.7762345671653748
1772457989738024200,8.515024169921874,0.011782209388911724,-0.26619070768356323,-1.0302748680114746
1772457989748092200,8.525092041015625,-0.01074706856161356,-0.17157898843288422,-1.233415961265564
1772457989758160100,8.53516015625,-0.027753792703151703,-0.016603566706180573,-1.3574061393737793
1772457989768228000,8.54522802734375,-0.02892984077334404,0.1929858773946762,-1.3663620948791504
1772457989778297000,8.555297119140626,-0.016351327300071716,0.4103556275367737,-1.269680142402649
1772457989788365000,8.565364990234375,0.006200852803885937,0.590552031993866,-1.0972121953964233
1772457989798433000,8.57543310546875,0.03278711065649986,0.6937291622161865,-0.898002028465271
1772457989808502300,8.585502197265624,0.06868172436952591,0.7053714394569397,-0.6998851895332336
1772457989818570200,8.5955703125,0.12773720920085907,0.6574932932853699,-0.517424464225769
1772457989828638000,8.605637939453125,0.211273655295372,0.5688793063163757,-0.3579373359680176
1772457989838706200,8.6157060546875,0.2948935031890869,0.43521955609321594,-0.2427334040403366
1772457989848775200,8.625775146484376,0.36297136545181274,0.27330735325813293,-0.1499241143465042
1772457989858843100,8.635843017578125,0.4093071520328522,0.13398805260658264,-0.059253621846437454
1772457989868911400,8.645911376953125,0.427399605512619,0.026841891929507256,0.019698450341820717
1772457989878980000,8.65597998046875,0.4371091425418854,-0.047394562512636185,0.07706264406442642
1772457989889048000,8.666048095703125,0.45192939043045044,-0.09054149687290192,0.11405767500400543
1772457989899116000,8.676115966796875,0.46327096223831177,-0.12432853877544403,0.14073918759822845
1772457989909184300,8.686184326171874,0.4697485566139221,-0.14215627312660217,0.14777979254722595
1772457989919253000,8.6962529296875,0.4662701487541199,-0.14889945089817047,0.14554302394390106
1772457989929321000,8.706321044921875,0.45294901728630066,-0.14458300173282623,0.12354877591133118
1772457989939389200,8.71638916015625,0.4338966906070709,-0.1464768499135971,0.07760078459978104
1772457989949457200,8.72645703125,0.419808030128479,-0.1650042086839676,0.0048168618232011795
1772457989959526100,8.736526123046875,0.411720871925354,-0.19462035596370697,-0.0675622820854187
1772457989969594400,8.746594482421875,0.40739962458610535,-0.21983729302883148,-0.1261339783668518
1772457989979662000,8.756662109375,0.386833131313324,-0.2481977939605713,-0.15290892124176025
1772457989989731000,8.76673095703125,0.34527236223220825,-0.29282307624816895,-0.14471277594566345
1772457989999799300,8.77679931640625,0.2940555810928345,-0.35032838582992554,-0.10108542442321777
1772457990009867300,8.7868671875,0.22551380097866058,-0.40706169605255127,-0.021914970129728317
1772457990019935200,8.796935302734376,0.14319103956222534,-0.46527326107025146,0.06512491405010223
1772457990030004200,8.807004150390625,0.057149361819028854,-0.5199248194694519,0.15861305594444275
1772457990040072200,8.817072265625,-0.03293679282069206,-0.553193986415863,0.23964476585388184
1772457990050140200,8.82714013671875,-0.11852040886878967,-0.555590808391571,0.3016996383666992
1772457990060208000,8.8372080078125,-0.19485792517662048,-0.5076541304588318,0.34526264667510986
1772457990070277000,8.847277099609375,-0.24905191361904144,-0.42177245020866394,0.36024051904678345
1772457990080345000,8.857344970703124,-0.28716081380844116,-0.3065274953842163,0.34806233644485474
1772457990090413000,8.8674130859375,-0.3098061978816986,-0.19477538764476776,0.3025824725627899
1772457990100482300,8.877482421875,-0.33237165212631226,-0.1584133505821228,0.21542280912399292
1772457990110550300,8.88755029296875,-0.36383771896362305,-0.17116723954677582,0.08900842070579529
1772457990120618000,8.897617919921874,-0.4031442701816559,-0.1777840405702591,-0.03424540534615517
1772457990130686000,8.90768603515625,-0.4536878764629364,-0.14692439138889313,-0.1413888931274414
1772457990140755200,8.917755126953125,-0.507407546043396,-0.06807451695203781,-0.21086308360099792
1772457990150823200,8.9278232421875,-0.5512314438819885,0.020400749519467354,-0.255950391292572
1772457990160891100,8.93789111328125,-0.5755002498626709,0.07715117186307907,-0.29532817006111145
1772457990170959400,8.94795947265625,-0.5753111243247986,0.11674465239048004,-0.32053500413894653
1772457990181028000,8.958028076171875,-0.5565427541732788,0.14176613092422485,-0.33013227581977844
1772457990191096000,8.968095947265626,-0.5319106578826904,0.14811457693576813,-0.32568639516830444
1772457990201164300,8.978164306640625,-0.5062643885612488,0.1328911930322647,-0.31559231877326965
1772457990211233000,8.98823291015625,-0.4767967462539673,0.10132341831922531,-0.29578346014022827
1772457990221301000,8.998301025390624,-0.44665443897247314,0.04974476993083954,-0.263882040977478
1772457990231369200,9.008369140625,-0.4015117287635803,-0.0007737986743450165,-0.22848036885261536
1772457990241437200,9.018437255859375,-0.3580426573753357,-0.0431373156607151,-0.18119120597839355
1772457990251506200,9.028506103515625,-0.3211008608341217,-0.07312984019517899,-0.12393110990524292
1772457990261574100,9.03857421875,-0.288270503282547,-0.0951845794916153,-0.06613589078187943
1772457990271642000,9.04864208984375,-0.2664485573768616,-0.10428406298160553,-0.0022429306991398335
1772457990281711000,9.058711181640625,-0.2476736307144165,-0.10174401104450226,0.06330747157335281
1772457990291779000,9.068779052734374,-0.2265709936618805,-0.1066567450761795,0.1265077441930771
1772457990301847300,9.078847412109376,-0.19852566719055176,-0.10948516428470612,0.18776682019233704
1772457990311915300,9.088915283203125,-0.1639288067817688,-0.09131067991256714,0.25528913736343384
1772457990321984000,9.09898388671875,-0.12107885628938675,-0.060987990349531174,0.32220518589019775
1772457990332052200,9.10905224609375,-0.07590924948453903,-0.02100995182991028,0.3910420536994934
1772457990342119400,9.119119384765625,-0.03292325139045715,0.005789889954030514,0.4565701484680176
1772457990352187600,9.129187744140625,-0.004057516809552908,0.007569414097815752,0.5109276175498962
1772457990362256600,9.139256591796874,0.008071154356002808,-0.013068384490907192,0.5511690974235535
1772457990372324400,9.149324462890625,0.013520780950784683,-0.05279529094696045,0.5670189261436462
1772457990382392600,9.159392578125,0.013002813793718815,-0.10829687863588333,0.5632771253585815
1772457990392461600,9.169461669921875,0.014762097969651222,-0.15563055872917175,0.5354779958724976
1772457990402529500,9.179529541015626,0.01210133358836174,-0.20628441870212555,0.48513859510421753
1772457990412597800,9.18959765625,0.00692601315677166,-0.25902220606803894,0.4065505862236023
1772457990422665500,9.19966552734375,-0.006884376518428326,-0.33093053102493286,0.29344332218170166
1772457990432734500,9.209734375,-0.03396153450012207,-0.4204135537147522,0.13221314549446106
1772457990442802700,9.219802734375,-0.07403266429901123,-0.5048353672027588,-0.05899998918175697
1772457990452870700,9.22987060546875,-0.10940583050251007,-0.5458219647407532,-0.232467919588089
1772457990462938600,9.239938720703124,-0.1461843103170395,-0.5143738985061646,-0.37578675150871277
1772457990473007600,9.250007568359376,-0.1794368028640747,-0.4156004786491394,-0.46396106481552124
1772457990483075600,9.26007568359375,-0.20911858975887299,-0.27174112200737,-0.4961030185222626
1772457990493143600,9.2701435546875,-0.2295897752046585,-0.09695998579263687,-0.47020193934440613
1772457990503212800,9.280212890625,-0.22643475234508514,0.1040351539850235,-0.40631115436553955
1772457990513280500,9.290280517578125,-0.1927521526813507,0.30408117175102234,-0.31642574071884155
1772457990523348500,9.300348388671875,-0.12485619634389877,0.4325219392776489,-0.2196258008480072
1772457990533416400,9.31041650390625,-0.038235560059547424,0.46269768476486206,-0.1291465014219284
1772457990543485700,9.320485595703126,0.0425475612282753,0.41619953513145447,-0.04687642678618431
1772457990553553700,9.3305537109375,0.1020985022187233,0.3316199481487274,0.026708314195275307
1772457990563621600,9.34062158203125,0.1388896405696869,0.21735553443431854,0.08996786177158356
1772457990573690600,9.350690673828124,0.1663321852684021,0.09238908439874649,0.13253475725650787
1772457990583758600,9.360758544921875,0.17624980211257935,-0.018069248646497726,0.15682359039783478
1772457990593826600,9.37082666015625,0.18139556050300598,-0.09097887575626373,0.16148918867111206
1772457990603894500,9.38089453125,0.17493152618408203,-0.12279299646615982,0.13249588012695312
1772457990613963500,9.390963623046876,0.16736255586147308,-0.11754363775253296,0.0871286690235138
1772457990624031500,9.401031494140625,0.16210532188415527,-0.08672091364860535,0.019922863692045212
1772457990634099500,9.411099365234374,0.15491639077663422,-0.03830118104815483,-0.05302884429693222
1772457990644167700,9.421167724609376,0.14543138444423676,0.001957682892680168,-0.13029450178146362
1772457990654236700,9.431236572265625,0.13077813386917114,0.03471776098012924,-0.21070624887943268
1772457990664304400,9.441304443359375,0.11683627218008041,0.0628141537308693,-0.29233184456825256
1772457990674372600,9.45137255859375,0.10583634674549103,0.0913296788930893,-0.3755100965499878
1772457990684441600,9.461441650390626,0.09985042363405228,0.135321706533432,-0.4442518651485443
1772457990694509600,9.471509521484375,0.10055828839540482,0.20238755643367767,-0.5043442845344543
1772457990704577800,9.481577880859374,0.10902444273233414,0.2614399194717407,-0.5341025590896606
1772457990714645500,9.4916455078125,0.12288805842399597,0.3017825484275818,-0.5386883020401001
1772457990724714500,9.501714599609375,0.14656385779380798,0.32304418087005615,-0.5103914737701416
1772457990734782500,9.511782470703125,0.17473717033863068,0.3385773301124573,-0.4561082422733307
1772457990744850700,9.5218505859375,0.20653751492500305,0.3418395221233368,-0.3954951763153076
1772457990754918700,9.531918701171875,0.24134290218353271,0.3590257167816162,-0.3233988583087921
1772457990764987400,9.5419873046875,0.27896061539649963,0.3801392614841461,-0.24997347593307495
1772457990775055600,9.5520556640625,0.315764456987381,0.3941432237625122,-0.18361017107963562
1772457990785123600,9.56212353515625,0.3559057414531708,0.38227808475494385,-0.13116492331027985
1772457990795192600,9.572192626953125,0.3864186406135559,0.34552404284477234,-0.07899893075227737
1772457990805260500,9.582260498046875,0.4093067944049835,0.2753203213214874,-0.026055386289954185
1772457990815328500,9.59232861328125,0.4108056128025055,0.19351200759410858,0.02553963102400303
1772457990825396500,9.602396484375,0.4010978639125824,0.11944551020860672,0.08505675196647644
1772457990835465700,9.6124658203125,0.3862970769405365,0.07447803765535355,0.144375741481781
1772457990845533700,9.62253369140625,0.3757627010345459,0.0550692044198513,0.2006882280111313
1772457990855601700,9.6326015625,0.37114211916923523,0.07094617933034897,0.23978102207183838
1772457990865669400,9.64266943359375,0.3796822130680084,0.12100895494222641,0.27548447251319885
1772457990875738600,9.652738525390625,0.3991546928882599,0.18414317071437836,0.3055334687232971
1772457990885806600,9.662806640625,0.41924792528152466,0.20381852984428406,0.3295617699623108
1772457990895874600,9.67287451171875,0.4310859441757202,0.16937106847763062,0.3353498876094818
1772457990905943600,9.682943603515625,0.4279428720474243,0.1510799527168274,0.34914782643318176
1772457990916011500,9.693011474609374,0.4075161814689636,0.17074686288833618,0.3689785301685333
1772457990926079500,9.70307958984375,0.38179922103881836,0.1980864703655243,0.38775911927223206
1772457990936147700,9.713147705078125,0.35101252794265747,0.22535696625709534,0.40950170159339905
1772457990946216700,9.723216796875,0.32447874546051025,0.24478377401828766,0.4229162931442261
1772457990956284400,9.733284423828126,0.3003332018852234,0.2384590357542038,0.4367375671863556
1772457990966352400,9.743352294921875,0.27616119384765625,0.2352844625711441,0.4498506486415863
1772457990976421600,9.753421630859375,0.25464126467704773,0.23272116482257843,0.4635358452796936
1772457990986489600,9.763489501953124,0.2334490716457367,0.2270626425743103,0.4603736102581024
1772457990996557600,9.7735576171875,0.21532359719276428,0.20960456132888794,0.44639042019844055
1772457991006625500,9.78362548828125,0.19370348751544952,0.1869726926088333,0.4114149510860443
1772457991016694500,9.793694580078125,0.17006126046180725,0.17339830100536346,0.35865506529808044
1772457991026762500,9.803762451171876,0.15234121680259705,0.17797182500362396,0.3040120005607605
1772457991036830700,9.813830810546875,0.13311052322387695,0.183644637465477,0.24170200526714325
1772457991046898700,9.823898681640625,0.12281123548746109,0.19345514476299286,0.17943021655082703
1772457991056967400,9.833967529296874,0.11583055555820465,0.19971278309822083,0.11954344063997269
1772457991067035600,9.84403564453125,0.12116105109453201,0.2058826982975006,0.05967487022280693
1772457991077103600,9.854103515625,0.1379948854446411,0.2122785449028015,0.013761438429355621
1772457991087172600,9.864172607421875,0.16052503883838654,0.212409108877182,-0.02112373523414135
1772457991097240600,9.874240478515626,0.19340868294239044,0.2079525738954544,-0.03595168516039848
1772457991107308500,9.88430859375,0.22125771641731262,0.19492127001285553,-0.031895898282527924
1772457991117376500,9.89437646484375,0.26214683055877686,0.19079257547855377,-0.0067412760108709335
1772457991127445500,9.904445556640624,0.3044879138469696,0.17489592730998993,0.033675871789455414
1772457991137513700,9.914513671875,0.34580978751182556,0.15772679448127747,0.08191078156232834
1772457991147581700,9.924581787109375,0.38011664152145386,0.13719810545444489,0.14187033474445343
1772457991157649400,9.9346494140625,0.4044853448867798,0.14404429495334625,0.20675905048847198
1772457991167718700,9.94471875,0.41250014305114746,0.1758514642715454,0.2750546634197235
1772457991177786600,9.95478662109375,0.40748274326324463,0.22203893959522247,0.3271189332008362
1772457991187854600,9.9648544921875,0.3940773606300354,0.26106828451156616,0.356850802898407
1772457991197923600,9.974923583984374,0.3852985203266144,0.2783716320991516,0.34458455443382263
1772457991207991600,9.984991455078125,0.3753150403499603,0.28104454278945923,0.3043270707130432
1772457991218059500,9.9950595703125,0.3725658655166626,0.2738918364048004,0.23733127117156982
1772457991228127500,10.00512744140625,0.36384087800979614,0.2768743932247162,0.151380255818367
1772457991238196700,10.01519677734375,0.34426796436309814,0.2488083839416504,0.04947865381836891
1772457991248264400,10.025264404296875,0.3310479521751404,0.21269316971302032,-0.046208057552576065
1772457991258332400,10.03533251953125,0.31472063064575195,0.15269987285137177,-0.16754966974258423
1772457991268401700,10.045401611328124,0.30227258801460266,0.10554524511098862,-0.28517666459083557
1772457991278469600,10.0554697265625,0.2948077321052551,0.08702375739812851,-0.38894543051719666
1772457991288537600,10.06553759765625,0.28275901079177856,0.0729675367474556,-0.48200133442878723
1772457991298605600,10.07560546875,0.25874340534210205,0.04889495298266411,-0.5591413378715515
1772457991308674600,10.085674560546876,0.2165248543024063,0.001366583863273263,-0.6278644800186157
1772457991318742500,10.095742431640625,0.15118207037448883,-0.04934453219175339,-0.6977535486221313
1772457991328810500,10.105810546875,0.07785847783088684,-0.06793191283941269,-0.7421665787696838
1772457991338879000,10.11587890625,0.00978541374206543,-0.015325434505939484,-0.7460454702377319
1772457991348947700,10.12594775390625,-0.052286744117736816,0.09367908537387848,-0.7051840424537659
1772457991359015700,10.136015625,-0.09259102493524551,0.23529160022735596,-0.6261568665504456
1772457991369084000,10.146083984375,-0.10346407443284988,0.38190993666648865,-0.5333598256111145
1772457991379153000,10.15615283203125,-0.09484501928091049,0.49659788608551025,-0.4519333839416504
1772457991389220600,10.166220703125,-0.057088468223810196,0.5738517642021179,-0.3731192946434021
1772457991399288800,10.176288818359374,-0.012931392528116703,0.6057191491127014,-0.2952950596809387
1772457991409356800,10.186356689453126,0.02980281598865986,0.5716379284858704,-0.22707289457321167
1772457991419425800,10.19642578125,0.0699358582496643,0.49472665786743164,-0.14659403264522552
1772457991429493800,10.20649365234375,0.10070765763521194,0.38759225606918335,-0.06511752307415009
1772457991439561700,10.216561767578124,0.12124355882406235,0.2711513936519623,0.03350679203867912
1772457991449629700,10.226629638671875,0.12949657440185547,0.17395254969596863,0.13522467017173767
1772457991459698700,10.23669873046875,0.12257927656173706,0.09225236624479294,0.22958660125732422
1772457991469767000,10.246766845703124,0.1146736815571785,0.026222482323646545,0.3145785927772522
1772457991479835000,10.2568349609375,0.1070818081498146,-0.014591259881854057,0.37911656498908997
1772457991489903600,10.266903564453125,0.10464204847812653,-0.04183117672801018,0.43007996678352356
1772457991499971800,10.276971923828125,0.09380032122135162,-0.16692598164081573,0.41907739639282227
1772457991510039800,10.287039794921874,0.07123605161905289,-0.2734208405017853,0.36313769221305847
1772457991520107800,10.297107666015625,0.06517390161752701,-0.24332576990127563,0.32712510228157043
1772457991530176800,10.3071767578125,0.048802174627780914,-0.17916910350322723,0.2768251299858093
1772457991540244700,10.31724462890625,0.012396231293678284,-0.15455403923988342,0.21387840807437897
1772457991550312700,10.327312744140626,-0.02273545041680336,-0.15413331985473633,0.15263505280017853
1772457991560382000,10.3373818359375,-0.05776933580636978,-0.1762239634990692,0.10039208084344864
1772457991570450000,10.347449951171875,-0.11095619201660156,-0.23249609768390656,0.05356481298804283
1772457991580518000,10.357517822265624,-0.17351891100406647,-0.2730216979980469,0.00866684876382351
1772457991590585600,10.367585693359375,-0.252205491065979,-0.2695777118206024,-0.021039865911006927
1772457991600654800,10.37765478515625,-0.3399569094181061,-0.22970911860466003,-0.046841103583574295
1772457991610722800,10.387722900390624,-0.4114231765270233,-0.1640862673521042,-0.06601973623037338
1772457991620790800,10.397790771484376,-0.4431518316268921,-0.10730715095996857,-0.07842820137739182
1772457991630859000,10.40785888671875,-0.4391171336174011,-0.07087108492851257,-0.06871118396520615
1772457991640927700,10.417927734375,-0.406860888004303,-0.02652120031416416,-0.043526194989681244
1772457991650995700,10.42799560546875,-0.35089436173439026,0.005913132335990667,0.009657366201281548
1772457991661063700,10.438063720703125,-0.2930355966091156,0.028345469385385513,0.07661376148462296
1772457991671133000,10.4481328125,-0.253736287355423,0.011303452774882317,0.1504174768924713
1772457991681200600,10.45820068359375,-0.23120328783988953,-0.02321617491543293,0.22942706942558289
1772457991691268600,10.4682685546875,-0.2174065113067627,-0.07041244953870773,0.31016796827316284
1772457991701336800,10.4783369140625,-0.20962876081466675,-0.12495984137058258,0.3809316158294678
1772457991711405800,10.48840576171875,-0.2147873342037201,-0.16752277314662933,0.4269653856754303
1772457991721473800,10.498473876953126,-0.2246980220079422,-0.1872277706861496,0.45841118693351746
1772457991731541800,10.508541748046875,-0.23895291984081268,-0.19888927042484283,0.4611899256706238
1772457991741609700,10.518609619140625,-0.2513720393180847,-0.1890992373228073,0.4439627230167389
1772457991751678700,10.5286787109375,-0.2645622193813324,-0.1749424785375595,0.4144662916660309
1772457991761747000,10.538746826171876,-0.27195408940315247,-0.1686590164899826,0.3681507408618927
1772457991771815000,10.54881494140625,-0.28177928924560547,-0.15431685745716095,0.30618542432785034
1772457991781883600,10.558883544921875,-0.29587486386299133,-0.14004257321357727,0.2455628216266632
1772457991791952000,10.568951904296876,-0.3102179169654846,-0.13836881518363953,0.1760094165802002
1772457991802019800,10.579019775390625,-0.33105209469795227,-0.15045930445194244,0.10983678698539734
1772457991812087800,10.589087890625,-0.3502137362957001,-0.1566079705953598,0.05220760405063629
1772457991822156500,10.599156494140624,-0.36143895983695984,-0.14873167872428894,-0.00031472486443817616
1772457991832224800,10.609224853515625,-0.3648345470428467,-0.11406881362199783,-0.028663836419582367
1772457991842292700,10.619292724609375,-0.3596978485584259,-0.04572969675064087,-0.03656996414065361
1772457991852361700,10.62936181640625,-0.34486329555511475,0.010177693329751492,-0.026397811248898506
1772457991862430000,10.639429931640626,-0.3193925619125366,0.01983324997127056,-0.008114145137369633
1772457991872498000,10.649497802734375,-0.28799140453338623,-0.011117372661828995,0.02277293987572193
1772457991882565600,10.659565673828125,-0.2524552643299103,-0.05898795649409294,0.05223975330591202
1772457991892635000,10.669634765625,-0.2160273641347885,-0.10596705973148346,0.0860394835472107
1772457991902702800,10.679702880859375,-0.18313811719417572,-0.15018458664417267,0.10649815201759338
1772457991912770800,10.689770751953125,-0.1510084867477417,-0.1677146553993225,0.12440359592437744
1772457991922838800,10.6998388671875,-0.12359310686588287,-0.16506187617778778,0.13675160706043243
1772457991932907800,10.70990771484375,-0.09868862479925156,-0.16821646690368652,0.13985154032707214
1772457991942975700,10.719975830078125,-0.0911116674542427,-0.1559843122959137,0.14176397025585175
1772457991953043700,10.730043701171875,-0.08486810326576233,-0.12141269445419312,0.15526887774467468
1772457991963112700,10.74011279296875,-0.07089929282665253,-0.08516228199005127,0.16868402063846588
1772457991973180700,10.7501806640625,-0.05564269796013832,-0.08343587815761566,0.16561929881572723
1772457991983248600,10.76024853515625,-0.04232050105929375,-0.12924198806285858,0.16033239662647247
1772457991993316900,10.77031689453125,-0.04614914581179619,-0.1784231960773468,0.15876826643943787
1772457992003385900,10.7803857421875,-0.04322419688105583,-0.18909980356693268,0.15401451289653778
1772457992013453800,10.790453857421875,-0.04228296875953674,-0.1744406372308731,0.14698973298072815
1772457992023521500,10.800521484375,-0.03185456246137619,-0.16066864132881165,0.13590006530284882
1772457992033590800,10.8105908203125,-0.0199003703892231,-0.14974349737167358,0.13554131984710693
1772457992043658800,10.82065869140625,-0.016204701736569405,-0.14829446375370026,0.1377437561750412
1772457992053726700,10.830726806640625,-0.016298143193125725,-0.12779314815998077,0.14422951638698578
1772457992063795000,10.840794921875,-0.004287819378077984,-0.09022153168916702,0.1547713726758957
1772457992073863700,10.85086376953125,0.017970450222492218,-0.09693259745836258,0.16373959183692932
1772457992083931600,10.860931640625,0.0419495515525341,-0.11907092481851578,0.1682770848274231
1772457992093999900,10.870999755859375,0.046270016580820084,-0.14044196903705597,0.1576336920261383
1772457992104067800,10.88106787109375,0.035926301032304764,-0.17566466331481934,0.14234422147274017
1772457992114136600,10.891136474609375,0.023756010457873344,-0.17515753209590912,0.13488197326660156
1772457992124204800,10.901204833984375,0.02018151618540287,-0.15711061656475067,0.13962559401988983
1772457992134272800,10.911272705078124,0.02898585982620716,-0.15418972074985504,0.14932072162628174
1772457992144341800,10.921341796875,0.04890657216310501,-0.14754033088684082,0.15272638201713562
1772457992154410000,10.931409912109375,0.07473624497652054,-0.14840805530548096,0.1482432335615158
1772457992164478000,10.94147802734375,0.08729278296232224,-0.16668851673603058,0.1423267424106598
1772457992174545700,10.951545654296876,0.0885273814201355,-0.18408407270908356,0.13679532706737518
1772457992184615000,10.961614990234375,0.08555848896503448,-0.18280495703220367,0.1297406256198883
1772457992194683000,10.971682861328125,0.09299660474061966,-0.17981193959712982,0.1293596476316452
1772457992204750800,10.981750732421874,0.11200597882270813,-0.1767229288816452,0.12557847797870636
1772457992214818800,10.99181884765625,0.12610937654972076,-0.15865860879421234,0.10993123054504395
1772457992224887800,11.0018876953125,0.13683605194091797,-0.15635870397090912,0.08050063252449036
1772457992234955800,11.011955810546874,0.15283380448818207,-0.15340085327625275,0.060792215168476105
1772457992245023700,11.022023681640626,0.15868663787841797,-0.12973414361476898,0.051284730434417725
1772457992255092700,11.0320927734375,0.17193621397018433,-0.11395668983459473,0.050707824528217316
1772457992265160700,11.04216064453125,0.18375904858112335,-0.10471232235431671,0.06523856520652771
1772457992275228700,11.052228759765624,0.19021569192409515,-0.10189330577850342,0.09606901556253433
1772457992285296600,11.062296630859375,0.18934962153434753,-0.09979526698589325,0.13402731716632843
1772457992295366000,11.072365966796875,0.19116900861263275,-0.10844237357378006,0.16881506145000458
1772457992305433900,11.082433837890624,0.2029561549425125,-0.12726745009422302,0.19197125732898712
1772457992315501600,11.09250146484375,0.21695956587791443,-0.14851363003253937,0.20150689780712128
1772457992325570800,11.10257080078125,0.22973768413066864,-0.1588144749403,0.2071213722229004
1772457992335638800,11.112638671875,0.23756319284439087,-0.15526573359966278,0.20847751200199127
1772457992345706500,11.12270654296875,0.24230389297008514,-0.14514999091625214,0.20925168693065643
1772457992355774700,11.132774658203125,0.24805457890033722,-0.1060195043683052,0.21331828832626343
1772457992365843500,11.142843505859375,0.24740584194660187,-0.004447341896593571,0.18020561337471008
1772457992375911400,11.152911376953124,0.2406732738018036,0.11253592371940613,0.11896803975105286
1772457992385979400,11.1629794921875,0.22938652336597443,0.2336903065443039,0.04713033139705658
1772457992396047600,11.173047607421875,0.2210213840007782,0.3231942057609558,-0.03346197307109833
1772457992406116600,11.18311669921875,0.21448758244514465,0.39982184767723083,-0.13784083724021912
1772457992416184300,11.193184326171876,0.1993257701396942,0.5181698799133301,-0.22907082736492157
1772457992426252500,11.20325244140625,0.17755362391471863,0.5846865773200989,-0.3567614257335663
1772457992436321500,11.213321533203125,0.1401086300611496,0.5806938409805298,-0.4387770891189575
1772457992446389500,11.223389404296874,0.10224807262420654,0.4654650092124939,-0.48123612999916077
1772457992456457700,11.233457763671876,0.07810922712087631,0.3491525650024414,-0.4646937847137451
1772457992466525400,11.243525390625,0.08173778653144836,0.20336419343948364,-0.42937415838241577
1772457992476594400,11.253594482421875,0.10405885428190231,0.036576852202415466,-0.38025546073913574
1772457992486662700,11.26366259765625,0.12667788565158844,-0.06396999955177307,-0.33667469024658203
1772457992496730600,11.273730712890625,0.17460447549819946,-0.027963709086179733,-0.310770183801651
1772457992506799400,11.28379931640625,0.24074433743953705,0.13384222984313965,-0.3090798854827881
1772457992516867600,11.29386767578125,0.3249959349632263,0.34156033396720886,-0.3474319577217102
