time,seconds_elapsed,z,y,x
1772562757367785500,0.018785400390625,-0.0019742012955248356,-0.0006870955694466829,0.0027896612882614136
1772562757377852400,0.028852294921875,-0.0009882990270853043,-0.014368552714586258,0.0010628675809130073
1772562757387920400,0.03892041015625,-0.0024740765802562237,-0.01630520448088646,0.0023254721891134977
1772562757397987300,0.0489873046875,-0.0030479878187179565,-0.010910704731941223,0.004412591457366943
1772562757408054300,0.05905419921875,-0.002238120650872588,-0.00039787625428289175,0.002118811011314392
1772562757418121200,0.069121337890625,-0.0027888622134923935,0.005224589258432388,0.0032498554792255163
1772562757428188400,0.0791884765625,-0.004160390235483646,0.0017840516520664096,0.005831790156662464
1772562757438255400,0.08925537109375,-0.003861317178234458,-0.006353769451379776,0.003940413240343332
1772562757448322600,0.099322509765625,-0.001844505313783884,-0.013765879906713963,0.0019068233668804169
1772562757458389500,0.109389404296875,-0.0033840788528323174,-0.011540808714926243,0.0010716560063883662
1772562757468456400,0.11945654296875,-0.0032477248460054398,-0.004971056245267391,0.0046967510133981705
1772562757478523400,0.1295234375,-0.0021672805305570364,0.00020399813365656883,0.0034226945135742426
1772562757488590600,0.139590576171875,-0.000877511571161449,-0.000060453756304923445,0.0029766152147203684
1772562757498658300,0.149658203125,-0.0030807447619736195,-0.0015845808666199446,0.0028011128306388855
1772562757508725500,0.1597255859375,-0.004579837899655104,-0.005743106827139854,0.002375007141381502
1772562757518792400,0.16979248046875,-0.00122558674775064,-0.009843043051660061,0.00358807691372931
1772562757528859400,0.179859375,-0.005179582163691521,-0.010293384082615376,0.004210457671433687
1772562757538926300,0.18992626953125,-0.002499110298231244,-0.006189985200762749,0.001891909632831812
1772562757548993300,0.1999931640625,-0.002261290093883872,0.0007400924805551767,0.0020455741323530674
1772562757559060200,0.210060302734375,-0.003971039317548275,-0.0005094627267681062,0.0010317085543647408
1772562757569127400,0.22012744140625,-0.002831206424161792,-0.0024804682470858097,0.002999251941218972
1772562757579194400,0.2301943359375,-0.004608334042131901,-0.00818123109638691,0.00115421402733773
1772562757589261600,0.240261474609375,-0.00010066748654935509,-0.009733321145176888,0.003579022129997611
1772562757599329500,0.25032958984375,-0.005367601290345192,-0.009435845538973808,0.0039087217301130295
1772562757609396500,0.260396484375,-0.001805623178370297,-0.002368881832808256,0.004436027258634567
1772562757619463400,0.27046337890625,0.0004346278728917241,0.0022602248936891556,0.0007800398743711412
1772562757629530400,0.2805302734375,-0.0010543455136939883,-0.003240001853555441,0.002669286448508501
1772562757639597300,0.290597412109375,-0.0036730316933244467,-0.005592638161033392,0.003780889790505171
1772562757649664500,0.30066455078125,-0.0035814191214740276,-0.008924518711864948,0.002120675053447485
1772562757659731500,0.3107314453125,-0.0031337416730821133,-0.007650462910532951,0.004709267523139715
1772562757669798400,0.32079833984375,-0.005567604675889015,-0.0059902481734752655,0.002153165638446808
1772562757679865300,0.330865234375,-0.0024141555186361074,-0.0025473134592175484,0.002094309777021408
1772562757689932300,0.340932373046875,-0.0016801883466541767,-0.00227806787006557,0.0033132387325167656
1772562757700000500,0.35100048828125,-0.001657018787227571,-0.0031667647417634726,0.004709800239652395
1772562757710067500,0.3610673828125,-0.0028517129831016064,-0.003881823504343629,0.004485296085476875
1772562757720134400,0.371134521484375,-0.0016562198288738728,-0.005333246197551489,0.003838414093479514
1772562757730201600,0.38120166015625,-0.004436027258634567,-0.007357781287282705,-0.00045806370326317847
1772562757740268500,0.3912685546875,-0.0007414240390062332,-0.0034503915812820196,-0.0014506238512694836
1772562757750335500,0.40133544921875,-0.002216548891738057,-0.005429386626929045,0.004339088220149279
1772562757760402400,0.41140234375,-0.0016370450612157583,-0.002630670554935932,0.004055461846292019
1772562757770469400,0.421469482421875,-0.004186222795397043,-0.0023989754263311625,0.0021963089238852262
1772562757780536300,0.431536376953125,-0.004751878324896097,-0.002600310370326042,0.0020365193486213684
1772562757790603500,0.441603515625,-0.001841575838625431,-0.006010754499584436,0.004840028937906027
1772562757800670500,0.45167041015625,-0.005528988782316446,-0.007406251039355993,0.004006193019449711
1772562757810738400,0.461738525390625,-0.0020029633305966854,-0.006937800906598568,0.0026589001063257456
1772562757820805400,0.471805419921875,-0.00333241350017488,-0.0035124430432915688,0.004773183725774288
1772562757830872600,0.48187255859375,-0.0030482541769742966,-0.0031313446816056967,0.0023960459511727095
1772562757840939500,0.491939453125,-0.002983539365231991,-0.003038400551304221,0.003899666713550687
1772562757851006500,0.50200634765625,-0.004179564770311117,-0.005834985990077257,0.002269279444590211
1772562757861072600,0.51207275390625,-0.0026519757229834795,-0.005646966863423586,0.0031135017052292824
1772562757871139600,0.5221396484375,-0.003622964257374406,-0.0070429956540465355,0.002837864449247718
1772562757881206500,0.53220654296875,-0.0041550640016794205,-0.003955593332648277,0.0023342606145888567
1772562757891273500,0.5422734375,-0.003226952161639929,-0.00344559783115983,0.0007065366371534765
1772562757901340400,0.55234033203125,-0.0037619813811033964,-0.0024378576781600714,0.0007600661483593285
1772562757911408600,0.56240869140625,-0.004804076161235571,-0.006850981619209051,0.003626692807301879
1772562757921475600,0.5724755859375,-0.0040975394658744335,-0.004110855516046286,0.003564108395949006
1772562757931542500,0.58254248046875,-0.003893541404977441,-0.005714611150324345,0.004098072182387114
1772562757941609700,0.592609619140625,-0.0036751623265445232,-0.0032381375785917044,0.005498095881193876
1772562757951676700,0.6026767578125,-0.005309544038027525,-0.00549170421436429,0.0029917950741946697
1772562757961743600,0.61274365234375,-0.0026138925459235907,-0.0052046156488358974,0.005409146659076214
1772562757971810600,0.622810546875,-0.0019443739438429475,-0.003925499506294727,0.004636829718947411
1772562757981877500,0.63287744140625,-0.0026639599818736315,-0.0028245486319065094,0.005539907608181238
1772562757991944400,0.6429443359375,-0.003689543344080448,-0.006422745529562235,0.0009896307019516826
1772562758002011600,0.65301171875,-0.0033782199025154114,-0.002837598090991378,0.004002997186034918
1772562758012079400,0.663079345703125,-0.0039145806804299355,-0.003421895671635866,0.00367143377661705
1772562758022146800,0.673146728515625,-0.005113002844154835,-0.006984672509133816,0.0023931164760142565
1772562758032213800,0.6832138671875,-0.004542553797364235,-0.002709766384214163,0.005364139098674059
1772562758042280700,0.69328076171875,-0.0023907197173684835,-0.003175020683556795,0.00123783724848181
1772562758052347600,0.70334765625,-0.0009795106016099453,-0.0041460092179477215,0.001674861996434629
1772562758062414600,0.71341455078125,-0.0008855010382831097,-0.004831506870687008,-0.00019041601626668125
1772562758072481500,0.7234814453125,-0.00432976707816124,-0.005590241402387619,0.0025995115283876657
1772562758082548700,0.733548828125,-0.002686596941202879,-0.005540440324693918,0.004316451493650675
1772562758092615700,0.74361572265625,-0.004157194402068853,-0.001981125446036458,0.002686064224690199
1772562758102682600,0.7536826171875,-0.002685797866433859,-0.0043710460886359215,0.004267715383321047
1772562758112749600,0.76374951171875,-0.003457049373537302,-0.002487126039341092,0.004668787587434053
1772562758122817500,0.773817626953125,-0.0037348170299082994,-0.003858121344819665,0.0016253271605819464
1772562758132884500,0.783884521484375,-0.003829625668004155,-0.0068235513754189014,0.0025513083674013615
1772562758142951400,0.793951416015625,-0.002846919232979417,-0.005506884306669235,0.0022538332268595695
1772562758153018400,0.804018310546875,-0.002889529801905155,-0.005679457448422909,0.0029356025625020266
1772562758163085800,0.8140859375,-0.002552906284108758,-0.005906358826905489,0.0027260116767138243
1772562758173152800,0.82415283203125,-0.004046939779073,-0.005086637567728758,0.004840028937906027
1772562758183219700,0.8342197265625,-0.004050401505082846,-0.00512711750343442,0.00020825919636990875
1772562758193286700,0.84428662109375,-0.0008146609761752188,-0.0046357642859220505,0.0033318807836622
1772562758203353600,0.854353515625,-0.002782470779493451,-0.0037649108562618494,0.003590473672375083
1772562758213420500,0.864420654296875,-0.004597681108862162,-0.007839014753699303,0.0041699777357280254
1772562758223487500,0.874487548828125,-0.0012175972806289792,-0.006435262504965067,-0.0011877698125317693
1772562758233555500,0.884555419921875,-0.003995540551841259,-0.007297594100236893,0.001961418194696307
1772562758243622700,0.89462255859375,-0.003312173532322049,-0.006426474079489708,0.00009054747351910919
1772562758253689600,0.904689697265625,-0.002838130807504058,-0.0038245655596256256,0.005645635072141886
1772562758263756500,0.914756591796875,-0.0019718045368790627,-0.003471963107585907,0.006596916355192661
1772562758273823500,0.924823486328125,-0.002359294332563877,-0.00689172837883234,0.002951315138489008
1772562758283890400,0.934890380859375,-0.0031995216850191355,-0.005965214688330889,0.0010122675448656082
1772562758293957400,0.944957275390625,-0.0043894220143556595,-0.005093295592814684,0.002351038623601198
1772562758304024600,0.955024658203125,-0.0026498453225940466,-0.0027363980188965797,0.0018461032304912806
1772562758314091800,0.965091796875,-0.0015747271245345473,-0.005978796631097794,0.0032682311721146107
1772562758324158700,0.97515869140625,-0.004640824627131224,-0.004375040996819735,0.0013243899447843432
1772562758334226700,0.985226806640625,-0.004194478504359722,-0.006068811286240816,0.004013117402791977
1772562758344293600,0.995293701171875,-0.004738030023872852,-0.004898884799331427,0.0034437335561960936
1772562758354360600,1.005360595703125,-0.003805657150223851,-0.003885285696014762,0.0024953819811344147
1772562758364427500,1.015427490234375,-0.0005201153689995408,-0.004197674337774515,0.004945490043610334
1772562758374494500,1.025494384765625,-0.003279150230810046,-0.005407282151281834,0.0020125508308410645
1772562758384561700,1.035561767578125,-0.0036730316933244467,-0.002460228279232979,0.0014029532903805375
1772562758394628600,1.045628662109375,-0.004731904715299606,-0.003894606838002801,0.000642354425508529
1772562758404695600,1.055695556640625,-0.0026085663121193647,-0.005880525801330805,0.0018354506464675069
1772562758414762500,1.065762451171875,-0.003916977439075708,-0.005901831202208996,0.0038043255917727947
1772562758424829400,1.075829345703125,-0.0021933794487267733,-0.004793157335370779,0.0036274916492402554
1772562758434896400,1.085896484375,-0.003142263740301132,-0.005075452383607626,0.0009763148264028132
1772562758444964600,1.095964599609375,-0.0005219795857556164,-0.0049617355689406395,0.0020652813836932182
1772562758455031600,1.106031494140625,-0.0034583809319883585,-0.0040948763489723206,0.003537210635840893
1772562758465098500,1.116098388671875,-0.0034876756835728884,-0.005452556069940329,0.0034194989129900932
1772562758475165700,1.126165771484375,-0.0022748722694814205,-0.004728975240141153,0.0012253203894942999
1772562758485232600,1.136232666015625,-0.0032522522378712893,-0.005225388333201408,0.00008708536915946752
1772562758495299600,1.146299560546875,-0.003528155852109194,-0.003772101365029812,-0.0005044027348048985
1772562758505366500,1.156366455078125,-0.002225070958957076,-0.0029174929950386286,0.0024197481106966734
1772562758515433500,1.16643359375,-0.00276169809512794,-0.0028903286438435316,0.00162426196038723
1772562758525500400,1.17650048828125,-0.003058107802644372,-0.003970240708440542,-0.00004820321555598639
1772562758535567600,1.186567626953125,-0.0025393241085112095,-0.00512738386169076,0.0011741877533495426
1772562758545634600,1.196634521484375,-0.0032708945218473673,-0.005829393398016691,0.005023254547268152
1772562758555702800,1.206702880859375,-0.00410473020747304,-0.0036826191935688257,0.001627457677386701
1772562758565769700,1.216769775390625,-0.0024383901618421078,-0.0041372207924723625,0.0028301412239670753
1772562758575836700,1.226836669921875,-0.002701510675251484,-0.006395581178367138,0.003148122690618038
1772562758585903600,1.236903564453125,-0.003379285102710128,-0.005868807900696993,0.0006314354832284153
1772562758595970600,1.246970458984375,-0.002636529505252838,-0.0027832696214318275,0.0007185208378359675
1772562758606037500,1.25703759765625,-0.0018109495285898447,-0.004191549029201269,0.004037085920572281
1772562758616104700,1.267104736328125,-0.0019715381786227226,-0.007028880994766951,0.0007006776868365705
1772562758626171600,1.277171630859375,-0.00166607357095927,-0.005556153133511543,0.0017994979862123728
1772562758636238600,1.287238525390625,-0.005309011787176132,-0.004495682194828987,0.002727875951677561
1772562758646305500,1.297305419921875,-0.001184574095532298,-0.004232295788824558,0.0028304075822234154
1772562758656373500,1.30737353515625,-0.00299259414896369,-0.006405435036867857,0.006089850328862667
1772562758666440400,1.3174404296875,-0.003974501509219408,-0.005345763172954321,0.0017249294323846698
1772562758676507400,1.32750732421875,-0.0025545042008161545,-0.00510021997615695,-0.0008636631537228823
1772562758686574600,1.33757470703125,-0.003653324441984296,-0.003908987622708082,0.0006141249323263764
1772562758696641800,1.347641845703125,-0.0006119944155216217,-0.005391037091612816,-0.0004165183927398175
1772562758706708700,1.357708740234375,-0.0027475832030177116,-0.0039278962649405,0.002293514320626855
1772562758716775700,1.367775634765625,-0.0010934938909485936,-0.0044996771030128,0.0023819312918931246
1772562758726842600,1.377842529296875,-0.003819771809503436,-0.005241101142019033,0.005081044975668192
1772562758736909600,1.38790966796875,-0.0031438616570085287,-0.0049438923597335815,0.0015784555580466986
1772562758746976500,1.3979765625,-0.0018407768802717328,-0.004171841777861118,0.0022122878581285477
1772562758757044500,1.40804443359375,-0.0018066884949803352,-0.0038016624748706818,0.000015978966985130683
1772562758767111400,1.418111328125,-0.004580104257911444,-0.007113569416105747,0.002016279147937894
1772562758777178600,1.4281787109375,-0.000597879639826715,-0.0025768745690584183,0.004734301473945379
1772562758787245600,1.43824560546875,-0.004391286056488752,-0.004914331249892712,0.00096113485051319
1772562758797312500,1.4483125,-0.0031193606555461884,-0.0065290057100355625,0.001731320982798934
1772562758807379500,1.45837939453125,-0.0031284152064472437,-0.005875998642295599,0.001630120910704136
1772562758817446400,1.4684462890625,-0.0016761935548856854,-0.006340453866869211,0.006371879018843174
1772562758827513600,1.478513671875,-0.00024314661277458072,-0.006401972845196724,0.00023302659974433482
1772562758837580800,1.488580810546875,-0.0024343954864889383,-0.003980893176048994,-0.0022540995851159096
1772562758847647700,1.498647705078125,-0.0018570221727713943,-0.005880525801330805,0.003139334265142679
1772562758857714700,1.508714599609375,-0.0022056300658732653,-0.005133509170264006,0.0033848776947706938
1772562758867783000,1.518782958984375,-0.0010580739472061396,-0.005587311927229166,0.004355067387223244
1772562758877849900,1.528849853515625,-0.0038397456519305706,-0.003326820908114314,0.004195543937385082
1772562758887916800,1.538916748046875,-0.0007984156836755574,-0.005402488633990288,0.0020418455824255943
1772562758897983700,1.548983642578125,-0.0026967169251292944,-0.005877862684428692,0.001990712946280837
1772562758908050700,1.55905078125,-0.00401578051969409,-0.007636614143848419,0.002626942005008459
1772562758918118000,1.569117919921875,-0.001505484920926392,-0.004867459647357464,0.004793157335370779
1772562758928184800,1.579184814453125,-0.0028937908355146646,-0.005240834783762693,0.005279717035591602
1772562758938251800,1.589251708984375,-0.003084739437326789,-0.006942328065633774,0.0037675739731639624
1772562758948318700,1.599318603515625,-0.0025622271932661533,-0.004092745948582888,0.0057561565190553665
1772562758958385700,1.6093857421875,-0.0041217743419110775,-0.004567321389913559,-0.0000125168571685208
1772562758968454000,1.619453857421875,-0.004257861990481615,-0.004983306862413883,0.004290086217224598
1772562758978520800,1.629520751953125,-0.0032671659719198942,-0.005606220569461584,0.0013560815714299679
1772562758988587800,1.639587890625,-0.0035976641811430454,-0.006006493698805571,0.0067780110985040665
1772562758998654700,1.64965478515625,-0.002435460686683655,-0.0038029940333217382,0.0026045716367661953
1772562759008722000,1.659721923828125,-0.005654423497617245,-0.003728159237653017,0.0020988371688872576
1772562759018788900,1.669788818359375,-0.0029499835800379515,-0.005203017964959145,0.0036578518338501453
1772562759028855800,1.679855712890625,-0.0028447885997593403,-0.004727909807115793,0.002285258611664176
1772562759038922800,1.6899228515625,-0.0037952708080410957,-0.0057614827528595924,0.001924666459672153
1772562759048989700,1.69998974609375,-0.0006801713607273996,-0.006883738562464714,0.0026144252624362707
1772562759059056600,1.710056640625,-0.003912449814379215,-0.006474144756793976,0.0018884475575760007
1772562759069123800,1.720123779296875,-0.0038714371621608734,-0.005567338317632675,0.005200887098908424
1772562759079191800,1.73019189453125,-0.004008590243756771,-0.00307595101185143,0.0026045716367661953
1772562759089259000,1.740259033203125,-0.005289037711918354,-0.004494350403547287,0.0032357405871152878
1772562759099326000,1.750325927734375,-0.003945739474147558,-0.005123123060911894,0.0011211908422410488
1772562759109393000,1.760392822265625,-0.003278883872553706,-0.005846970248967409,0.003296460723504424
1772562759119459800,1.7704599609375,-0.004442685283720493,-0.003914047963917255,0.0036511938087642193
1772562759129526800,1.78052685546875,-0.00498197553679347,-0.004759068600833416,0.0024322650860995054
1772562759139593700,1.79059375,-0.0032732912804931402,-0.00606348505243659,0.0049438923597335815
1772562759149661000,1.800660888671875,-0.005052282940596342,-0.0046637277118861675,-0.0002961435238830745
1772562759159727900,1.810727783203125,-0.004229898564517498,-0.005293831694871187,0.0016263924771919847
1772562759169794800,1.820794921875,-0.0026666230987757444,-0.005543369799852371,-0.0003211772127542645
1772562759179862800,1.83086279296875,-0.0022620889358222485,-0.004372377879917622,0.0026200178544968367
1772562759189929700,1.8409296875,-0.005565207917243242,-0.0059718722477555275,0.0030836742371320724
1772562759199996700,1.85099658203125,-0.0013438310706987977,-0.0035364115610718727,0.00318940170109272
1772562759210063600,1.861063720703125,-0.0008402272942475975,-0.006400907412171364,0.003938548732548952
1772562759220130600,1.871130615234375,-0.0017411747248843312,-0.002965696156024933,0.00433163158595562
1772562759230198000,1.881197998046875,-0.002282329136505723,-0.00646615494042635,0.002746784361079335
1772562759240265000,1.891264892578125,-0.005320996046066284,-0.004810201469808817,0.003930825740098953
1772562759250332000,1.901331787109375,-0.0011616708943620324,-0.0057106162421405315,0.0031907332595437765
1772562759260398800,1.91139892578125,-0.0032373385038226843,-0.006728210020810366,0.0028581044171005487
1772562759270465800,1.9214658203125,-0.004510862287133932,-0.005460012704133987,0.0025923210196197033
1772562759280533800,1.93153369140625,-0.004369714763015509,-0.006199306342750788,0.005873601883649826
1772562759290600700,1.9416005859375,-0.003043460426852107,-0.005579322576522827,0.0049196574836969376
1772562759300667600,1.951667724609375,-0.002805640222504735,-0.0032495891209691763,0.0035092474427074194
1772562759310734800,1.96173486328125,-0.004456799943000078,-0.003934287931770086,0.00170788518153131
1772562759320801800,1.9718017578125,-0.00433056615293026,-0.003849599277600646,0.0051476238295435905
1772562759330868700,1.98186865234375,-0.002915895078331232,-0.005447229836136103,0.0011646003695204854
1772562759340935700,1.991935791015625,-0.004092745948582888,-0.0054698665626347065,0.002743055811151862
1772562759351002600,2.002002685546875,-0.0024895230308175087,-0.0024916534312069416,0.005815544631332159
1772562759361069600,2.012069580078125,-0.005441104527562857,-0.004012851044535637,0.0038919434882700443
1772562759371137000,2.022136962890625,-0.004543352872133255,-0.003899666713550687,0.001654089312069118
1772562759381204700,2.032204833984375,-0.003397660795599222,-0.005269330460578203,0.0013076120521873236
1772562759391272000,2.04227197265625,-0.0037590519059449434,-0.007423295173794031,0.00041545313433744013
1772562759401339000,2.0523388671875,-0.005132177844643593,-0.005311674904078245,0.005311408545821905
1772562759411405800,2.06240576171875,-0.002031459240242839,-0.0062943813391029835,0.0049039446748793125
1772562759421472800,2.07247265625,-0.004596083424985409,-0.005858421791344881,0.0046418895944952965
1772562759431539700,2.082539794921875,-0.002511360915377736,-0.0038453382439911366,0.006225138902664185
1772562759441606700,2.092606689453125,-0.0018761969404295087,-0.0028394623659551144,0.0035004590172320604
1772562759451673900,2.102673828125,-0.0037974014412611723,-0.003385410411283374,0.004938565660268068
1772562759461740800,2.11274072265625,-0.0020775320008397102,-0.005161472596228123,0.0016463662032037973
1772562759471807700,2.122807861328125,-0.004935103934258223,-0.0052144695073366165,-0.0015251922886818647
1772562759481876000,2.1328759765625,-0.0028040423057973385,-0.006452040281146765,0.004486094694584608
1772562759491943000,2.14294287109375,-0.001127582392655313,-0.0055090151727199554,0.003976366017013788
1772562759502009900,2.153009765625,-0.004004861693829298,-0.006945523899048567,0.0028850024100393057
1772562759512076800,2.163076904296875,-0.0021731394808739424,-0.005292499903589487,0.002034388715401292
1772562759522143700,2.173143798828125,-0.002269812161102891,-0.0028301412239670753,0.0018556906143203378
1772562759532211000,2.1832109375,-0.0017353157745674253,-0.00421338714659214,0.0023342606145888567
1772562759542278000,2.19327783203125,-0.0007534082396887243,-0.005528456065803766,0.0015869776252657175
1772562759552344800,2.2033447265625,-0.0019883159548044205,-0.006901848129928112,0.0005155879771336913
1772562759562411800,2.213411865234375,-0.0017630126094445586,-0.003982757218182087,0.0008767126128077507
1772562759572478700,2.223478759765625,-0.0027899276465177536,-0.0028357338160276413,0.0011249192757532
1772562759582546700,2.233546630859375,-0.0018916432745754719,-0.00686243362724781,0.0038772961124777794
1772562759592613600,2.243613525390625,-0.003397660795599222,-0.0060051619075238705,0.00042743736412376165
1772562759602680600,2.2536806640625,-0.005543103441596031,-0.0037795582320541143,0.0032796829473227262
1772562759612748000,2.263748046875,-0.0031971249263733625,-0.006295179948210716,0.004580104257911444
1772562759622815000,2.27381494140625,-0.003282079705968499,-0.006910902913659811,0.0024772724136710167
1772562759632882000,2.2838818359375,-0.003483414649963379,-0.0059838565066456795,0.005366802215576172
1772562759642948900,2.293948974609375,-0.002974750939756632,-0.00173744629137218,0.003768905531615019
1772562759653015800,2.304015869140625,-0.004028830211609602,-0.006673349067568779,0.0038605183362960815
1772562759663082800,2.314082763671875,-0.003141997382044792,-0.0044288369826972485,0.0040765004232525826
1772562759673150000,2.32414990234375,-0.0037587855476886034,-0.006346312817186117,0.003968908917158842
1772562759683217700,2.3342177734375,-0.00433136522769928,-0.004592621233314276,0.0001691107318038121
1772562759693284900,2.344284912109375,-0.0019244002178311348,-0.0041404166258871555,0.0006356965750455856
1772562759703351800,2.354351806640625,-0.002802977105602622,-0.003742540255188942,0.002344380598515272
1772562759713418800,2.364418701171875,-0.0023158849216997623,-0.006076534744352102,0.0012096078135073185
1772562759723485700,2.374485595703125,-0.0018586200894787908,-0.0054727960377931595,0.002561428351327777
1772562759733552600,2.384552734375,-0.002529204124584794,-0.0019350528018549085,0.0006130596739239991
1772562759743619600,2.39461962890625,-0.0015992282424122095,-0.005628058221191168,0.004610730800777674
1772562759753686800,2.404686767578125,-0.00504003232344985,-0.005411543417721987,0.004828843753784895
1772562759763754000,2.41475390625,0.00013395700079854578,-0.005088767968118191,0.001787779969163239
1772562759773821000,2.424821044921875,-0.0021470405627042055,-0.005154814571142197,0.00004953479583491571
1772562759783889000,2.434888916015625,-0.002144909929484129,-0.004727377090603113,0.0016215987270697951
1772562759793955800,2.444955810546875,-0.0017715347930788994,-0.004549478180706501,0.0018338527297601104
1772562759804022800,2.455022705078125,-0.0020042951218783855,-0.003923634998500347,0.003674097126349807
1772562759814089700,2.46508984375,-0.000770452490542084,-0.0031260184478014708,0.003975833300501108
1772562759824156700,2.47515673828125,-0.0036125779151916504,-0.005501291714608669,0.0029704899061471224
1772562759834223900,2.485223876953125,-0.003486876841634512,-0.0021134845446795225,0.0032653016969561577
1772562759844290800,2.495290771484375,-0.0019353191601112485,-0.0032581111881881952,0.0020655477419495583
1772562759854357800,2.505357666015625,-0.0027198863681405783,-0.0064895907416939735,0.005662679206579924
1772562759864425500,2.515425537109375,-0.003308711340650916,-0.004081827122718096,0.001133174984715879
1772562759874492400,2.525492431640625,-0.003944674041122198,-0.006173740141093731,0.006421413738280535
1772562759884560400,2.535560302734375,-0.0023550332989543676,-0.00376064982265234,0.004029895178973675
1772562759894627300,2.54562744140625,-0.0020570256747305393,-0.0049345712177455425,0.002357163932174444
1772562759904694300,2.5556943359375,-0.0016743293963372707,-0.005441637244075537,0.0028338697738945484
1772562759914761200,2.56576123046875,-0.003454652614891529,-0.0067993164993822575,0.005562544334679842
1772562759924828400,2.575828369140625,-0.002719087526202202,-0.005313272587954998,0.004676776938140392
1772562759934895600,2.5858955078125,-0.003972104750573635,-0.005557750817388296,0.0031553131993860006
1772562759944962600,2.595962646484375,-0.0046605318784713745,-0.0034490597900003195,0.002454102970659733
1772562759955029500,2.606029541015625,-0.003180080559104681,-0.0065654912032186985,0.002264219569042325
1772562759965096400,2.616096435546875,-0.0032711606472730637,-0.004436559975147247,0.0023939155507832766
1772562759975164400,2.626164306640625,-0.005092230159789324,-0.0044014062732458115,0.0015062838792800903
1772562759985231400,2.6362314453125,-0.0012279836228117347,-0.0054762582294642925,0.001377653214149177
1772562759995298300,2.64629833984375,-0.003186472225934267,-0.002939330879598856,0.003579821204766631
1772562760005365200,2.656365234375,-0.001838646363466978,-0.005104480776935816,0.000818123109638691
1772562760015432400,2.666432373046875,-0.002811765531077981,-0.004899417515844107,0.00038456046604551375
1772562760025499400,2.67649951171875,-0.0036511938087642193,-0.003974235150963068,0.005417668726295233
1772562760035566300,2.68656640625,-0.0015395734226331115,-0.004251203965395689,0.0036631780676543713
1772562760045633300,2.69663330078125,-0.0023374564480036497,-0.0035151063930243254,0.0036495958920568228
1772562760055700500,2.706700439453125,-0.0023377228062599897,-0.0027417242527008057,0.0030269487760961056
1772562760065767400,2.716767333984375,-0.0016863135388121009,-0.004523379262536764,0.0034815503749996424
1772562760075835400,2.72683544921875,-0.0031515848822891712,-0.005556419026106596,0.001044491771608591
1772562760085902300,2.73690234375,-0.005706089083105326,-0.0035153725184500217,0.0024764735717326403
1772562760095969500,2.746969482421875,-0.002311357529833913,0.0004295678809285164,0.004263454582542181
1772562760106036500,2.757036376953125,-0.00022503710351884365,-0.011544270440936089,-0.00038216362008824944
1772562760116103400,2.767103515625,-0.0021441110875457525,-0.02075827494263649,0.0005102616851218045
1772562760126170400,2.77717041015625,0.00033342777169309556,-0.01991485245525837,0.0009358347742818296
1772562760136237300,2.7872373046875,-0.005343899130821228,0.009305884130299091,0.0023875238839536905
1772562760146304300,2.79730419921875,-0.004890362732112408,0.01770096644759178,0.002778209513053298
1772562760156371500,2.807371337890625,-0.0036336169578135014,0.006209426559507847,0.003615241264924407
1772562760166438400,2.8174384765625,-0.0021462414879351854,-0.01263856329023838,0.0037984666414558887
1772562760176506600,2.827506591796875,-0.005852030124515295,-0.020425911992788315,-0.0011614045361056924
1772562760186573600,2.837573486328125,-0.001151284552179277,-0.018429607152938843,-0.0031073763966560364
1772562760196640500,2.847640625,-0.0046605318784713745,-0.005783320404589176,0.00046312372433021665
1772562760206707500,2.85770751953125,-0.005511145573109388,0.005148156546056271,0.006943393498659134
1772562760216774400,2.8677744140625,-0.004240285139530897,0.010578608140349388,0.0038397456519305706
1772562760226841300,2.87784130859375,-0.003409645054489374,0.002210956299677491,0.004235491156578064
1772562760236908500,2.887908447265625,-0.0020274645648896694,-0.009721603244543076,-0.0014916365034878254
1772562760246975500,2.8979755859375,-0.002686064224690199,-0.016589628532528877,0.001163002452813089
1772562760257042400,2.90804248046875,-0.0021347899455577135,-0.010407899506390095,0.002335592173039913
1772562760267109400,2.918109375,-0.0035774242132902145,-0.0034613104071468115,0.0052203284576535225
1772562760277177300,2.92817724609375,-0.003568103304132819,0.004523911513388157,0.004381432663649321
1772562760287244300,2.938244384765625,-0.004989698529243469,0.0018362496048212051,0.0063196811825037
1772562760297311200,2.948311279296875,-0.00029081720276735723,-0.0030562435276806355,0.0011608719360083342
1772562760307378400,2.95837841796875,-0.002088717184960842,-0.009429721161723137,0.0010428938549011946
1772562760317445600,2.968445556640625,-0.0025100293569266796,-0.011648932471871376,0.0008346347021870315
1772562760327512600,2.9785126953125,-0.0032490564044564962,-0.00529542937874794,0.0031380027066916227
1772562760337579500,2.98857958984375,-0.004129231441766024,-0.002877012826502323,0.0029055087361484766
1772562760347646500,2.998646484375,-0.004056260455399752,-0.0003326288133393973,0.0029766152147203684
1772562760357713400,3.00871337890625,-0.0026674221735447645,-0.0008189220097847283,0.0017100156983360648
1772562760367781400,3.018781494140625,-0.003493002150207758,-0.006432066671550274,0.003058374160900712
1772562760377848300,3.028848388671875,-0.00227806787006557,-0.007956992834806442,0.0023441144730895758
1772562760387915300,3.038915283203125,-0.005933256354182959,-0.007325290702283382,0.0027366643771529198
1772562760397982500,3.048982421875,-0.0022924491204321384,-0.0031033814884722233,0.0023012375459074974
1772562760408049400,3.05904931640625,-0.0019062906503677368,-0.001740642124786973,0.0010998855577781796
1772562760418116400,3.069116455078125,-0.0035143073182553053,0.00022956448083277792,0.0034490597900003195
1772562760428183300,3.079183349609375,-0.0041675809770822525,-0.004489556886255741,0.006062420085072517
1772562760438250200,3.089250244140625,-0.002950516063719988,-0.005167331546545029,0.0046631949953734875
1772562760448317400,3.0993173828125,-0.005218463949859142,-0.007028614636510611,0.004893292207270861
1772562760458384600,3.109384521484375,-0.003754790872335434,-0.004844556096941233,0.0002061286650132388
1772562760468452400,3.119452392578125,-0.0030474551022052765,-0.003716707695275545,0.0032317459117621183
1772562760478519600,3.12951953125,-0.004040814470499754,-0.0008516788948327303,0.0033009881153702736
1772562760488586500,3.13958642578125,-0.0029819414485245943,-0.0017664746847003698,0.0008498146780766547
1772562760498653400,3.1496533203125,-0.0025648903101682663,-0.0040456079877913,-0.0004548678989522159
1772562760508720400,3.159720458984375,-0.0034674357157200575,-0.00899775605648756,0.001805889536626637
1772562760518787300,3.169787353515625,-0.0027981833554804325,-0.006973220966756344,0.0028367992490530014
1772562760528854300,3.179854248046875,-0.0025808694772422314,-0.005733785685151815,0.0025124261155724525
1772562760538921500,3.18992138671875,-0.0038035267498344183,-0.0013526194961741567,0.002888997085392475
1772562760548988400,3.199988525390625,-0.0018293253378942609,-0.0036136433482170105,-0.0014863101532682776
1772562760559056600,3.210056640625,-0.0032296155113726854,-0.004047472029924393,0.003034405643120408
1772562760569123600,3.22012353515625,-0.002412024885416031,-0.005819539539515972,0.0017981663113459945
1772562760579190500,3.2301904296875,-0.002481799805536866,-0.006698915269225836,0.0036735644098371267
1772562760589257500,3.240257568359375,-0.00418276060372591,-0.005315402988344431,0.0012783173006027937
1772562760599324400,3.250324462890625,-0.0033723609521985054,-0.0033968619536608458,0.004058124963194132
1772562760609391400,3.260391357421875,-0.0013968279818072915,-0.0023667511995881796,0.002115881536155939
1772562760619458600,3.27045849609375,-0.0027603665366768837,-0.001876995898783207,0.002909237053245306
1772562760629525500,3.280525390625,-0.0041215079836547375,-0.00481366366147995,0.00250603468157351
1772562760639592400,3.290592529296875,-0.0030075078830122948,-0.006050169467926025,0.0028509139083325863
1772562760649659400,3.300659423828125,-0.003465837799012661,-0.006045375484973192,0.0008325041271746159
1772562760659727400,3.310727294921875,-0.002496979897841811,-0.007925034500658512,0.005783586762845516
1772562760669794300,3.320794189453125,-0.0020847225096076727,-0.004454136826097965,0.0030887341126799583
1772562760679861200,3.330861328125,-0.002379800658673048,-0.003522563260048628,0.002926813904196024
1772562760689928400,3.340928466796875,-0.0016359798610210419,-0.003629089565947652,0.0026589001063257456
1772562760699995400,3.350995361328125,-0.004251203965395689,-0.004598480183631182,0.0034679684322327375
1772562760710062600,3.3610625,-0.00019867181254085153,-0.00851652305573225,0.002108957152813673
1772562760720129500,3.371129638671875,-0.004890895448625088,-0.004969458561390638,0.0033430662006139755
1772562760730196500,3.381196533203125,-0.002098304685205221,-0.00458596320822835,0.002127333078533411
1772562760740263400,3.391263427734375,-0.0026197514962404966,-0.004379035905003548,0.0033510555513203144
1772562760750331400,3.401331298828125,-0.0022535668686032295,-0.0034410704392939806,0.0007214503129944205
1772562760760398300,3.4113984375,-0.004441886208951473,-0.006364955101162195,0.004363855812698603
1772562760770465300,3.42146533203125,-0.0017193368403241038,-0.006892526987940073,0.0031731564085930586
1772562760780532500,3.431532470703125,-0.0022863238118588924,-0.00413482403382659,-0.00047351003740914166
1772562760790599400,3.441599365234375,-0.0016178702935576439,-0.004954278469085693,0.002110288944095373
1772562760800666400,3.451666259765625,-0.003099386813119054,-0.004372377879917622,0.0025483788922429085
1772562760810733300,3.4617333984375,-0.002912166528403759,-0.0032599754631519318,0.0008711199625395238
1772562760820800300,3.47180029296875,-0.005017928313463926,-0.004575044382363558,0.003938815090805292
1772562760830867500,3.481867431640625,-0.0054847802966833115,-0.0033305492252111435,0.0024461133871227503
1772562760840934400,3.491934326171875,-0.002953978255391121,-0.00549303600564599,0.0034967304673045874
1772562760851002400,3.50200244140625,-0.0033004553988575935,-0.002764893928542733,0.00577719509601593
1772562760861069600,3.512069580078125,-0.0034879420418292284,-0.006099970545619726,0.0007680556736886501
1772562760871136000,3.522135986328125,-0.0024868599139153957,-0.0035060516092926264,0.0006255765329115093
1772562760881203000,3.532202880859375,-0.00370126124471426,-0.005434180144220591,0.004979312419891357
1772562760891270000,3.542269775390625,-0.002644518855959177,-0.0031531827989965677,0.0046362970024347305
1772562760901336800,3.5523369140625,-0.00452790642157197,-0.004350007511675358,0.004267183132469654
1772562760911403800,3.56240380859375,-0.003334543900564313,-0.005369998048990965,0.0006322344415821135
1772562760921471000,3.572470947265625,-0.0007129282457754016,-0.0033782199025154114,0.0024708807468414307
1772562760931538000,3.582537841796875,-0.002802178030833602,-0.0013054815353825688,0.0032349417451769114
1772562760941606000,3.59260595703125,-0.0033657029271125793,-0.004735632799565792,0.002540922025218606
1772562760951673000,3.602673095703125,-0.0022088258992880583,-0.005178516730666161,0.0018908443162217736
1772562760961740000,3.612739990234375,-0.0035563854034990072,-0.005787048954516649,0.0049404301680624485
1772562760971807000,3.622806884765625,-0.0028128307312726974,-0.004250404890626669,0.0028162929229438305
1772562760981874000,3.6328740234375,-0.0033366745337843895,-0.004807804711163044,0.004882373381406069
1772562760991940900,3.64294091796875,-0.0027840686962008476,-0.0028884646017104387,0.0046842340379953384
1772562761002008000,3.653008056640625,-0.0020301276817917824,-0.0030594393610954285,0.0010040117194876075
1772562761012075000,3.663074951171875,-0.0024676851462572813,-0.004007258452475071,0.0012221246724948287
1772562761022142000,3.673141845703125,-0.0018453042721375823,-0.005104747135192156,0.0004996090428903699
1772562761032210000,3.6832099609375,-0.004252535756677389,-0.004017910920083523,0.002478603972122073
1772562761042276900,3.69327685546875,-0.0037984666414558887,-0.004222974646836519,0.0020727382507175207
1772562761052343800,3.70334375,-0.0028482507914304733,-0.005577458068728447,0.0031129689887166023
1772562761062410800,3.71341064453125,-0.004257062915712595,-0.004948153160512447,0.0038482677191495895
1772562761072477700,3.723477783203125,-0.0005483448621816933,-0.006932741031050682,0.004552407655864954
1772562761082545000,3.733544921875,-0.0005241101025603712,-0.006057093385607004,0.0019382486352697015
1772562761092612000,3.743612060546875,-0.0026312030386179686,-0.0028485171496868134,0.0018514295807108283
1772562761102679000,3.753678955078125,-0.004165450111031532,-0.005273858085274696,0.005361209623515606
1772562761112746000,3.76374609375,0.00013395700079854578,-0.0036525253672152758,0.000853809411637485
1772562761122813000,3.77381298828125,-0.0029758161399513483,-0.006884004920721054,0.0016953683225437999
1772562761132881000,3.783880859375,-0.0013856426812708378,-0.002679938916116953,0.0014833806781098247
1772562761142947800,3.79394775390625,-0.0032085764687508345,-0.004910602699965239,0.002739860210567713
1772562761153014800,3.804014892578125,-0.003614442190155387,-0.005736715160310268,0.00230816169641912
1772562761163082000,3.81408203125,-0.003486077766865492,-0.004128965083509684,0.003855724586173892
1772562761173149000,3.82414892578125,-0.005188636481761932,-0.0056890444830060005,0.0021851237397640944
1772562761183215900,3.8342158203125,-0.004709533881396055,-0.00549223693087697,0.0037649108562618494
1772562761193282800,3.84428271484375,-0.002284992253407836,-0.004535097163170576,0.001472728094086051
1772562761203349800,3.854349853515625,-0.004388356581330299,-0.003802727675065398,0.0016463662032037973
1772562761213416700,3.864416748046875,-0.002222940558567643,-0.003489806316792965,0.004799549002200365
1772562761223485000,3.87448486328125,-0.004425108432769775,-0.005114334635436535,0.005818740464746952
1772562761233552000,3.8845517578125,-0.002566754585132003,-0.0023041670210659504,-0.000041811628761934116
1772562761243619000,3.894619140625,-0.0038538603112101555,-0.004479437135159969,0.0023422501981258392
1772562761253686000,3.90468603515625,-0.0037023264449089766,-0.005494633689522743,0.0021145499777048826
1772562761263753000,3.9147529296875,-0.0017606157343834639,-0.005559082608669996,0.0008130630594678223
1772562761273820000,3.92481982421875,-0.0028418591246008873,-0.006287723314017057,0.0049470881931483746
1772562761283886800,3.934886962890625,-0.0035505264531821012,-0.003500725142657757,0.0035361452028155327
1772562761293953800,3.944953857421875,-0.004759334959089756,-0.004281031433492899,0.0029854036401957273
1772562761304021000,3.95502099609375,-0.001970472978428006,-0.00478516798466444,0.0008713863207958639
1772562761314088700,3.965088623046875,-0.003994208760559559,-0.002183525823056698,0.003486610483378172
1772562761324156000,3.975156005859375,-0.0012660667998716235,-0.0038008634001016617,0.004340420011430979
1772562761334223000,3.98522314453125,-0.0005198490689508617,-0.002817624481394887,0.002796851797029376
1772562761344290000,3.9952900390625,-0.0019984361715614796,-0.004209125880151987,0.0029670277144759893
1772562761354357000,4.00535693359375,-0.005408081226050854,-0.004270112607628107,0.006112487055361271
1772562761364424000,4.015423828125,-0.0028639633674174547,-0.005438175052404404,-0.0003201119543518871
1772562761374491000,4.025490966796875,-0.00210709311068058,-0.0043779704719781876,0.002921221312135458
1772562761384558000,4.03555810546875,-0.002775280037894845,-0.0017036241479218006,0.002969158347696066
1772562761394625000,4.045625,-0.002517219865694642,-0.0056863813661038876,0.0024839304387569427
1772562761404692000,4.05569189453125,-0.0016887104138731956,-0.005347094964236021,-0.0002998719282913953
1772562761414760000,4.065760009765625,-0.0025632926262915134,-0.002739860210567713,0.005270928610116243
1772562761424827000,4.075826904296875,-0.00253399764187634,-0.0046576024033129215,0.0018109495285898447
1772562761434893800,4.085893798828125,-0.002689526416361332,-0.004699147772043943,0.005403021350502968
1772562761444960800,4.095960693359375,-0.0035087147261947393,-0.003062102710828185,-0.00022690132027491927
1772562761455027700,4.10602783203125,-0.004384628497064114,-0.005794239696115255,0.003943076357245445
1772562761465095000,4.116094970703125,-0.0025483788922429085,-0.0027116306591778994,0.0019949739798903465
1772562761475162000,4.126162109375,-0.002921754028648138,-0.006629673298448324,0.003996339626610279
1772562761485229000,4.13622900390625,-0.004460528492927551,-0.007770571392029524,0.00490208063274622
1772562761495296000,4.1462958984375,-0.0017755294684320688,-0.0033598439767956734,0.005885319784283638
1772562761505364000,4.156364013671875,-0.004089283756911755,-0.004572647623717785,0.0026471822056919336
1772562761515431000,4.166430908203125,-0.002576075727120042,-0.0054480284452438354,0.0023134879302233458
1772562761525497900,4.176497802734375,-0.0007129282457754016,-0.005744704511016607,0.0017885789275169373
1772562761535564800,4.186564697265625,-0.0021766014397144318,-0.005137504078447819,0.003865045728161931
1772562761545632000,4.196632080078125,-0.005823268089443445,-0.004786232952028513,0.0017544905422255397
1772562761555699000,4.206698974609375,-0.003832022426649928,-0.006747651379555464,0.004475974943488836
1772562761565766000,4.216765869140625,0.0002996056282427162,-0.0012932310346513987,0.004187021870166063
1772562761575832800,4.226832763671875,-0.0037084517534822226,-0.005450425669550896,0.0035244273021817207
1772562761585899800,4.236899658203125,-0.0025100293569266796,-0.004924451000988483,0.0026551715563982725
1772562761595968000,4.246968017578125,-0.002609098795801401,-0.005792907904833555,0.0002335592289455235
1772562761606035000,4.257034912109375,-0.0027835359796881676,-0.004230431281030178,0.0013787185307592154
1772562761616102000,4.267101806640625,-0.002540922025218606,-0.0038250982761383057,0.0018839201657101512
1772562761626169000,4.277169189453125,-0.003291134489700198,-0.0065710837952792645,0.0023009711876511574
1772562761636236000,4.287236083984375,-0.00458729499951005,-0.003962517250329256,0.0015462313313037157
1772562761646303000,4.297302978515625,-0.004034955520182848,-0.004993693437427282,0.004707403481006622
1772562761656370000,4.307369873046875,-0.0009350358741357923,-0.006474144756793976,0.0054765245877206326
1772562761666436900,4.317436767578125,-0.003640807466581464,-0.004838431254029274,0.0018735338235273957
1772562761676503800,4.32750390625,-0.005078914575278759,-0.005399559158831835,0.002353968098759651
1772562761686571800,4.33757177734375,-0.0027419906109571457,-0.0038011297583580017,0.0025097629986703396
1772562761696638700,4.347638671875,-0.0015867113834246993,-0.00612340634688735,0.002898051869124174
1772562761706706000,4.357705810546875,-0.003772367723286152,-0.004025634378194809,0.00358754419721663
1772562761716773000,4.367773193359375,-0.003275688039138913,-0.007940215058624744,0.0015124091878533363
1772562761726840000,4.377840087890625,-0.005520466715097427,-0.005914614535868168,0.003894340479746461
1772562761736907000,4.387906982421875,-0.0026466494891792536,-0.007533550262451172,0.005475192796438932
1772562761746974000,4.397973876953125,-0.0032948628067970276,-0.005006209947168827,0.003747866488993168
1772562761757041000,4.408041015625,-0.004608600400388241,-0.004221376497298479,0.0028458540327847004
1772562761767107800,4.41810791015625,-0.0026549051981419325,-0.003989415243268013,0.0016993631143122911
1772562761777175000,4.428175048828125,-0.003924167715013027,-0.003343865042552352,0.00572979124262929
1772562761787243000,4.438242919921875,-0.004577707499265671,-0.005185973364859819,0.0019768644124269485
1772562761797310000,4.44831005859375,-0.0036605149507522583,-0.005810751114040613,0.005613677203655243
1772562761807377000,4.458376953125,-0.00330285239033401,-0.005447762086987495,-0.0016082830261439085
1772562761817443800,4.46844384765625,-0.0046362970024347305,-0.0035577169619500637,0.0028330706991255283
1772562761827510800,4.4785107421875,-0.0016266588354483247,-0.006454703398048878,0.005673598498106003
1772562761837577700,4.48857763671875,-0.002046106616035104,-0.0036693033762276173,0.0049795787781476974
1772562761847645000,4.49864501953125,-0.002939330879598856,-0.0060182115994393826,0.00503870053216815
1772562761857712000,4.508712158203125,-0.0037827540654689074,-0.005853627808392048,0.0018200043123215437
1772562761867779800,4.51877978515625,-0.0022213426418602467,-0.0063124909065663815,0.002694586291909218
1772562761877847600,4.52884765625,-0.0027545075863599777,-0.004264253657311201,-0.0004511394945438951
1772562761887914800,4.538914794921875,-0.000651675509288907,-0.005920739844441414,0.0022719427943229675
1772562761897981700,4.548981689453125,-0.005903429351747036,-0.005155880004167557,0.0018865832826122642
1772562761908048600,4.559048583984375,-0.0016943031223490834,-0.00532525684684515,0.004235491156578064
1772562761918115600,4.569115478515625,-0.0016439693281427026,-0.006713029928505421,0.0006317017832770944
1772562761928182500,4.5791826171875,-0.0018916432745754719,-0.00643659383058548,0.003950799349695444
1772562761938249500,4.58924951171875,-0.0017363809747621417,-0.0062645538710057735,0.0011406318517401814
1772562761948316700,4.599316650390625,-0.0025305356830358505,-0.005852030124515295,0.002549177734181285
1772562761958383600,4.609383544921875,-0.0037382792215794325,-0.006007292307913303,0.003257844829931855
1772562761968451800,4.619451904296875,-0.0021435783710330725,-0.005102616734802723,0.002493517706170678
1772562761978518800,4.629518798828125,-0.00512871565297246,-0.005591040477156639,0.003154514357447624
1772562761988585700,4.639585693359375,-0.00501047121360898,-0.006573480553925037,0.006024869158864021
1772562761998652700,4.649652587890625,-0.002520682057365775,-0.005723399575799704,0.002633600030094385
1772562762008719600,4.6597197265625,-0.005574262235313654,-0.005882656667381525,0.00501047121360898
1772562762018786600,4.66978662109375,-0.0019417107105255127,-0.0011065434664487839,0.0028929917607456446
1772562762028853800,4.679853759765625,-0.0030445256270468235,-0.005769738461822271,0.004187021870166063
1772562762038920700,4.689920654296875,-0.006738063879311085,-0.0049460227601230145,0.0029084382113069296
1772562762048987600,4.699987548828125,-0.0043532028794288635,-0.005302087403833866,0.002627474721521139
1772562762059055600,4.7100556640625,-0.002746518002822995,-0.0039047268219292164,0.0038392129354178905
1772562762069122600,4.72012255859375,-0.0046813045628368855,-0.0046426886692643166,0.0025561018846929073
1772562762079189800,4.730189697265625,-0.0028724854346364737,-0.006786000914871693,0.005489307455718517
1772562762089256700,4.740256591796875,-0.0028756812680512667,-0.003037867834791541,0.003224821761250496
1772562762099323600,4.75032373046875,-0.0015686018159613013,-0.004218447022140026,0.004768656101077795
1772562762109390800,4.760390869140625,-0.0021283982787281275,-0.003939880523830652,-0.00010253170330543071
1772562762119457800,4.770457763671875,-0.004601409658789635,-0.0038895467296242714,-0.0003813646617345512
1772562762129524700,4.780524658203125,-0.003448260948061943,-0.004822984803467989,0.0046418895944952965
1772562762139591700,4.790591796875,-0.0036615801509469748,-0.0067881313152611256,0.003228283952921629
1772562762149659600,4.80065966796875,-0.002409628126770258,-0.007312774192541838,0.00378967821598053
1772562762159726600,4.8107265625,-0.004285292699933052,-0.005011270288378,0.0009363674325868487
1772562762169793500,4.82079345703125,-0.005161472596228123,-0.005310076754540205,0.004412325099110603
1772562762179860500,4.830860595703125,-0.005714877508580685,-0.005058408249169588,-0.0009345032158307731
1772562762189927700,4.840927734375,-0.0029883331153541803,-0.004593153949826956,0.002898584585636854
1772562762199994600,4.85099462890625,-0.00133877107873559,-0.004387557972222567,0.0020724718924611807
1772562762210061800,4.861061767578125,-0.0011592740193009377,-0.002980876248329878,0.0012783173006027937
1772562762220128800,4.871128662109375,-0.0020668793004006147,-0.004641357343643904,0.0036373452749103308
1772562762230195700,4.88119580078125,-0.003762513864785433,-0.0054999603889882565,0.0028668928425759077
1772562762240263700,4.891263671875,-0.001785116852261126,-0.004059989005327225,0.0032431974541395903
1772562762250330600,4.90133056640625,-0.003897003596648574,-0.004604072775691748,0.0035358788445591927
1772562762260397600,4.9113974609375,-0.0017291904659941792,-0.005294098053127527,-0.00010093380114994943
1772562762270464800,4.92146484375,-0.0054368432611227036,-0.0046544065698981285,0.0017899106023833156
1772562762280531700,4.93153173828125,-0.0041582598350942135,-0.005367334932088852,0.003200586885213852
1772562762290598700,4.9415986328125,-0.0034229608718305826,-0.00567093538120389,0.0018745990237221122
1772562762300665600,4.95166552734375,-0.0046637277118861675,-0.0023997745011001825,0.0028969866689294577
1772562762310732500,4.961732666015625,-0.0024405207950621843,-0.004293015692383051,0.00019734023953787982
1772562762320799500,4.971799560546875,-0.003263970138505101,-0.00586774293333292,0.004793423693627119
1772562762330867700,4.98186767578125,-0.003412308171391487,-0.006737264804542065,0.0020234698895365
1772562762340934700,4.9919345703125,-0.00515907583758235,-0.0018900453578680754,0.004232561681419611
1772562762351001900,5.002001953125,-0.0006378270918503404,-0.00526799913495779,0.005846703890711069
1772562762361068800,5.01206884765625,-0.001930525409989059,-0.0027174896094948053,-0.00019520970818120986
1772562762371135700,5.0221357421875,-0.002284992253407836,-0.004735366906970739,0.0009369000908918679
1772562762381202700,5.03220263671875,-0.002400839701294899,-0.0049377670511603355,0.004237622022628784
1772562762391269600,5.04226953125,-0.0028072381392121315,-0.0054546864703297615,0.0028269453905522823
1772562762401336600,5.052336669921875,-0.003454652614891529,-0.005851763766258955,0.0012948289513587952
1772562762411403800,5.06240380859375,-0.003448260948061943,-0.0028639633674174547,0.0046719834208488464
1772562762421471500,5.072471435546875,-0.00307595101185143,-0.003994208760559559,0.004459196701645851
1772562762431538700,5.08253857421875,-0.0026325348298996687,-0.0030450583435595036,0.0026999127585440874
1772562762441605600,5.092605712890625,-0.0006583334179595113,-0.004561994690448046,0.003826696192845702
1772562762451672600,5.102672607421875,-0.002365419641137123,-0.00577905960381031,0.0012916331179440022
1772562762461739800,5.11273974609375,-0.0008751147543080151,-0.004017644561827183,0.0028543761000037193
1772562762471806700,5.122806640625,-0.0034908715169876814,-0.0030988543294370174,0.004730040207505226
1772562762481873700,5.132873779296875,-0.004284759983420372,-0.004317516926676035,0.0035001926589757204
1772562762491940900,5.14294091796875,-0.0033784860279411077,-0.007424360606819391,0.0016943031223490834
1772562762502007800,5.1530078125,-0.0021076255943626165,-0.0043769050389528275,0.00643765926361084
1772562762512075800,5.16307568359375,-0.00007696535612922162,-0.0026644926983863115,0.0024495755787938833
1772562762522142700,5.173142822265625,-0.0027867318131029606,-0.003925765864551067,0.0008138620178215206
1772562762532209700,5.183209716796875,-0.006371080409735441,-0.005369465332478285,0.00589650496840477
1772562762542276600,5.193276611328125,-0.003998470026999712,-0.0043444144539535046,0.0016980315558612347
1772562762552343600,5.203343505859375,-0.0022687469609081745,-0.0059748017229139805,0.005663211923092604
1772562762562410500,5.213410400390625,-0.001859152689576149,-0.006992129608988762,0.0024082965683192015
1772562762572477700,5.223477783203125,-0.0016098808264359832,-0.005419266410171986,0.0032746228389441967
1772562762582544600,5.233544677734375,-0.004246144089847803,-0.004208593629300594,0.0006492786924354732
1772562762592612900,5.24361279296875,-0.0017092167399823666,-0.005218730308115482,0.002660498023033142
1772562762602679800,5.2536796875,0.0012535499408841133,-0.0031366711482405663,0.003242132253944874
1772562762612746800,5.263746826171875,-0.0011406318517401814,-0.0028213527984917164,0.006347644608467817
1772562762622813700,5.273813720703125,-0.002898318227380514,-0.0036879454273730516,0.003897269954904914
1772562762632880600,5.283880615234375,-0.002529470482841134,-0.005328452680259943,0.005074120592325926
1772562762642947600,5.293947509765625,-0.004021373111754656,-0.005006476305425167,0.00242081331089139
1772562762653014800,5.304014892578125,-0.0009526127250865102,-0.00293373828753829,0.0014096111990511417
1772562762663081700,5.314081787109375,-0.00472577940672636,-0.004496481269598007,0.004463990684598684
1772562762673148700,5.324148681640625,-0.0006303702248260379,-0.006472546607255936,0.001344630029052496
1772562762683216600,5.334216552734375,-0.003079679561778903,-0.0019478360190987587,-0.00004820321555598639
1772562762693283600,5.34428369140625,-0.0034011229872703552,-0.0041156490333378315,0.004804076161235571
1772562762703350800,5.354350830078125,-0.00023382554354611784,-0.0054549528285861015,0.0031886028591543436
1772562762713417700,5.364417724609375,-0.00469435378909111,-0.006016613449901342,0.0019046928500756621
1772562762723484700,5.374484619140625,-0.002169144805520773,-0.005200088489800692,0.003525758860632777
1772562762733551600,5.384551513671875,-0.003231213428080082,-0.0032735576387494802,0.0038389465771615505
1772562762743618800,5.394618896484375,-0.003978230059146881,-0.0028370653744786978,0.0020839234348386526
1772562762753685800,5.404685791015625,-0.0027499801944941282,-0.00293267285451293,0.006762032397091389
1772562762763752700,5.414752685546875,-0.002575809368863702,-0.004877313040196896,0.002645317930728197
1772562762773820700,5.424820556640625,-0.0009464874165132642,-0.005602758377790451,0.002773149637505412
1772562762783887600,5.4348876953125,-0.005364139098674059,-0.0031414648983627558,0.0016173376934602857
1772562762793954600,5.44495458984375,-0.00424214918166399,-0.004531102254986763,0.0030304109677672386
1772562762804021500,5.455021484375,-0.004591023549437523,-0.006952181924134493,0.004992628004401922
1772562762814088700,5.465088623046875,-0.0031617048662155867,-0.006135656964033842,0.0018924422329291701
1772562762824155600,5.47515576171875,-0.0037643781397491693,-0.004204865079373121,0.002019474981352687
1772562762834222600,5.48522265625,-0.0041547976434230804,-0.006341252941638231,0.0032261533197015524
1772562762844289800,5.495289794921875,-0.003322825999930501,-0.0070826769806444645,0.003768905531615019
1772562762854356700,5.505356689453125,-0.0036250948905944824,-0.006054696626961231,0.006482134107500315
1772562762864423700,5.515423583984375,-0.002388589084148407,-0.0027513117529451847,0.0026501116808503866
1772562762874490600,5.52549072265625,-0.004491420928388834,-0.0049404301680624485,0.0013723268639296293
1772562762884557800,5.535557861328125,-0.0016567525453865528,-0.004625644534826279,0.0033545177429914474
1772562762894624800,5.545624755859375,-0.0035776905715465546,-0.006411826703697443,0.005597165785729885
1772562762904691700,5.555691650390625,-0.004032026045024395,-0.003961984533816576,0.0022447784431278706
1772562762914758700,5.565758544921875,-0.002130528911948204,-0.005494633689522743,0.00003435477628954686
1772562762924825600,5.57582568359375,-0.003232811111956835,-0.0046514770947396755,0.002222407842054963
1772562762934892500,5.585892578125,-0.002999251941218972,-0.004554005339741707,0.0033159018494188786
1772562762944959700,5.595959716796875,-0.0005259743193164468,-0.005269330460578203,0.0026098978705704212
1772562762955027500,5.60602734375,-0.0018391790799796581,-0.0029843382071703672,0.00017124126316048205
1772562762965094700,5.6160947265625,-0.004540956113487482,-0.005085572600364685,0.0021760689560323954
1772562762975161600,5.62616162109375,-0.0037926076911389828,-0.004803543444722891,0.0015425028977915645
1772562762985228800,5.636228759765625,-0.0031065773218870163,-0.002852778183296323,0.0026146916206926107
1772562762995295700,5.646295654296875,-0.0026770094409585,-0.005251220893114805,0.0008996158139780164
1772562763005362700,5.65636279296875,-0.0016202671686187387,-0.006304767448455095,0.00230816169641912
1772562763015429600,5.6664296875,-0.004825914278626442,-0.006213421002030373,0.0034991272259503603
1772562763025496800,5.676496826171875,-0.0005291700945235789,-0.003573695896193385,0.0019571571610867977
1772562763035563800,5.686563720703125,-0.0028522454667836428,-0.004655205644667149,0.0009139968897216022
1772562763045631700,5.6966318359375,-0.0018381137633696198,-0.003313771216198802,0.0037209687288850546
1772562763055698700,5.70669873046875,-0.002010420197620988,-0.002938798163086176,2.6631610694494157e-7
1772562763065765600,5.716765625,-0.0033156354911625385,-0.004063983913511038,0.002623746171593666
1772562763075832600,5.72683251953125,-0.004846953321248293,-0.0031292142812162638,0.0031899344176054
1772562763085899500,5.7368994140625,-0.0026322684716433287,-0.003899933071807027,0.0017443705582991242
1772562763095966500,5.746966552734375,-0.0030858046375215054,-0.005201153457164764,0.002372077666223049
1772562763106033700,5.75703369140625,-0.00006338323146337643,-0.00398781755939126,0.0054357778280973434
1772562763116100900,5.767100830078125,-0.001097755040973425,-0.00475320965051651,0.0006881608278490603
1772562763126167800,5.777167724609375,-0.004759867675602436,-0.005018460564315319,0.0021792647894471884
1772562763136235800,5.78723583984375,-0.004107393324375153,-0.0034943337086588144,0.0010157296201214194
1772562763146302700,5.797302734375,-0.0011590076610445976,-0.0036301547661423683,0.001838646363466978
1772562763156369700,5.80736962890625,-0.004277569241821766,-0.005131645128130913,0.003305515507236123
1772562763166436600,5.8174365234375,-0.0026668894570320845,-0.004572381265461445,0.0030208237003535032
1772562763176503600,5.827503662109375,-0.003230947069823742,-0.005245361942797899,0.0037768951151520014
1772562763186570800,5.83757080078125,-0.003635214874520898,-0.004811266902834177,0.003952397499233484
1772562763196637700,5.8476376953125,-0.001871136948466301,-0.004495682194828987,0.004530036821961403
1772562763206704600,5.85770458984375,-0.003531085327267647,-0.00737402681261301,0.0027779433876276016
1772562763216771600,5.867771484375,-0.004565190523862839,-0.007864048704504967,0.005083708092570305
1772562763226839800,5.87783984375,-0.004415254574269056,-0.004393683280795813,0.0047835698351264
1772562763236906800,5.88790673828125,-0.0031214910559356213,-0.0019683423452079296,-0.0010029464028775692
1772562763246973700,5.8979736328125,-0.0021587584633380175,-0.00509942090138793,0.0026101642288267612
1772562763257040600,5.90804052734375,-0.0041244374588131905,-0.00589730404317379,0.00233266269788146
1772562763267107800,5.91810791015625,-0.00287408335134387,-0.004186755511909723,0.00509995361790061
1772562763277174800,5.9281748046875,-0.00270710326731205,-0.004948685877025127,0.000031425301131093875
1772562763287241700,5.93824169921875,-0.002822684356942773,-0.003988349810242653,0.004727377090603113
1772562763297308700,5.94830859375,-0.005815544631332159,-0.003937483765184879,0.002356897573918104
1772562763307376600,5.958376708984375,-0.00415453128516674,-0.004777178168296814,0.004465588368475437
1772562763317443600,5.968443603515625,-0.004728975240141153,-0.004589425399899483,0.005115133244544268
1772562763327510500,5.978510498046875,-0.0038242992013692856,-0.005275189410895109,0.0027449200861155987
1772562763337577500,5.988577392578125,-0.0010631339391693473,-0.0033907366450875998,0.0013646037550643086
1772562763347644700,5.998644775390625,-0.002549177734181285,-0.004258394706994295,0.0007206514128483832
1772562763357711600,6.008711669921875,-0.0023877902422100306,-0.00361790438182652,0.004688494838774204
1772562763367778800,6.01877880859375,-0.0032506543211638927,-0.005843774415552616,0.004229632206261158
1772562763377845800,6.028845703125,-0.003739877138286829,-0.004841094370931387,0.006445115897804499
1772562763387912700,6.03891259765625,-0.002656236756592989,-0.0036187032237648964,0.0020330571569502354
1772562763397980700,6.048980712890625,-0.002555835759267211,-0.003157443832606077,0.002240251051262021
1772562763408047600,6.059047607421875,0.0004090615548193455,-0.0027861990965902805,0.0028330706991255283
1772562763418114600,6.069114501953125,-0.003841609926894307,-0.004962534178048372,0.0032501218374818563
1772562763428181800,6.079181640625,-0.003067961661145091,-0.004661863669753075,0.002885801251977682
1772562763438248700,6.089248779296875,-0.003070891136303544,-0.004647482186555862,0.0032357405871152878
1772562763448315600,6.099315673828125,-0.0057284594513475895,-0.005576659459620714,0.001853826455771923
1772562763458382600,6.109382568359375,-0.0017933726776391268,-0.005501558072865009,0.00455746753141284
1772562763468449500,6.119449462890625,-0.005298092495650053,-0.004166249185800552,0.003447994589805603
1772562763478516500,6.1295166015625,-0.0026844663079828024,-0.0036962011363357306,0.0034735610242933035
1772562763488584700,6.139584716796875,-0.003656520042568445,-0.003072488820180297,0.0011086739832535386
1772562763498651600,6.149651611328125,-0.0035771578550338745,-0.0028490496333688498,0.004251736681908369
1772562763508718800,6.15971875,-0.00307568465359509,-0.004339620936661959,0.0021763353142887354
1772562763518785800,6.169785888671875,-0.005788114387542009,-0.005566805601119995,0.007846471853554249
1772562763528852700,6.179852783203125,-0.002516420790925622,-0.006250705569982529,0.0016487629618495703
1772562763538919700,6.189919677734375,-0.0023760723415762186,-0.0046762446872889996,0.0011688614031299949
1772562763548986600,6.199986572265625,-0.002049036091193557,-0.004042678512632847,0.0032477248460054398
1772562763559053600,6.210053466796875,-0.003427754621952772,-0.004709267523139715,0.003049852093681693
1772562763569120800,6.220120849609375,-0.0027052389923483133,-0.003629622282460332,0.0033931334037333727
1772562763579188500,6.2301884765625,-0.0026517093647271395,-0.004299141000956297,0.0034466630313545465
1772562763589255700,6.240255615234375,-0.0016112125013023615,-0.002885801251977682,0.006703709252178669
1772562763599322600,6.250322509765625,-0.004193413536995649,-0.0057377805933356285,0.002368881832808256
1772562763609389800,6.260389892578125,-0.002383795566856861,-0.003913781605660915,0.0025039040483534336
1772562763619456800,6.270456787109375,-0.003385144053027034,-0.0041132522746920586,0.005696235224604607
1772562763629523700,6.280523681640625,-0.003459446132183075,-0.004593153949826956,0.0036461339332163334
1772562763639590700,6.290590576171875,-0.003023486817255616,-0.004860268905758858,0.0009656621841713786
1772562763649657600,6.30065771484375,-0.004673847462981939,-0.005566272884607315,0.003938548732548952
1772562763659725600,6.3107255859375,-0.0034077810123562813,-0.0046783750876784325,0.0017725999932736158
1772562763669792800,6.320792724609375,-0.0031348068732768297,-0.0030072415247559547,0.0019094864837825298
1772562763679859700,6.330859619140625,-0.0022069616243243217,-0.003154247999191284,0.0033510555513203144
1772562763689926700,6.3409267578125,-0.002487126039341092,-0.002974750939756632,0.0011877698125317693
1772562763699993600,6.35099365234375,-0.002776345470920205,-0.006743123754858971,0.0034700988326221704
1772562763710060500,6.361060546875,-0.00281948852352798,-0.006322877015918493,0.0020154803059995174
1772562763720127500,6.37112744140625,-0.0028519791085273027,-0.005856557283550501,0.0022189458832144737
1772562763730194700,6.381194580078125,-0.002841326640918851,-0.005110339727252722,0.004086087923496962
1772562763740261600,6.39126171875,-0.0023129554465413094,-0.00273133791051805,0.000016777914424892515
1772562763750329900,6.401329833984375,-0.003965713083744049,-0.0023118900135159492,0.0027209515683352947
1772562763760396800,6.411396728515625,-0.002403769176453352,-0.00782649777829647,0.005980127956718206
1772562763770463700,6.421463623046875,-0.0020599551498889923,-0.00455693481490016,0.004769455175846815
1772562763780530700,6.43153076171875,-0.0034139060880988836,-0.0058669438585639,0.0024375913199037313
1772562763790597600,6.44159765625,-0.0019592875614762306,-0.005797169171273708,0.005432316102087498
1772562763800664600,6.45166455078125,-0.0031641016248613596,-0.0041406829841434956,0.0019835224375128746
1772562763810731800,6.461731689453125,-0.0020754013676196337,-0.005340436939150095,0.0028389296494424343
1772562763820798700,6.471798828125,-0.002529470482841134,-0.0031582426745444536,0.0009089368977583945
1772562763830865700,6.48186572265625,-0.004775580484420061,-0.005645102355629206,0.0019355855183675885
1772562763840933600,6.49193359375,-0.0037739656399935484,-0.004412325099110603,0.004447212442755699
1772562763851000800,6.502000732421875,-0.0037984666414558887,-0.005572398193180561,0.003793140407651663
1772562763861067800,6.51206787109375,-0.0025217472575604916,-0.004837632179260254,0.0016231966437771916
1772562763871135700,6.5221357421875,-0.002326271263882518,-0.002871420234441757,0.004345479886978865
1772562763881202700,6.53220263671875,-0.0012221246724948287,-0.005855492316186428,0.0029177593532949686
1772562763891269600,6.54226953125,-0.0020359866321086884,-0.004640558268874884,0.005855758674442768
1772562763901336800,6.5523369140625,-0.003549993736669421,-0.003920173272490501,0.00035446672700345516
1772562763911403800,6.56240380859375,-0.0023430490400642157,-0.004266650415956974,0.003719104453921318
1772562763921471000,6.572470947265625,-0.0026879284996539354,-0.005116997752338648,0.003439206164330244
1772562763931539000,6.5825390625,-0.00475560687482357,-0.003858654061332345,0.004729241598397493
1772562763941606000,6.59260595703125,-0.0024045680183917284,-0.004533765371888876,0.0027292075101286173
1772562763951672800,6.6026728515625,-0.0018588864477351308,-0.005993976723402739,0.0026200178544968367
1772562763961739800,6.61273974609375,-0.0011696603614836931,-0.005053614266216755,0.005739378277212381
1772562763971806700,6.622806640625,-0.0018666095566004515,-0.0031140341889113188,0.002097771968692541
1772562763981873700,6.632873779296875,-0.0031736891251057386,-0.005367068573832512,0.0013462279457598925
1772562763991940900,6.64294091796875,-0.0038037928752601147,-0.0049247173592448235,0.0020149475894868374
1772562764002007800,6.6530078125,-0.003059173235669732,-0.005604089703410864,-0.0006183860241435468
1772562764012075800,6.66307568359375,-0.0033097765408456326,-0.005269596818834543,0.0016948357224464417
1772562764022143000,6.67314306640625,-0.003276220755651593,-0.00566880451515317,0.0016261261189356446
1772562764032210000,6.6832099609375,-0.00392816262319684,-0.004150270018726587,0.0011720572365447879
1772562764042276900,6.69327685546875,-0.0017070862231776118,-0.004116448108106852,0.0022082931827753782
1772562764052343800,6.70334375,-0.0016053534345701337,-0.007669104728847742,0.005520466715097427
1772562764062410800,6.71341064453125,-0.0032740901224315166,-0.00367170013487339,0.0007502124644815922
1772562764072477700,6.723477783203125,-0.0033688987605273724,-0.004926049150526524,0.004704474005848169
1772562764082545000,6.733544921875,-0.0021499700378626585,-0.005928462836891413,0.005603291094303131
1772562764092611800,6.74361181640625,-0.003640807466581464,-0.0034519892651587725,0.0023486416321247816
1772562764102679800,6.7536796875,-0.004325506277382374,-0.002728142309933901,0.0009840379934757948
1772562764112746800,6.763746826171875,-0.0026021746452897787,-0.005788912996649742,0.0009416937828063965
1772562764122813700,6.773813720703125,-0.0032738239970058203,-0.0038922098465263844,0.0020783308427780867
1772562764132880600,6.783880615234375,-0.00239231763407588,-0.00481233187019825,0.0013616742799058557
1772562764142946800,6.79394677734375,-0.0008679241873323917,-0.004286357667297125,0.0037681066896766424
1772562764153013800,6.804013671875,-0.0016937704058364034,-0.004627508576959372,-0.0003880225704051554
1772562764163080700,6.814080810546875,-0.0031579763162881136,-0.003995806910097599,0.0035984632559120655
1772562764173147600,6.824147705078125,-0.002198705682530999,-0.002237321576103568,0.0006684534018859267
1772562764183214800,6.83421484375,-0.001639441936276853,-0.0044075315818190575,0.0020666129421442747
1772562764193281800,6.84428173828125,-0.003780889790505171,-0.0030360035598278046,0.0054672034457325935
1772562764203349800,6.854349853515625,-0.003565173828974366,-0.005584116093814373,-0.0013081447687000036
1772562764213416700,6.864416748046875,-0.0037297571543604136,-0.003320429241284728,0.002626942005008459
1772562764223484000,6.87448388671875,-0.00501180300489068,-0.005534048657864332,0.001166198286227882
1772562764233550800,6.88455078125,-0.004339354578405619,-0.005154281854629517,0.0015488944482058287
1772562764243617800,6.89461767578125,-0.003153715282678604,-0.005251487251371145,0.0024711471050977707
1772562764253684700,6.904684814453125,-0.0022421153262257576,-0.005970540922135115,0.002965962514281273
1772562764263751700,6.914751708984375,-0.005234176758676767,-0.004930576309561729,0.00242081331089139
1772562764273818600,6.924818603515625,-0.004023769870400429,-0.0068147629499435425,0.003995007835328579
1772562764283885800,6.9348857421875,-0.00222027744166553,-0.0067633637227118015,-0.00022849922243040055
1772562764293953800,6.944953857421875,-0.0033896714448928833,-0.004563326481729746,0.0011821772204712033
1772562764304021000,6.95502099609375,-0.004185423720628023,-0.006073605269193649,0.00016058860637713224
1772562764314088000,6.965087890625,-0.0054730623960494995,-0.0043625240214169025,0.0032402679789811373
1772562764324155000,6.97515478515625,-0.0019118833588436246,-0.006833671126514673,0.0029206888284534216
1772562764334221800,6.985221923828125,-0.003888481529429555,-0.005406217183917761,0.0067694890312850475
1772562764344288800,6.995288818359375,-0.0038128476589918137,-0.005376921966671944,0.0030658310279250145
1772562764354355700,7.005355712890625,-0.002272741636261344,-0.00572979124262929,0.0022631543688476086
1772562764364423000,7.0154228515625,-0.0018615495646372437,-0.0054853130131959915,0.0031704932916909456
1772562764374489900,7.02548974609375,-0.0022066952660679817,-0.0056831855326890945,0.0007227819296531379
1772562764384557800,7.035557861328125,-0.00108257494866848,-0.006993727292865515,0.004297010600566864
1772562764394624800,7.045624755859375,-0.006144445389509201,-0.004086087923496962,0.005411277059465647
1772562764404691700,7.055691650390625,-0.002201369032263756,-0.004181695636361837,0.001671666163019836
1772562764414758700,7.065758544921875,-0.002344913315027952,-0.005515939090400934,0.0011004181578755379
1772562764424825900,7.075825927734375,-0.001981125446036458,-0.0037614486645907164,0.0024796691723167896
1772562764434892800,7.085892822265625,-0.0028309402987360954,-0.004354268312454224,0.0014436995843425393
1772562764444960000,7.0959599609375,-0.004458131734281778,-0.006682670209556818,0.0024019049014896154
1772562764455027000,7.10602685546875,-0.004452272783964872,-0.003379817819222808,0.0025896579027175903
1772562764465094000,7.116093994140625,-0.0020780644845217466,-0.006174538750201464,0.0030887341126799583
1772562764475161900,7.126161865234375,-0.0019233349012210965,-0.004098338540643454,0.001990180229768157
1772562764485228800,7.136228759765625,-0.0029025792609900236,-0.004037085920572281,0.0017813884187489748
1772562764495295700,7.146295654296875,-0.00199337606318295,-0.003996073268353939,0.002499643014743924
1772562764505362700,7.15636279296875,-0.002080195117741823,-0.003294330323114991,0.0009749832679517567
1772562764515429600,7.1664296875,-0.0010210559703409672,-0.007957525551319122,0.0019153454340994358
1772562764525496800,7.176496826171875,-0.0047090016305446625,-0.004804342519491911,0.0031763522420078516
1772562764535564800,7.186564697265625,-0.0034463966730982065,-0.005061071366071701,0.002216815249994397
1772562764545632000,7.196632080078125,-0.002409095410257578,-0.004988899454474449,0.005191565956920385
1772562764555699000,7.206698974609375,-0.0028751487843692303,-0.005649097263813019,0.0029140308033674955
1772562764565766000,7.216765869140625,-0.0032647692132741213,-0.00515880947932601,0.003930559381842613
1772562764575832800,7.226832763671875,-0.002514024032279849,-0.00410499656572938,0.004545749630779028
1772562764585899800,7.236899658203125,-0.002237854292616248,-0.004877313040196896,0.002284992253407836
1772562764595966700,7.246966796875,-0.00424241553992033,-0.00567066902294755,0.002927346620708704
1772562764606034700,7.25703466796875,-0.002139317337423563,-0.006946056615561247,0.0036213663406670094
1772562764616101600,7.2671015625,-0.0032924660481512547,-0.005794506054371595,0.0009920274605974555
1772562764626168800,7.2771689453125,-0.004262389149516821,-0.0046392264775931835,0.005371063016355038
1772562764636235800,7.28723583984375,-0.001204547705128789,-0.002813629573211074,0.004573446698486805
1772562764646302700,7.297302734375,-0.0027145601343363523,-0.006715160794556141,0.0026461167726665735
1772562764656369700,7.30736962890625,-0.0017124125733971596,-0.005409945268183947,0.0027321369852870703
1772562764666436900,7.317436767578125,-0.0019225359428673983,-0.0051593417301774025,0.0016226640436798334
1772562764676503800,7.32750390625,-0.0031878037843853235,-0.0027089675422757864,0.0012663330417126417
1772562764686571000,7.337571044921875,-0.0024383901618421078,-0.003829359309747815,0.0020812603179365396
1772562764696638700,7.347638671875,-0.005222192499786615,-0.0041033984161913395,0.00415453128516674
1772562764706706000,7.357705810546875,-0.0006668555433861911,-0.0030890004709362984,0.0018588864477351308
1772562764716772900,7.36777294921875,-0.002633866388350725,-0.004236023873090744,0.003947603516280651
1772562764726839800,7.37783984375,-0.0037974014412611723,-0.0043654534965753555,0.0034200313966721296
1772562764736906800,7.38790673828125,-0.0035566515289247036,-0.005890646018087864,0.0035356127191334963
1772562764746973700,7.3979736328125,-0.001781921018846333,-0.0031055121216923,0.003334543900564313
1772562764757040600,7.40804052734375,0.00039787625428289175,-0.005645635072141886,0.002793655963614583
1772562764767107800,7.41810791015625,-0.003695668652653694,-0.005083441734313965,0.0027121631428599358
1772562764777175800,7.42817578125,-0.004714594222605228,-0.005000350996851921,0.005827262531965971
1772562764787243000,7.438242919921875,-0.003683684393763542,-0.0038605183362960815,0.005077316425740719
1772562764797310000,7.44831005859375,-0.0019566244445741177,-0.0032293491531163454,0.0037321539130061865
1772562764807377000,7.458376953125,-0.0023582291323691607,-0.0038136467337608337,0.0032985913567245007
1772562764817443800,7.46844384765625,-0.003565173828974366,-0.006665625609457493,0.004326837603002787
1772562764827510800,7.4785107421875,-0.0016588830621913075,-0.006427006796002388,0.001981125446036458
1772562764837577700,7.48857763671875,-0.0018967032665386796,-0.005505819339305162,0.00443895673379302
1772562764847645000,7.49864501953125,-0.003932157531380653,-0.005642172880470753,0.000669518718495965
1772562764857711900,7.5087119140625,-0.004165982827544212,-0.004444815684109926,0.0012024171883240342
1772562764867779000,7.518779052734375,-0.005110339727252722,-0.006039782892912626,0.005386775825172663
1772562764877846000,7.528845947265625,-0.0024197481106966734,-0.004565989598631859,0.0024085629265755415
1772562764887913000,7.538912841796875,-0.0018338527297601104,-0.005736182443797588,0.006143912672996521
1772562764897980000,7.54897998046875,-0.0010269149206578732,-0.004267981741577387,0.0024799355305731297
1772562764908046800,7.559046875,-0.0019832560792565346,-0.0036602485924959183,0.000913197931367904
1772562764918114000,7.569114013671875,-0.0016056197928264737,-0.004538558889180422,0.002373675350099802
1772562764928181000,7.579180908203125,-0.00253479671664536,-0.004523112904280424,0.0022269352339208126
1772562764938248200,7.589248291015625,-0.0018698053900152445,-0.004691690672188997,0.0031494542490690947
1772562764948315100,7.599315185546875,-0.003778493031859398,-0.0032402679789811373,0.0008135957177728415
1772562764958383000,7.609383056640625,-0.004166515544056892,-0.004966795444488525,0.004688761197030544
1772562764968450000,7.619449951171875,-0.0036077843979001045,-0.004196875728666782,0.001999767730012536
1772562764978517000,7.62951708984375,-0.0044197821989655495,-0.003950532991439104,0.005238703917711973
1772562764988584000,7.639583984375,-0.00276196445338428,-0.005280249286442995,0.00044847631943412125
1772562764998651100,7.649651123046875,-0.0035228293854743242,-0.0036767602432519197,0.002858903491869569
1772562765008718000,7.659718017578125,-0.0032288164366036654,-0.005872536450624466,0.004799549002200365
1772562765018785000,7.669784912109375,-0.0023917849175632,-0.00669278996065259,0.0011507519520819187
1772562765028852000,7.67985205078125,-0.003108441596850753,-0.004703941289335489,0.001740109408274293
1772562765038920200,7.689920166015625,-0.0017670074012130499,-0.003072488820180297,0.00039015308720991015
1772562765048987100,7.699987060546875,-0.0018104169284924865,-0.0032498554792255163,0.0015720640076324344
1772562765059054000,7.71005419921875,-0.000657534459605813,-0.00541473925113678,0.0018375811632722616
1772562765069121000,7.72012109375,-0.0021856562234461308,-0.005496231839060783,0.0065284729935228825
1772562765079188200,7.730188232421875,-0.001156877144239843,-0.005231513641774654,0.0037649108562618494
1772562765089255200,7.740255126953125,-0.001862348522990942,-0.00500940578058362,0.002198972040787339
1772562765099322000,7.750322021484375,-0.002730805426836014,-0.004896221682429314,0.002267681760713458
1772562765109389000,7.76038916015625,-0.001207743538543582,-0.0038986015133559704,0.004561994690448046
1772562765119456000,7.7704560546875,-0.004405933897942305,-0.0036064526066184044,0.0009390306076966226
1772562765129524000,7.78052392578125,-0.0021406488958746195,-0.004021639470010996,0.0038485340774059296
1772562765139591000,7.7905908203125,-0.002576342085376382,-0.0035172367934137583,0.0027917916886508465
1772562765149657900,7.800657958984375,-0.0033627734519541264,-0.004197407979518175,0.0026085663121193647
1772562765159725000,7.81072509765625,-0.002326537622138858,-0.0046661244705319405,0.0020599551498889923
1772562765169792000,7.8207919921875,-0.003634682158008218,-0.003686347510665655,0.0006815029191784561
1772562765179859200,7.830859130859375,-0.001814411603845656,-0.004914863966405392,0.002977147698402405
1772562765189926100,7.840926025390625,-0.004584631882607937,-0.005915413144975901,0.00708667142316699
1772562765199993000,7.8509931640625,-0.004710865672677755,-0.004054662771522999,0.00481472909450531
1772562765210061000,7.86106103515625,-0.0041071269661188126,-0.004974518436938524,0.0015962987672537565
1772562765220128000,7.8711279296875,-0.0032863407395780087,-0.004220045171678066,0.0006242449744604528
1772562765230195000,7.88119482421875,-0.003578489413484931,-0.005025118589401245,0.0023491743486374617
1772562765240262100,7.89126220703125,-0.003278617514297366,-0.003811249742284417,0.0013920343481004238
1772562765250329000,7.9013291015625,-0.004225904121994972,-0.005800365004688501,0.0018405106384307146
1772562765260396000,7.91139599609375,-0.0038661109283566475,-0.006806507240980864,0.00333241350017488
1772562765270463000,7.921462890625,-0.002752909669652581,-0.002841060282662511,0.0033723609521985054
1772562765280530000,7.931530029296875,-0.0027409254107624292,-0.005351888481527567,0.006440855097025633
1772562765290596900,7.941596923828125,-0.0005558017292059958,-0.003972637467086315,0.005601692944765091
1772562765300665000,7.9516650390625,-0.003026416292414069,-0.006463491823524237,0.00649678148329258
1772562765310732000,7.96173193359375,-0.000964064325671643,-0.0051984903402626514,0.00284984870813787
1772562765320799200,7.97179931640625,-0.004618453793227673,-0.004467452876269817,0.0046160570345819
1772562765330866200,7.9818662109375,-0.004868524614721537,-0.0032945964485406876,0.005115133244544268
1772562765340933000,7.99193310546875,-0.0038418760523200035,-0.005313272587954998,0.0030959248542785645
1772562765351000000,8.002,-0.0006452839006669819,-0.004310326185077429,0.001776594785042107
1772562765361067000,8.01206689453125,-0.005331914871931076,-0.004514058120548725,0.0037681066896766424
1772562765371134000,8.022134033203125,-0.002034655073657632,-0.0043742419220507145,0.0009195895399898291
1772562765381202000,8.032201904296874,-0.0005760417552664876,-0.0033601103350520134,0.003168096300214529
1772562765391268900,8.042268798828125,-0.0028674255590885878,-0.006596117280423641,0.0008689894457347691
1772562765401336000,8.052336181640625,-0.001657018787227571,-0.005803826730698347,0.005084773525595665
1772562765411403000,8.062403076171876,-0.004284227266907692,-0.00711862975731492,0.0015281217638403177
1772562765421470200,8.07247021484375,-0.0029585056472569704,-0.005249090492725372,0.00361763802357018
1772562765431537200,8.082537109375,-0.0034852789249271154,-0.004437359049916267,0.004618453793227673
1772562765441604000,8.09260400390625,-0.003573163179680705,-0.004750812891870737,0.0018093516118824482
1772562765451671000,8.102671142578124,-0.0022889869287610054,-0.004619519226253033,0.003456783015280962
1772562765461738000,8.112738037109375,-0.0038272286765277386,-0.002299106912687421,0.004378503188490868
1772562765471806000,8.122805908203125,-0.0015241270884871483,-0.00407463638111949,0.0032477248460054398
1772562765481873200,8.132873046875,-0.003849332919344306,-0.0046762446872889996,0.0030959248542785645
1772562765491940000,8.142940185546875,-0.004503671545535326,-0.005614742636680603,0.002794188680127263
1772562765502007000,8.153007080078124,-0.00313001312315464,-0.00490287970751524,0.001740642124786973
1772562765512074000,8.163073974609375,-0.0020881847012788057,-0.005073321983218193,-0.00022264027211349458
1772562765522141000,8.173140869140624,-0.0033273533917963505,-0.004295412451028824,0.002918824553489685
1772562765532207900,8.183207763671875,-0.003373426152393222,-0.0028450549580156803,0.0008705873624421656
1772562765542275000,8.193275146484375,-0.0028152274899184704,-0.005627259146422148,0.0028399948496371508
1772562765552343000,8.203343017578124,-0.0017209346406161785,-0.005373726598918438,-0.0004814995336346328
1772562765562410200,8.21341015625,-0.0049460227601230145,-0.005501824431121349,0.002302835462614894
1772562765572477200,8.223477294921874,-0.00170788518153131,-0.004247475415468216,0.0027680895291268826
1772562765582544100,8.233544189453125,-0.002781671704724431,-0.006809968966990709,0.002662628423422575
1772562765592611000,8.243611083984375,-0.0038336203433573246,-0.0016737966798245907,0.002272741636261344
1772562765602678000,8.253677978515626,-0.00583844818174839,-0.00589703768491745,0.005329518113285303
1772562765612745000,8.263744873046875,-0.005680788774043322,-0.004596616141498089,0.002305498579517007
1772562765622812200,8.273812255859376,-0.004878378473222256,-0.00782516598701477,0.005107410252094269
1772562765632879900,8.2838798828125,-0.0035928706638514996,-0.003984355367720127,0.0014671353856101632
1772562765642947000,8.293947021484374,-0.003571032779291272,-0.003777960315346718,0.004680771846324205
1772562765653014000,8.304013916015625,-0.001710814656689763,-0.0017979000695049763,0.0005107942852191627
1772562765663081000,8.3140810546875,-0.0015781891997903585,-0.004159591160714626,0.005752161610871553
1772562765673148200,8.324148193359376,-0.003715642262250185,-0.005497829522937536,0.006955910474061966
1772562765683215000,8.334215087890625,-0.004210724029690027,-0.005585181526839733,0.005073055624961853
1772562765693282000,8.344281982421874,-0.0018730012234300375,-0.004196343012154102,0.0032804817892611027
1772562765703349000,8.354348876953125,-0.002085521351546049,-0.005845105741173029,0.001110005541704595
1772562765713416200,8.364416259765624,-0.002499909373000264,-0.00569996377453208,0.0038392129354178905
1772562765723484200,8.374484130859376,-0.004608866758644581,-0.005110339727252722,-0.0012876383261755109
1772562765733551000,8.384551025390625,-0.0029017801862210035,-0.005340703297406435,0.0037473340053111315
1772562765743618000,8.3946181640625,-0.004338555503636599,-0.0057681407779455185,0.0027569043450057507
1772562765753685000,8.40468505859375,-0.003518834710121155,-0.005075985100120306,0.0009914948605000973
1772562765763752000,8.414751953125,-0.0036551884841173887,-0.005813147872686386,0.003057841444388032
1772562765773819000,8.42481884765625,-0.003998203668743372,-0.0037803570739924908,0.0026325348298996687
1772562765783886000,8.434885986328124,-0.004711132030934095,-0.004193147178739309,0.0020058928057551384
1772562765793953000,8.444953125,-0.0014748586108908057,-0.005720736458897591,0.0014839133946225047
1772562765804021200,8.455021240234375,-0.0057127466425299644,-0.00700944010168314,0.006674680393189192
1772562765814088200,8.465088134765624,-0.0020809939596801996,-0.004776911810040474,0.002898051869124174
1772562765824155100,8.475155029296875,-0.002659166231751442,-0.0068179587833583355,0.001698564155958593
1772562765834222000,8.48522216796875,-0.0034698324743658304,-0.0057463026605546474,0.0029108349699527025
1772562765844289000,8.4952890625,-0.000958205375354737,-0.0043987431563436985,0.0017899106023833156
1772562765854356000,8.50535595703125,-0.0023928501177579165,-0.0032565132714807987,0.00017070861940737814
1772562765864423000,8.5154228515625,-0.004163586068898439,-0.005880259443074465,0.0035571842454373837
1772562765874490400,8.525490478515625,-0.002957174088805914,-0.0016977651976048946,0.0010098706698045135
1772562765884558000,8.53555810546875,-0.002685531508177519,-0.004081827122718096,0.0012178635224699974
1772562765894625300,8.545625244140625,-0.004288488067686558,-0.005724730901420116,0.001091629732400179
1772562765904692500,8.5556923828125,-0.004033357370644808,-0.005320463329553604,0.003427221905440092
1772562765914759400,8.565759521484376,-0.0018279937794432044,-0.0037675739731639624,-0.0007659250986762345
1772562765924826400,8.575826416015625,-0.002956375014036894,-0.005205947440117598,0.005592638161033392
1772562765934893300,8.585893310546876,-0.0030503845773637295,-0.00512791657820344,0.0018905780743807554
1772562765944960300,8.595960205078125,-0.003913515247404575,-0.004203000571578741,0.0010777813149616122
1772562765955027500,8.60602734375,-0.0035489285364747047,-0.006019010208547115,0.003403786104172468
1772562765965094400,8.616094482421875,-0.004306064918637276,-0.004634965676814318,0.0049007488414645195
1772562765975162400,8.626162353515625,-0.002531334524974227,-0.003153715282678604,0.00284984870813787
1772562765985229300,8.636229248046876,-0.0026844663079828024,-0.006265618838369846,0.0056890444830060005
1772562765995296300,8.646296142578125,-0.004295678809285164,-0.006440322380512953,0.004591023549437523
1772562766005363200,8.65636328125,-0.0019971043802797794,-0.00515880947932601,0.002058623591437936
1772562766015430100,8.66643017578125,-0.0044016726315021515,-0.0033846113365143538,0.0016442356863990426
1772562766025497000,8.6764970703125,-0.001978728687390685,-0.005279982928186655,0.003363838652148843
1772562766035564300,8.686564208984375,-0.002383795566856861,-0.003896470880135894,-0.0017957695527002215
1772562766045631500,8.696631591796875,-0.003922836389392614,-0.0057479003444314,0.003724697045981884
1772562766055699500,8.706699462890626,-0.004546548705548048,-0.004348143003880978,0.0037294907961040735
1772562766065766400,8.716766357421875,-0.002543851500377059,-0.0054882424883544445,0.00333214714191854
1772562766075833300,8.726833251953124,-0.0012061456218361855,-0.002834668615832925,0.0017126789316534996
1772562766085900300,8.736900390625,-0.0024288028944283724,-0.006096241995692253,0.0036823528353124857
1772562766095967200,8.74696728515625,-0.0017622136510908604,-0.005241899751126766,0.0020714066922664642
1772562766106034200,8.7570341796875,-0.0043595945462584496,-0.005586512852460146,-0.00043516053119674325
1772562766116101400,8.767101318359375,-0.0010953581659123302,-0.0018876485992223024,0.0022543659433722496
1772562766126168300,8.777168212890626,-0.001868473831564188,-0.003117762738838792,0.002889529801905155
1772562766136236300,8.787236328125,-0.0035510589368641376,-0.004522580187767744,0.0011715245200321078
1772562766146303500,8.797303466796874,-0.0029790119733661413,-0.0031473238486796618,0.002237854292616248
1772562766156370400,8.807370361328125,-0.0016655409708619118,-0.003102316288277507,0.003802727675065398
1772562766166437400,8.817437255859375,-0.0029561088886111975,-0.00632074661552906,0.0024945829063653946
1772562766176504300,8.82750439453125,-0.0008444883860647678,-0.006007825024425983,0.0014671353856101632
1772562766186571300,8.8375712890625,-0.002865028567612171,-0.004983306862413883,0.00216594897210598
1772562766196638500,8.847638427734376,-0.0030863373540341854,-0.004821919370442629,0.002490055514499545
1772562766206705400,8.857705322265625,-0.0019126823171973228,-0.007024087477475405,0.004583300091326237
1772562766216773400,8.8677734375,-0.003192331176251173,-0.004061320796608925,0.004066380672156811
1772562766226840300,8.87784033203125,-0.0037119139451533556,-0.005776662845164537,0.0032477248460054398
1772562766236907300,8.8879072265625,-0.00222027744166553,-0.0028328043408691883,0.0005795038305222988
1772562766246974200,8.89797412109375,-0.004006193019449711,-0.004323375876992941,0.00600462919101119
1772562766257041200,8.908041259765625,-0.004110589157789946,-0.006493052933365107,0.0010093380697071552
1772562766267108000,8.918108154296876,-0.002240517409518361,-0.00574896577745676,0.0007174555794335902
1772562766277175300,8.92817529296875,-0.004223773255944252,-0.0041494714096188545,-0.00025592977181077003
1772562766287242500,8.938242431640624,-0.0025390577502548695,-0.004881840664893389,0.0016892430139705539
1772562766297309400,8.948309326171875,-0.0011965582380071282,-0.004175037611275911,0.0018724685069173574
1772562766307377400,8.95837744140625,-0.0035001926589757204,-0.006301038898527622,0.0034826158080250025
1772562766317444400,8.9684443359375,-0.003207244910299778,-0.003031476167961955,0.0021465078461915255
1772562766327511300,8.97851123046875,-0.0015875103417783976,-0.005814479663968086,0.0029172266367822886
1772562766337578200,8.988578125,-0.003513242118060589,-0.003935619257390499,0.0017752632265910506
1772562766347645200,8.998645263671875,-0.004778243601322174,-0.0060293967835605145,0.006371879018843174
1772562766357712400,9.00871240234375,-0.0030626351945102215,-0.003964115399867296,0.00392709719017148
1772562766367779300,9.018779296875,-0.0033949976786971092,-0.004537760280072689,0.0025662221014499664
1772562766377846300,9.02884619140625,-0.0008088020258583128,-0.005684250965714455,0.0019896477460861206
1772562766387914200,9.038914306640624,-0.0024495755787938833,-0.0043830303475260735,0.0021963089238852262
1772562766397981400,9.0489814453125,-0.003620833856984973,-0.00475454144179821,-0.0003933488915208727
1772562766408048400,9.05904833984375,-0.002956641372293234,-0.003028546692803502,0.0005898901727050543
1772562766418115300,9.069115234375,-0.0015707324491813779,-0.004659732803702354,0.0009571401169523597
1772562766428182300,9.079182373046875,-0.0033726270776242018,-0.0028597023338079453,0.0029912625905126333
1772562766438249500,9.08924951171875,-0.0029289445374161005,-0.006130064371973276,0.0030399984680116177
1772562766448316400,9.09931640625,-0.003400856629014015,-0.005566272884607315,0.002781938062980771
1772562766458383400,9.10938330078125,-0.0031441280152648687,-0.005622465629130602,0.0007518103811889887
1772562766468451300,9.119451416015625,-0.004257595632225275,-0.004085022956132889,0.004487959202378988
1772562766478518300,9.129518310546874,-0.0013187973527237773,-0.00495188171043992,0.0022088258992880583
1772562766488585200,9.139585205078125,-0.0028533106669783592,-0.0040735709480941296,0.0009973538108170033
1772562766498652200,9.149652099609375,-0.0038221688009798527,-0.005705556366592646,0.0020634171087294817
1772562766508719000,9.159718994140626,-0.0018402442801743746,-0.004700745455920696,0.001916144392453134
1772562766518786300,9.169786376953125,-0.0037950044497847557,-0.0033510555513203144,0.0046421559527516365
1772562766528853200,9.179853271484374,-0.0035928706638514996,-0.005228850524872541,0.003284476464614272
1772562766538920400,9.18992041015625,-0.003102316288277507,-0.004548679105937481,0.005790777504444122
1772562766548988400,9.199988525390625,-0.00145195540972054,-0.004870655480772257,0.003955593332648277
1772562766559055400,9.210055419921876,-0.0034048515371978283,-0.0054216631688177586,0.00016405072528868914
1772562766569122300,9.220122314453125,-0.002201369032263756,-0.0054299188777804375,0.0052115400321781635
1772562766579189200,9.230189208984376,-0.0021576930303126574,-0.00310497940517962,0.002700445242226124
1772562766589256200,9.240256103515625,-0.004244812298566103,-0.003974501509219408,0.0052086105570197105
1772562766599323400,9.250323486328124,-0.0033241575583815575,-0.006445382256060839,0.004138285759836435
1772562766609390300,9.260390380859375,-0.005662146955728531,-0.0073228939436376095,0.0008245146600529552
1772562766619457300,9.270457275390624,-0.0023073628544807434,-0.004010987002402544,0.0021315941121429205
1772562766629525200,9.280525146484376,-0.003448793664574623,-0.0068235513754189014,0.006868558935821056
1772562766639592400,9.290592529296875,-0.003328418591991067,-0.0029084382113069296,0.0032229574862867594
1772562766649659400,9.300659423828124,-0.004595284350216389,-0.004316185135394335,0.005562544334679842
1772562766659726300,9.310726318359375,-0.003677292726933956,-0.0043681166134774685,0.0046876962296664715
1772562766669793300,9.320793212890624,-0.005515406373888254,-0.005569202359765768,0.004211789462715387
1772562766679860500,9.330860595703125,-0.0005121259018778801,-0.0019832560792565346,0.001472461735829711
1772562766689927400,9.340927490234375,-0.0022887205705046654,-0.005381449591368437,0.004065048880875111
1772562766699994400,9.350994384765626,-0.00205276464112103,-0.0038301581516861916,0.004031226970255375
1772562766710062300,9.361062255859375,-0.0019771307706832886,-0.005014998838305473,0.0002170476218452677
1772562766720129300,9.37112939453125,-0.0028602350503206253,-0.004922853317111731,0.00390286254696548
1772562766730196200,9.3811962890625,-0.001898301183246076,-0.006411560345441103,0.003994475118815899
1772562766740263200,9.39126318359375,-0.0031012510880827904,-0.0067686899565160275,0.0024833977222442627
1772562766750330000,9.401330078125,-0.0008556736283935606,-0.006358563434332609,0.0021491709630936384
1772562766760397300,9.411397216796875,-0.004249606281518936,-0.0030692932195961475,0.0024413196370005608
1772562766770464300,9.42146435546875,-0.003365170443430543,-0.00535348616540432,0.0037827540654689074
1772562766780531500,9.431531494140625,-0.002083124592900276,-0.003980360459536314,0.004584631882607937
1772562766790599400,9.441599365234374,-0.0007310376968234777,-0.006506635341793299,0.0006684534018859267
1772562766800666400,9.451666259765625,-0.004087419714778662,-0.005758286919444799,0.0026905916165560484
1772562766810733300,9.4617333984375,-0.003064765827730298,-0.003841077210381627,0.002394714392721653
1772562766820800300,9.47180029296875,-0.002770752878859639,-0.003907123580574989,0.0034288198221474886
1772562766830867200,9.4818671875,-0.0022181468084454536,-0.005658418405801058,0.005519401282072067
1772562766840934400,9.491934326171876,-0.001966211711987853,-0.0038578552193939686,0.004596616141498089
1772562766851001300,9.50200146484375,-0.003376621985808015,-0.007297061383724213,0.0037974014412611723
1772562766861068300,9.512068359375,-0.004765726625919342,-0.003364371368661523,-0.0019108180422335863
1772562766871135200,9.52213525390625,-0.0046333675272762775,-0.003894340479746461,-0.0011803129455074668
1772562766881203200,9.532203125,-0.00004394215648062527,-0.003522030543535948,0.0005219795857556164
1772562766891270100,9.542270263671876,-0.005199822131544352,-0.003686081152409315,0.004736431874334812
1772562766901337000,9.552337158203125,-0.003997404593974352,-0.004863198380917311,0.005362540949136019
1772562766911404000,9.562404052734376,-0.003428020980209112,-0.007306915242224932,0.004160390235483646
1772562766921471200,9.57247119140625,-0.0034916705917567015,-0.006343916058540344,0.0017411747248843312
1772562766931538200,9.5825380859375,-0.002388589084148407,-0.004614459350705147,-0.000029294771593413316
1772562766941605000,9.592605224609375,-0.00424135010689497,-0.006472280248999596,0.002154231071472168
1772562766951673300,9.60267333984375,-0.0027744811959564686,-0.006128466222435236,-0.00020053602929692715
1772562766961740300,9.612740234375,-0.002541188383474946,-0.006330866366624832,0.003932689782232046
1772562766971807200,9.62280712890625,-0.002817624481394887,-0.003712446428835392,0.004819522611796856
1772562766981874200,9.632874267578124,-0.0034296188969165087,-0.0026144252624362707,0.0023337281309068203
1772562766991941000,9.642941162109375,-0.0027896612882614136,-0.0039007319137454033,0.003841343568637967
1772562767002008300,9.65300830078125,-0.002490321872755885,-0.004997155629098415,0.0007685882737860084
1772562767012075300,9.6630751953125,-0.0017923073610290885,-0.001811482128687203,0.000803209375590086
1772562767022142200,9.67314208984375,-0.002469815546646714,-0.005055745132267475,0.00221921200864017
1772562767032209200,9.683209228515626,-0.0016610135789960623,-0.007955661043524742,0.003926032222807407
1772562767042277000,9.693277099609375,-0.002228533150628209,-0.004031226970255375,0.002915895078331232
1772562767052344000,9.703343994140624,-0.004150004126131535,-0.004773716442286968,0.0022913836874067783
1772562767062411000,9.713410888671875,-0.003579022129997611,-0.005648298189043999,0.0019430422689765692
1772562767072478000,9.72347802734375,-0.002984072081744671,-0.003999801818281412,0.0030330740846693516
1772562767082545400,9.73354541015625,-0.004292216617614031,-0.003154514357447624,0.00009960222087102011
1772562767092612400,9.7436123046875,-0.004306597635149956,-0.006020075641572475,0.0012628709664568305
1772562767102679300,9.75367919921875,-0.0006354302167892456,-0.0009339706157334149,0.0036511938087642193
1772562767112746200,9.763746337890625,-0.0017281252657994628,-0.005928462836891413,0.0043830303475260735
1772562767122814200,9.773814208984374,-0.0032581111881881952,-0.004858671221882105,0.000526506919413805
1772562767132881200,9.783881103515625,-0.0050099384970963,-0.005677326582372189,0.004709533881396055
1772562767142948000,9.793947998046875,-0.00358754419721663,-0.0032285500783473253,0.0065108961425721645
1772562767153015000,9.80401513671875,-0.0029047098942101,-0.006107693538069725,0.00595429539680481
1772562767163082200,9.814082275390625,-0.0028850024100393057,-0.005774265620857477,0.002261290093883872
1772562767173149200,9.824149169921874,-0.00509888818487525,-0.005112203769385815,0.00472418125718832
1772562767183216000,9.834216064453125,-0.0013598100049421191,-0.006253635045140982,0.0006684534018859267
1772562767193284400,9.844284423828125,-0.003349723992869258,-0.005587045568972826,0.0019419770687818527
1772562767203351300,9.854351318359376,-0.0024810009635984898,-0.003805390791967511,0.0006591323763132095
1772562767213418200,9.864418212890625,-0.004604339133948088,-0.004454403184354305,0.0075543224811553955
1772562767223485200,9.874485107421876,-0.003614442190155387,-0.0054762582294642925,0.0044136568903923035
1772562767233552100,9.88455224609375,-0.0032527849543839693,-0.005766808986663818,0.005605155136436224
1772562767243619300,9.894619384765624,-0.003293531248345971,-0.005549761466681957,0.0044197821989655495
1772562767253686300,9.904686279296875,-0.0017715347930788994,-0.005361209623515606,0.0013901700731366873
1772562767263753200,9.914753173828124,-0.004577174782752991,-0.004739894066005945,0.0010831075487658381
1772562767273820200,9.924820068359375,-0.0027499801944941282,-0.004905010107904673,0.0006591323763132095
1772562767283888000,9.93488818359375,-0.004550276789814234,-0.005101817660033703,0.005623531062155962
1772562767293955000,9.944955078125,-0.003506850451231003,-0.003224821761250496,0.003477822057902813
1772562767304022000,9.95502197265625,-0.0036402747500687838,-0.004129497334361076,0.005717007908970118
1772562767314089000,9.9650888671875,-0.0038075214251875877,-0.0065194182097911835,0.003169428091496229
1772562767324156200,9.97515625,-0.0043737092055380344,-0.005242166109383106,0.0030306773260235786
1772562767334223400,9.985223388671875,-0.0015038870042189956,-0.00395639194175601,0.001802693703211844
1772562767344290300,9.995290283203126,-0.00230789533816278,-0.0028455876745283604,0.0028032432310283184
1772562767354357200,10.005357177734375,-0.002299373270943761,-0.004096208140254021,0.003079146845266223
1772562767364425200,10.01542529296875,-0.0033574472181499004,-0.004728975240141153,0.003094326937571168
1772562767374492200,10.0254921875,-0.0022594258189201355,-0.005330849438905716,0.006591590121388435
1772562767384559000,10.03555908203125,-0.0044022053480148315,-0.005370264407247305,0.0041792988777160645
1772562767394626000,10.0456259765625,-0.003704190719872713,-0.0038722362369298935,0.0011321097845211625
1772562767404693200,10.055693359375,-0.0031212246976792812,-0.006202235817909241,0.0032466596458107233
1772562767414760200,10.06576025390625,-0.003173955250531435,-0.006509032100439072,0.005083708092570305
1772562767424827100,10.0758271484375,-0.000945954816415906,-0.004712996073067188,0.0020122844725847244
1772562767434895400,10.085895263671874,-0.002865294925868511,-0.0030368026345968246,0.008012652397155762
1772562767444962300,10.09596240234375,-0.0052264537662267685,-0.0073441993445158005,0.0025662221014499664
1772562767455029200,10.106029296875,0.0012897689593955874,-0.0028517129831016064,0.002645317930728197
1772562767465096200,10.11609619140625,-0.0035872780717909336,-0.0052261874079704285,0.004314587451517582
1772562767475163100,10.1261630859375,-0.0031017838045954704,-0.005505020264536142,0.0043896883726119995
1772562767485230000,10.13622998046875,-0.0033015208318829536,-0.003575826296582818,0.002067412016913295
1772562767495297300,10.14629736328125,-0.000669518718495965,-0.00461632339283824,0.0009033442474901676
1772562767505364200,10.1563642578125,-0.005061604082584381,-0.0044022053480148315,-0.0011323761427775025
1772562767515432200,10.16643212890625,-0.003462641965597868,-0.0037499971222132444,0.0033276197500526905
1772562767525499100,10.1764990234375,-0.002013616031035781,-0.004285026341676712,0.005084507167339325
1772562767535566000,10.186566162109376,-0.002130262553691864,-0.0041191112250089645,0.0035926043055951595
1772562767545633000,10.196633056640625,-0.004742024466395378,-0.005623531062155962,0.002457564929500222
1772562767555700000,10.206699951171874,-0.0019177423091605306,-0.0046874298714101315,0.00036698358599096537
1772562767565767200,10.21676708984375,-0.0029736857395619154,-0.004977447912096977,0.0017006946727633476
1772562767575834400,10.22683447265625,-0.00430047232657671,-0.005147890187799931,0.0041646515019237995
1772562767585901300,10.2369013671875,0.0014381069922819734,-0.0035633095540106297,0.00173744629137218
1772562767595969300,10.24696923828125,-0.0026181535795331,-0.004348942078649998,0.0018309232546016574
1772562767606036200,10.2570361328125,-0.0035446672700345516,-0.005459479987621307,0.0009001484140753746
1772562767616103200,10.267103271484375,-0.002079662401229143,-0.005365204066038132,0.0025446503423154354
1772562767626170000,10.277170166015624,-0.002978213131427765,-0.0041337586008012295,0.0012120045721530914
1772562767636237000,10.287237060546875,-0.0029696908313781023,-0.006040581967681646,0.002894856035709381
1772562767646304300,10.29730419921875,-0.0010729875648394227,-0.004256530199199915,0.0010319749126210809
1772562767656371200,10.30737109375,-0.001990446588024497,-0.0037175065372139215,0.0019097528420388699
1772562767666438100,10.317438232421875,-0.00313560594804585,-0.005024319514632225,0.002115881536155939
1772562767676506400,10.32750634765625,-0.0012175972806289792,-0.005116198677569628,-0.002329467097297311
1772562767686573300,10.3375732421875,-0.0033742249943315983,-0.004406466148793697,0.0016900419723242521
1772562767696640300,10.34764013671875,-0.0029726203065365553,-0.004054929129779339,0.004604871850460768
1772562767706707200,10.357707275390625,-0.003108707955107093,-0.0041369544342160225,0.004568919073790312
1772562767716774100,10.367774169921875,-0.0022498385515064,-0.0062096924521028996,0.0031124362722039223
1772562767726841000,10.377841064453126,-0.004126834217458963,-0.004042944870889187,0.003704989794641733
1772562767736908300,10.387908203125,-0.005447496194392443,-0.004761199466884136,0.002688993699848652
1772562767746975200,10.397975341796876,-0.002897785510867834,-0.005195294506847858,0.003276220755651593
1772562767757043200,10.408043212890625,-0.0030919299460947514,-0.004542021080851555,0.0035689021460711956
1772562767767110100,10.418110107421874,-0.0018604843644425273,-0.006578806787729263,0.0035603800788521767
1772562767777177000,10.428177001953125,-0.001838646363466978,-0.003085272153839469,0.00452684098854661
1772562767787244000,10.438244140625,-0.002957174088805914,-0.00506852800026536,0.0019656792283058167
1772562767797311000,10.44831103515625,-0.002118278294801712,-0.004546548705548048,0.0022029669489711523
1772562767807378200,10.458378173828125,-0.001814411603845656,-0.0060152821242809296,0.003055178327485919
1772562767817445400,10.4684453125,-0.003763312939554453,-0.004465588368475437,0.00301736150868237
1772562767827512300,10.47851220703125,-0.004323641769587994,-0.00484322477132082,0.004601409658789635
1772562767837580300,10.488580322265625,-0.001776062068529427,-0.006255765445530415,0.0015060176374390721
1772562767847647200,10.498647216796876,-0.003753725439310074,-0.003969707991927862,0.006703442893922329
1772562767857714200,10.508714111328125,-0.0025566346012055874,-0.005280782002955675,0.0032487902790308
1772562767867781000,10.518781005859376,-0.002960103563964367,-0.004632036201655865,0.0031443943735212088
1772562767877847800,10.528847900390625,-0.001615207176655531,-0.003756921272724867,0.0002993392990902066
1772562767887915000,10.5389150390625,-0.004315386060625315,-0.004969724919646978,0.0006346312584355474
1772562767897982000,10.54898193359375,-0.004290352575480938,-0.0069503178820014,0.0025654230266809464
1772562767908050200,10.55905029296875,-0.002814961364492774,-0.002882871776819229,0.002425074577331543
1772562767918117000,10.5691171875,-0.0036914076190441847,-0.003156911116093397,0.004381699021905661
1772562767928184000,10.57918408203125,-0.00580728892236948,-0.00563977612182498,0.00316010694950819
1772562767938251000,10.5892509765625,-0.0028210864402353764,-0.007498928811401129,0.005559881217777729
1772562767948318000,10.59931787109375,-0.00347409350797534,-0.00180855265352875,0.0019622170366346836
1772562767958385000,10.609385009765624,-0.002956907730549574,-0.004917793441563845,-0.0000015978966985130683
1772562767968452000,10.6194521484375,-0.0009171926649287343,-0.005037369206547737,-0.0017600831342861056
1772562767978519000,10.62951904296875,-0.003492469433695078,-0.003352120751515031,0.003881823504343629
1772562767988587000,10.6395869140625,-0.003227751236408949,-0.004494883120059967,0.004734301473945379
1772562767998654000,10.649654052734375,-0.001680454588495195,-0.005679723806679249,0.0030280142091214657
1772562768008721000,10.659720947265624,-0.003136138431727886,-0.003769704606384039,0.0018924422329291701
1772562768018787800,10.669787841796875,-0.003793406533077359,-0.007151386234909296,0.0015464976895600557
1772562768028854800,10.679854736328124,-0.0016407734947279096,-0.0026429209392517805,0.001109739183448255
1772562768038922000,10.689921875,-0.0017696705181151628,-0.005782255437225103,0.0007142598042264581
1772562768048989200,10.6999892578125,-0.0035483958199620247,-0.005280249286442995,0.0029108349699527025
1772562768059056000,10.71005615234375,-0.0041550640016794205,-0.005543636158108711,0.002269279444590211
1772562768069124000,10.7201240234375,-0.0029787456151098013,-0.00571833923459053,0.004078631289303303
1772562768079191000,10.73019091796875,-0.0052019525319337845,-0.004594485275447369,0.00219524372369051
1772562768089258000,10.740258056640625,-0.004344947170466185,-0.004707936197519302,0.004314321093261242
1772562768099325000,10.750324951171875,-0.0008234494016505778,-0.006763896439224482,0.0032807481475174427
1772562768109392000,10.760391845703126,-0.00284984870813787,-0.004781705792993307,0.0005605954211205244
1772562768119458800,10.770458740234375,-0.004177967086434364,-0.00520727876573801,0.0012351741315796971
1772562768129526000,10.780526123046876,-0.0010298443958163261,-0.004956941585987806,-0.00010466222738614306
1772562768139593000,10.790593017578125,-0.0027718180790543556,-0.006124737672507763,0.00424161646515131
1772562768149660000,10.800659912109374,-0.004656270612031221,-0.005709550809115171,0.00007297061529243365
1772562768159726800,10.810726806640625,-0.004465588368475437,-0.0034727619495242834,0.0010106696281582117
1772562768169793800,10.820793701171874,-0.0043891556560993195,-0.00552312983199954,0.0030101709999144077
1772562768179862000,10.830862060546876,-0.0027438548859208822,-0.005260808393359184,0.0026881948579102755
1772562768189929000,10.840928955078125,-0.0027017768006771803,-0.0049281795509159565,0.002758235903456807
1772562768199996000,10.850995849609374,-0.0035896748304367065,-0.004435760900378227,0.003422162029892206
1772562768210063000,10.86106298828125,-0.0036932716611772776,-0.005281581077724695,0.004317516926676035
1772562768220130000,10.871130126953124,-0.002123870886862278,-0.0043777041137218475,0.0013856426812708378
1772562768230197000,10.881197021484375,-0.0019430422689765692,-0.005507417023181915,0.002269545802846551
1772562768240264000,10.891263916015625,-0.0036607813090085983,-0.0036887445021420717,0.002326537622138858
1772562768250332000,10.901331787109376,-0.0032176312524825335,-0.005249623209238052,0.00031558459158986807
1772562768260398800,10.91139892578125,-0.005105279851704836,-0.003975833300501108,0.004384362138807774
1772562768270465800,10.9214658203125,-0.0017664746847003698,-0.005269863177090883,0.0029233519453555346
1772562768280533000,10.931532958984375,-0.0036365464329719543,-0.003290335414931178,-0.0004985437262803316
1772562768290600000,10.941599853515624,-0.0032170985359698534,-0.004216316621750593,0.0044264402240514755
1772562768300667100,10.951667236328126,-0.0027361316606402397,-0.005577724426984787,0.002365419641137123
1772562768310734000,10.961734130859375,-0.003891411004588008,-0.004777710884809494,0.0016160061350092292
1772562768320801000,10.971801025390626,-0.0019489012192934752,-0.0030897995457053185,0.0008319715270772576
1772562768330869000,10.981868896484375,-0.0015843145083636045,-0.005619003437459469,0.0043870252557098866
1772562768340936000,10.99193603515625,-0.002793123247101903,-0.006610498297959566,0.002971288748085499
1772562768351003000,11.0020029296875,-0.002118011936545372,-0.002666356973350048,0.004707936197519302
1772562768361069800,11.01206982421875,-0.0028932581190019846,-0.0041127195581793785,0.0008514125947840512
1772562768371137000,11.022136962890626,-0.003404052462428808,-0.005387042183429003,0.004732171073555946
1772562768381204000,11.032203857421875,-0.0029824741650372744,-0.005045092198997736,0.0033603766933083534
1772562768391271000,11.04227099609375,-0.003314303932711482,-0.0051622712053358555,0.0032618397381156683
1772562768401337900,11.052337890625,-0.00267780851572752,-0.003867975203320384,0.004503405187278986
1772562768411406000,11.062406005859375,-0.0038301581516861916,-0.0039012646302580833,0.0022181468084454536
1772562768421473000,11.07247314453125,-0.005394765175879002,-0.004492752719670534,0.0032554480712860823
1772562768431540000,11.0825400390625,-0.0028732845094054937,-0.0029414615128189325,0.004376106429845095
1772562768441607000,11.09260693359375,-0.003905525663867593,-0.005219263024628162,0.0036706349346786737
1772562768451674000,11.102674072265625,-0.0016290555940940976,-0.004062385763972998,0.0060262009501457214
1772562768461741000,11.112740966796874,-0.0030631679110229015,-0.0016610135789960623,0.0022011026740074158
1772562768471808000,11.12280810546875,-0.004592621233314276,-0.002382996492087841,0.0003504719934426248
1772562768481876000,11.1328759765625,-0.0016381103778257966,-0.004564391914755106,0.005136172287166119
1772562768491943000,11.14294287109375,-0.00430233683437109,-0.005524993874132633,0.0018461032304912806
1772562768502009900,11.153009765625,-0.0044232443906366825,-0.0031963258516043425,0.00002956108801299706
1772562768512076800,11.163076904296876,-0.0018775284988805652,-0.002770486520603299,0.0032197616528719664
1772562768522144000,11.17314404296875,-0.0036637107841670513,-0.0041529336012899876,0.005750829819589853
1772562768532212000,11.1832119140625,-0.0041153826750814915,-0.005487443413585424,-0.0008578042034059763
1772562768542279000,11.19327880859375,-0.002338521648198366,-0.0029033781029284,-0.0010479538468644023
1772562768552347000,11.203346923828125,-0.002995523624122143,-0.003165166825056076,0.002769421087577939
1772562768562413800,11.213413818359374,-0.0028778119012713432,-0.005792375188320875,0.001606685109436512
1772562768572481000,11.22348095703125,-0.0023347933311015368,-0.005818208213895559,0.0014980280539020896
1772562768582548000,11.2335478515625,-0.00538384635001421,-0.004560663364827633,0.0028370653744786978
1772562768592615000,11.243614990234375,-0.0025782061275094748,-0.003921238239854574,0.0046360306441783905
1772562768602681900,11.253681884765625,-0.002028529765084386,-0.004772917367517948,0.0070765516720712185
1772562768612748800,11.263748779296876,-0.006278135813772678,-0.004522047471255064,0.006731139495968819
1772562768622817000,11.273817138671875,-0.002079928759485483,-0.0049345712177455425,0.0017246630741283298
1772562768632884000,11.283884033203124,-0.000556600687559694,-0.0031909996178001165,0.004588892683386803
1772562768642951000,11.293950927734375,-0.0022327941842377186,-0.005034439731389284,0.0012330436147749424
1772562768653018000,11.30401806640625,-0.003087935270741582,-0.007013434544205666,0.0026762105990201235
1772562768663085000,11.3140849609375,-0.0017259946325793862,-0.004756938200443983,0.0031401331070810556
1772562768673152000,11.324152099609375,-0.0016165387351065874,-0.0026964505668729544,0.0044195158407092094
1772562768683219000,11.334218994140626,-0.0024865935556590557,-0.0031997880432754755,0.0016857809387147427
1772562768693286000,11.344285888671875,-0.0015923039754852653,-0.005738845560699701,0.004526042379438877
1772562768703353900,11.354353759765624,-0.0019076223252341151,-0.005061604082584381,0.0028360001742839813
1772562768713420800,11.3644208984375,-0.00086872314568609,-0.004102333448827267,0.0020532971248030663
1772562768723487700,11.37448779296875,-0.0011499529937282205,-0.003950000274926424,0.0005030711181461811
1772562768733555200,11.38455517578125,-0.0024546354543417692,-0.004637096077203751,0.0041281660087406635
1772562768743622100,11.3946220703125,-0.0019299928098917007,-0.005542837083339691,0.003060770919546485
1772562768753689000,11.404689208984376,-0.0026847326662391424,-0.00700730923563242,0.0016205335268750787
1772562768763756000,11.414756103515625,-0.0044322991743683815,-0.00509995361790061,0.003501524217426777
1772562768773824000,11.424823974609374,-0.0017925737192854285,-0.005130046978592873,0.0023912524338811636
1772562768783891000,11.434890869140625,-0.002207494108006358,-0.005861351266503334,0.0009480853332206607
1772562768793958000,11.4449580078125,-0.0024285365361720324,-0.0020181434229016304,0.0028658276423811913
1772562768804024800,11.45502490234375,-0.004248008131980896,-0.005602225661277771,0.001745968358591199
1772562768814092000,11.465092041015625,-0.002293780678883195,-0.003680754918605089,0.004071440547704697
1772562768824159000,11.475158935546874,-0.004832039587199688,-0.00541447289288044,0.0029049760196357965
1772562768834226000,11.485225830078125,-0.004742290824651718,-0.0059721386060118675,0.0030546458438038826
1772562768844292900,11.49529296875,-0.004708202555775642,-0.0046450854279100895,0.002683401107788086
1772562768854361000,11.505361083984376,-0.003168629016727209,-0.004042145796120167,0.0014791196445003152
1772562768864428000,11.515427978515625,-0.0026943201664835215,-0.005782255437225103,0.003082609036937356
1772562768874495000,11.525494873046876,-0.0007440872141160071,-0.0040946099907159805,0.005061071366071701
1772562768884562000,11.53556201171875,-0.003087935270741582,-0.003939081449061632,0.002663427498191595
1772562768894629000,11.545629150390624,-0.002811765531077981,-0.0048890309408307076,0.006073605269193649
1772562768904696000,11.555696044921875,-0.0038077877834439278,-0.0027838023379445076,0.0030301446095108986
1772562768914763000,11.565762939453125,-0.0041822283528745174,-0.0027656927704811096,0.0028221518732607365
1772562768924831000,11.5758310546875,-0.004723649006336927,-0.004304467234760523,0.0006580671179108322
1772562768934898000,11.58589794921875,-0.006764429155737162,-0.00580888707190752,0.001871403306722641
1772562768944964900,11.59596484375,-0.002028796123340726,-0.006590258330106735,0.003397660795599222
1772562768955031800,11.60603173828125,-0.003861583536490798,-0.005543103441596031,0.0020008329302072525
1772562768965098800,11.6160986328125,-0.0019651465117931366,-0.0034850125666707754,0.0026144252624362707
1772562768975166200,11.626166259765625,-0.00318940170109272,-0.003707386553287506,0.003959321416914463
1772562768985233200,11.636233154296875,-0.003695935010910034,-0.004914863966405392,0.004787032026797533
1772562768995300000,11.646300048828126,-0.0007299724384211004,-0.0016801883466541767,0.0008013451588340104
1772562769005368000,11.6563681640625,-0.004640291910618544,-0.004187820944935083,0.003641073824837804
1772562769015435000,11.66643505859375,-0.0006801713607273996,-0.004307663068175316,0.00672208471223712
1772562769025502000,11.676501953125,-0.0025486452504992485,-0.004612328484654427,0.0011696603614836931
1772562769035569000,11.68656884765625,-0.0011004181578755379,-0.005021123681217432,0.00006897587445564568
1772562769045635800,11.6966357421875,-0.0020873856265097857,-0.0049673281610012054,0.00290417717769742
