time,seconds_elapsed,z,y,x
1772561580473109500,0.059109619140625,-0.8572773390710353,2.6042136531189084,1.1013836170762776
1772561580483175400,0.069175537109375,-1.478919875884056,3.4306074858874083,1.3662563503868876
1772561580493242600,0.07924267578125,-0.8746750485956668,2.7655525083273647,0.9877174173425882
1772561580503308500,0.08930859375,-0.25637948412299155,2.8945141115441917,1.4717318640761077
1772561580513375500,0.09937548828125,0.09535890108346938,1.8204308815866708,0.5902961622390895
1772561580523441700,0.109441650390625,1.80517661383152,0.17335516395568848,-0.7542431541193276
1772561580533508600,0.119508544921875,3.7728093964636322,-0.7687813094943762,-1.8448447534836827
1772561580543574500,0.129574462890625,3.72866981048584,-0.46314621155411,-2.1130745421372352
1772561580553641500,0.139641357421875,3.4573850181758403,-0.30376258206665513,-1.3904213620893657
1772561580563707600,0.149707763671875,2.834838810521364,-0.3083645229041576,-0.37309228501096364
1772561580573774600,0.159774658203125,1.813313743057847,-0.28332243610620494,0.15690419722925872
1772561580583840500,0.169840576171875,0.4963847565501928,-0.5473138565376401,0.01627685226853937
1772561580593907700,0.17990771484375,-0.28200843089818955,-0.7093982694163918,-0.460719861190021
1772561580603973600,0.1899736328125,-0.3451233509808779,-0.9942015917301177,-1.3402002642408013
1772561580614040600,0.20004052734375,-0.30205344006121154,-0.09460632915049791,-1.4242695634163915
1772561580624106800,0.210106689453125,0.9042308134257793,0.3504483453959226,-0.7606113739769905
1772561580634173700,0.220173583984375,1.2878642200648784,-0.00696340927183628,-0.26634587460309267
1772561580644239600,0.230239501953125,1.0903969436377285,-0.2581122992649674,0.2200831589914858
1772561580654306600,0.240306640625,0.6238982067853212,-0.3960352075725794,0.4802887042086571
1772561580664372700,0.250372802734375,-0.41767771506011486,-0.35906770518124104,0.17358327362313866
1772561580674438400,0.2604384765625,-1.0238748454600572,-0.31460195598900315,-0.4008068058885634
1772561580684505600,0.270505615234375,-1.3373077576696872,0.11417524523437023,-0.8390842413850128
1772561580694571500,0.280571533203125,-1.014844566786289,0.5005959445044398,-0.7288495504699647
1772561580704638500,0.290638427734375,-0.6223784498721361,0.6107426648750901,-0.3185050278421491
1772561580714704600,0.30070458984375,-0.24218437003195284,0.7415624631792307,0.18773937087804077
1772561580724771600,0.310771484375,0.36819852162003514,0.7193044541418552,0.6566189384523778
1772561580734837500,0.32083740234375,0.6614975773394107,0.27105010677129027,0.936690921395272
1772561580744904400,0.330904541015625,0.667961220395565,-0.11423691229373216,0.8323821864631027
1772561580754970600,0.340970703125,0.7312894909679889,-0.3960737860172987,0.4970788762941956
1772561580765037600,0.35103759765625,0.7283008305460215,-0.6781245947524904,0.21605741060674188
1772561580775103500,0.361103515625,0.4075152174860239,-0.8571680334776639,0.013242854867503047
1772561580785170400,0.37117041015625,-0.08533376615345478,-0.6723910195365548,-0.09704115508198738
1772561580795236600,0.381236572265625,-0.3362701824396849,-0.27302842110693454,-0.09271043240129948
1772561580805303600,0.391303466796875,-0.18141805890202523,-0.0849687322333455,0.008744082143530249
1772561580815369700,0.40136962890625,0.2960188360720873,-0.22375965554714203,0.08544277948588132
1772561580825436700,0.411436767578125,0.6673860508561134,-0.5314695139348506,-0.042389673570543525
1772561580835502600,0.421502685546875,0.6494307074487209,-0.6734335143268108,-0.42994361465424297
1772561580845569500,0.431569580078125,0.5430535687446594,-0.8465884795352816,-0.9448347726233303
1772561580855635700,0.4416357421875,0.47399581460952755,-1.1062667129427195,-1.4618150118261575
1772561580865702700,0.45170263671875,0.4769722000718116,-1.2903925694987177,-1.91599071206972
1772561580875768600,0.4617685546875,0.463287958112359,-1.3184522505521774,-2.2174698593743143
1772561580885835500,0.47183544921875,0.21203356191813943,-1.0986243814960122,-2.267827881475538
1772561580895901700,0.481901611328125,-0.12041793901622294,-0.6101654495090246,-2.038293441919237
1772561580905968600,0.49196875,-0.058066989043354986,-0.16642273434400556,-1.6129301407925785
1772561580916034800,0.502034912109375,0.547002598631382,-0.014235446101427077,-1.0546082757674158
1772561580926100500,0.5121005859375,1.3529583312660456,-0.1069745200753212,-0.5424459582403302
1772561580936167400,0.52216748046875,2.4396295323789117,-0.43104456163346766,0.1418639010183513
1772561580946233600,0.532233642578125,3.3848166255712506,-0.9074380850344895,1.2592277620367704
1772561580956300500,0.542300537109375,2.6427538116544484,-0.5842573935315013,1.5428190782122313
1772561580966366500,0.552366455078125,1.2430372363448143,-0.11607464911490678,0.7955167562067508
1772561580976433400,0.562433349609375,0.6052081193625927,-0.06199526840299367,-0.04790200725123286
1772561580986499600,0.57249951171875,0.656124067607522,-0.5147743997216224,-0.47322746058553455
1772561580996566500,0.58256640625,0.7705483191668987,-1.2172978149324656,-0.7570835651770234
1772561581006632400,0.592632568359375,0.6272253053814172,-1.0420973153710364,-0.8566349495142698
1772561581016699600,0.60269970703125,0.08917875114381313,-0.3599205226182937,-0.6539777032285928
1772561581026765600,0.612765625,-0.2505745972365141,-0.13964374075084923,-0.2723229031860828
1772561581036832500,0.62283251953125,-0.11046470027863979,0.032983108930289745,0.46493543305844065
1772561581046898700,0.632898681640625,0.11969488543868065,0.21043372550606726,1.3522313321657478
1772561581056965600,0.642965576171875,0.5309481204092502,0.26384499769806863,2.0998646396912632
1772561581067031600,0.653031494140625,0.9607692777276039,0.08608224643319845,2.342587792775035
1772561581077098500,0.663098388671875,0.8458937752693891,-0.0969312649667263,2.06991841423884
1772561581087164700,0.67316455078125,-0.03685235157907009,-0.1700818413734436,1.3418215818323194
1772561581097231600,0.683231689453125,-0.18576807080507277,0.01681990963667631,0.6008123686216771
1772561581107297500,0.693297607421875,0.891476545792818,-0.008449263915419577,0.3245781372107565
1772561581117364700,0.70336474609375,2.4332611663907766,0.3700479488790035,0.3155697050426155
1772561581127430700,0.7134306640625,2.1397879231482744,1.2830311008200048,0.02642528478465974
1772561581137497600,0.72349755859375,0.6563736584544182,0.6046987085357308,-0.5748047612598165
1772561581147563800,0.733563720703125,-0.19405191502571104,-0.0508227170035243,-0.9083932668674737
1772561581157630700,0.743630615234375,-1.0389549256920814,-1.0501254312649368,-0.44297669922858474
1772561581167696600,0.753696533203125,-1.3872376174867151,-1.6966148245647548,0.29740261858068406
1772561581177762600,0.763762451171875,-1.3524398603498935,-1.4865972786441444,0.9298971696019173
1772561581187829500,0.77382958984375,-1.227679508215189,-0.6117296300858259,1.2869202172130345
1772561581197895400,0.7838955078125,-1.5161206025093792,-0.07285100893825291,1.48163556458354
1772561581207962600,0.793962646484375,-1.111015953296423,0.27185470115244387,1.6106851383447647
1772561581218028500,0.804028564453125,-0.17158289358615875,0.4568830595061183,1.6614463344193995
1772561581228095500,0.814095458984375,0.6046838032275438,0.39945173801779743,1.7385329351007937
1772561581238161700,0.82416162109375,1.144616025081277,-0.055094695234298705,1.7872319379486143
1772561581248228600,0.834228515625,1.2892068668454886,-0.6337982540309429,1.4211976086251437
1772561581258294500,0.84429443359375,-0.4938017543196678,-0.901532660382986,0.2595116446688771
1772561581268361500,0.854361572265625,-0.6303332082688808,-0.4023565195485949,-0.5967188887629657
1772561581278427600,0.864427734375,0.5519020611107349,0.0501017092525959,-0.9617805005967617
1772561581288494600,0.87449462890625,0.16887305010557174,-0.6044356736853719,-0.9982045437611639
1772561581298560500,0.884560546875,-0.2014092920511961,-0.6282642930403352,-1.0488011238586157
1772561581308627700,0.894627685546875,-0.24283377385139465,-0.17203005283176898,-1.1279863773196934
1772561581318693600,0.904693603515625,0.421243298587203,0.414234588868916,-0.9136424926325678
1772561581328760600,0.914760498046875,0.8332061431318522,0.42408641305863853,-0.44177945226803417
1772561581338826800,0.92482666015625,1.898305563905835,0.21370295643508433,-0.3888985971583053
1772561581348893700,0.934893798828125,3.6988340596705673,0.48290889664441344,-0.6704980453968048
1772561581358959600,0.944959716796875,4.350128807425499,0.49250236215889454,-0.2871708186300471
1772561581369026600,0.955026611328125,3.372051836544275,0.5286942040026188,0.48127512143012136
1772561581379092700,0.9650927734375,2.621748433026671,0.9229127175420522,1.1581061327081172
1772561581389159700,0.97515966796875,4.291718119511008,1.8383213430643082,1.6264470633611081
1772561581399225600,0.9852255859375,6.360055255907773,3.0271497270986436,1.2862991627052425
1772561581409291500,0.99529150390625,7.518812034544348,3.8802299067407846,0.7760838875927031
1772561581419358500,1.0053583984375,5.560950704342127,1.0398149035222828,0.63812590797171
1772561581429424600,1.015424560546875,2.5047259816676375,-1.2883812296763062,0.6638576575342565
1772561581439491600,1.02549169921875,0.9482184237122535,-1.2885739757694303,-0.05099558935239911
1772561581449557500,1.0355576171875,1.6357751559376716,-0.08122662309557199,-0.9521644579242914
1772561581459624400,1.04562451171875,3.2726977283447978,0.749208301757276,-1.3212231765702367
1772561581469690600,1.055690673828125,4.55464307975471,0.8898603427678347,-0.8076301686529069
1772561581479757600,1.065757568359375,5.1259226260304445,-0.08368409925028682,-0.3518205835971981
1772561581489823500,1.075823486328125,5.12402819058597,-2.530423902025819,-1.1798352225005626
1772561581499890700,1.085890625,3.989354298326373,-3.64828694473803,-1.867451722089201
1772561581509956600,1.09595654296875,0.6399404100477695,-2.460622051525116,-2.317798073302954
1772561581520023600,1.1060234375,-0.7641933971822261,-0.17320596474334596,-1.2944858301617204
1772561581530089700,1.11608984375,-2.265786292645335,-1.027200482751429,-1.2878025530055164
1772561581540156700,1.12615673828125,-4.971382052659988,-3.19316943359971,-1.817397797501087
1772561581550222600,1.13622265625,-6.135443367445468,-3.8191023610830306,-1.8288278307929633
1772561581560289500,1.14628955078125,-6.5772244271487,-3.3509006197050213,-1.5671483405657112
1772561581570355700,1.156355712890625,-7.198896190056204,-4.134040709419549,-0.815030873363465
1772561581580422700,1.166422607421875,-8.099499460634588,-5.474602792710066,-0.29104815325373784
1772561581590488600,1.176488525390625,-10.737420445305109,-6.242873230072855,-1.469596021091193
1772561581600555800,1.1865556640625,-16.69608919574022,-5.297170004051924,-2.502287940865755
1772561581610621700,1.19662158203125,-24.870868646025656,-2.378619475620985,-1.1247982488028705
1772561581620688600,1.206688720703125,-29.003768076455593,0.16533377006351946,1.540167686920613
1772561581630754800,1.2167548828125,-27.287621160686015,1.4272811663225293,3.8188513089314102
1772561581640820500,1.226820556640625,-23.37266422395706,2.2119915740936995,4.9637417670398944
1772561581650887400,1.236887451171875,-19.818324559938908,2.184055811680853,4.651288805778324
1772561581660953600,1.24695361328125,-17.362661592125892,1.6611951361373065,4.308706079190969
1772561581671020500,1.2570205078125,-13.931064510679244,1.6052788953870534,4.6336698547184465
1772561581681086500,1.26708642578125,-9.648797525602578,1.3073270454257726,4.183476063717902
1772561581691154200,1.277154296875,-6.25138737591803,1.1063006152123211,3.3481565816938876
1772561581701220400,1.287220458984375,-3.687832773184776,1.2458785972505808,2.7897604823887345
1772561581711287300,1.297287353515625,-1.8841794233977793,1.134438329938054,1.8773656517297028
1772561581721353200,1.307353271484375,0.1824514936029911,1.710420939338207,1.5940195424869656
1772561581731420200,1.317420166015625,2.376137595677376,1.9998545518010853,1.7342086421608924
1772561581741486300,1.327486328125,2.6382044777870175,2.433750995734334,0.7385460379675031
1772561581751553300,1.33755322265625,4.510967019635439,5.174823727321624,-1.1791636068493128
1772561581761619500,1.347619384765625,6.336212023505568,5.722077085843682,-3.8452348734661936
1772561581771686400,1.357686279296875,7.140105562913417,3.579900806254148,-6.081162326681613
1772561581781752000,1.367751953125,6.864855958625673,0.2584849319696426,-6.121480893066525
1772561581791819300,1.3778193359375,7.500275091856718,-1.3234016896530985,-2.956898087003827
1772561581801885200,1.38788525390625,6.648758216008543,-0.46962797478884455,-0.9640446461364627
1772561581811952000,1.3979521484375,8.089250453820824,0.11253946072608231,1.0006072209887207
1772561581822018000,1.40801806640625,10.23990931507349,1.1189163511574267,1.874518299474567
1772561581832085200,1.418085205078125,11.124384457671642,2.5146350890025495,2.6399936992913484
1772561581842151200,1.428151123046875,8.70758225865066,3.0752059019982814,4.290826139107346
1772561581852218000,1.438218017578125,4.22972138980329,2.589102008704841,4.0631989944770925
1772561581862284300,1.4482841796875,0.1646089629203081,2.249516125845909,1.5447297341391444
1772561581872351200,1.458351318359375,-1.814803689354658,1.201472177030146,-2.1208510213576255
1772561581882417200,1.468417236328125,-0.2202314814209938,0.23966478842645883,-5.338241434630751
1772561581892483300,1.4784833984375,3.657825172933936,0.15024901365637777,-7.107930555495619
1772561581902550300,1.48855029296875,7.741127921023964,0.9956836469814181,-6.960375018706918
1772561581912616200,1.4986162109375,11.041873347723483,1.7275860091507433,-5.158548299825191
1772561581922683100,1.50868310546875,12.734023301833867,1.9219032971143721,-3.259605607059598
1772561581932749300,1.518749267578125,12.9092349073112,2.416495325028896,-2.315934471388161
1772561581942816300,1.528816162109375,11.29891567966938,3.282254076719284,-2.1100512487933036
1772561581952882200,1.538882080078125,9.357717314976453,4.046841733916104,-2.202745314581692
1772561581962949400,1.548949462890625,8.18219118784666,4.4640833956465125,-2.948878446677327
1772561581973015300,1.559015380859375,8.499808107742666,4.9815340288400645,-3.809864577138424
1772561581983082200,1.569082275390625,10.08380689921379,5.3304409900128835,-4.022363710741699
1772561581993148400,1.5791484375,11.216326243788004,5.396523527729511,-3.634678106102347
1772561582003215400,1.58921533203125,11.435345426809787,5.471711162921786,-3.3096494486451147
1772561582013281000,1.599281005859375,11.249046610128879,5.7514569095849986,-3.656836161896586
1772561582023348200,1.60934814453125,11.271496926867961,5.783558851766586,-3.5452485950678585
1772561582033414100,1.6194140625,11.533965960037708,5.6954135353237385,-2.4369910005688666
1772561582043481000,1.629481201171875,12.019434770298004,5.964753623306751,-1.1062535612002014
1772561582053547300,1.63954736328125,12.786140442562102,6.085587157386541,0.006501710044220089
1772561582063614200,1.6496142578125,14.03019474699497,6.215612298181653,1.2336571213200687
1772561582073680100,1.65968017578125,15.384513260698318,5.934530334478616,2.136454979333281
1772561582083747000,1.6697470703125,15.778405026501416,5.600494779223204,2.2435037336885926
1772561582093813200,1.679813232421875,14.331700490045547,7.151319615367054,3.1909289611965415
1772561582103880200,1.689880126953125,12.932404185974598,7.9675120798557995,6.810155231145024
1772561582113946000,1.699946044921875,11.622193694067,5.504706839072704,11.208078639924526
1772561582124013300,1.710013427734375,8.551056064420939,1.8480144695609806,12.949829952549933
1772561582134079200,1.720079345703125,4.485633256414532,-0.5281273273674771,10.071561165624857
1772561582144146200,1.730146240234375,1.1710983738154173,-1.2571448182828724,4.115610441976785
1772561582154212400,1.74021240234375,-1.0571662896871565,-2.17078307313174,-0.4951953275699168
1772561582164279300,1.750279296875,-2.3468682465732096,-3.8944349577039477,-1.692786644578725
1772561582174345200,1.76034521484375,-3.6114877846509215,-4.952911745467782,-0.9745223471395671
1772561582184412200,1.770412109375,-4.675954752740264,-5.3381847360074515,0.336695129853487
1772561582194478300,1.780478271484375,-7.640266915392875,-6.14991203778088,1.5028978405818343
1772561582204544300,1.790544189453125,-11.561510969567298,-7.815759675899147,0.9982597810797392
1772561582214611200,1.800611083984375,-15.030682287126778,-9.188225840711594,-0.703843850159645
1772561582224677400,1.810677490234375,-17.926797696387766,-9.814815770798921,-2.0852349335752427
1772561582234744300,1.820744384765625,-21.89526176689863,-11.582180832630396,-3.6107033562749624
1772561582244810000,1.83081005859375,-27.8347313113451,-13.422304841202497,-4.2660932643890375
1772561582254877400,1.84087744140625,-31.66492789789438,-13.660940578842162,-3.3171073634356256
1772561582264943000,1.850943115234375,-34.7230949868083,-11.163305432218312,-1.4550149764224887
1772561582275010000,1.861010009765625,-40.47708872139454,-6.0183694781601424,0.07368179720658809
1772561582285076200,1.871076171875,-43.03945966730117,-2.372499823696911,1.0085136101990937
1772561582295143200,1.88114306640625,-42.10611849472522,2.099373056782037,3.309660554561019
1772561582305209000,1.891208984375,-42.21808015556335,5.97915332005918,6.312012232750654
1772561582315276000,1.901276123046875,-42.74285455577373,7.390507141670584,5.277008675032854
1772561582325342200,1.91134228515625,-40.40607164988518,9.354047102031112,-0.5848712876461446
1772561582335409200,1.9214091796875,-35.79858486869335,11.579024414426087,-5.658392841440439
1772561582345475000,1.93147509765625,-32.02375653362274,12.493123126393556,-7.19101508141756
1772561582355542300,1.941542236328125,-22.703957153630256,10.78609358305931,-9.299526991814375
1772561582365608200,1.951608154296875,-9.551417932346462,9.837863468909264,-11.019410171502829
1772561582375675100,1.961675048828125,-1.3791267917454242,12.874370514678954,-4.917579735323787
1772561582385741300,1.9717412109375,2.8874942959100007,13.692812219399213,5.006131879001855
1772561582395808300,1.981808349609375,10.174750321942566,13.05260059119463,8.330228370672463
1772561582405874200,1.991874267578125,15.71312445281744,13.833100980055331,6.914519860982894
1772561582415941000,2.001941162109375,17.28321337687969,13.842121321856975,5.039130477762222
1772561582426007300,2.01200732421875,19.986143132555483,12.350339626312255,5.394207652002573
1772561582436074200,2.02207421875,20.100912836551664,8.418389469206332,4.297126116034388
1772561582446140400,2.032140380859375,17.79779371533394,6.071280399614572,1.552125105087459
1772561582456207400,2.042207275390625,16.348489225512743,4.553098772922158,-2.06092481431365
1772561582466273300,2.052273193359375,16.76151823798418,4.180257393932342,-4.5692344996869565
1772561582476340200,2.06234033203125,16.243552348744867,4.759954055419564,-4.412297971090674
1772561582486406400,2.072406494140625,14.801290178650616,4.17835945135653,-1.8227613703608512
1772561582496472000,2.08247216796875,15.1833091358304,3.9701474935531613,0.9491710482619702
1772561582506539000,2.0925390625,17.207861491036414,5.345012536200881,2.0200787169232965
1772561582516605200,2.102605224609375,18.434861784815787,7.190564999562501,2.533235452315211
1772561582526672100,2.112672119140625,17.633110518133638,7.95930480800271,3.420428621700406
1772561582536738000,2.122738037109375,16.131292581743,7.706601966565847,4.27110612411499
1772561582546805200,2.13280517578125,14.66616391532421,7.126824056535959,4.246018152348697
1772561582556871200,2.14287109375,12.085085930860043,7.053429149979353,3.94321915461719
1772561582566938000,2.152938232421875,7.311306179183721,6.544098987138271,4.344807904663682
1772561582577004300,2.16300439453125,4.5095337719619275,5.755443348872661,3.9847181629583237
1772561582587071200,2.1730712890625,5.160840794676542,5.961832182902097,1.775310175617039
1772561582597137200,2.18313720703125,5.386258738824725,5.735861865568161,0.26867378782769663
1772561582607204000,2.1932041015625,6.3779591613888735,5.329985647460818,-0.12498557572532444
1772561582617270300,2.203270263671875,7.579991602650284,5.4152498555094,-0.4839751741690561
1772561582627337200,2.213337158203125,8.421501463747024,5.48776154949069,-1.1692280498988925
1772561582637403100,2.223403076171875,8.798845414853096,5.11625112684369,-2.3843467672266065
1772561582647470300,2.23347021484375,8.235359298932552,4.712726148037612,-3.741825352396071
1772561582657536300,2.243536376953125,6.9286091766119,4.715844864580035,-4.7106204079300165
1772561582667603200,2.253603271484375,5.45919011952281,5.1539481125533575,-5.22229567259252
1772561582677669400,2.26366943359375,4.556842051103711,5.988839432293176,-5.53112313683331
1772561582687736300,2.273736328125,4.950418759608269,6.428847052583098,-5.535029496622085
1772561582697802200,2.28380224609375,7.0524974220871925,5.548503310701251,-5.736679027169942
1772561582707869200,2.293869140625,9.294739757537842,5.406031360787153,-6.117589146324992
1772561582717935400,2.303935302734375,9.131081227210164,6.822451818138361,-4.251213675165176
1772561582728002300,2.314002197265625,8.92181596096158,6.244502877101302,0.9835901813447475
1772561582738068200,2.324068115234375,10.466142667257785,3.002794453521073,6.314747795194387
1772561582748135400,2.334135498046875,11.165130309557915,-0.5623146975209936,9.960198055201769
1772561582758201000,2.344201171875,8.818133468168973,-3.5015921164318917,11.445901892137528
1772561582768268000,2.35426806640625,4.87342787438631,-4.978617264610529,9.953486574864387
1772561582778334200,2.364334228515625,2.4348487278431654,-6.806071176701784,6.333098275399208
1772561582788401200,2.374401123046875,1.7173937009602784,-10.076557658737897,3.4357284821629523
1772561582798467000,2.384467041015625,1.4796587115526199,-12.337593541985749,2.680717339345813
1772561582808534300,2.3945341796875,0.6272849266141652,-13.675462440669536,4.012627037364244
1772561582818600200,2.40460009765625,0.19192133273780346,-14.231991577059029,6.134702193689346
1772561582828667100,2.414667236328125,-0.6350310106962919,-13.351224641329049,7.1876499888986345
1772561582838733300,2.4247333984375,-5.807708958160877,-11.40167579692006,7.229132338365912
1772561582848800300,2.43480029296875,-13.007157521402835,-8.740616513246298,6.985937914508581
1772561582858866200,2.4448662109375,-20.827707354187964,-5.917296875604987,6.999220589929819
1772561582868933000,2.45493310546875,-30.138243231272696,-4.433420254096388,5.81663694550395
1772561582878999300,2.464999267578125,-36.61753276937008,-4.1321301996231075,2.1144982913300394
1772561582889066200,2.475066162109375,-38.51465701453686,-2.7608678576424714,-2.0102911901414395
1772561582899132200,2.485132080078125,-38.67969793913364,0.018465083027817308,-3.8213364037454127
1772561582909198300,2.4951982421875,-41.14309296250343,3.798711022700369,-2.4105125973574815
1772561582919265300,2.505265380859375,-43.98241505591869,8.543034086006879,-0.2256782025195658
1772561582929332200,2.515332275390625,-43.55993666257858,12.058446930259466,-0.108094573613815
1772561582939398400,2.5253984375,-40.22519252016544,12.322565484201908,-2.049625567794591
1772561582949464300,2.53546435546875,-34.80971411659717,11.359081686818598,-3.9266795232266185
1772561582959531300,2.54553125,-27.209264832329747,7.726050763401389,-4.2224917308107015
1772561582969597400,2.555597412109375,-22.98976030063629,3.380690193291008,-0.9641332012027501
1772561582979664400,2.565664306640625,-15.889652401590347,-0.513506864003837,-2.210382677592337
1772561582989730000,2.57572998046875,-8.980873130086064,-1.4843486229345202,-7.24638684002757
1772561582999797000,2.585796875,-4.2139252702564,0.42622634769678114,-11.639137814605235
1772561583009863200,2.59586328125,-4.459017636689543,3.7425305780559777,-11.699963162446021
1772561583019930000,2.60593017578125,-3.686294311571121,6.022840486094355,-7.010144135004282
1772561583029996000,2.61599609375,2.427738019055128,7.056493798246979,-0.8256395072698592
1772561583040063200,2.626063232421875,8.285335335978866,8.280728134444356,4.116422050620615
1772561583050129200,2.636129150390625,9.25068901888728,8.979614069935678,6.370714012566208
1772561583060196000,2.646196044921875,8.292936458632349,8.593487677437066,5.409625001364946
1772561583070262300,2.65626220703125,9.170675570973753,7.665996984454989,2.282378823266923
1772561583080329200,2.6663291015625,10.672765310043095,7.357346045824885,-1.280827599426359
1772561583090395100,2.67639501953125,8.44709709277451,6.980162838238478,-3.399771325857937
1772561583100462000,2.686462158203125,8.19397514914274,6.859867648819089,-2.6439415601342917
1772561583110528300,2.6965283203125,13.415263690519332,7.645954897901415,0.7698373944185674
1772561583120595200,2.70659521484375,19.192750528895854,8.372024608394502,4.751145310541987
1772561583130661400,2.716661376953125,23.878429972314834,8.582521462264657,6.871020910996198
1772561583140728300,2.726728271484375,24.78405077879429,7.700214311355352,5.406006810867786
1772561583150794200,2.736794189453125,20.244347494018076,7.447441911813616,2.3683529331505295
1772561583160861200,2.746861083984375,14.260453116911648,7.059156879976391,0.653428106521815
1772561583170927400,2.75692724609375,10.797622692811489,6.551680820569396,0.44703474244773383
1772561583180994300,2.766994384765625,9.366791432791947,6.2826943683296435,0.6427366166375577
1772561583191060200,2.777060302734375,9.133523944187164,5.674637289276719,0.7980193136122077
1772561583201127200,2.787127197265625,9.513215335202217,5.336529954537749,0.841821192068234
1772561583211193300,2.797193359375,11.046067876803875,4.864311086472869,1.1192578580714763
1772561583221260300,2.80726025390625,11.705995428347586,3.721529291081428,0.7036930435121059
1772561583231326200,2.817326171875,12.026271338319777,3.265228123116493,-0.1878671619761735
1772561583241393400,2.827393310546875,12.584190467762946,3.6567499449178573,-0.28278401838056744
1772561583251459000,2.837458984375,12.562037088143825,4.141244941709935,0.06450082148313523
1772561583261526000,2.847526123046875,11.497234604489803,4.867746906140447,-0.21787673498839139
1772561583271592200,2.85759228515625,9.067875706234574,5.549100107550621,-1.1093572263039648
1772561583281659100,2.8676591796875,7.188388824567198,5.3326732791095965,-1.8469694905526934
1772561583291725000,2.87772509765625,6.249725580185651,4.525888694435357,-2.43490454968363
1772561583301792300,2.887792236328125,5.1610219964623445,4.464304052659869,-2.1587793316051362
1772561583311858200,2.897858154296875,3.898313844963908,4.610390393678844,-1.0208465836800635
1772561583321925000,2.907925048828125,2.6924130378365514,4.342027626295388,0.17862813592255114
1772561583331991300,2.9179912109375,2.516169751223922,3.587532616306841,0.4360134360872209
1772561583342058200,2.928058349609375,3.3284692999273537,2.8016718694567677,-0.3671671327456832
1772561583352124200,2.938124267578125,4.392784292325377,2.3171721964895724,-1.3454577463775872
1772561583362191000,2.948191162109375,5.079394099089503,1.6802312605187295,-1.643240815643221
1772561583372257300,2.95825732421875,5.045506442534923,1.2658892657525838,-1.0990421685166656
1772561583382324200,2.96832421875,4.523744668143987,0.9923356517277657,0.22030469278767703
1772561583392390100,2.97839013671875,3.909451909571886,0.4375068895153701,1.5509531386986375
1772561583402457300,2.988457275390625,3.070958181425929,-0.17752660442143678,1.8763275408536195
1772561583412523300,2.998523193359375,1.6514613853693008,-0.5521184803403913,1.4243208552122115
1772561583422590200,3.008590087890625,-0.7070470301151275,-0.938658422075957,1.5432310200139878
1772561583432656400,3.018656494140625,-2.7163714210510252,-1.9462990488328038,1.559132061240077
1772561583442723300,3.028723388671875,-3.8811160419255493,-3.046466421987116,1.1588450414419174
1772561583452789200,3.038789306640625,-5.033753460898995,-3.9202114962562917,0.9786980253890156
1772561583462856200,3.048856201171875,-5.615847246655822,-4.686834458673,0.8231850998550653
1772561583472922400,3.05892236328125,-5.689675868454575,-5.35933858319521,0.19544512294977903
1772561583482989300,3.0689892578125,-7.179169745323062,-5.9035319696247575,-0.7950541071310638
1772561583493055200,3.07905517578125,-10.84845973060131,-6.476040765434504,-2.0762483479127285
1772561583503122400,3.089122314453125,-15.092922177940606,-8.005753255444764,-2.438711540751159
1772561583513188000,3.09918798828125,-16.63288367476463,-9.649096800810097,-0.4240536798328161
1772561583523255000,3.109255126953125,-16.117071164166926,-9.625515434214472,1.4982427082523702
1772561583533321200,3.1193212890625,-17.39246753232479,-8.291796056425571,-2.1323821769364177
1772561583543388200,3.12938818359375,-28.23143696552515,-6.830573749795556,-7.452836464333534
1772561583553454000,3.1394541015625,-33.4997514619708,-6.678016459196805,-6.277037365481257
1772561583563521000,3.14952099609375,-29.21865468971729,-4.372755065253377,-1.5717038119129836
1772561583573587200,3.159587158203125,-26.241039393377303,-2.3412582977369425,3.147474142612517
1772561583583654100,3.169654052734375,-23.87746668024063,-2.305667928917706,4.500301833236217
1772561583593720300,3.17972021484375,-20.621046132957932,-1.3188421266525983,2.24410579123497
1772561583603787300,3.189787353515625,-17.748282373189927,-1.0442553701877593,0.14755312563590706
1772561583613853200,3.199853271484375,-10.23114382481575,-2.2576327968060967,-0.03531476674824953
1772561583623920000,3.209920166015625,-3.7386820859342813,-3.5443197897851464,2.1277869581006468
1772561583633986300,3.219986328125,-3.4885903037786483,-2.5023615906238557,4.237525049291551
1772561583644053200,3.23005322265625,-5.421822804158926,0.39255554876327514,2.1880646089307962
1772561583654119200,3.240119140625,-5.4035202547490595,2.3596306975126264,-1.0912798639521002
1772561583664186000,3.25018603515625,-3.1427281171292063,3.0149715057879685,-2.573131993895769
1772561583674252300,3.260252197265625,1.2911521556943655,2.804933501601219,-2.2894750651381908
1772561583684319200,3.2703193359375,6.54279550332427,3.094891430199146,-1.6293557904146612
1772561583694385200,3.28038525390625,10.137676436567306,3.5711996134042736,-1.951336166217178
1772561583704452000,3.2904521484375,11.179158834910393,3.455865845784545,-3.28994463122189
1772561583714518000,3.30051806640625,10.406273597228527,3.4558722755253313,-4.697067098873854
1772561583724585000,3.3105849609375,8.743570102354884,3.95944548227489,-5.01843255764842
1772561583734651100,3.320651123046875,6.603432050594687,4.9078193888098,-4.293082978123426
1772561583744718000,3.330718017578125,5.180788188683986,5.622718885990977,-2.738440337257087
1772561583754783700,3.34078369140625,6.553294100984931,5.205461442169547,-0.7367490715481341
1772561583764851000,3.350850830078125,11.17385020710826,4.392621795240045,0.8452009706996381
1772561583774916900,3.360916748046875,15.969575248610973,4.359602738213539,1.7085491541169582
1772561583784983800,3.37098388671875,18.632101682227848,5.0107221294015645,2.8447619463816283
1772561583795050000,3.381050048828125,18.707831169211865,5.401329466706514,4.073054618059098
1772561583805117000,3.391116943359375,15.790629717302322,5.220735583668947,3.7510873939990996
1772561583815182800,3.401182861328125,11.338297257465124,5.229270772302151,2.155745662997663
1772561583825249800,3.411249755859375,7.46043407985568,4.984468328726291,1.154912085907161
1772561583835316000,3.42131591796875,6.273853474748134,3.9880177890256046,0.5218170117095112
1772561583845383000,3.4313828125,7.552795552688837,3.1000343460455535,0.25910087191089987
1772561583855449000,3.441448974609375,9.03513254354,2.843478044050932,0.8005151490159332
1772561583865516000,3.45151611328125,11.456465371727942,2.863458463545143,1.9800845601871608
1772561583875582000,3.46158203125,12.87284958872199,2.6053061245307325,2.5487328811764716
1772561583885649000,3.47164892578125,11.7776613191545,3.0434912055686114,2.3398345485441387
1772561583895715000,3.481715087890625,10.127377160871028,3.4173204265519974,1.9112074233159422
1772561583905782000,3.491781982421875,8.275632272610068,3.37832784807384,1.6961083363473415
1772561583915848000,3.501847900390625,6.060332889142632,3.5009921047121284,1.4857688649959861
1772561583925915000,3.511914794921875,3.525381280559301,3.5495769796609875,0.7296760644219815
1772561583935981000,3.52198095703125,1.1927303599089383,3.2953602265298363,-0.5284196248449385
1772561583946048000,3.532048095703125,0.14863047254383563,2.600383573436737,-1.5839349324546754
1772561583956114200,3.5421142578125,0.3885036430239677,2.0223178741522134,-1.5515008357092737
1772561583966181000,3.55218115234375,0.922034765663743,1.5029332041561603,-0.8588200384683906
1772561583976247000,3.5622470703125,0.9246732974737882,0.9714857559226453,-0.3739334120102227
1772561583986314000,3.57231396484375,0.5181067590147257,0.5935653201028704,-0.4391729230314493
1772561583996380000,3.5823798828125,0.4591629871368408,0.27669702661707996,-0.8160460417553782
1772561584006447000,3.592447021484375,1.358076989454031,-0.46137364892363547,-0.6826297972172498
1772561584016512800,3.6025126953125,2.792973599216342,-1.5915917308181524,-0.2076040550380945
1772561584026580000,3.612580078125,3.9070869340062138,-2.573922852012515,0.2768985405385494
1772561584036646000,3.62264599609375,4.609020566630363,-3.447180142764747,0.7174576572313904
1772561584046712800,3.632712890625,4.116116637933254,-4.388510852789879,0.9040295917652547
1772561584056779000,3.642779052734375,2.316203059196472,-5.199564200824499,0.3893807181194424
1772561584066846000,3.652845947265625,0.6031880117118358,-5.881488480120897,-0.0362833195194602
1772561584076911900,3.662911865234375,-1.4349118073314429,-6.888591054478288,-0.004824059155583382
1772561584086978800,3.672978759765625,-3.9236324106156824,-8.008388280123471,0.39294337903708215
1772561584097045000,3.683044921875,-5.282020365715026,-8.913351499477029,1.3593839803993701
1772561584107112000,3.69311181640625,-7.035560315811634,-9.049414166870713,2.5253964292526243
1772561584117177900,3.703177734375,-11.665366480839252,-8.650463364112376,3.1015263381689784
1772561584127245000,3.7132451171875,-17.003253110682962,-8.17102214357853,2.4446381543211637
1772561584137311000,3.72331103515625,-19.8603727265954,-7.942436675310135,0.3795153768610209
1772561584147378000,3.7333779296875,-20.208167927134035,-8.711765681815146,-2.163765011063218
1772561584157444000,3.743444091796875,-22.327108877086637,-8.171049031585454,-3.6786063874170183
1772561584167511000,3.753510986328125,-27.612323070406912,-6.787901898282766,-3.3816949864193795
1772561584177577000,3.763576904296875,-29.610483093249798,-6.753418613922595,-0.5797575248289853
1772561584187644000,3.773643798828125,-28.23982836177349,-5.376797082996368,1.3914233787387609
1772561584197711000,3.783711181640625,-28.251406571364402,-2.428080841143429,1.899379622878134
1772561584207777000,3.793777099609375,-27.29322088038921,-0.8572977973371744,1.5388345386207103
1772561584217844000,3.803843994140625,-25.601955892419813,1.1318263938739894,-0.5484095062872395
1772561584227910100,3.81391015625,-22.504700655698773,2.3623124839425085,-2.633960848867893
1772561584237977000,3.82397705078125,-19.037768056976795,2.8175889850348232,-3.3460566868051886
1772561584248043000,3.83404296875,-12.898610637444257,3.6459932808429,-3.436441306607425
1772561584258110000,3.84410986328125,-5.151334715184569,3.856063433733582,-1.8496958467766642
1772561584268176100,3.854176025390625,0.9708230542302131,3.8699201096504923,1.7002447054997085
1772561584278243000,3.8642431640625,4.571954864561557,4.596629871612787,4.378391025313735
1772561584288308700,3.874308837890625,7.017395713567733,5.947233164185286,4.3813814393013715
1772561584298376200,3.884376220703125,9.478920266890526,6.694322866353392,2.6251646712109444
1772561584308441900,3.89444189453125,10.358105486387014,6.729639094406366,-0.15749533152282236
1772561584318508800,3.9045087890625,9.403364967429637,6.555355125167965,-2.5533397904500363
1772561584328575000,3.914574951171875,9.161620742380618,5.750474328288435,-3.1657930586352943
1772561584338642000,3.924641845703125,9.260971927970647,4.93314613776803,-2.3530136174604297
1772561584348707800,3.934707763671875,9.039954264608024,4.8865772788166995,-1.4610370131909847
1772561584358774800,3.94477490234375,8.753322850084304,5.745369698625803,-1.0316561469860375
1772561584368841000,3.954841064453125,7.713338581344485,6.6947121579319235,-0.3162783647686243
1772561584378908000,3.964907958984375,6.568789191758632,6.438852898290753,0.9502369239278137
1772561584388973800,3.974973876953125,7.963342100694775,5.423994887501001,1.4705014454983174
1772561584399041000,3.985041015625,11.579884830647707,5.4372506749153136,0.7773707125328481
1772561584409107000,3.99510693359375,15.752369252490997,6.36106881686449,0.10642989180460571
1772561584419174000,4.005173828125,19.17460696943998,6.961369874963164,0.45471214520782227
1772561584429240000,4.015239990234375,19.968305862569807,6.85579820742309,1.2590490444689988
1772561584439307000,4.02530712890625,18.049998544120786,6.970913363856077,1.7917032381437719
1772561584449373000,4.035373046875,14.273558097678421,7.361804194277524,1.4951812748551367
1772561584459439900,4.04543994140625,9.809279179459809,7.5981322394967075,0.9368396822161972
1772561584469506000,4.055506103515625,6.121813486021757,7.174429857319593,0.6534552867896855
1772561584479573000,4.065572998046875,5.044697464239597,6.310562618464231,0.5602573631323874
1772561584489639200,4.07563916015625,6.264432735452056,5.433671062862873,0.11563874191567301
1772561584499706000,4.0857060546875,7.8733473569929595,4.607428036741912,-0.7579347751788794
1772561584509772000,4.09577197265625,9.689222474971412,3.6344931049242613,-1.8438309002660214
1772561584519839000,4.1058388671875,11.362467237603664,3.047199120175838,-2.023403185170889
1772561584529905200,4.1159052734375,11.625490397524834,3.142498107765615,-0.9718139649637043
1772561584539972000,4.12597216796875,10.174060586112738,3.012627573010325,0.21228110693842173
1772561584550037800,4.136037841796875,7.617830042657256,2.845762355595827,-0.11338599455282092
1772561584560105000,4.14610498046875,4.032154160133004,2.7240041078865525,-2.3533676915951074
1772561584570172200,4.156172119140625,0.13215864569246769,2.320061049798876,-5.420186142867803
1772561584580237800,4.16623779296875,-2.8918086519777773,1.733607899788767,-7.404898655116558
1772561584590304800,4.1763046875,-4.41331153204739,0.7849963851056992,-7.0485869706451885
1772561584600371000,4.186370849609375,-4.663094686645269,-0.6323747970990836,-4.442716490229964
1772561584610438000,4.19643798828125,-3.8671506449371575,-2.5725106471270323,-1.061639635708928
1772561584620503800,4.20650390625,-3.1437726577460765,-5.1241345735698935,1.7632152486756443
1772561584630571000,4.216571044921875,-1.5256062237352133,-7.459871185275912,3.8365237437441944
1772561584640637000,4.226636962890625,0.3079033351331949,-9.338428092616796,5.216306076788902
1772561584650704000,4.236703857421875,-0.02934942860305309,-10.701063183766603,5.5099646134704345
1772561584660770000,4.24677001953125,-2.70368086630404,-11.108465588527917,4.212940058611333
1772561584670837000,4.2568369140625,-5.9947729139953845,-10.159756166428327,2.5229899526327846
1772561584680903000,4.26690283203125,-9.058624478286504,-8.459087974819541,2.205766708229482
1772561584690969900,4.276969970703125,-9.976257209599018,-6.423139780852198,4.059322445304692
1772561584701035800,4.287035888671875,-7.924005531084537,-4.827620062935352,6.705888216462731
1772561584711103000,4.29710302734375,-5.09530712301433,-3.9220717371702194,7.944717479723692
1772561584721168600,4.307168701171875,-3.315152722236514,-3.1559310053125023,7.205422376954555
1772561584731235800,4.31723583984375,-3.6396810289561747,-2.371090979812294,5.189849447017908
1772561584741301800,4.3273017578125,-7.987212221103906,-2.046242355097085,2.740624403297901
1772561584751368700,4.33736865234375,-14.406506432443857,-2.019326291120797,0.2861234650015831
1772561584761435000,4.347434814453125,-18.40960342491865,-2.1320517759382724,-1.1003729787290095
1772561584771501800,4.357501708984375,-15.767536426484584,-2.948092849257588,-0.36992315345555543
1772561584781567700,4.367567626953125,-8.698847163531184,-4.182869037735462,-0.10951119894608854
1772561584791634700,4.377634765625,-9.487745962902903,-3.7519583316147327,-2.773064199131727
1772561584801702000,4.387701904296875,-23.577141671407222,-4.5049438138231634,-2.8261241736680267
1772561584811767800,4.397767822265625,-31.31428958288431,-5.7825260015875095,0.20375483226403593
1772561584821833700,4.407833740234375,-31.749314154064653,-0.4940794022172689,2.9526503664314747
1772561584831901000,4.41790087890625,-31.900338243746756,3.757102708765864,5.320847232237458
1772561584841967900,4.4279677734375,-31.801907095611092,5.144772287929058,5.39729042044878
1772561584852033800,4.43803369140625,-28.2504432792902,6.370380250567197,1.8091902333870529
1772561584862100700,4.448100830078125,-23.86532031537294,5.283772177818418,-1.752117954469472
1772561584872167000,4.4581669921875,-15.610798050808906,3.2070117887303233,-4.947307934111357
1772561584882233900,4.46823388671875,-5.154498732173442,1.876039371562004,-7.276285719206928
1772561584892299800,4.4782998046875,3.2819390194207427,1.3812240562856197,-7.502902517750859
1772561584902367000,4.488366943359375,6.4473226204723115,2.5698925735831257,-5.367880786091089
1772561584912433000,4.498432861328125,6.570327068850398,4.463317964231968,-2.0625950856134296
1772561584922499800,4.508499755859375,6.673592213013768,5.3034793333292,0.5004959912613034
1772561584932566000,4.51856591796875,7.29525053191781,5.6612488153934475,0.17876608308851719
1772561584942633000,4.528633056640625,8.959884702593088,6.6463844726145265,-1.9800468585252762
1772561584952699000,4.538698974609375,10.164709404921531,7.073549562466144,-3.5428877111554145
1772561584962765800,4.548765869140625,10.83823878083825,6.482512591797113,-3.7893200940206646
1772561584972832000,4.55883203125,10.61085859670639,6.811441763824224,-3.3383781150013205
1772561584982899000,4.56889892578125,8.139048211690783,7.18905810213089,-2.8489970997333525
1772561584992964900,4.57896484375,4.802721184000372,5.8284863732516765,-1.777030861929804
1772561585003030800,4.58903076171875,5.128092955806851,3.122374772669375,-0.9942443348933011
1772561585013096700,4.5990966796875,9.232631384149194,2.5625129847258328,-1.6589814056105912
1772561585023164000,4.609163818359375,14.356168576347827,4.207900018617511,-3.084221859885752
1772561585033230800,4.61923095703125,18.773088362020253,4.564499872380495,-3.4987691679656505
1772561585043296800,4.629296875,20.946267098116873,4.231766924156248,-3.131087363696098
1772561585053363700,4.63936376953125,20.842633705163,4.5557706224799155,-3.143109809923172
1772561585063430000,4.649429931640625,19.180897594016788,5.66098285793364,-2.5137434008598327
1772561585073496800,4.659496826171875,15.31279943909645,6.284197758629918,-0.801981422176212
1772561585083562800,4.669562744140625,11.760657577383517,5.517089350783825,-0.08743716817349195
1772561585093630000,4.6796298828125,11.099050109928847,5.829570661357045,-0.33465397941470143
1772561585103696000,4.68969580078125,10.770828209388256,6.039133449247479,-1.5774482007838784
1772561585113762800,4.6997626953125,10.025925203609466,5.279546669077873,-2.676037072575092
1772561585123829000,4.7098291015625,9.616788522401452,4.412612443867325,-2.825817299675941
1772561585133896000,4.71989599609375,8.849718693000078,3.5092192503094672,-2.2984008605241772
1772561585143961900,4.7299619140625,7.889967067882418,2.446826896537095,-1.419839472014457
1772561585154028800,4.74002880859375,7.298803840485215,1.655581534039229,-1.4173318731077014
1772561585164095000,4.750094970703125,6.195536309358477,1.7757979591339825,-2.527094465342164
1772561585174162000,4.760161865234375,3.6387212440133094,1.952212656790763,-3.7719215077131985
1772561585184227800,4.770227783203125,1.6659423306643961,1.4396655777297913,-3.459300788669288
1772561585194295000,4.780294921875,2.336313534811139,-0.3952697030927986,-0.6595671937987208
1772561585204362000,4.790362060546875,3.727800626435876,-3.3957015922009943,3.240638456261158
1772561585214428000,4.800427978515625,4.231119566163421,-6.0562564334839575,6.2347887078166
1772561585224494800,4.810494873046875,3.7806630325734614,-8.458872870764136,7.902372960469126
1772561585234560800,4.820560791015625,2.0750345882087946,-10.053043512159585,9.546949262499808
1772561585244628000,4.8306279296875,-0.2937210805237293,-9.822945301240683,12.2018406711936
1772561585254693600,4.840693603515625,-2.7973686193048954,-8.939459754201769,15.201767168062924
1772561585264760800,4.8507607421875,-5.823372975760698,-7.675732781049609,17.349041063052415
1772561585274826800,4.86082666015625,-9.255984787207842,-6.208705003011226,17.482317899119852
1772561585284893700,4.870893798828125,-11.909773787617683,-4.622178738889098,15.81109382866025
1772561585294959900,4.8809599609375,-15.099555332344769,-3.072287968724966,13.44370886375904
1772561585305026800,4.89102685546875,-17.265771243691443,-1.5881570801943539,9.977048652237654
1772561585315092700,4.9010927734375,-17.410583034729957,0.05479815997313708,5.6733577708601945
1772561585325159700,4.91115966796875,-15.812499019283056,0.8708408772602677,0.8842495171487331
1772561585335225900,4.921225830078125,-14.444314477312563,0.8640936680223792,-2.8527380398273467
1772561585345292800,4.931292724609375,-15.755712717700003,0.47701121690794823,-4.3929123026192185
1772561585355359700,4.94135986328125,-19.881495009601114,-0.1274601126126945,-4.1011832726955415
1772561585365426000,4.951426025390625,-23.458911597824095,-0.4592898283869028,-3.7747125997364517
1772561585375492900,4.961492919921875,-24.00595862011909,-0.9202981511294841,-5.198434320011734
1772561585385558800,4.971558837890625,-24.11673253247738,-1.2158090376794337,-9.265839826267957
1772561585395625700,4.981625732421875,-25.891352680003642,-3.000007453151047,-12.78791622006297
1772561585405693000,4.99169287109375,-22.960599672603607,-4.610144894485176,-11.610026286411285
1772561585415758800,5.0017587890625,-20.824925029993057,-3.42976402080059,-4.970884624531865
1772561585425825800,5.01182568359375,-21.699206110835075,-3.3731545370891687,1.4703933089487253
1772561585435892000,5.02189208984375,-21.663571318352222,-2.6080992623805996,2.9337399142563343
1772561585445959000,5.031958984375,-21.118857707440853,-0.26619302212893964,-1.748527090370655
1772561585456024800,5.04202490234375,-19.660440521359444,2.6479367672502994,-7.778319879820942
1772561585466091800,5.052091796875,-18.21032354611158,2.8976100317329165,-11.417649611121416
1772561585476159000,5.062158935546875,-11.755723043590784,1.036286583265662,-14.488983640122413
1772561585486225000,5.072224853515625,-0.3784709093093872,1.4047761967867611,-14.087811069661377
1772561585496291800,5.082291748046875,10.039349333328008,1.5470377188205717,-5.806798273056745
1772561585506358000,5.09235791015625,13.565259021675585,2.3785201068997384,3.690890407189727
1772561585516425000,5.102425048828125,12.25478549491763,7.668257915124297,6.077072427019477
1772561585526491000,5.112490966796875,10.541129811441898,14.230389987081288,5.166216642495989
1772561585536557800,5.122557861328125,8.160678444218634,15.10197876009941,4.464751504166424
1772561585546624000,5.1326240234375,3.2514714004427194,11.046769303071498,0.46124198536798355
1772561585556691000,5.14269091796875,-0.1784212151736021,6.905547449976205,-5.855941950932145
1772561585566756900,5.1527568359375,0.9134107297033071,4.408303348496556,-10.207213498651981
1772561585576824000,5.162823974609375,4.938954531785845,4.080023872549831,-10.345270554733276
1772561585586889700,5.1728896484375,9.469023726776241,4.4390389707610005,-7.424842541992664
1772561585596956700,5.182956787109375,11.873127772265672,5.649267285698652,-4.743147882047295
1772561585607023900,5.19302392578125,11.672948898792265,5.974921966099739,-2.3734622389882802
1772561585617089800,5.20308984375,11.78116845049262,3.5262305908650156,-0.39397352580241857
1772561585627156700,5.21315673828125,14.25284381095171,2.177043887092173,-0.8364004091285169
1772561585637222700,5.22322265625,17.321501898741722,1.7237532991200684,-2.78956349851191
1772561585647289900,5.233289794921875,18.08915683455467,0.8079615194991231,-4.476386120119691
1772561585657355800,5.243355712890625,18.085441613423825,-0.07134148115813732,-5.617887228050828
1772561585667422700,5.253422607421875,19.321435360997913,-0.5704749518945813,-5.597025057286023
1772561585677489000,5.263489013671875,19.907756409060955,-0.32815438826233145,-3.5979894206523895
1772561585687555800,5.273555908203125,18.666219055885076,0.06998831298351288,-0.9400767644412815
1772561585697621500,5.28362158203125,16.237999390792847,0.10538403601348399,0.262824130217731
1772561585707688400,5.2936884765625,13.884751672315597,-0.13533055372685193,0.18831585559174419
1772561585717754400,5.30375439453125,12.671915512967109,-0.897812178555131,-0.8984696195505559
1772561585727821600,5.313821533203125,12.5536503680706,-1.6918546244256198,-2.949193503975868
1772561585737888500,5.323888427734375,13.177145839273928,-2.4252692908540365,-4.962398535737395
1772561585747954400,5.333954345703125,11.349916383588313,-2.696151055321097,-6.299764161074161
1772561585758021400,5.344021484375,7.173230418401956,-1.2844358530513942,-7.007565808948874
1772561585768087300,5.35408740234375,1.7957669804513454,1.211840134048462,-7.125238833171129
1772561585778154500,5.364154541015625,-4.996476161906123,4.460769741053879,-6.243475872141122
1772561585788220400,5.374220458984375,-9.55369932128191,5.959114156115055,-4.826342298084497
1772561585798287400,5.384287353515625,-11.242103659123181,6.012956220939755,-3.9038308548197147
1772561585808353500,5.394353515625,-12.546079640555382,5.815623969069123,-3.547458087810874
1772561585818420500,5.40442041015625,-11.498646809375286,3.598032675272226,-3.709476449716091
1772561585828486400,5.414486328125,-7.7643141508221625,-0.05592084386013448,-4.412917564293742
1772561585838553300,5.42455322265625,-3.6401048073261975,-2.5879092917889355,-4.620102809397876
1772561585848619500,5.43461962890625,1.136681724950671,-3.637483518911898,-3.706556178355217
1772561585858686500,5.4446865234375,5.064475346899032,-3.0873762322634457,-1.2930562357500195
1772561585868753400,5.45475341796875,7.662447183018922,-1.7311650366812943,2.1925974300548434
1772561585878819600,5.464819580078125,9.642472998756169,0.3501005914041772,5.99194616613686
1772561585888886500,5.474886474609375,10.397028799021243,2.012857679628581,9.122614427638053
1772561585898952400,5.484952392578125,9.564418868216872,2.7249814284861085,11.554896519863604
1772561585909019400,5.495019287109375,8.070041895481944,1.9235174543127416,12.563637509077786
1772561585919085600,5.50508544921875,5.878333815482258,0.40956462429650126,11.387077947247027
1772561585929152500,5.515152587890625,4.6584418924033635,-0.19291355864554643,9.102118167576194
1772561585939218400,5.525218505859375,4.806320085275173,-0.7173482785727828,7.250518825265765
1772561585949285600,5.53528564453125,3.4215444739878174,-2.084167596604675,6.437997742766141
1772561585959351600,5.5453515625,1.1169716468304396,-3.3514699440255757,6.822614315223693
1772561585969418500,5.55541845703125,-1.064064232507348,-5.63146041085124,8.227109356981515
1772561585979485400,5.5654853515625,-5.087164148569107,-10.22897992478013,10.445625948929786
1772561585989551600,5.575551513671875,-9.821789116942883,-13.747843786269426,11.289379789561032
1772561585999618600,5.58561865234375,-15.471104333436488,-13.274930506199597,9.44452056916058
1772561586009684500,5.5956845703125,-25.8865432338953,-13.593360496044157,8.05447783112526
1772561586019751400,5.60575146484375,-36.757488352549075,-15.067576139760016,8.452083649015426
1772561586029817600,5.615817626953125,-45.383027703285215,-7.76364662682414,6.962959774503111
1772561586039884500,5.625884521484375,-54.84733959910869,2.398996493217349,6.482338988795876
1772561586049950500,5.635950439453125,-62.0409476196289,7.259435122171044,7.418039876240491
1772561586060017700,5.646017578125,-60.692044116711614,10.361874483531713,3.5873064063355327
1772561586070083300,5.656083251953125,-50.73472307825088,13.513035497963427,-3.1720161709338424
1772561586080150300,5.666150390625,-37.601993888330455,12.486302924984694,-4.994381819975376
1772561586090217500,5.676217529296875,-21.430702473676202,9.132797968000173,-2.5764842269331214
1772561586100283400,5.686283447265625,-6.553625524896383,4.950480718928575,-1.6401397808879612
1772561586110350300,5.696350341796875,-0.8733867623507976,3.1620746226340533,-2.502326811571419
1772561586120416500,5.70641650390625,0.16865853057205676,2.7889018197327853,-4.018821800351143
1772561586130483500,5.7164833984375,1.2703881846070288,3.4993431684613228,-6.485942566245794
1772561586140549400,5.72654931640625,3.4834073481827974,4.775671849033237,-8.493293611282109
1772561586150616300,5.7366162109375,7.085901679039001,4.94295558412075,-9.565178746673464
1772561586160682500,5.7466826171875,10.798508827996253,4.1995758423864835,-10.584894134366511
1772561586170749400,5.75674951171875,13.393795370554923,4.258426675283909,-11.106519130635261
1772561586180816400,5.76681640625,14.833192214345932,6.450259842967987,-9.68141384704709
1772561586190882600,5.776882568359375,14.707854354584216,9.717606273412704,-7.322285253837705
1772561586200949500,5.786949462890625,13.344742293572425,13.025707908093928,-5.39165796751976
1772561586211015400,5.797015380859375,11.182068584877252,14.818006335651873,-3.927327758002281
1772561586221082400,5.807082275390625,9.37861046540141,13.627218341982363,-3.238381617245078
1772561586231148500,5.8171484375,9.62831646310985,9.791308638483285,-4.569959891352057
1772561586241215500,5.827215576171875,11.84614624183774,6.4757531806647775,-7.415956640225648
1772561586251281400,5.837281494140625,14.918464605700969,4.467009219965338,-10.137909076279401
1772561586261348600,5.8473486328125,18.019898004889487,2.6548873170405627,-12.009075873368978
1772561586271414500,5.85741455078125,20.58826614538431,2.811476055112481,-12.734286336684226
1772561586281481500,5.8674814453125,22.57568967015743,5.223366516694426,-11.540567550259828
1772561586291548400,5.87754833984375,22.63871048221588,7.756091096878051,-8.524894033682346
1772561586301614600,5.887614501953125,20.804726291573047,8.591991885921358,-5.3873032794415945
1772561586311681500,5.897681640625,17.550092043185234,7.6421391390055415,-4.171494241762161
1772561586321747500,5.90774755859375,13.700041586130856,5.855342231473326,-4.639004786005616
1772561586331814400,5.917814453125,14.489949270284175,4.87959078093022,-6.6925079258859155
1772561586341880600,5.927880615234375,14.846058710181712,4.862908526198566,-7.767204611566663
1772561586351947500,5.937947509765625,15.238321998000144,3.9353763321623205,-7.36582336679101
1772561586362013700,5.948013671875,14.809958638274669,3.2404841424822806,-5.849647819224
1772561586372080600,5.95808056640625,13.478289178752899,3.1609213609457014,-5.034785726556182
1772561586382147600,5.968147705078125,11.514596073657273,3.1464883464455604,-6.099966395872831
1772561586392213500,5.978213623046875,7.265987028032541,3.668360595473647,-8.789709337717294
1772561586402280400,5.988280517578125,0.7193956395566463,5.031332371231914,-12.005783846086263
1772561586412346400,5.998346435546875,-6.682770375725626,5.77491669562757,-14.785455480659007
1772561586422413600,6.00841357421875,-13.351300629174709,5.144465413936972,-16.013621311086414
1772561586432479500,6.0184794921875,-18.860688319540024,3.531748769764602,-16.08921752707958
1772561586442546400,6.02854638671875,-22.340248929166794,1.620322004609555,-15.022979457664489
1772561586452612400,6.0386123046875,-20.967267800569534,0.0540408387998119,-11.051394040262698
1772561586462679300,6.04867919921875,-15.138661015808582,-1.4107720762006937,-5.642095786634087
1772561586472746500,6.05874658203125,-9.318412309548258,-2.4143165196850895,-0.16021233539655805
1772561586482812400,6.0688125,-3.783013395091891,-3.0561954965800044,4.497725553007424
1772561586492879400,6.07887939453125,0.672237582540512,-2.3051095643825827,7.4367282100975505
1772561586502945500,6.088945556640625,2.435149172094464,-0.551338582009077,9.592648352879285
1772561586513012500,6.099012451171875,3.0786703632384538,1.2754774705700576,12.565579290795325
1772561586523078400,6.109078369140625,4.719355503049493,3.1742449528992176,16.127010374379157
1772561586533145300,6.119145263671875,6.154039931365848,4.707387417358159,19.020405418765545
1772561586543211500,6.12921142578125,5.214651879841089,5.252468108016252,20.122163714373112
1772561586553278500,6.139278564453125,2.7058541186898943,5.708386998665333,19.553063850224017
1772561586563345400,6.149345458984375,0.087502342364192,6.423444901278614,18.59298547737002
1772561586573411600,6.15941162109375,-2.796149306643009,5.963422666963934,18.21520196580291
1772561586583478500,6.169478515625,-6.574147503921389,3.714929162164032,17.594715613287686
1772561586593544400,6.17954443359375,-9.595925182592868,0.912019567605853,16.4837090123415
1772561586603611400,6.189611328125,-11.726508639544248,-2.7262051250621675,15.229183582776784
1772561586613677600,6.199677490234375,-12.594854485118388,-7.045085684525966,13.140838846617937
1772561586623744500,6.20974462890625,-13.839024524885415,-10.062793337279558,9.403076213616131
1772561586633810400,6.219810546875,-18.86705259387493,-12.598102088737487,5.452669777843356
1772561586643877600,6.229877685546875,-25.223767891705034,-15.351118356096743,2.7222897051841017
1772561586653944600,6.239944580078125,-31.54280958470106,-13.467895210510491,1.8334695191189645
1772561586664010500,6.250010498046875,-37.820857588529584,-8.3380872674793,2.9684228128418324
1772561586674077400,6.260077392578125,-41.235494182825086,-3.4995775617390867,3.7005481701120733
1772561586684143600,6.2701435546875,-41.07857109823227,0.24912556747198103,0.7545227747783064
1772561586694210600,6.28021044921875,-38.84292450778484,2.5527222430735823,-5.4447793168544765
1772561586704276700,6.29027685546875,-35.36255024368763,2.7096400669693947,-9.754054720366
1772561586714343700,6.30034375,-27.26461671719551,1.3835311641842125,-11.357395925688744
1772561586724411000,6.310410888671875,-13.989735310834645,-0.6088643037825823,-11.790934642225503
1772561586734476800,6.320476806640625,-1.9039035300433635,0.20838263819515704,-11.580652892410754
1772561586744543700,6.330543701171875,6.399070923000574,3.098668610650301,-9.890680866861343
1772561586754610000,6.34060986328125,10.846304013872146,4.092010955202579,-6.0316334488809105
1772561586764676900,6.3506767578125,12.98141050120592,4.160889845639467,-2.752500719052553
1772561586774742800,6.36074267578125,14.900674097466467,4.76100561029911,-2.1163253606267274
1772561586784809700,6.370809814453125,16.4198125864923,5.049392344057559,-3.1843627345487473
1772561586794876000,6.3808759765625,16.514188321757317,5.096872472634911,-4.743689733839035
1772561586804942800,6.39094287109375,14.417344637322426,5.9485015766859055,-5.670852510040998
1772561586815009800,6.401009765625,11.768733331811427,7.089492981529236,-6.308221023774147
1772561586825076000,6.411075927734375,9.563274374356865,8.713530353400111,-6.509780537950992
1772561586835143000,6.421142822265625,7.057720125171541,10.67777466263771,-5.920362692916393
1772561586845208800,6.431208740234375,4.3053579378068445,11.52674360756874,-5.088834127607941
1772561586855275800,6.44127587890625,1.8564052812874317,11.965229717379808,-4.0802705407872795
1772561586865342000,6.451342041015625,1.2975918333530425,11.172731432211398,-3.0093545426890254
1772561586875409000,6.461408935546875,4.884379476511478,9.0445123663038,-2.664629543375969
1772561586885475800,6.471475830078125,10.368368521726131,7.949207192358374,-2.8343527805700894
1772561586895542000,6.4815419921875,14.841220037978887,7.423026432481407,-2.783530648088455
1772561586905609000,6.49160888671875,16.448069543683527,6.845994021767377,-2.5851208301141857
1772561586915675000,6.5016748046875,15.455724393475055,6.868919554802775,-2.560351130516827
1772561586925741800,6.511741943359375,13.81889242196083,7.338226334813236,-2.2833422614715992
1772561586935808000,6.52180810546875,12.050019293653964,7.744802225622534,-1.6100088465183973
1772561586945875000,6.531875,9.588754852572082,7.5459981476336715,-1.3941700470983982
1772561586955940900,6.54194091796875,7.21518623059988,6.9538961780816315,-1.8420242892354726
1772561586966008000,6.552008056640625,5.819109473097324,6.133599785405397,-2.6520900875374673
1772561586976075000,6.562074951171875,5.516605366659164,5.110310046356916,-3.6040818923085927
1772561586986141000,6.572140869140625,7.867319182744621,4.143667784942687,-3.889119023378193
1772561586996207900,6.582207763671875,10.929961955767869,3.4551857545658944,-3.3965500257238745
1772561587006274000,6.592274169921875,10.489921017730236,3.659434946218133,-2.032254746276885
1772561587016341000,6.602341064453125,6.923896176615357,3.7882793527960774,-0.4544298942003399
1772561587026407000,6.612406982421875,2.503579734241962,3.487812889665365,-0.34082981850542127
1772561587036474000,6.62247412109375,-0.8768126451462507,3.2977178955718873,-1.97922341331318
1772561587046541000,6.632541015625,-2.3826468314409253,3.412686337010562,-4.422061240214109
1772561587056606700,6.642606689453125,-3.1497260131925344,3.549285595498979,-5.777289854499697
1772561587066674000,6.652673828125,-3.4577146885216234,3.0816005714714527,-4.867160338424146
1772561587076739800,6.66273974609375,-2.830247975599766,2.057933961934596,-2.0938518091425298
1772561587086806800,6.672806884765625,-1.4449422029584644,1.0818861587934194,0.7611775564923882
1772561587096872700,6.682872802734375,0.06477671581506729,-0.12810177151709795,3.0153572902351615
1772561587106940000,6.69293994140625,2.3508850809991357,-1.8271625279292463,5.024760007104278
1772561587117006800,6.7030068359375,6.1258987095087765,-3.4249013832002877,7.289379594057798
1772561587127072800,6.71307275390625,10.006980849164723,-4.794205284589529,9.870762698948383
1772561587137139700,6.7231396484375,12.07686287691593,-5.867169447389244,11.4987309805274
1772561587147206000,6.733205810546875,12.897933761096,-6.58660366539061,10.676129818040131
1772561587157272800,6.74327294921875,11.220762764930724,-6.436017382603883,8.032759335792065
1772561587167338800,6.7533388671875,8.360998771989346,-5.640240514156222,6.4020905630826945
1772561587177406000,6.763406005859375,5.3264615649878975,-5.015011351028084,7.061282786089182
1772561587187473000,6.773472900390625,2.497007954636216,-4.803214520475268,7.946780841994285
1772561587197538800,6.783538818359375,-0.5464776979744435,-4.882188688468933,6.785017867279052
1772561587207605800,6.793605712890625,-6.122411451914906,-5.230736753201485,4.51703523363322
1772561587217672000,6.803671875,-14.557608848059177,-6.376102719867229,2.414121873895824
1772561587227739000,6.81373876953125,-20.951530133211612,-8.50573282161653,1.0284162882819772
1772561587237804800,6.8238046875,-22.835065413486955,-11.27965100722909,1.1485989572376012
1772561587247872000,6.8338720703125,-20.591859785962104,-13.350171332883834,0.909005772742629
1772561587257939000,6.84393896484375,-21.099886464989183,-12.642190236788988,-3.341900151647627
1772561587268004900,6.8540048828125,-31.2131181961298,-12.377602896291016,-6.556236584177613
1772561587278071800,6.86407177734375,-38.54384336153269,-13.170225100100039,-5.387054273116588
1772561587288138000,6.874137939453125,-39.45355348315239,-7.298889765202999,-3.3960072971493003
1772561587298205000,6.884204833984375,-39.43158481245041,1.0152528553262352,-1.991964383073151
1772561587308270800,6.894270751953125,-39.934862835645674,6.417497391051054,-4.832076750083267
1772561587318337800,6.904337890625,-36.57355568047762,9.052006521451473,-11.296232724195718
1772561587328405000,6.914405029296875,-28.029606233191487,9.147290019211173,-14.84151229892373
1772561587338471000,6.924470947265625,-16.01047892140746,7.465084536010027,-10.26187798577547
1772561587348537900,6.934537841796875,-3.2065859645336863,5.431454555857181,-2.807048301798105
1772561587358604000,6.94460400390625,2.592387898507714,5.6242672844767565,1.8858505714803933
1772561587368671000,6.9546708984375,1.3215490475237368,7.981685566636919,0.350734395795688
1772561587378737000,6.96473681640625,-0.3040829000622034,8.45519038285911,-3.5308471447497602
1772561587388803800,6.974803955078125,0.8377963935315609,6.413973893100023,-4.658508527898788
1772561587398871000,6.98487109375,5.019261409687996,4.6367350875079625,-2.8509865199849007
1772561587408937000,6.99493701171875,8.373957037761807,3.762917824785411,-1.1852721528574823
1772561587419004000,7.00500390625,9.36171544470191,2.079076849336922,-1.808116612806171
1772561587429070000,7.015070068359375,9.59009983744025,0.6822051420643925,-3.299743556180596
1772561587439137000,7.025136962890625,9.53706441282332,0.9654057053565979,-4.162800063174963
1772561587449202700,7.03520263671875,9.056756930848955,2.366259175741672,-3.1808576490372418
1772561587459270000,7.045269775390625,9.077642482489347,2.414181495128572,-0.4981894678846001
1772561587469337000,7.055337158203125,10.944887137699126,1.550237391644716,1.7903570842318235
1772561587479402800,7.06540283203125,14.762535208320617,1.7956302023291586,2.8067484420686957
1772561587489470000,7.075469970703125,19.207579849237202,2.2355071819767356,2.2856807874217626
1772561587499536000,7.085535888671875,21.448635605251788,2.607291160868108,1.3852147333569824
1772561587509602800,7.095602783203125,20.557043324124813,2.7361510572761296,0.7866130265221
1772561587519668700,7.105668701171875,18.240176248061655,2.625870481392741,0.12495119853168725
1772561587529735700,7.115735595703125,14.857129554772376,3.1682185322165486,-1.2550130669511854
1772561587539803000,7.125802978515625,11.057283682823181,4.288232907743752,-2.570741007106006
1772561587549868800,7.135868896484375,7.979551477217674,4.984416306278109,-2.1237936506807804
1772561587559935700,7.145935791015625,5.678305164134502,4.572721757280826,-0.5897773259967565
1772561587570002000,7.156001953125,4.336099697551131,3.502657992097735,-0.4014882853467017
1772561587580068900,7.16606884765625,4.863137951040268,2.6821836125060914,-2.428621816152334
1772561587590135800,7.1761357421875,5.189595179995894,2.258315226112306,-4.40504989965856
1772561587600201700,7.18620166015625,5.880816279947758,1.2810507406577467,-4.918267133066058
1772561587610269000,7.19626904296875,6.472724188232421,0.3519920677065849,-4.199672873020172
1772561587620334800,7.2063349609375,7.429513456413149,-0.02439472880512476,-3.0866175228506325
1772561587630401800,7.21640185546875,8.50726193087995,-0.023236206419765947,-1.8779665402323007
1772561587640468000,7.226468017578125,8.844254582375287,0.0391065602466464,-0.8660735167279839
1772561587650535000,7.236534912109375,8.7941750849545,0.21972864646539092,-0.29934549627676604
1772561587660601900,7.246601806640625,8.364517009243368,0.6741815562151372,0.021004063453525304
1772561587670667800,7.256667724609375,7.29312462580502,1.1293746168076992,0.34456557096764445
1772561587680735000,7.26673486328125,5.903078380638361,1.4019285522706806,0.6456897673547267
1772561587690801000,7.27680078125,4.908824766460061,1.769995410335064,1.2919386298969386
1772561587700868000,7.2868681640625,4.590316450682282,1.9607520832076668,2.6074127414211627
1772561587710935000,7.29693505859375,4.8676463683754205,1.9260807289294897,4.173521071414649
1772561587721001200,7.307001220703125,5.9089820517241955,1.8483900248751044,5.549699827009439
1772561587731068200,7.317068115234375,7.248387658455967,1.6636362456791103,6.527580983057618
1772561587741134000,7.327134033203125,7.920758511987328,1.6998555600516496,7.340286189952493
1772561587751201300,7.337201171875,7.556676193514466,2.6619576938182115,8.62377058749795
1772561587761267200,7.34726708984375,5.596886525598168,3.8335283613204956,10.538597662615775
1772561587771334100,7.357334228515625,3.095961689779162,4.4934734485208985,12.00386778333187
1772561587781401000,7.367401123046875,0.2693570391178131,4.691010575313866,12.11308452937603
1772561587791467300,7.37746728515625,-1.7196335888415575,4.816017887946963,11.30902323218584
1772561587801534200,7.3875341796875,-2.3102251538306473,4.566800550538301,9.782146257862449
1772561587811600100,7.39760009765625,-2.504393388712406,4.256230626544356,9.261510272631048
1772561587821667000,7.4076669921875,-3.7791152186095713,2.5639494472697377,9.176969702681898
1772561587831734300,7.417734375,-4.374254948422313,-0.7064677689224481,7.8122484529078005
1772561587841800200,7.42780029296875,-3.655757134488225,-5.255461444613338,4.976708216118812
1772561587851867100,7.4378671875,-3.3648055186778305,-11.006785667729376,2.265847959704697
1772561587861933000,7.44793310546875,-6.146945004668831,-15.050558369463682,0.4291340518370271
1772561587872000000,7.458,-13.440645969057082,-16.754755319720505,-2.049374369512498
1772561587882067200,7.468067138671875,-21.079830349910257,-17.65338524439931,-5.888792665654421
1772561587892133000,7.478133056640625,-23.865219777607916,-16.347760911238193,-9.845780233383179
1772561587902200000,7.488199951171875,-25.856641432106493,-13.311136961090565,-11.764384488952158
1772561587912266000,7.498265869140625,-32.26208247466087,-9.119372669237851,-12.607727995216846
1772561587922333000,7.5083330078125,-37.37542618962526,-5.0066217083454125,-15.03907251433134
1772561587932399000,7.518399169921875,-38.064222108256814,-4.153514348435402,-20.055956088972092
1772561587942466000,7.528466064453125,-34.70282142958641,-4.6969624694556,-24.62541153793335
1772561587952533000,7.538532958984375,-28.756064066219327,-6.41166620067954,-25.636115351653096
1772561587962599000,7.548598876953125,-21.10145999791622,-8.26106189546585,-21.87786171928644
1772561587972666000,7.558666015625,-15.185795691949128,-8.456988956713676,-16.500295405483246
1772561587982732000,7.56873193359375,-12.576086656284332,-6.211033153697848,-13.307591251307725
1772561587992799000,7.578799072265625,-8.321336039164661,-3.851839678558707,-12.104382167482376
1772561588002866000,7.588865966796875,-3.1199282563000916,-2.5265061440601944,-9.38318025753498
1772561588012932000,7.59893212890625,1.4902940873354673,-1.4253893612265587,-4.713193765549361
1772561588022999000,7.6089990234375,4.5457869886040685,-0.07196808862388133,-0.6722741151586175
1772561588033065000,7.61906494140625,5.684759454840421,1.909847825400531,1.0243360332310198
1772561588043132200,7.629132080078125,5.50560934087038,3.7532778897807,1.5169263659343122
1772561588053198000,7.639197998046875,4.333792005130649,5.047920517939329,1.6437471577301621
1772561588063265000,7.64926513671875,3.2384324706494807,6.457476350218057,1.4149655823677778
1772561588073332000,7.65933203125,2.1427140397280455,7.817246115064621,1.0136427897810936
1772561588083398100,7.669398193359375,1.3549690865665673,8.978163286605477,0.9656965049967169
1772561588093465000,7.679465087890625,2.9498376470983025,9.09033771341145,1.809462620587647
1772561588103531000,7.689531005859375,7.858266107717156,8.125808206367493,3.1399308876261114
1772561588113598200,7.69959814453125,13.973871386748552,7.489843129691481,4.342650142107904
1772561588123665200,7.7096650390625,17.98848229140639,8.037557091462611,5.626700064581632
1772561588133731000,7.71973095703125,19.806444737052917,8.606791980168223,6.641738692635298
1772561588143798000,7.729798095703125,20.16544872934818,9.03104907361865,5.730422304862738
1772561588153864200,7.7398642578125,19.211499653029442,10.636014080750941,3.1642993129462003
1772561588163931100,7.74993115234375,17.516346425449846,12.10715280123949,2.318531940535456
1772561588173998000,7.759998046875,15.408561660283803,11.82430733499527,1.9655154982171952
1772561588184064300,7.770064208984375,13.40195178900361,10.963723940116166,1.232697190246731
1772561588194131200,7.780131103515625,12.855824804162978,10.43299326184988,-0.0015396306574344634
1772561588204197000,7.790197021484375,13.937489575290678,10.045338344609737,-0.6610226533040404
1772561588214264000,7.80026416015625,16.515156290006637,9.31105960869789,0.11065890767648816
1772561588224331300,7.810331298828125,19.28656979932189,8.46512959307134,1.794766278976202
1772561588234397200,7.820397216796875,19.86011553696394,8.020497235590218,3.2808331040054557
1772561588244464000,7.830464111328125,18.73793872270584,7.7169070874810215,3.5681028164327144
1772561588254530300,7.8405302734375,16.728682136309146,7.484726809591055,2.6309756955772636
1772561588264597200,7.85059716796875,14.174593865579366,7.221596097642183,1.6255723263531923
1772561588274664200,7.860664306640625,11.81468259755969,6.545279136833548,1.044088196927309
1772561588284730000,7.870730224609375,9.434685403844714,5.552281075674295,0.9162386466056108
1772561588294797000,7.880797119140625,7.536412573164701,4.007590796762704,0.7058148579716682
1772561588304863200,7.89086328125,6.41435149424076,2.229776090978831,0.18242460559606552
1772561588314930200,7.90093017578125,5.339560116013884,0.4628605264805257,-0.15363529509380458
1772561588324997000,7.9109970703125,3.836600608372688,-0.9033348874993622,0.15168459941744802
1772561588335063000,7.92106298828125,2.1359265715450046,-1.9016563356384635,1.1240680348321794
1772561588345130200,7.931130126953125,0.8332833000212907,-3.0051316642969845,2.5529054906859994
1772561588355196000,7.94119580078125,0.34928923848867416,-4.264520315983892,4.204754414068162
1772561588365263000,7.95126318359375,0.37788697194159027,-5.312981905689835,5.86305499780774
1772561588375330300,7.961330322265625,-0.5093664031982421,-5.9849330725044005,6.45051469451189
1772561588385396000,7.97139599609375,-2.9569664760649204,-6.129798055034875,5.57549127086997
1772561588395463000,7.981462890625,-6.629000791615248,-5.719654242610931,4.070966413608193
1772561588405529000,7.991529052734375,-10.33067621219158,-5.1582852649748325,2.7298276994735002
1772561588415596000,8.001595947265624,-11.644342397511005,-5.659717368042469,1.5762696585237979
1772561588425662000,8.011661865234375,-11.403950756114721,-7.026963752380013,0.3596124795824289
1772561588435729200,8.021729248046874,-12.512920882797241,-8.224343399399519,-1.397437816722691
1772561588445796000,8.031796142578125,-14.31707224523425,-8.81668268483877,-3.3311312126129864
1772561588455862000,8.041862060546874,-15.297849707245826,-9.409819842657447,-4.385798378960788
1772561588465929000,8.051928955078125,-16.09311745712757,-10.162015928053854,-3.204460350681841
1772561588475995100,8.0619951171875,-16.29584250795245,-11.05745202512741,-1.0544503087267278
1772561588486062000,8.07206201171875,-14.826521650540828,-12.643496058690546,-0.40511254025846716
1772561588496129000,8.08212890625,-20.019355666327474,-13.241557813429832,-2.869447767087817
1772561588506195000,8.09219482421875,-29.935521687579154,-12.547279079473018,-6.679165629231929
1772561588516262100,8.10226220703125,-33.05441826274395,-11.20976790818572,-10.75200075932145
1772561588526328000,8.112328125,-36.264530647838114,-9.011687955066561,-12.265488090717792
1772561588536395000,8.12239501953125,-40.50997158482075,-6.675225951695442,-12.065622520977257
1772561588546462000,8.1324619140625,-40.40689933288097,-3.995823202079534,-12.872927914655207
1772561588556528000,8.142528076171875,-35.2109322797656,-1.3665169010192155,-14.023237767463922
1772561588566595000,8.152594970703126,-27.231614611303804,0.8401222061306237,-15.283954452884196
1772561588576661000,8.162660888671875,-20.153971057522295,3.1465882996886965,-14.683071795505285
1772561588586728200,8.172728271484376,-10.910206284940243,4.612479767173529,-10.335704269486666
1772561588596795100,8.182795166015625,-2.0830723487138747,4.566415935134888,-3.4945766847118733
1772561588606861000,8.192861083984376,4.064553623956441,4.705306519430875,0.5008107562988996
1772561588616928000,8.202927978515625,8.149903367704153,6.8137441955477,1.1446452511757612
1772561588626994200,8.212994140625,10.01010102701187,8.897398728063703,2.0329171557083723
1772561588637061000,8.22306103515625,10.95407348371744,8.93571121532321,3.2002319193318485
1772561588647128000,8.233128173828124,12.010438978415728,8.850374526560307,2.720572087611258
1772561588657194200,8.2431943359375,11.145843425285815,9.978840796351433,1.4489724813878535
1772561588667261200,8.25326123046875,9.054891721498965,11.226781002306938,0.6344689928993582
1772561588677327000,8.2633271484375,7.822620793840288,11.283484301781654,-0.11017360837757587
1772561588687394000,8.27339404296875,7.548285381788015,10.36482631907463,-0.8637839444860815
1772561588697461200,8.283461181640625,6.6411787206649775,9.34640506284535,-1.0662661264657973
1772561588707526100,8.293526123046876,5.510929659110308,8.730462198978662,-0.62626902756989
1772561588717593000,8.303593017578125,7.513507498395443,8.174416462191939,1.5782573252096772
1772561588727659300,8.3136591796875,12.50346565670967,7.476662161079049,6.03527151312232
1772561588737726200,8.323726318359375,17.117312036061286,6.7194064542055125,9.153594087791442
1772561588747793200,8.333793212890624,19.32066028497219,5.362717704239487,8.026255945247412
1772561588757859300,8.343859375,17.673477599835394,4.428753431329131,4.5922734299689525
1772561588767926300,8.35392626953125,13.490692733252049,4.499296455585957,1.7793153196051716
1772561588777993200,8.3639931640625,9.281076558366417,4.875093761771917,-0.2708300342798233
1772561588788059100,8.37405908203125,5.963535479688644,5.35814206688702,-1.8712246647566555
1772561588798126300,8.384126220703125,3.522181023213267,5.929828440397977,-2.1522405774861575
1772561588808192300,8.394192138671874,3.0527509090840814,5.664113557174802,-1.3759963847652077
1772561588818259200,8.40425927734375,5.016929751870036,4.8019478615403175,-0.7696800118997693
1772561588828326100,8.414326171875,8.309004965379835,4.045902991761267,-0.7935328889131545
1772561588838392300,8.424392333984375,11.18587616046667,3.6546854136034845,-0.854224965763092
1772561588848459300,8.434459228515625,12.211904969090222,3.2309076281026003,-0.9853320565760135
1772561588858525200,8.444525146484375,11.148494816577434,3.1368776375353336,-1.6219629036843777
1772561588868592400,8.45459228515625,8.763730846852063,3.7365158478111025,-2.0526967919334766
1772561588878659300,8.464659423828126,6.511479158562421,3.7765184801146385,-2.7589795596778393
1772561588888725200,8.474725341796875,4.965575996729731,3.476770102125406,-3.9661215990379453
1772561588898792200,8.484792236328126,4.339727240398526,3.2298870528832078,-4.349529380227625
1772561588908858400,8.4948583984375,5.1464603871464725,2.8289357239574193,-2.6429946346729993
1772561588918925300,8.50492529296875,6.3255018289208405,2.0665318405404687,0.39547669690698384
1772561588928992300,8.5149921875,6.521432397300004,0.9379211938425898,3.2957948185548185
1772561588939058200,8.52505810546875,5.523397511017322,-0.8847823088511824,4.4588343890771265
1772561588949125400,8.53512548828125,4.912751584514975,-2.683888370597362,4.918395143359899
1772561588959191300,8.54519140625,3.8463247145295143,-3.925199513801932,7.03825262363553
1772561588969258200,8.55525830078125,3.4961639539033174,-4.92579752857089,10.447831934541464
1772561588979325200,8.5653251953125,4.055400011163949,-5.433593905973434,13.216108899396657
1772561588989391400,8.575391357421875,4.129434384667873,-4.9533174036592245,14.763788423252105
1772561588999458300,8.585458251953124,4.517577962207794,-4.408997175979614,15.13506153001189
1772561589009524200,8.595524169921875,4.157490850850939,-4.290972269579768,15.267184519869089
1772561589019590100,8.605590087890626,2.2081436664938927,-4.627641972731054,14.87135447947979
1772561589029657000,8.615656982421875,0.4086164567261934,-5.663495717537403,13.187453298276662
1772561589039724000,8.62572412109375,-1.5543541793137787,-7.5361214812636375,10.917330437731742
1772561589049790200,8.635790283203125,-7.727954551196098,-8.871058418148756,9.250759161514043
1772561589059857200,8.645857177734374,-16.88378618878126,-9.476364152666926,7.990797678375244
1772561589069923000,8.655923095703125,-25.20319038310051,-9.684912210556865,6.543836536809802
1772561589079990300,8.665990234375,-29.605802241957186,-11.40285185496211,4.8444063625633715
1772561589090057200,8.67605712890625,-28.830235217845438,-14.613139596623181,1.0967612179726363
1772561589100123100,8.686123046875,-29.22690346262455,-16.568012266403436,-5.577101628676057
1772561589110190000,8.696190185546875,-34.377885711109634,-17.102591436791418,-12.56253042461872
1772561589120256300,8.70625634765625,-37.48651106762886,-17.887211535930632,-14.58252117099762
1772561589130323200,8.7163232421875,-35.555334915256495,-14.683274040079116,-12.884763313877581
1772561589140390100,8.72639013671875,-37.024663955974574,-12.068476156842708,-10.532087257808445
1772561589150456000,8.7364560546875,-39.615143390512465,-9.95600001899004,-12.91550215101242
1772561589160523300,8.746523193359375,-38.95793971097469,-5.64494416180253,-19.44958710913658
1772561589170589200,8.756589111328125,-33.50982160508632,-1.8406757972359655,-24.848963103687762
1772561589180656000,8.76665625,-25.00611298277378,1.9046271681427955,-27.652991765403748
1772561589190723000,8.77672314453125,-15.701172149217127,7.360863114035129,-25.67902159644365
1772561589200789200,8.786789306640625,-6.535859566581249,9.908218861639499,-16.84980793133378
1772561589210856200,8.796856201171876,2.314183536067605,8.10089705247283,-5.68483602720797
1772561589220922000,8.806922119140625,9.023477761581539,7.800749153771996,-0.9681372492123395
1772561589230989300,8.8169892578125,11.639719998407363,11.400897213762997,-2.881806605662405
1772561589241056300,8.82705615234375,10.257610975980757,14.979443098276853,-3.9335970475301143
1772561589251122200,8.8371220703125,10.182077888351678,15.016110156416891,-2.6961995706379414
1772561589261189000,8.847189208984375,12.184290985977649,13.318240071094035,-1.9551861196435987
1772561589271256300,8.85725634765625,13.947770146286487,11.975085925483702,-2.2242447603367266
1772561589281322200,8.867322265625,13.927164580631255,10.961176593720912,-2.420881138897687
1772561589291389200,8.87738916015625,12.636436203306912,10.222425096309184,-2.479092358717322
1772561589301455400,8.887455322265625,11.972443886542319,9.366401556691526,-3.185424518561363
1772561589311522300,8.897522216796874,11.924550500988959,8.707927126565576,-4.035763582801819
1772561589321589200,8.90758935546875,10.853526366341113,8.750071154811979,-4.253235244120657
1772561589331655200,8.9176552734375,9.065909959119558,8.940607755193113,-3.801342832508683
1772561589341722400,8.927722412109375,8.627558873865008,8.595760883066058,-2.2950956814989447
1772561589351788300,8.937788330078124,10.750409690737724,7.515928003540635,-0.19853194651659578
1772561589361855200,8.947855224609375,13.833327774548529,6.4595385434448716,1.3431347102575004
1772561589371922200,8.957922119140624,15.703913556879758,6.041926294836402,2.1300258230686184
1772561589381988400,8.96798828125,14.452280341625213,6.317349502125382,2.226648314347118
1772561589392055300,8.97805517578125,11.330412057173252,6.571302635884285,1.2545857814498245
1772561589402121200,8.988121337890625,7.478899710872769,7.174671849381923,-0.0536796773372218
1772561589412188400,8.9981884765625,4.334450761300325,7.945639270743727,-1.2206693371921777
1772561589422255400,9.00825537109375,2.533735803052783,8.160224855232238,-2.0319047637954353
1772561589432321300,9.0183212890625,2.8849305829018355,7.898540250438451,-2.3934002806454897
1772561589442388200,9.02838818359375,4.7641257881462575,6.978002445334195,-2.8562375723809
1772561589452455200,9.038455078125,5.367523058694601,6.282643514925241,-3.6194121479094026
1772561589462521300,9.048521240234376,4.856514733508229,5.363918896722793,-4.57105528537333
1772561589472588300,9.05858837890625,4.323633014687895,4.116825662985444,-5.394370149087906
1772561589482654200,9.068654296875,2.8803175361484286,3.271363264870643,-6.3720326939493415
1772561589492721400,9.078721435546875,2.1751684486091136,3.3114556212842463,-7.198506313955783
1772561589502788400,9.088788330078126,2.964820112174749,3.3754081612348554,-7.794719225957989
1772561589512854300,9.098854248046875,3.7198224871635435,2.8046643292710183,-8.174255718672274
1772561589522921200,9.108921142578126,5.094074366348981,2.076611920528114,-7.132594456630945
1772561589532987100,9.118987060546875,6.504761833006143,1.1518646810352802,-4.581534886072576
1772561589543054000,9.12905419921875,5.572643480223417,0.3105018271937966,-1.2094219669908284
1772561589553121300,9.139121337890625,3.2083255016773937,-0.9537697742290794,3.252544290371239
1772561589563187200,9.149187255859376,1.116163253057003,-3.237708248028159,7.590477340829372
1772561589573254100,9.159254150390625,-0.17257716532051562,-6.239460791280865,10.35568907289505
1772561589583320000,9.169320068359376,-0.345341377645731,-8.868763585209846,11.134156494623422
1772561589593387000,9.179386962890625,-1.0334767865419388,-9.731334939035772,11.010319687074421
1772561589603454200,9.1894541015625,-1.482625744664669,-9.882494053274392,11.281537843888998
1772561589613520100,9.19952001953125,-0.8796820631027221,-9.24865546723306,11.89943008825779
1772561589623587000,9.209587158203124,-0.9458324053585528,-7.333680508077144,12.303961321496963
1772561589633654000,9.219654052734375,-2.9793419740021228,-5.128756388151645,12.602128275513648
1772561589643720200,9.22972021484375,-7.3403896503269666,-2.706286080366373,12.610692690241336
1772561589653787100,9.239787109375,-13.1348276235044,-1.032497127854824,11.701208194071054
1772561589663853000,9.24985302734375,-18.2834741225183,-1.0314049487039447,10.4860351162076
1772561589673920300,9.259920166015625,-21.89007822678089,-2.9930259237006305,9.75491338302195
1772561589683987200,9.2699873046875,-24.28351767039299,-7.598048652866482,8.644744401943683
1772561589694053000,9.28005322265625,-26.147600062179563,-12.312383112883568,6.948402256840467
1772561589704120600,9.29012060546875,-27.181885827016828,-13.443496097791193,4.770828208394349
1772561589714186800,9.300186767578126,-32.78481338634491,-11.405413229882717,-0.41259120557606216
1772561589724253700,9.310253662109375,-40.56011421060562,-7.8119351491749285,-6.115062258195877
1772561589734320600,9.320320556640626,-39.598659873223305,-3.254526696360111,-12.260905439102649
1772561589744386600,9.330386474609375,-37.19375444822311,-3.9420647238850592,-16.738547696763277
1772561589754453800,9.340453857421876,-36.33466392225027,-5.21778257908225,-20.852154397702215
1772561589764520700,9.350520751953125,-31.083840658831594,0.021254384952783582,-25.93400874942541
1772561589774586600,9.360586669921876,-21.230330707979203,4.327129040110111,-25.82195824126005
1772561589784653600,9.370653564453125,-10.002527961409092,3.825762988016009,-18.427727110630272
1772561589794719700,9.3807197265625,1.2997744380891323,0.6086380938112735,-8.199483098909258
1772561589804786700,9.39078662109375,11.475654056322574,-0.9620645782351493,-1.8430610849373041
1772561589814853600,9.400853515625,17.756899394887686,0.26153321362435816,-0.3684489892497658
1772561589824919800,9.410919921875,17.694907341355083,1.0480337196826934,-1.6288731214642524
1772561589834986800,9.42098681640625,15.762567990422248,0.9866589212656021,-3.570212940454483
1772561589845052400,9.431052490234375,15.86208167309761,1.3308189801722765,-4.5649049460500475
1772561589855119600,9.44111962890625,16.222261723434926,2.677451031026244,-3.417323641422391
1772561589865186800,9.451186767578125,15.564169570624827,4.0196179191648955,-0.6160112529277801
1772561589875252500,9.46125244140625,14.012806389820575,5.309669420140981,0.6367758085370063
1772561589885319700,9.471319580078125,13.211053954094648,7.017855147773027,-1.0141241435572503
1772561589895385600,9.481385498046874,11.228051752895116,8.28407627582848,-3.0216385624617335
1772561589905452500,9.49145263671875,8.122351928433776,8.98530146792233,-2.8148768034666776
1772561589915519700,9.501519775390625,6.326545785015821,9.813900409519672,-1.4236471937343478
1772561589925585400,9.51158544921875,5.893294653248787,9.511165416935086,0.4411518218889832
1772561589935652600,9.521652587890625,7.547919471085071,8.210216089847684,2.583484461084008
1772561589945719600,9.531719482421876,10.436769273257255,7.982842919978499,4.02874873560369
1772561589955785500,9.541785400390625,12.565990794205664,9.107097125032544,4.595994496318697
1772561589965852400,9.551852294921876,14.151352106201648,9.42294060551524,3.923573666165769
1772561589975918600,9.561918701171875,14.293098664450644,9.408464920917153,2.3244188066169618
1772561589985985500,9.571985595703126,12.472503532212972,10.201116935342549,1.1710327612332998
1772561589996052500,9.582052490234375,10.326329707419871,10.841994918501376,0.9667841541029513
1772561590006118700,9.59211865234375,9.282537278568745,11.397250966215132,1.2801600754283369
1772561590016185600,9.602185546875,9.241884950184822,11.8739706528306,2.217710536262393
1772561590026252500,9.61225244140625,10.435228473556041,11.686318083453179,3.372861983883381
1772561590036318500,9.622318359375,14.257054706645011,10.630407346785068,3.501461475789547
1772561590046385400,9.632385498046874,18.562714257746933,9.513982812443375,2.59310393782258
1772561590056451600,9.64245166015625,21.43453459918499,8.952371842744945,1.9665460103087127
1772561590066518500,9.6525185546875,22.542077323412894,9.027852323403954,2.136492680995166
1772561590076585500,9.66258544921875,22.67404833757877,10.195436551618576,2.3335164514385163
1772561590086651600,9.672651611328124,21.57330711005926,11.04637416627407,0.7692091795176267
1772561590096718600,9.682718505859375,14.70458453913331,11.014364578551053,-3.237812292924523
1772561590106784500,9.692784423828124,5.059046307587623,10.42545760564804,-8.227261332672834
1772561590116851500,9.7028515625,-3.4808927350133656,10.110220274364949,-13.298150053745507
1772561590126918700,9.712918701171875,-11.043137084048986,9.121842858743667,-17.0981829726994
1772561590136984600,9.722984619140625,-16.324962219452857,6.53048547232747,-17.345478986656666
1772561590147051500,9.733051513671874,-16.211310121309758,2.4370297251440585,-12.57825289440751
1772561590157118500,9.743118408203125,-11.917384262621402,-1.6947427470825611,-4.4046877883479
1772561590167184600,9.7531845703125,-5.78133182336688,-4.839470367465913,4.09075043374747
1772561590177251600,9.76325146484375,0.054067690274119375,-6.962439550021291,10.718084461194277
1772561590187317500,9.7733173828125,2.419149638929963,-7.354490656393766,14.455504564368724
1772561590197384700,9.783384765625,1.012724505892396,-7.372040926131605,15.557220774400234
1772561590207451600,9.79345166015625,-2.112625190934539,-8.40696381982863,15.414782142233848
1772561590217517600,9.803517578125,-5.709944749501347,-9.153111857232451,15.017318947684764
1772561590227584500,9.81358447265625,-7.978243901750445,-9.702762924546002,14.00643743931055
1772561590237651700,9.823651611328126,-10.948833829498291,-10.153760140883922,12.865589826852082
1772561590247717600,9.833717529296875,-13.020435520648956,-10.249361034029722,12.236112358629702
1772561590257784600,9.84378466796875,-15.876492475765943,-10.463711056196688,11.807718603765963
1772561590267850800,9.853850830078125,-23.360964433813095,-11.01478426526785,10.858049396723509
1772561590277917700,9.863917724609376,-32.66703222557306,-12.015720718210934,7.797553572601079
1772561590287984600,9.873984619140625,-41.760521096491814,-13.939234957653284,2.373188390482962
1772561590298050600,9.884050537109376,-48.911805056023596,-15.616038874071835,-2.9946888884767886
1772561590308117500,9.894117431640625,-51.92172804625034,-13.561876978021859,-6.5063038017511365
1772561590318183700,9.90418359375,-55.82170953216552,-6.767458829712868,-8.73945506825149
1772561590328250600,9.914250732421875,-62.67853474454879,-0.717292529797554,-6.932615489643812
1772561590338317600,9.924317626953124,-56.6861940261364,4.224729572865367,-3.4526980294033884
1772561590348383700,9.9343837890625,-48.36897126750946,7.4882725193738935,0.35115853949189185
1772561590358450700,9.94445068359375,-43.08093734059334,8.567758192896843,-0.7523543446980416
1772561590368517600,9.954517578125,-36.95261344976425,8.457231533297897,-9.808584767454862
1772561590378583600,9.96458349609375,-33.560532386147976,12.982720999282598,-18.914155705833434
1772561590388650800,9.974650634765625,-26.286321135127544,16.98125287579894,-19.83997291264534
1772561590398716700,9.984716552734374,-11.474704792773723,15.507831012809275,-14.228497305202483
1772561590408783600,9.99478369140625,5.837888407847285,12.485327942472695,-10.149710573232174
1772561590418850600,10.0048505859375,16.683398056471347,12.873388517904282,-6.625550358900427
1772561590428916700,10.014916748046875,20.329194353437423,14.178680842632055,-3.7468031408086415
1772561590438983700,10.024983642578125,20.70018805873394,14.655733706724643,-3.8493770878374574
1772561590449050600,10.035050537109376,19.88096192563772,13.736228167277574,-4.63168481838107
1772561590459116800,10.04511669921875,18.198326818847654,12.277599384272097,-4.7992368490159505
1772561590469183700,10.055183837890626,13.89297005008459,12.308196767109632,-5.96259206135869
1772561590479249400,10.06524951171875,9.383523956406115,13.356008368474244,-7.324763626649975
1772561590489316600,10.075316650390626,6.291259367579221,13.703162933021783,-7.8734543244987725
1772561590499383800,10.0853837890625,4.542886590987444,13.312051153326033,-7.821068888223171
1772561590509449500,10.095449462890626,3.9784073723763225,12.574882541191577,-7.410159936645627
1772561590519516700,10.1055166015625,4.781227729594707,11.456456019377708,-6.441266389173269
1772561590529582600,10.11558251953125,7.010396648460627,9.831955121648312,-5.347136104226112
1772561590539649500,10.1256494140625,9.636409753194451,8.323052195432782,-4.780545592549443
1772561590549716700,10.135716796875,11.671272490012646,7.196544073972105,-4.700375200508534
1772561590559782400,10.145782470703125,12.582650837105511,6.674589407357574,-4.405025349739193
1772561590569849600,10.155849609375,14.335101238399742,6.0214306192964315,-4.481508869960904
1772561590579916500,10.16591650390625,16.113901886481045,6.59662003249228,-3.8112189143568274
1772561590589982500,10.175982421875,16.143983721011875,6.898897928959131,-2.2538759284906087
1772561590600049400,10.18604931640625,15.711600019729136,6.757689715370535,-1.125513411334902
1772561590610115600,10.196115478515624,13.890538439023494,6.814978121256828,-1.271489569977671
1772561590620182500,10.2061826171875,11.372331629014015,6.834198954555392,-2.305078146331012
1772561590630249500,10.21624951171875,8.865947358745336,6.954438614395261,-2.710457813093066
1772561590640315600,10.226315673828125,7.640413045865297,7.187196984434127,-2.290613275387883
1772561590650382600,10.236382568359375,9.636514967134595,7.194440379691123,-1.8262926132269202
1772561590660449500,10.246449462890626,10.98169565013647,7.267976740545034,-1.2082258890740574
1772561590670515500,10.256515380859375,10.844237144470215,7.499892814540862,-0.4180813274249434
1772561590680582400,10.26658251953125,10.298473732244968,7.443197698372602,-0.22407909675985574
1772561590690648600,10.276648681640625,9.460806518051028,7.124357374161481,-0.6568349923558533
1772561590700715500,10.286715576171876,8.544477270552516,7.046324870932102,-0.8638996067550033
1772561590710783000,10.296782958984375,7.60676328971982,7.062842290490865,-0.8416494887631386
1772561590720849200,10.30684912109375,7.143940611031651,7.028700951436162,-0.30353366868160664
1772561590730916000,10.316916015625,7.225235330927371,6.516874880126118,0.00795059367828071
1772561590740983000,10.326983154296874,6.43966012302041,6.26330519272685,-1.040064129042998
1772561590751049000,10.337049072265625,4.06733536362946,6.770968299138546,-1.8878915757887065
1772561590761116000,10.347115966796874,1.8241238908857107,7.018745959132909,-1.1148468366961926
1772561590771182000,10.35718212890625,0.8121692003220319,6.445666085436939,0.4852113283678889
1772561590781249000,10.3672490234375,0.8186094625025987,5.32694262650311,2.038642255356908
1772561590791316000,10.37731591796875,1.2693939128726721,4.0754906130343675,2.6925007161200045
1772561590801382100,10.387382080078124,1.701614532548189,2.8979312265112993,2.146144890959561
1772561590811449000,10.397448974609375,1.926428081062436,2.2294719934657214,1.8006893854148684
1772561590821516000,10.40751611328125,1.2390507970571518,1.8739938372090459,2.2614137766495346
1772561590831582000,10.41758203125,-1.1080997735887765,1.3526149246558545,3.0815982333838936
1772561590841649200,10.427649169921875,-3.9359675760537383,1.3313576170936225,4.036574314662814
1772561590851715000,10.437715087890625,-5.154256740111112,1.161820550121367,4.154124004766345
1772561590861782000,10.447781982421875,-4.814894436874986,0.48221886855363844,2.878723837216198
1772561590871849000,10.457848876953125,-4.314446084147692,-0.7690671406984328,0.7899616062976419
1772561590881915000,10.467914794921874,-5.682040843531489,-3.3765216754347085,-1.1293577387381344
1772561590891982000,10.477982177734376,-6.30174276767075,-6.003765198746323,-3.3543878772988913
1772561590902049000,10.488049072265625,-7.599162751588225,-7.679885809075832,-5.625563754028081
1772561590912115000,10.498114990234376,-9.116699650636315,-7.9646800713002674,-6.936499053078889
1772561590922182100,10.50818212890625,-10.31400798598528,-6.431995872002839,-6.8223717386394735
1772561590932247800,10.518247802734376,-11.273453906154632,-5.234468925467133,-5.371995235672593
1772561590942314800,10.528314697265625,-12.407408836489916,-4.287132837547362,-3.2217800265341996
1772561590952382200,10.53838232421875,-12.866084332370757,-2.8744316929802296,-1.6021147322677074
1772561590962448000,10.54844775390625,-12.538847935736179,-1.6344932994335888,-1.0544020856708287
1772561590972514800,10.558514892578126,-11.462397099864482,-0.7417571089684962,-0.3680489570815116
1772561590982581800,10.568581787109375,-10.205553456485271,-0.8527914258286357,0.8128188964024186
1772561590992648000,10.57864794921875,-8.957777501180768,-1.3258883919022977,1.4631087048985063
1772561591002715000,10.58871484375,-7.200811668288707,-1.3073023493759333,1.4065091580592095
1772561591012780800,10.59878076171875,-5.22099101973474,-1.2484465480424463,1.1694061829447746
1772561591022848000,10.608847900390625,-5.243662870270014,-1.2559974018134177,0.12778205630974843
1772561591032915000,10.6189150390625,-9.086604956623912,-1.8910083926349877,-4.483787920808792
1772561591042980900,10.62898095703125,-7.183166121482849,-3.0354025916591283,-6.099767658430338
1772561591053047800,10.6390478515625,-8.826540061986446,-3.901707579055428,-7.619586530935764
1772561591063115000,10.649114990234375,-8.50366186056137,-4.115060114617646,-7.050237660461664
1772561591073181000,10.659180908203124,-6.749235775279998,-3.2767437888652085,-4.923066057780384
1772561591083247900,10.669247802734375,-5.238713138908148,-1.980693193604797,-2.5678797724559903
1772561591093314800,10.679314697265625,-3.936438116174936,-1.191704743188247,-1.2409936016879974
1772561591103381000,10.689381103515625,-2.473698975241184,-0.5971749985000119,0.2276582704208791
1772561591113448000,10.699447998046875,-0.4302975426584482,-0.4545449719473719,1.9268629653483629
1772561591123513900,10.709513916015625,0.9609843817830085,-1.1526466251932084,3.19949279140234
1772561591133580800,10.719580810546875,1.8161697170108555,-2.509926472920179,2.8585175000116227
1772561591143648000,10.72964794921875,2.2323229989826676,-3.471149047373235,2.324672781378031
1772561591153714000,10.7397138671875,1.4328238951414822,-3.1663159134656187,0.7007225763339548
1772561591163780900,10.74978076171875,0.23645956264436244,-3.0359619791075585,-2.4456018847867846
1772561591173847000,10.759846923828125,1.011754784077406,-2.3845855444185435,-2.3523132141061125
1772561591183914000,10.7699140625,0.799138453835249,-0.682765698556602,-0.9371136037867516
1772561591193981000,10.77998095703125,-0.11894494385421275,0.8841375081416218,0.47516493145413696
1772561591204046800,10.790046875,0.8537094174563884,1.3069814468584955,1.1787809642072766
1772561591214114000,10.800114013671875,2.6282120760828254,0.7210089199721813,0.6176834969889372
1772561591224181000,10.810180908203124,3.3166461756646632,0.016506825099512935,0.11921172329792752
1772561591234247000,10.820246826171875,3.7534552921742197,-1.017645814877376,-1.7939517477229237
1772561591244313900,10.83031396484375,1.3672960686981677,-1.6789444355785845,-2.8763524319097398
1772561591254381000,10.840381103515625,-0.20884674857556818,-0.9074081282876432,-2.026691120800376
1772561591264447000,10.850447021484374,-0.5853478191167116,-0.8118825654003768,-1.4251213579401374
1772561591274514000,10.860513916015625,-0.5424433278918266,-0.8901911821573972,-1.2912125075794756
1772561591284580000,10.870580078125,-0.5313917725235223,-0.6802328921433538,-0.9254545109793543
1772561591294647000,10.88064697265625,-0.27629122229516506,-0.7412041512608528,-0.23564115893356502
1772561591304714000,10.8907138671875,0.34212650725245475,-1.0050636158756912,0.1012066041983664
1772561591314780000,10.90077978515625,0.45513855392634867,-1.001035675533861,1.197774929947406
1772561591324847000,10.91084716796875,-0.21893559639155863,-1.2114866444356738,2.22852331443876
1772561591334914000,10.9209140625,-0.8058066795527935,-1.4715461322456598,2.62385797252655
1772561591344980000,10.93097998046875,0.31789281422793864,-1.069770846651122,2.60832313426435
1772561591355047000,10.941046875,1.002261564067006,-0.7886002548165619,2.7108307380586862
1772561591365113000,10.951113037109375,0.9948077409297227,-0.497310858419165,2.9019539061561224
1772561591375180000,10.961179931640626,0.7553525036007166,-0.2477928940961137,2.4372363536320627
1772561591385247000,10.9712470703125,0.5564309367120266,0.20333415916655212,1.0601700746130198
1772561591395313200,10.981313232421876,1.5712076989591122,1.464389538489282,-0.9136244455192237
1772561591405380000,10.991380126953125,2.607050630110502,2.9482328422501682,-2.3447163292363284
1772561591415447000,11.001447021484376,1.455163152721524,3.2174463812440632,-2.3575743495047092
1772561591425513000,11.011512939453125,-0.31474282576441764,2.42426055220291,-1.8579577714264393
1772561591435580000,11.021579833984376,-0.934617768383026,1.5035519205763934,-1.5651370007432996
1772561591445646000,11.03164599609375,-1.015177159741521,1.1676716142371297,-1.2343920114658773
1772561591455713000,11.041713134765626,-0.9257102393060922,1.0977778476692734,-0.9367213165335356
1772561591465780000,11.051780029296875,-0.6781716487646102,1.0193535686433315,-0.6552937542632222
1772561591475846100,11.06184619140625,-0.5182102193892002,0.5677157163143157,-0.35544381559565663
1772561591485913000,11.0719130859375,-0.5271481436043978,-0.009134250504896043,-0.14174261272624133
1772561591495980000,11.08197998046875,-0.4124994356393814,-0.345274157628417,0.011471369949262589
1772561591506046000,11.0920458984375,-0.2673258255511522,-0.43456667134501037,0.13937679691035298
1772561591516113200,11.102113037109374,-0.07661679121255874,-0.48064745451845226,0.20774021210577337
1772561591526179000,11.112178955078125,0.19200316580235957,-0.48615861915536224,0.21794870424605906
1772561591536246000,11.12224609375,0.14014321470558644,-0.409294209857285,0.23262575663514434
1772561591546313000,11.13231298828125,0.048536359632015226,-0.32672157898023724,0.23245299388412385
1772561591556379100,11.142379150390624,-0.1254834057122469,-0.25707009673565623,0.25993617195757107
1772561591566446000,11.152446044921875,-0.5207219099491834,-0.2632949625998735,0.27186640985654664
1772561591576513000,11.162512939453125,-0.8114531610071659,-0.35998072837293144,0.2540288293436169
1772561591586579200,11.1725791015625,-0.9017512715697288,-0.32946532473042606,0.22115628638202323
1772561591596646100,11.182646240234375,-0.9217653010725975,-0.20649572847001255,0.23442679644143208
1772561591606711800,11.1927119140625,-0.8085708835691213,-0.08772453374750912,0.1941626636574976
1772561591616779000,11.202779052734375,-0.5058534266412258,-0.009035685501247644,0.20889628680571912
1772561591626846000,11.212845947265626,-0.22157997342050073,0.04885412034429609,0.26939552623098717
1772561591636911900,11.222911865234375,-0.17784896824359891,0.046637540273368354,0.33309564405679704
1772561591646978800,11.232978759765626,-0.14355799158513546,0.056791562280058855,0.4003135424789041
1772561591657046000,11.2430458984375,-0.10903437521457672,0.05191032957714051,0.4183685103358701
1772561591667112000,11.25311181640625,-0.14989303982555865,0.005854059790447354,0.36574331048764286
1772561591677179000,11.263178955078125,-0.07256371642947197,0.1351332410564646,0.2776595515063032
1772561591687246000,11.27324609375,-0.20369418811798096,0.15832272225767374,0.05362613878538832
1772561591697312000,11.28331201171875,-0.2542261054813862,-0.14209085990833117,-0.2475199589062482
1772561591707378400,11.29337841796875,0.8354863630235194,0.23952304186820983,0.05565837526535615
1772561591717444400,11.3034443359375,1.4490876322001218,0.34292452576234933,0.4418360778260976
1772561591727511300,11.31351123046875,1.1891887417793274,-0.3949792687788605,0.6251834242902696
1772561591737578500,11.32357861328125,0.71271221626997,-0.5807501891281456,0.7458024388365447
1772561591747644400,11.33364453125,0.4490583572298288,-0.2575917459895834,0.705435284069553
1772561591757711400,11.34371142578125,-0.17625030087530613,0.0930893121836707,0.30788996419496834
