time,seconds_elapsed,z,y,x
1772467422075950300,0.086950439453125,0.2938713026493788,1.0588334922470153,0.31710517098158597
1772467422085923000,0.096923095703125,0.17269757682979106,0.9288150734536349,0.27528858459126204
1772467422095896300,0.106896240234375,-0.01683773755431175,0.836201525555551,0.3143266461789608
1772467422105868300,0.116868408203125,-0.05158522580862045,0.9145125534653663,0.3579868876745924
1772467422115841300,0.12684130859375,0.0092412910759449,0.9538986613057553,0.3955255775500089
1772467422125814300,0.136814208984375,-0.03782441148161888,0.9518515195176005,0.4284484076604247
1772467422135786200,0.1467861328125,-0.16634382388889787,1.0114690990038215,0.5128679085131734
1772467422145759200,0.15675927734375,-0.17830664888322353,1.028399629408121,0.5642075985955074
1772467422155732500,0.166732421875,-0.14580898538231848,1.0536343161687254,0.5986935498367995
1772467422165704200,0.1767041015625,-0.04734276593327522,1.1077870543777941,0.6532599103480577
1772467422175677200,0.18667724609375,0.06583002426028252,1.1468645346604287,0.7466037452820689
1772467422185650400,0.196650390625,0.052469022905826564,1.1864873738661408,0.8493775257319212
1772467422195623400,0.20662353515625,0.10807108314037323,1.1528753193825483,0.9257881999131291
1772467422205595100,0.21659521484375,0.09905834012329578,1.0736505376286805,0.9099125123240053
1772467422215568400,0.226568359375,0.1402659643024206,0.9603742870606482,0.8937357228964566
1772467422225541400,0.236541259765625,0.1728659191340208,0.7935482326127589,0.9333613385811448
1772467422235513000,0.24651318359375,0.1933960814654827,0.6343126332938671,1.0419796072755008
1772467422245486300,0.256486328125,0.17014146260619162,0.4859539634287357,1.1277839866153896
1772467422255459300,0.266459228515625,0.057768882879614826,0.3997181338690221,1.116420077362284
1772467422265431300,0.276431396484375,0.15057166973948477,0.391412516207993,1.0506733474712817
1772467422275404300,0.286404296875,0.2161976958602667,0.4139858748048544,0.9721960230838507
1772467422285377300,0.296377197265625,0.20941022767722606,0.3961772463917732,0.9230413854230195
1772467422295349000,0.306348876953125,0.25779928779304023,0.3842632289752364,0.9104104519087821
1772467422305322000,0.316322021484375,0.3129132722496986,0.37468072324618695,0.8764600323162972
1772467422315295000,0.326294921875,0.2896861259192228,0.32631986631155013,0.8256761860184371
1772467422325267200,0.33626708984375,0.24081892689764497,0.28900588857010007,0.7938252959884703
1772467422335240000,0.346239990234375,0.21160744546055793,0.3066585957691073,0.6870601808801293
1772467422345213000,0.356212890625,0.2098433583974838,0.3041575727336108,0.5420522462150081
1772467422355186000,0.36618603515625,0.21260756241381168,0.2709716347075999,0.4864630819946527
1772467422365158000,0.376157958984375,0.13292787649929522,0.19727832972630857,0.4863293726123869
1772467422375131000,0.386130859375,0.13337386670112608,0.12428045966327189,0.4836657794263214
1772467422385104000,0.396103759765625,0.18189210615456103,0.0938467429548502,0.48940607664398844
1772467422395076000,0.406076171875,0.15765315243303774,0.011245470505207777,0.5574855603314935
1772467422405048800,0.416048828125,0.07151800676882267,-0.16606544533893464,0.6153659407615661
1772467422415021800,0.426021728515625,0.038140637823939325,-0.31849019559919833,0.6161176359117031
1772467422424994000,0.435994140625,0.016371289086341858,-0.25674203382506966,0.5646606395926326
1772467422434967000,0.445967041015625,-0.13046820838749407,-0.14553805948644877,0.5019000128403306
1772467422444939800,0.455939697265625,-0.11956745966672896,-0.2257666114553809,0.4877481168365106
1772467422454913000,0.4659130859375,-0.0869400323063135,-0.287132642044127,0.5054655963674187
1772467422464885000,0.475885009765625,-0.21799802328050136,-0.2209140568576753,0.4413866535581648
1772467422474858000,0.48585791015625,-0.3105184860676527,-0.12308160526752471,0.3758074987864122
1772467422484831000,0.4958310546875,-0.44719080979228015,0.011951865208894014,0.2476381784584373
1772467422494803000,0.505802978515625,-0.5684422770231962,0.16374781604632735,0.06560685562943108
1772467422504776000,0.51577587890625,-0.6154384214758872,0.3205873140089214,-0.1422622800856363
1772467422514749000,0.5257490234375,-0.5992085866868495,0.5063232361100614,-0.31002478426657615
1772467422524721000,0.535720947265625,-0.6210252816975116,0.653868251504749,-0.3848615236619487
1772467422534694000,0.54569384765625,-0.5529992086976766,0.7383673203997314,-0.4882420743659138
1772467422544667000,0.5556669921875,-0.4011749085485935,0.7661810638681054,-0.6594130992155521
1772467422554638800,0.565638916015625,-0.292537423697114,0.7430315128184855,-0.7593448611725121
1772467422564611800,0.57561181640625,-0.18355039475560186,0.7056577677138149,-0.7261060969807207
1772467422574585000,0.585585205078125,0.0630728345066309,0.6272293970346451,-0.6247432062420993
1772467422584558000,0.59555810546875,0.2939484595388174,0.574844106889516,-0.4267255659231916
1772467422594529800,0.60552978515625,0.4282750969201326,0.5100926716461778,-0.13638087563053705
1772467422604503000,0.6155029296875,0.5980857201367616,0.44064211880117654,0.11140912325559184
1772467422614476000,0.62547607421875,0.7450415374666451,0.39092151782065626,0.2738801790980622
1772467422624448000,0.635447998046875,0.8236673304140567,0.34537864091619846,0.40261714324615894
1772467422634421000,0.6454208984375,0.7548147434622049,0.2943488570332527,0.5473359222389758
1772467422644394000,0.65539404296875,0.7061720008462667,0.22753654373735188,0.6815034235358238
1772467422654366000,0.665365966796875,0.5792898342519999,0.1417922970868647,0.702643315263465
1772467422664339000,0.6753388671875,0.42438627278804775,0.12785729523673653,0.6648742872308939
1772467422674312000,0.68531201171875,0.2853133176624775,0.15519903727918863,0.5574599144335836
1772467422684284000,0.695283935546875,0.18285715179443357,0.15669117553308606,0.4078981523890048
1772467422694257000,0.7052568359375,0.0858598358541727,0.1763088991947472,0.30307721188468856
1772467422704230100,0.715230224609375,0.004246551528573036,0.14526245741546154,0.15222133664265275
1772467422714203000,0.725202880859375,-0.04434416863918304,0.09689195586964487,0.07132940712785348
1772467422724175000,0.735175048828125,-0.08305471530556678,0.04047317242473364,0.020571352858375757
1772467422734148000,0.745148193359375,-0.08964987578690052,-0.021131927616894242,-0.04963502332260832
1772467422744121000,0.75512109375,-0.15389292311668396,-0.030705227126181123,-0.10310242788232862
1772467422754093000,0.765093017578125,-0.2531792267769575,-0.06785159321576356,-0.15850551321236417
1772467422764066000,0.775066162109375,-0.20755027902424333,-0.12809767986387013,-0.2202043742183596
1772467422774039000,0.7850390625,-0.24403671990036963,-0.14765665907561779,-0.301975278524775
1772467422784011000,0.795010986328125,-0.2625818458944559,-0.20875877803117035,-0.3583399388959631
1772467422793984000,0.80498388671875,-0.23298984070718287,-0.2316238130509853,-0.38825204288307574
1772467422803957000,0.81495703125,-0.0948708253055811,-0.16584931837022304,-0.4742648042766377
1772467422813930000,0.824929931640625,0.056764089751243585,-0.09977905561327934,-0.5850052527567371
1772467422823902000,0.83490185546875,0.11794424237906932,-0.04908025725036859,-0.6054643226133659
1772467422833875000,0.844875,0.17301204960644245,0.01676204196959734,-0.5654005712397396
1772467422843848000,0.854847900390625,0.1648492014169693,0.11683306626677513,-0.5311072564937174
1772467422853820000,0.86481982421875,0.20703473071753978,0.22587767061442135,-0.5126997488720342
1772467422863793000,0.87479296875,0.3367816390931606,0.3742448160469532,-0.5101003069633617
1772467422873766000,0.884765869140625,0.4576479063987732,0.5667188142314553,-0.45830666256844993
1772467422883738000,0.894738037109375,0.5456365709751844,0.7108788633629679,-0.4133816253013909
1772467422893710800,0.9047109375,0.5431991146951913,0.7669824433788657,-0.43999647784139956
1772467422903683800,0.914683837890625,0.5576391434580087,0.7599316480845213,-0.3906213292976841
1772467422913656800,0.92465673828125,0.5958417406022548,0.7058399924129247,-0.3972639456499368
1772467422923629000,0.934629150390625,0.5582903008431196,0.7056421317532658,-0.4341944039665162
1772467422933601800,0.944601806640625,0.5766945570617914,0.6886860285162926,-0.3197579505126923
1772467422943574800,0.95457470703125,0.5706640447258949,0.66472530721426,-0.11631749969376251
1772467422953547000,0.964547119140625,0.40950785260796546,0.5145236398309468,-0.02518195192636922
1772467422963520000,0.97452001953125,0.19467033918499946,0.31496523634344337,-0.06463922530682757
1772467422973492700,0.98449267578125,0.16254033995270728,0.18289748380482196,-0.12044053444052115
1772467422983465000,0.99446484375,0.13964870918691158,0.07371347098648548,-0.13529745517484842
1772467422993438000,1.00443798828125,-0.11133680693805217,-0.04463204566985368,-0.10012118358183651
1772467423003411000,1.014410888671875,-0.2664016964435577,-0.16802315527796743,-0.04027059905733913
1772467423013384000,1.024384033203125,-0.38665421576499936,-0.24915683939307925,-0.08903404544349759
1772467423023356000,1.03435595703125,-0.5260071568757295,-0.31183862875550983,-0.11373451572954654
1772467423033329000,1.044328857421875,-0.6023661739349365,-0.39046559074670073,-0.15321495078988373
1772467423043302100,1.05430224609375,-0.6927455330401658,-0.44033319898247714,-0.20963377076741307
1772467423053273900,1.06427392578125,-0.7102531326800584,-0.4498185279473662,-0.2666349206775427
1772467423063246800,1.074246826171875,-0.6459568938583136,-0.44838878740519283,-0.2860222696494311
1772467423073220000,1.08422021484375,-0.6116665017217398,-0.39424744737297296,-0.27397114531714467
1772467423083191800,1.09419189453125,-0.5786725791364908,-0.29065730903893705,-0.18964114937875418
1772467423093164800,1.104164794921875,-0.5116758491843939,-0.20688509311378,-0.08562449272833764
1772467423103138000,1.114137939453125,-0.4811123686164617,-0.1868105655953288,-0.01847224342096597
1772467423113111000,1.124111083984375,-0.45629064657092094,-0.18891192178875207,0.037871063634939486
1772467423123082800,1.134082763671875,-0.3364864555388689,-0.18222762171924115,0.0909303440514952
1772467423133056000,1.144055908203125,-0.20310849718451499,-0.1886521018087864,0.1094474129948765
1772467423143029000,1.154029052734375,-0.11368775397837161,-0.1979489224642515,0.15912030237615107
1772467423153001000,1.1640009765625,-0.004575052830576897,-0.17311404867619276,0.20915059036035089
1772467423162974000,1.173973876953125,0.11925064880251884,-0.13065525539219378,0.2895768568584695
1772467423172947000,1.183947021484375,0.09729366853833198,-0.18099720314145087,0.3009081424836069
1772467423182919000,1.1939189453125,0.10509820480942726,-0.24027736736685038,0.28004900392610577
1772467423192892200,1.20389208984375,0.044352351945638656,-0.2979740617930889,0.2754544426774606
1772467423202865000,1.213864990234375,-0.06950900503396988,-0.3550362577080726,0.22793741615582255
1772467423212838000,1.223837890625,-0.08089139979183674,-0.3612184534743428,0.1537230464424938
1772467423222810000,1.23381005859375,-0.08357493978738784,-0.3226654354572296,0.0998030940759927
1772467423232783000,1.243783203125,-0.1372895788401365,-0.29341011487841606,0.06240092659443616
1772467423242755800,1.253755859375,-0.18397125051617622,-0.2690580561712384,0.01679324082545936
1772467423252728000,1.26372802734375,-0.19068156180977822,-0.219181095585227,-0.04051693850122392
1772467423262701000,1.273701171875,-0.20073475379049777,-0.1412663735166192,-0.07958236301988363
1772467423272673800,1.283673828125,-0.16964929517507552,-0.08906535389721393,-0.10950290604177862
1772467423282646800,1.293646728515625,-0.09383446799516677,-0.08890461037755013,-0.1375521752990782
1772467423292619500,1.30361962890625,-0.06032791971266269,-0.10773469079285859,-0.14047854760717599
1772467423302592500,1.313592529296875,-0.0681961688697338,-0.13193769641816616,-0.09832597072813659
1772467423312565500,1.3235654296875,-0.00418926838338375,-0.1519651699244976,-0.017497041713260112
1772467423322537700,1.333537841796875,0.08817688062489032,-0.16307137808948755,0.07568685341868549
1772467423332510500,1.343510498046875,0.15791092658638953,-0.1598199750781059,0.13927172910068183
1772467423342483500,1.3534833984375,0.19637422049343584,-0.13433891234099865,0.20554803582374007
1772467423352455700,1.36345556640625,0.2393073532909155,-0.15246961231529713,0.23637864289525895
1772467423362428400,1.373428466796875,0.239048994615674,-0.17932576279789209,0.2636648188255727
1772467423372401400,1.3834013671875,0.15863924086093903,-0.14994652357846497,0.25044534483365716
1772467423382374400,1.39337451171875,0.13161620937883853,-0.15276742621809244,0.09260923704914747
1772467423392346600,1.4033466796875,0.18684826725721357,-0.056848845425248144,0.040258104901947075
1772467423402319400,1.4133193359375,0.08829378500282764,0.05302841035425663,0.049914077726006506
1772467423412292600,1.423292724609375,-0.0769014533728361,0.030231472134590147,0.026494514095969496
1772467423422264600,1.4332646484375,-0.13491466640233993,0.017225275567173955,0.0547085089283064
1772467423432237600,1.443237548828125,-0.1710533167541027,0.06671966657638549,0.06494845565278083
1772467423442210600,1.45321044921875,-0.1911480102777481,0.08039660201221704,0.04745598051678389
1772467423452183600,1.46318359375,-0.20502689802646637,0.1027452119424939,0.027924875692650675
1772467423462155500,1.473155517578125,-0.1394815359264612,0.1616521589413285,0.008785144806280731
1772467423472128500,1.48312841796875,-0.09031330813169479,0.16256050595790147,-0.0015849311038851736
1772467423482101500,1.4931015625,-0.1072790559798479,0.11903496022522449,0.018918197090178727
1772467423492073500,1.503073486328125,-0.09813538005948066,0.09552899695336818,0.03919891470521688
1772467423502046500,1.51304638671875,-0.06678747111558914,0.11407207712084054,0.026856552341394124
1772467423512019700,1.523019775390625,-0.05891396126151085,0.08932429709434508,0.011664572700113058
1772467423521991400,1.532991455078125,-0.03460544943511486,0.07132482228428125,0.012526998215727508
1772467423531964400,1.54296435546875,-0.04081424094736576,0.04276742084175348,0.005228986694663763
1772467423541937700,1.552937744140625,-0.04571721055805683,0.017364391776919366,-0.053825332885608076
1772467423551910700,1.56291064453125,-0.045783261531591415,0.011756781028211117,-0.04520458486080169
1772467423561882400,1.57288232421875,0.035144963139295576,0.016802373979985713,-0.02721053514452651
1772467423571855600,1.582855712890625,0.054174073258042334,-0.0015609657064080238,0.008549619017355143
1772467423581828600,1.59282861328125,0.010692074406147003,-0.0298544555157423,0.05147714405795559
1772467423591800600,1.602800537109375,0.11056406899988651,-0.051071723328530785,0.020470139239914715
1772467423601773600,1.612773681640625,0.1889917090266943,-0.04285568364709615,0.039571857937145974
1772467423611746600,1.62274658203125,0.17548633076548575,-0.039079379978775974,0.10354366884380578
1772467423621719600,1.632719482421875,0.21208032366931437,-0.08627981483191251,0.12843889451697468
1772467423631691500,1.64269140625,0.24503683685362337,-0.11248480792939662,0.0967597808573395
1772467423641664500,1.65266455078125,0.24378888261914253,-0.11424831047058105,0.08977125541055575
1772467423651637500,1.662637451171875,0.17692776174545288,-0.14764993707388638,0.05724405528791249
1772467423661609700,1.672609619140625,0.1550233884513378,-0.16236264529824257,0.042769740663003174
1772467423671582500,1.68258251953125,0.12814005770087242,-0.14723463427126407,0.0353341655684635
1772467423681555500,1.692555419921875,0.08529284962117671,-0.11967968786954879,0.012582619126792996
1772467423691528400,1.702528564453125,0.046313422885537144,-0.08316548220366239,-0.025684750349353996
1772467423701500700,1.712500732421875,0.0809013366639614,-0.030225042393803594,-0.03514178480152041
1772467423711473400,1.722473388671875,0.07316168232262134,-0.018788579361140728,-0.019617431400716305
1772467423721446400,1.7324462890625,-0.01708615935742855,-0.0413856110945344,-0.005713938933704048
1772467423731418600,1.742418701171875,-0.01489712488055229,-0.032060148866474625,-0.0076731284437701105
1772467423741391600,1.7523916015625,0.04111702328622341,-0.021268998000025748,-0.008135704454220832
1772467423751364400,1.7623642578125,-0.02803893052637577,-0.02407353402674198,0.019934680656343698
1772467423761336600,1.772336669921875,-0.03482522966563702,-0.027271453285217285,0.05394081249143928
1772467423771309600,1.7823095703125,0.019195698857307434,-0.020565525905787942,0.05123409254970029
1772467423781282300,1.7922822265625,0.02949555907547474,-0.0008048866420984267,0.0536979071136564
1772467423791255600,1.802255615234375,-0.04890519294440746,0.011968962474167346,0.05272064131302759
1772467423801227500,1.8122275390625,0.02229892556965351,0.021789807003736495,0.06782735382365063
1772467423811200500,1.822200439453125,0.04136310700178146,0.038194413837790486,0.06853586741918698
1772467423821173500,1.832173583984375,-0.03134264824688435,0.02358078207373619,0.09698233756683766
1772467423831145500,1.8421455078125,-0.03936813379228115,-0.00518441690057516,0.13059667533906175
1772467423841118500,1.852118408203125,-0.02277823351919651,-0.022671266013383862,0.1305155911931768
1772467423851091700,1.862091796875,-0.020666940453648565,-0.047746962819993494,0.14113167775366456
1772467423861064400,1.872064453125,-0.029602526581287383,-0.06815875946879386,0.12024356883000582
1772467423871036400,1.882036376953125,0.03561608778238296,-0.06853489930480718,0.10083311297716573
1772467423881009700,1.892009765625,0.04041735058426857,-0.06584785217791796,0.09687381742475554
1772467423890982700,1.901982666015625,0.015644728377461434,-0.07499065131545066,0.10357501383014023
1772467423900954400,1.911954345703125,0.0638303748756647,-0.06918897929936647,0.09071334029994904
1772467423910927600,1.921927734375,0.07232581602036953,-0.022052257332205772,0.07749189354665577
1772467423920900600,1.931900634765625,0.05958440786898136,0.013754676847159862,0.08272774837352335
1772467423930873600,1.94187353515625,0.10637655418217182,0.025875030490756033,0.059952254800684744
1772467423940845600,1.951845458984375,0.1244026247382164,0.04783522562533617,0.06798216079287231
1772467423950818600,1.961818603515625,0.0722135878175497,0.08523205934464931,0.08303551741475239
1772467423960791600,1.97179150390625,0.04637596672773361,0.10148732083588838,0.04761635871026665
1772467423970763500,1.981763427734375,0.14409399815797805,0.12615677492916583,0.02901957559417933
1772467423980736500,1.991736572265625,0.063486676004529,0.13548077585250137,0.06556399373523891
1772467423990709500,2.00170947265625,0.0016156185030937193,0.11337006633132696,0.061569261543266474
1772467424000682500,2.0116826171875,0.04589841234385967,0.09845219092369079,0.022970267226267604
1772467424010654500,2.021654541015625,0.022374913415312767,0.08432342006713152,0.016224080901686103
1772467424020627500,2.03162744140625,-0.002297171026468277,0.061061494684219356,0.01735564221488312
1772467424030600400,2.041600341796875,0.047694648110866544,0.043134208327531814,-0.029634328225348144
1772467424040572700,2.05157275390625,0.08518237498402595,0.025465280646085737,-0.037800756611395626
1772467424050545400,2.06154541015625,0.042779988062381744,-0.010536299322545527,-0.04572417002180591
1772467424060518400,2.071518310546875,0.0674427201539278,-0.049367257498204704,-0.06911671778075397
1772467424070491600,2.08149169921875,0.10749065290391445,-0.05858838256895542,-0.06609243805613368
1772467424080463600,2.091463623046875,0.06049626201689243,-0.08373860591650009,-0.05749921735906973
1772467424090436400,2.101436279296875,0.03882803556621074,-0.10633739121556282,-0.07241890113130212
1772467424100409600,2.11140966796875,0.04315525111556053,-0.072237260954082,-0.04227446795934811
1772467424110381600,2.121381591796875,0.010907178461551665,-0.050368543495237825,-0.012018445905391126
1772467424120354600,2.1313544921875,-0.03369827146232128,-0.05331687190681696,0.011809570661373435
1772467424130327600,2.14132763671875,-0.01504091726541519,-0.040135318772494794,0.03328855815026909
1772467424140300500,2.151300537109375,-0.016710311782360075,-0.043372400997579094,0.03302784312115982
1772467424150272500,2.1612724609375,-0.07477028656303882,-0.022147242139279842,0.05567311617676168
1772467424160245800,2.171245849609375,-0.07591419590115547,0.008684533976018429,0.07083356816861779
1772467424170218500,2.181218505859375,-0.03396948961913585,0.031982115194201466,0.06411735685719176
1772467424180190500,2.1911904296875,0.00279635272026062,0.06123538994640112,0.03949407999319955
1772467424190163700,2.201163818359375,0.04134323325753212,0.09394348132759332,0.06028031771127134
1772467424200136700,2.21113671875,0.05470832626521587,0.08260960188657045,0.08835212759394198
1772467424210109400,2.221109375,0.08480711193084717,0.027174714912474154,0.08502990610236301
1772467424220081700,2.23108154296875,0.13431670050919056,0.00868921015113592,0.08491736737228929
1772467424230054700,2.2410546875,0.14493687872290612,-0.00866962866783142,0.07763091842485591
1772467424240027400,2.25102734375,0.05249591091275215,-0.010277063864469528,0.11652639320408925
1772467424249999600,2.26099951171875,0.08356792552471161,-0.0029369302347302434,0.05882193559650331
1772467424259972600,2.27097265625,0.14754092374145983,0.02639408592879772,0.021204024738725274
1772467424269945600,2.280945556640625,0.08079144654870032,0.042862697909772395,0.04330669708391651
1772467424279918300,2.29091845703125,0.032633272579312325,-0.0009013327538967132,0.025934195065777748
1772467424289890800,2.300890869140625,0.07101824055314064,-0.03177490218430757,-0.0071941675540991125
1772467424299863600,2.310863525390625,0.031212299865484235,-0.04754968668222427,-0.037657950607221574
1772467424309836500,2.32083642578125,-0.0225040927529335,-0.05815495958775282,-0.02155950537919998
1772467424319808800,2.330808837890625,0.02976560818850994,-0.04472206204086542,-0.03275748348087072
1772467424329781800,2.34078173828125,0.04176876519322395,-0.025835867524147033,-0.03285626768022776
1772467424339754500,2.35075439453125,0.023020225581526756,-0.014400573535263538,-0.007385890733916312
1772467424349727700,2.360727783203125,0.017069792744517327,-0.005462357059121132,0.022208836133405564
1772467424359699700,2.37069970703125,0.019436521875858304,-0.022118892827630042,-0.007026263641286641
1772467424369672700,2.380672607421875,0.048046530288457866,0.005536883600056171,-0.0089213018739596
1772467424379645700,2.390645751953125,0.05123100554347038,0.01485182443410158,0.0022884397307410833
1772467424389617700,2.40061767578125,0.009489712879061698,0.003949906669557094,-0.01642477283924818
1772467424399590700,2.410590576171875,0.012053425887227057,-0.005404781652987003,-0.02885985498782247
1772467424409564000,2.42056396484375,0.025321488261222838,-0.01032177978903055,-0.022578235701378433
1772467424419536600,2.43053662109375,0.006962824749946594,-0.029673838251829145,-0.019894494776427744
1772467424429508600,2.440508544921875,0.040458851638436315,-0.03273322582244873,-0.0110684151715599
1772467424439481900,2.45048193359375,0.0540752890586853,-0.003676350425183773,0.0019618198585696516
1772467424449454800,2.460454833984375,0.04176175093054771,-0.0020700842723250386,0.031167821402940898
1772467424459426600,2.470426513671875,0.061650692749023434,-0.018921265830099582,0.026688045640382914
1772467424469399800,2.48039990234375,0.05386836830973625,-0.0008507716104388237,0.01680628297012299
1772467424479372800,2.490372802734375,0.010203998628258704,-0.006876900032162666,0.016363580703921615
1772467424489345500,2.500345458984375,0.024217910933494565,-0.0025908932760357857,0.04728882552264258
1772467424499317800,2.51031787109375,0.07520867798030376,0.00041471828073263165,0.04746622791616246
1772467424509290800,2.520290771484375,0.10168342792987822,-0.0020578093126416203,0.05328629410546273
1772467424519263700,2.530263671875,0.09942541987001895,-0.02751519891321659,0.01733350344831124
1772467424529235700,2.540235595703125,0.1374473997503519,-0.0058227148041129105,0.06330450610434636
1772467424539208700,2.550208740234375,0.0482803390443325,-0.0006894435688853263,0.08368948781145737
1772467424549181700,2.560181640625,-0.01665653576850891,-0.012375497448444366,0.060724207287561144
1772467424559154700,2.57015478515625,0.06887012260854244,-0.012924363502860069,0.029365393357165155
1772467424569126700,2.580126708984375,0.04563303940594196,-0.011765548856556415,0.009977149336133152
1772467424579099600,2.590099609375,0.02807107923030853,-0.012049918755888938,0.007651227139215916
1772467424589072600,2.60007275390625,0.023559154763817786,-0.02338993567675352,0.007267506784945726
1772467424599045600,2.610045654296875,-0.038570261412858964,-0.03954933557808399,0.02750319794816896
1772467424609017600,2.620017578125,-0.02743979558944702,-0.042972295764088626,0.01823448914233595
1772467424618990600,2.629990478515625,-0.0317757789671421,-0.06388210506290197,0.0016337569479830563
1772467424628963600,2.639963623046875,-0.006077858608961105,-0.06353577584326267,-0.014007500830758362
1772467424638935600,2.649935546875,-0.04978431386649608,-0.05393909545838833,-0.0433828675926663
1772467424648908500,2.659908447265625,0.017056348741054533,-0.0554565142840147,-0.05716227702228352
1772467424658881800,2.6698818359375,0.025198154142498968,-0.05270370844453573,-0.04448975112233311
1772467424668854800,2.679854736328125,0.020837620845437048,-0.07154489477574826,-0.032139570778235795
1772467424678826500,2.689826416015625,0.01786006633937359,-0.08340133678615093,0.023795082411542535
1772467424688799700,2.6997998046875,-0.017545009040832518,-0.10451339065879582,0.04169622054682113
1772467424698772700,2.709772705078125,0.1393120245784521,-0.07379092013686894,0.05828749992623925
1772467424708744700,2.71974462890625,0.12270341960489749,-0.09118249218165873,0.042876342842634765
1772467424718717700,2.7297177734375,0.1844599108159542,-0.13045125725269316,-0.012690910940011962
1772467424728690700,2.739690673828125,0.18089958798587322,-0.07102730064243078,-0.0010113689996302127
1772467424738663700,2.74966357421875,0.003967150065302848,-0.0898752089753747,-0.012284695626143365
1772467424748635600,2.7596357421875,0.018723405170440674,-0.11986352000385522,-0.060194511724496254
1772467424758608600,2.769608642578125,0.17428981445729733,-0.007500584888458252,-0.054210706340847535
1772467424768581600,2.77958154296875,0.03319675168097019,-0.0006657704323530197,-0.14460261440039612
1772467424778553600,2.7895537109375,0.2404956862926483,0.0036018238842487334,-0.20831642282484097
1772467424788526800,2.79952685546875,0.20364742636680602,0.08369272094815969,-0.0846784440498799
1772467424798499600,2.80949951171875,-0.06450725122392177,0.03005406974107027,0.014224111856659874
1772467424808472600,2.81947265625,-0.14319967966675756,-0.005595043528079986,0.025164352337596937
1772467424818444800,2.82944482421875,-0.052903907191753384,0.0382896909058094,-0.06052933773600962
1772467424828417800,2.839417724609375,-0.07832301060855389,0.08665273979753255,-0.042405154267465696
1772467424838390500,2.849390625,-0.2009820065498352,0.0371022346869111,-0.03203453265131684
1772467424848362800,2.85936279296875,-0.10349252317845821,0.03880670051723718,-0.09027584393182769
1772467424858335700,2.869335693359375,-0.0028998130947351453,0.09774316587150096,-0.12513846473209558
1772467424868308700,2.879308837890625,-0.022222937723994255,0.07623743650615215,-0.08913856526389717
1772467424878281500,2.889281494140625,-0.052903907191753384,0.012715396927297114,0.0061440511463908476
1772467424888253700,2.899253662109375,0.004558101695775986,0.04264145637452602,0.1005460761967115
1772467424898226700,2.909226806640625,0.004592588487267494,0.03689852880835533,0.15599497342985122
1772467424908199700,2.91919970703125,0.04393032714128494,0.017840777117013932,0.15130276049301028
1772467424918172700,2.929172607421875,-0.0023579613029956815,0.0048883565634489055,0.043007969865668565
1772467424928144600,2.93914453125,-0.027444471764564514,0.0026361937224864958,0.04463820141600445
1772467424938117600,2.94911767578125,-0.04981120187342167,0.012274375161528586,0.07148482601842843
1772467424948090600,2.959090576171875,0.006680500677227973,0.02492839729040861,0.06637099013603293
1772467424958062600,2.9690625,0.02125496947467327,0.0401022932857275,0.029576670620823278
1772467424968035600,2.97903564453125,-0.007449731484055519,0.027013971392810344,0.020567571732401847
1772467424978008800,2.9890087890625,0.02483867318034172,0.03643178807944059,-0.010109260416356847
1772467424987981600,2.998981689453125,0.03632686640024185,0.05935410624444484,-0.03072729282751679
1772467424997953500,3.00895361328125,-0.0035468788266181943,0.048912499468028545,-0.020031656491104513
1772467425007926800,3.0189267578125,0.011512743139266967,0.05012158299684524,-0.022919030229374766
1772467425017899800,3.028899658203125,0.00015314473509788512,0.040078327888250345,-0.06041122321509756
1772467425027871500,3.03887158203125,0.0013899930536746979,-0.007767419131100177,-0.08399069011458195
1772467425037844700,3.0488447265625,0.009081716600060463,-0.022334873665869236,-0.11331438148817978
1772467425047817700,3.058817626953125,-0.041133389899134634,-0.05503302817493677,-0.14000983411688356
1772467425057790700,3.068790771484375,-0.03391629812717437,-0.06015811610370874,-0.13894863462615759
1772467425067762700,3.0787626953125,0.03846446295082569,0.006008008243143558,-0.13067218826068563
1772467425077735700,3.088735595703125,0.037219431325793265,-0.0464765044927597,-0.14019417770784348
1772467425087708700,3.098708740234375,-0.006129296535253524,-0.02155073755085468,-0.09343117529074661
1772467425097681700,3.108681640625,0.03972469214498996,-0.00969049614816904,-0.06326412842818535
1772467425107653600,3.118653564453125,0.06099719727635383,-0.015925591145455838,-0.033960502595081925
1772467425117626600,3.128626708984375,-0.0065402154237031935,-0.006359598159790039,0.0024726189249195158
1772467425127599600,3.138599609375,0.03769757023155689,-0.015645020638406275,-0.010046004188107326
1772467425137571600,3.148571533203125,0.01775660596489906,-0.04429068488627672,-0.02520438295388594
1772467425147544600,3.158544677734375,-0.0044756841093301775,-0.01909779144078493,-0.007439470384945161
1772467425157517600,3.168517578125,0.025792612904310223,-0.007035597725212573,-0.03610567053076811
1772467425167490800,3.17849072265625,0.01890168434679508,0.008603577694296836,-0.06392559714475646
1772467425177462500,3.188462646484375,-0.02833995929956436,0.04803250176310539,-0.036404964004596696
1772467425187435500,3.198435546875,-0.03447042487859726,0.0597089110314846,-0.05902169595230371
1772467425197408800,3.20840869140625,0.00907704042494297,0.05491495475322008,-0.08523982252599671
1772467425207381800,3.2183818359375,-0.02530219903886318,0.04075491197556257,-0.04905302675014827
1772467425217353500,3.228353515625,-0.048806993266940116,0.027052257576584814,-0.045809962308849206
1772467425227326700,3.23832666015625,0.0040974984467029565,0.03625555472970009,-0.05235114128035493
1772467425237299700,3.2482998046875,0.00092412910759449,0.020524024851620196,-0.047060747821233234
1772467425247271700,3.258271728515625,0.011023498317599295,-0.0005818915411829948,-0.05303579450969118
1772467425257244700,3.26824462890625,0.029815877071022987,0.01742868918478489,-0.038297737214947114
1772467425267217700,3.2782177734375,0.1214355916261673,0.009196575151383876,-0.061407641240768134
1772467425277190700,3.288190673828125,0.060059039643406864,-0.03190758865326643,-0.07675985294505953
1772467425287163000,3.298162841796875,0.04515548502206802,-0.04360416392683983,-0.03984403964176308
1772467425297135600,3.308135498046875,-0.02844926489293575,-0.03720511053949594,-0.047477078103739766
1772467425307108600,3.318108642578125,0.05732639980912208,-0.03478226730674505,-0.06084590200504753
1772467425317080800,3.328080810546875,0.07460954304337501,-0.0238178057000041,-0.06647135437112302
1772467425327053800,3.3380537109375,0.03215864080488682,-0.018584873482584953,-0.042029672018578275
1772467425337026600,3.348026611328125,-0.009779635736346244,-0.008927402821183204,-0.014540073337499052
1772467425346999600,3.35799951171875,0.048052375507354736,-0.008015548673272132,-0.0188271258398192
1772467425356971800,3.3679716796875,0.023914544072747228,-0.03172814043313265,-0.016573675224068572
1772467425366944500,3.377944580078125,-0.027596447455883025,-0.04482084624022245,0.022986798235960303
1772467425376917500,3.38791748046875,0.016749474748969078,-0.03079904288947582,0.03400075697365682
1772467425386890800,3.397890869140625,0.04423310948014259,-0.037725335021317,0.037096562997950236
1772467425396862700,3.40786279296875,0.04174129266440868,-0.040168344259262086,0.041921882528858256
1772467425406835500,3.41783544921875,-0.0029728783309459685,-0.013659984301030634,0.04407385009808931
1772467425416808700,3.42780859375,0.02609831785261631,-0.015195523305237293,0.01744833003359381
1772467425426780700,3.43778076171875,0.016827216160297392,0.001946165631711483,0.018061931887292302
1772467425436753700,3.447753662109375,-0.053424131673574446,0.01337181500941515,0.03874288716656156
1772467425446726700,3.4577265625,-0.04303717769384384,0.0055246086403727525,0.015510288342833517
1772467425456699600,3.46769970703125,-0.006958733096718787,0.006773147396743297,0.005181256829109042
1772467425466671600,3.477671630859375,-0.04285656042993068,0.012341595178842544,0.019833065179083495
1772467425476644900,3.487644775390625,-0.02336976967155933,0.01635375342965126,0.014027575504407285
1772467425486617600,3.49761767578125,-0.042892216265201566,-0.00971621511131525,-0.010166529861814343
1772467425496590600,3.507590576171875,-0.018622282883524893,-0.03220774064362049,-0.030679750191629863
1772467425506562800,3.517562744140625,-0.04681786527633667,-0.012656652477383613,-0.03401707335421815
1772467425516535800,3.527535888671875,-0.04395020088553429,-0.02942220157831907,-0.04115477974703535
1772467425526508500,3.537508544921875,-0.039594928285479544,-0.023697394190728662,-0.059137358221225435
1772467425536480800,3.547480712890625,-0.0282335763156414,-0.0024698972448706624,-0.06803020118568093
1772467425546453800,3.557453857421875,-0.00635433746278286,0.0003442833930253982,-0.06391655532177537
1772467425556426800,3.5674267578125,0.022547347372770307,0.01737754351943731,-0.08210167063074186
1772467425566399500,3.5773994140625,-0.015950433325767517,0.03981821564733982,-0.07331026048045605
1772467425576371700,3.587371826171875,-0.011863456273078919,0.03698649935275316,-0.06406919773337431
1772467425586344700,3.5973447265625,0.01869534811973572,0.04870937811136245,-0.062339487863937386
1772467425596317700,3.607317626953125,0.03382569723427296,0.022294833916425703,-0.08426715070209466
1772467425606290700,3.617290771484375,0.07544891647696494,0.020849895805120467,-0.0982049472975079
1772467425616262700,3.6272626953125,0.05905833816826343,0.034710663375258445,-0.08229017894016578
1772467425626235600,3.637235595703125,0.04845744917690754,0.037192835579812525,-0.04977553690499626
1772467425636209000,3.647208984375,0.07923603380024433,0.02508271106928587,-0.09489121963963844
1772467425646180600,3.6571806640625,0.10441723680794239,0.056257017011940476,-0.06952696081576869
1772467425656153600,3.667153564453125,0.10079904631078243,0.06952274129837752,-0.037508057275135065
1772467425666126800,3.677126953125,0.14350187748372553,0.053642450599372386,-0.02642410660772584
1772467425676099800,3.687099853515625,0.14473112701773644,0.05491203214377165,0.005403914003307
1772467425686071600,3.697071533203125,0.13986498228609562,0.03516483688354492,0.029545179504016413
1772467425696044800,3.707044921875,0.16333938137590884,0.01711713901758194,0.04717922766832634
1772467425706017800,3.717017822265625,0.13859014004468917,0.021568565468490123,0.06445664441469125
1772467425715990800,3.72699072265625,0.10481178908348082,0.01530453663766384,0.07542001004288904
1772467425725962800,3.736962646484375,0.09419336443543433,0.013521452613174915,0.06158835896938108
1772467425735935700,3.746935791015625,0.017127660411596298,0.02807780123203993,0.06396731739463284
1772467425745908700,3.75690869140625,-0.005885550907254219,0.030353929470479487,0.051730178104108196
1772467425755880700,3.766880615234375,-0.004755085572600365,0.018336743940412997,0.030816213219985365
1772467425765853700,3.776853759765625,-0.05977613104879856,-0.012440087117254733,0.0277058169813361
1772467425775826700,3.78682666015625,-0.098164606153965,-0.04509557152837514,0.022377315434953197
1772467425785799700,3.796799560546875,-0.09130874890983104,-0.07838029375374317,0.009991963312774896
1772467425795771600,3.806771728515625,-0.09329846142232417,-0.10443915637880563,0.00605510792103596
1772467425805744600,3.81674462890625,-0.10640636479854583,-0.11001987912058829,0.0030487657119054345
1772467425815717600,3.826717529296875,-0.10007307012379169,-0.12593494887202977,-0.0114314489308279
1772467425825689600,3.836689697265625,-0.05770400094985961,-0.11984160043299197,-0.021980954794818534
1772467425835662600,3.84666259765625,-0.03170446729660034,-0.09133505239486694,0.02138687049234286
1772467425845635600,3.856635498046875,-0.022176175972819328,-0.08081365838050841,0.03494175958423875
1772467425855608600,3.866608642578125,0.07249123571515083,-0.09261077141910791,0.03891703815707005
1772467425865580500,3.87658056640625,0.05788461821377277,-0.07712444847375154,0.05631552399983629
1772467425875553500,3.886553466796875,0.027656653210520743,-0.049723815850913525,0.08940111605706624
1772467425885526800,3.89652685546875,0.062330491706728934,-0.012178513571619986,0.08339213969954289
1772467425895499800,3.906499755859375,0.07516133170723914,0.020379063422977923,0.08673834485490806
1772467425905471500,3.916471435546875,0.06294423969089985,0.044295068800449366,0.10015139605700969
1772467425915444700,3.92644482421875,0.054501990038156506,0.07331570384055376,0.10805726467757486
1772467425925417700,3.936417724609375,0.10207330403029918,0.07555237685143947,0.09381832057796419
1772467425935390700,3.946390625,0.09982581736445427,0.08580459853559733,0.10036423509009182
1772467425945362700,3.95636279296875,0.033848493587970735,0.09431728307604789,0.10994163538576103
1772467425955335700,3.966335693359375,0.05758358944058418,0.08048048090338707,0.07828438649806194
1772467425965308700,3.97630859375,0.05348842908143997,0.07671528315097093,0.05071824284889735
1772467425975280600,3.98628076171875,0.005310381367802619,0.0747276164650917,0.045581364017631854
1772467425985253600,3.996253662109375,0.015804887375235558,0.07594926721453667,0.023221255445806308
1772467425995226600,4.0062265625,-0.015120412242412565,0.06343903747051954,-0.015086491706501691
1772467426005199600,4.01619970703125,-0.028275661891698837,0.06374503467977047,-0.014355811944929882
1772467426015171800,4.026171875,-0.02539981419444084,0.04122311400920153,-0.009854025279963388
1772467426025144600,4.03614453125,-0.006341477981209755,0.019777298137545585,-0.028096679462445897
1772467426035117600,4.04611767578125,0.03484861054122448,0.00870060832798481,-0.0158608736124821
1772467426045089800,4.05608984375,-0.0210837045609951,-0.007573357863724231,0.004180738017056137
1772467426055062800,4.066062744140625,0.02682897021472454,-0.02610913150757551,0.0013689867982640861
1772467426065035500,4.076035400390625,0.03404197033345699,-0.03834931213855743,-0.009630564388167112
1772467426075008500,4.086008544921875,0.00388473247885704,-0.06763765820413828,-0.01515383045482449
1772467426084980700,4.095980712890625,0.042622167152166365,-0.09381722459942102,-0.01879761205096729
1772467426094953700,4.10595361328125,0.05534896225631237,-0.11266776328086853,-0.01768997046947479
1772467426104926500,4.115926513671875,-0.000678045392036438,-0.10264672000408172,-0.0030647578654810783
1772467426114899700,4.125899658203125,0.06343348451256751,-0.1049222637206316,0.0017453732294496148
1772467426124871700,4.13587158203125,0.057573652568459505,-0.07365414201468229,0.026213002874003723
1772467426134844700,4.1458447265625,0.0364554612159729,-0.04288374069780111,0.015158999820286408
1772467426144817700,4.155817626953125,0.05523205787837505,-0.03075461922585964,0.018980585668748242
1772467426154789600,4.16578955078125,0.011619126123189926,0.019426000481843946,0.05329163700086064
1772467426164762600,4.1757626953125,-0.033790625920891756,0.016433248406648636,0.03178114012884907
1772467426174736000,4.18573583984375,-0.039811201384663576,0.03277911079078913,0.034570250257570295
1772467426184708600,4.19570849609375,-0.06899053411781787,0.03904226283878088,0.06456618747008033
1772467426194680600,4.2056806640625,-0.06770692404806614,0.03355097194612026,0.0706018235056661
1772467426204653800,4.21565380859375,-0.04017477400004864,0.04373714265674353,0.07948537805196829
1772467426214626600,4.22562646484375,-0.020475217273831368,0.07676525977253913,0.0944788577127736
1772467426224599600,4.235599609375,0.008149988707900046,0.06587737053334712,0.09196178772477433
1772467426234571800,4.24557177734375,0.025513795962929724,0.06117167706042528,0.07515984300305135
1772467426244544800,4.255544677734375,0.020420856738090513,0.05485387221574783,0.08062007203716784
1772467426254517500,4.265517578125,0.020429624566435812,0.04782499649226665,0.08818057041931897
1772467426264490500,4.275490478515625,0.03632160570323467,0.027210370747745037,0.08902442823178135
1772467426274462700,4.285462646484375,0.04603928211927414,0.028404548968374726,0.0878611840055324
1772467426284435700,4.295435791015625,0.13086626779437063,0.010864800624549389,0.0681861863318365
1772467426294408200,4.305408203125,0.08632394623458385,-0.0031087796702980995,0.055443737000832334
1772467426304380200,4.315380126953125,-0.011335048484802246,-0.02779781524688005,0.07022162854904308
1772467426314353200,4.325353271484375,-0.03369827146232128,-0.03971183266341686,0.0558376042897813
1772467426324326400,4.335326416015625,-0.003070493486523628,-0.050693245404958724,0.019918387108668684
1772467426334299100,4.345299072265625,-0.030136195066571232,-0.039459319207072255,0.001192415521806106
1772467426344271000,4.35527099609375,-0.04933247844576835,-0.03718260644674301,-0.0076087671038229015
1772467426354244400,4.365244384765625,-0.04512333631813526,-0.03583762157857418,-0.03442785524534993
1772467426364217300,4.37521728515625,-0.06244038182199001,-0.020203999117016792,-0.0407129177310504
1772467426374190000,4.385190185546875,-0.03057809361517429,-0.007195464462041855,-0.04185062565724365
1772467426384162300,4.395162353515625,0.009731704941391944,-0.014822306078672408,-0.054642987677734345
1772467426394135300,4.40513525390625,0.010348960056900978,-0.025801380732655525,-0.05187578798672184
1772467426404108300,4.4151083984375,0.02117255188822746,-0.02233370462208986,-0.03423321858923882
1772467426414080300,4.425080322265625,0.030528409254550932,-0.026937106764316557,-0.022239477866841478
1772467426424053200,4.43505322265625,0.02048983032107353,-0.024630291126668452,-0.06229995957114733
1772467426434026200,4.445026123046875,0.0789449418991804,-0.03745791625678539,-0.04815823790146969
1772467426443999000,4.4549990234375,0.038300212299823756,-0.02459200494289398,-0.03426275521097705
1772467426453971200,4.46497119140625,0.06853051539063454,-0.02153027928471565,-0.03836293880511075
1772467426463944200,4.474944091796875,0.09214578425586223,-0.013287643857300281,-0.002429894028045237
1772467426473917200,4.484917236328125,0.023571429723501205,-0.005086801744997501,0.011553367410600184
1772467426483890200,4.49489013671875,0.04186111965179443,-0.012290157252550124,0.02801370475357398
1772467426493862100,4.504862060546875,0.03248363497555256,-0.02116699893027544,0.02746754211289808
1772467426503835100,4.514835205078125,0.054584407624602316,-0.03007920418232679,0.01411513505685143
1772467426513808100,4.52480810546875,0.06872516117990017,-0.03308598478287458,0.010889825467951595
1772467426523780000,4.534780029296875,0.06836801830530166,-0.027898060750961302,0.02015086242398247
1772467426533753000,4.544753173828125,0.05761515362262726,-0.029964053370058533,0.04395624703383073
1772467426543726000,4.55472607421875,0.04679974509775638,-0.017883739475905894,0.051554940268211065
1772467426553699300,4.56469921875,0.018016133683919907,-0.005582184046506881,0.0649347559209913
1772467426563671000,4.574671142578125,0.020333178454637526,-0.006982113972306251,0.08231382467723451
1772467426573644300,4.584644287109375,0.0003559738308191299,0.0032341596156358716,0.07023459762847051
1772467426583617300,4.5946171875,0.030334932509064674,0.009863514627516268,0.04732122995490208
1772467426593590300,4.60459033203125,0.012895721930265426,0.02088496711850166,0.050357346247788516
1772467426603562200,4.614562255859375,-0.00853285054564476,0.0065951604813337325,0.060459364072605964
1772467426613535200,4.62453515625,0.008268062129616737,0.016010639080405235,0.06263995951469987
1772467426623508200,4.63450830078125,0.008003273713588714,0.02022796451449394,0.056180937834735954
1772467426633481200,4.644481201171875,0.004483282893896103,0.020455635790526866,0.06578013897025957
1772467426643453200,4.654453125,0.023158757269382477,0.01622866574525833,0.052207577224355185
1772467426653426200,4.66442626953125,0.013966566032171248,0.010790274083614349,0.04193595671998337
1772467426663399200,4.674399169921875,0.0022878186762332916,0.004446458014845848,0.048237029625568535
1772467426673371100,4.68437109375,0.02667991713285446,0.0037669513180851933,0.04663291889717802
1772467426683344100,4.69434423828125,0.01834872663915157,0.009438567213714123,0.03014497202807106
1772467426693317000,4.704317138671875,0.009763853645324706,-0.00982902783602476,0.007269991002976894
1772467426703290000,4.7142900390625,0.04069382943809032,-0.032898060995340345,-0.005938724132906645
1772467426713262000,4.724261962890625,0.04753448911309242,-0.043563831916451454,-0.011144229487283155
1772467426723235000,4.734235107421875,0.03610124095082283,-0.05391834493130445,-0.024809748479956758
1772467426733208000,4.7442080078125,0.06770107882916927,-0.043727790306508536,-0.0443923277630005
1772467426743181300,4.754181396484375,0.013716975185275078,-0.030702889038622377,-0.04188057327093556
1772467426753153000,4.764153076171875,0.015534253740310668,-0.017461130149662493,-0.042658398376172406
1772467426763126000,4.7741259765625,0.034761516779661175,-0.003790332193672657,-0.03959039824083447
1772467426773099300,4.784099365234375,0.015072481447458267,-0.0014689035087823868,-0.03527046181564219
1772467426783071200,4.7940712890625,0.0009942717343568801,-0.006061784256994724,-0.019546923447772858
1772467426793044000,4.8040439453125,-0.051496963003277774,-0.0012310030996799469,-0.016514633946632964
1772467426803017200,4.814017333984375,-0.03146305975615978,0.00006897358298301697,-0.03706499881590716
1772467426812990200,4.823990234375,-0.02899754642546177,0.02365180148333311,-0.04288497367366217
1772467426822962200,4.833962158203125,-0.029384499916434288,0.0415530766159296,-0.016983301771152762
1772467426832935200,4.84393505859375,-0.0015261866539716719,0.0356318698734045,0.0035729722490999843
1772467426842908200,4.853908203125,0.03915712139010429,0.03707300859242677,0.02265469847107306
1772467426852881200,4.863881103515625,0.07785363953113555,0.054685529911518094,0.030392928040307014
1772467426862853000,4.87385302734375,0.10050269371271132,0.04980360308885574,0.02642411574088037
1772467426872826000,4.883826171875,0.14498305595219135,0.03025660657584667,0.02180381726277992
1772467426882799000,4.893799072265625,0.14364274725914,0.02431523382812738,0.043142035440960895
1772467426892771300,4.903771240234375,0.07674246341884136,0.007923486475646495,0.06094339386303909
1772467426902744000,4.913744140625,0.07060089192390441,0.003261632144451141,0.07448344157882966
1772467426912717000,4.923717041015625,0.045604982355237,0.003759352533519268,0.0867819922003895
1772467426922690000,4.93368994140625,-0.0041238019317388535,-0.01501782865077257,0.07443454266949556
1772467426932662300,4.943662353515625,-0.02018003371953964,-0.028581074579060076,0.041208080836851145
1772467426942635000,4.953635009765625,-0.03553893089294433,-0.01928951462060213,0.022941662186291067
1772467426952608000,4.96360791015625,-0.06837210995852946,-0.0243275087878108,0.004106056212494149
1772467426962581200,4.973581298828125,-0.08883680583834648,-0.010431377643346786,-0.0269785712858662
1772467426972553200,4.98355322265625,-0.07315642162561416,-0.0010693827971816063,-0.04914331254921853
1772467426982526000,4.99352587890625,-0.09066694387495518,0.002113631153106689,-0.04645853044465184
1772467426992499200,5.003499267578125,-0.06913374198079109,-0.0013099135547876358,-0.050542484423192216
1772467427002471200,5.01347119140625,-0.03071545625925064,-0.002586217100918293,-0.052965492052724585
1772467427012444200,5.023444091796875,0.013871288964152335,-0.014574468797445296,-0.06839287875192239
1772467427022417200,5.033417236328125,0.03101999216377735,-0.010229425330460071,-0.07875564813846722
1772467427032390100,5.04339013671875,0.04891863694787025,-0.007358838330209254,-0.07282524430933408
1772467427042362000,5.053362060546875,0.031121114450693127,0.002995382423698902,-0.08267330563939176
1772467427052335400,5.06333544921875,0.040458851638436315,0.00948182183355093,-0.08003004285530187
1772467427062308000,5.07330810546875,0.07392214530110358,0.010753741465508938,-0.06481405215077102
1772467427072281000,5.083281005859375,0.07708323968052863,0.010360065972805022,-0.07816888862592168
1772467427082253300,5.09325341796875,0.0563233602464199,0.007141396187245845,-0.07628055412867106
1772467427092226300,5.103226318359375,0.08726035030186176,-0.007786123831570148,-0.06677658439539373
1772467427102199000,5.113198974609375,0.09649696520268916,0.00950491044819355,-0.06544253191319294
1772467427112171300,5.123171142578125,0.06733692169189452,0.013457739727199077,-0.033913813909143206
1772467427122144300,5.133144287109375,0.0558919830918312,-0.008025485545396805,-0.036177429725881664
1772467427132117200,5.1431171875,0.0806967540025711,-0.020644728621840476,-0.021572693654336034
1772467427142090000,5.153090087890625,0.08727847048044204,-0.03554039219766855,0.004994118492864072
1772467427152062200,5.163062255859375,0.0405728334069252,-0.04367869046777487,0.005854297252465039
1772467427162035200,5.17303515625,0.020799042400717734,-0.02956131778806448,0.004086511261807754
1772467427172008200,5.18300830078125,-0.007684124761819839,-0.008231237250566481,-0.01511682291268371
1772467427181981200,5.192981201171875,0.024255320334434508,0.0047451487004756925,-0.043432926412625236
1772467427191953200,5.202953125,-0.0021679916888475417,0.034677930149435994,-0.04846422597756609
1772467427201926100,5.212926025390625,-0.07464812148809433,0.01764379324018955,-0.03159685133681633
1772467427211899400,5.2228994140625,-0.05035480723083019,-0.010614332994818686,-0.03903050846890546
1772467427221871000,5.23287109375,-0.04897182843983173,-0.008118132264912129,-0.02568344430825673
1772467427231844000,5.242843994140625,-0.017905074524879456,-0.006415712261199951,-0.0045525213383603835
1772467427241817300,5.2528173828125,0.001218143618106842,-0.009596972645819187,-0.017506001337850467
1772467427251790300,5.262790283203125,-0.014126725029945372,-0.015964169590175152,-0.006590557371452451
1772467427261762000,5.272761962890625,0.03187923934161663,-0.0046671150282025335,-0.005098857508972287
1772467427271735300,5.2827353515625,0.030984336328506466,0.0004588496834039688,-0.02620484696701169
1772467427281708300,5.292708251953125,-0.009872574716806411,-0.011325988395512103,-0.015423495975369586
1772467427291681000,5.302680908203125,0.009392097723484039,-0.03630903848260641,-0.018440021651796996
1772467427301657300,5.3126572265625,0.03304886764287948,-0.055177112820744514,-0.033135486480407414
1772467427311630600,5.322630615234375,-0.007813888621330261,-0.0678586074784398,-0.013796661958517507
1772467427321602300,5.332602294921875,0.03524082472920417,-0.07517272988408803,-0.004869460066733881
1772467427331574500,5.342574462890625,0.09566402150988579,-0.06948591641932725,-0.034418000571615995
1772467427341547500,5.352547607421875,0.06407938120067119,-0.07067834107428789,-0.032077985917264594
1772467427351520300,5.362520263671875,0.02235679323673248,-0.05698708485215902,-0.04481325658881105
1772467427361493200,5.3724931640625,0.03237549842596054,-0.038114042077958585,-0.05000902600046247
1772467427371465500,5.382465576171875,0.0072796356141567225,-0.009397066159546375,-0.04165709411283024
1772467427381438500,5.3924384765625,-0.03874795606732368,0.007163315758109092,-0.007332361315237358
1772467427391411200,5.4024111328125,0.02185585797727108,0.019414310044050215,-0.0001925177642609924
1772467427401383400,5.412383544921875,0.039194530791044235,0.025853987702727316,0.011158093615854158
1772467427411356400,5.4223564453125,-0.024861469534039497,0.020514964762330053,0.013591330378456041
1772467427421329400,5.432329345703125,0.008045359289646148,0.004469546629488468,0.0048322515951935196
1772467427431302400,5.442302490234375,0.06116144792735576,0.02107552125453949,0.005975475946720689
1772467427441274400,5.4522744140625,0.028623452416062352,0.04044394633024931,0.01633945090966299
1772467427451247400,5.462247314453125,0.017221183913946152,0.05219137500822544,0.01798419504254125
1772467427461220600,5.472220703125,0.029196283867955208,0.0797664874151349,0.03388456954834983
1772467427471193300,5.482193359375,0.06231821674704551,0.040815702252089976,0.04361207323865965
1772467427481165300,5.492165283203125,0.07954699944555758,0.0199421333104372,0.0754870199976489
1772467427491138600,5.502138671875,0.05719429786205291,0.003418576271831989,0.06752833434445783
1772467427501111600,5.512111572265625,0.09044599460065364,-0.046160862672328946,0.08722000002516433
1772467427511083300,5.522083251953125,0.07935469174385071,-0.08264964163601397,0.09043969272403046
1772467427521056500,5.532056396484375,0.04160451454222202,-0.08328881632238626,0.07237316229343414
1772467427531029500,5.542029541015625,0.06823474731445311,-0.0601598696693778,0.08490039797117933
1772467427541002500,5.55200244140625,0.06255144098103047,-0.03474456564486027,0.07193181173410267
1772467427550974500,5.561974365234375,0.026972178077697754,-0.0364662748709321,0.046732753409305584
1772467427560947500,5.571947509765625,0.065599722635746,0.02433101591914892,0.01235658268542029
1772467427570920400,5.58192041015625,0.019326631760597228,0.021503975799679755,-0.0665562927082181
1772467427580893400,5.5918935546875,-0.23909575636684893,-0.10113836126774549,-0.012109923581127077
1772467427590865400,5.601865478515625,-0.06990998705029487,-0.012854513137042521,0.03884214628995396
1772467427600838400,5.61183837890625,-0.0408253468632698,0.03647328913360834,-0.02140552039388567
1772467427610811400,5.621811279296875,-0.03747194478213787,-0.0027598201021552084,-0.01384546040315181
1772467427620784600,5.63178466796875,-0.008240005078911782,0.018531097468733788,0.05918746270695701
1772467427630756400,5.64175634765625,-0.017715104910731316,0.03741436937600374,0.07979490979202092
1772467427640729300,5.651729248046875,-0.02817395508289337,0.01338438223004341,0.08321086484850383
1772467427650702600,5.66170263671875,0.04678454752862453,0.011282733775675296,0.0368838244295679
1772467427660674300,5.67167431640625,0.1991115365028381,0.0637061639741063,0.0677623988286592
1772467427670647300,5.681647216796875,0.10399228939414024,0.07723200050145387,0.10154195536626502
1772467427680620500,5.69162060546875,0.08225684292614459,0.07541676777303219,0.043801074738427995
1772467427690593500,5.701593505859375,0.14758827001452446,0.10506050314754246,-0.0053430072790593836
1772467427700565200,5.711565185546875,0.11180150184035301,0.11414105070382356,-0.013023434254940366
1772467427710538500,5.72153857421875,0.002734393399953842,0.0980310429021716,-0.004605956000561127
1772467427720511500,5.731511474609375,-0.03666998074948787,0.07426409060657024,-0.07988537368760444
1772467427730484500,5.741484375,0.048451019436120984,0.09630407297909259,-0.09007652196744456
1772467427740456400,5.75145654296875,-0.03971417075097561,0.07419131763130427,-0.058887155452976
1772467427750429400,5.761429443359375,-0.10868132399320601,-0.0008697685718536376,-0.0505394978816621
1772467427760402400,5.77140234375,-0.14495266081392763,-0.04080664216279983,-0.03674607134313555
1772467427770374700,5.781374755859375,-0.1338748019605875,-0.037656945960223676,-0.02197411862865556
1772467427780347400,5.791347412109375,-0.10026830043494701,-0.06662643533498049,-0.03237641630799044
1772467427790320400,5.8013203125,-0.08833119440376758,-0.06100128892958164,-0.01367252640548395
1772467427800293400,5.81129345703125,-0.05575052879452705,-0.04119944087266922,0.0060224226442747745
1772467427810265300,5.821265380859375,0.011563012021780013,-0.02779313907176256,0.023624123458540997
1772467427820238300,5.83123828125,0.02976560818850994,-0.0307847221031785,0.020619438916957004
1772467427830211300,5.84121142578125,0.020424363869428634,-0.048073710556328295,0.007527915853378362
1772467427840184600,5.8511845703125,0.06627601446211338,-0.03844546598941088,-0.015257377594267017
1772467427850156300,5.86115625,0.07095569671094418,-0.032706337815523144,-0.01236539617953822
1772467427860129300,5.87112939453125,0.012175006440281867,-0.049178456927835935,-0.02524680645666085
1772467427870102500,5.8811025390625,0.01513853242099285,-0.026146540908515453,-0.015449425001069902
1772467427880074500,5.891074462890625,0.08455869012773036,-0.005154898545145988,-0.004311789651354775
1772467427890047200,5.901047119140625,0.03819967453479767,0.0072772975265979764,0.016789614963112397
1772467427900020500,5.9110205078125,0.06604512831568718,0.009242460119724273,0.010722926202137023
1772467427909993500,5.920993408203125,0.06140051738023757,0.01544394510835409,0.01418613848342793
1772467427919965400,5.93096533203125,0.027372575572133063,-0.006735737995803356,0.012802901680814101
1772467427929938400,5.9409384765625,0.018502455896139143,-0.016635785241425036,0.022086940486519595
1772467427939911400,5.950911376953125,-0.011576456025242805,-0.010407119984924792,0.0013266820264980195
1772467427949884400,5.960884521484375,0.03811901051402092,-0.0019110943183302878,-0.024865355691290458
1772467427959856400,5.9708564453125,0.04225917905867099,0.021904081033170222,-0.03436910394557053
1772467427969829400,5.980829345703125,-0.013098551025986671,0.015577508360147475,-0.04331567954139318
1772467427979802400,5.99080224609375,0.018989947152137754,0.013147943125665187,-0.02315444870373467
1772467427989775400,6.000775390625,0.08586626559495926,0.04435702812075615,0.006218216927722096
1772467427999747600,6.01074755859375,0.04486848477423191,0.021891806073486803,0.011880886898492463
1772467428009720300,6.02072021484375,0.038733343020081516,-0.011455752255022525,-0.0260558509673574
1772467428019693300,6.030693359375,0.06958031670451163,-0.029046354003250598,-0.0499405182083603
1772467428029665500,6.04066552734375,0.011370119798183441,-0.05078852247297763,-0.06673043456557207
1772467428039638500,6.050638427734375,0.009666823011636733,-0.05702157164365053,-0.05191578663697
1772467428049611300,6.060611328125,0.047555531901121134,-0.017259470097720622,-0.037031546354165765
1772467428059584300,6.070584228515625,0.0930798502355814,0.005415887568891048,-0.008784060244180728
1772467428069556500,6.080556396484375,0.1008914007693529,0.011606266641616821,0.00311729177031666
1772467428079529500,6.090529541015625,0.13435644799768923,0.031629648494720455,0.02397174730283441
1772467428089502200,6.100502197265625,0.13154898936152457,0.04624912547767162,0.041751658794796094
1772467428099475500,6.110475341796875,0.018662614893913267,0.02757218979746103,0.04472962429281324
1772467428109447400,6.120447509765625,-0.004924596920609474,0.03674684537798166,0.04204370054393075
1772467428119420400,6.13042041015625,0.008365677285194396,0.06764233437925576,0.07600936337132007
1772467428129393400,6.140393310546875,-0.07889058136343956,0.058948740313947194,0.05796123168051708
1772467428139366400,6.150366455078125,-0.17351240034401416,0.023873043018579482,0.03497264562955824
1772467428149338400,6.16033837890625,-0.18982465271949767,0.025955402250587938,0.012380872309883124
1772467428159311600,6.1703115234375,-0.1916366705775261,0.016160568945109845,0.002224425450665876
1772467428169284400,6.180284423828125,-0.20493863522112368,-0.017054887436330317,0.01080461085293209
1772467428179256300,6.19025634765625,-0.18284429231286048,-0.018688041596114636,0.011456583372084423
1772467428189229600,6.2002294921875,-0.08769289650022984,-0.0025622517034411428,0.020046411102241837
1772467428199202600,6.21020263671875,-0.037032384321093556,-0.022303894005715846,0.00603685074513778
1772467428209175300,6.22017529296875,-0.04266016107499599,-0.039653380474448205,-0.012980829230719245
1772467428219147500,6.2301474609375,-0.004149520894885063,-0.043104105450212954,-0.02314903045981191
1772467428229120500,6.24012060546875,0.045137949365377426,-0.04128478106856346,-0.006684616304986411
1772467428239093200,6.25009326171875,0.041508068430423734,-0.050294016954302787,-0.0018531528724874077
1772467428249066200,6.260066162109375,0.0797474904537201,-0.04893091190755367,-0.036585581268509845
1772467428259038500,6.27003857421875,0.15625088441967963,-0.028621698850393295,-0.05354405455908272
1772467428269011500,6.280011474609375,0.18725041831731795,-0.009946808996796607,-0.01538308290823479
1772467428278984200,6.289984130859375,0.13178396716117857,-0.034038755463063716,-0.0086129574439954
1772467428288956400,6.299956298828125,0.197160986956954,-0.02782791812419891,-0.012690420032956172
1772467428298925000,6.309925048828125,0.19223814360201358,0.01899111619591713,-0.025210961108433547
1772467428308898000,6.31989794921875,0.1438835702776909,0.060302493010461325,-0.01491407373206457
1772467428318871000,6.32987109375,0.15684709674715994,0.08680120835751294,0.014246919626800808
1772467428328843000,6.339843017578125,0.11655249575972557,0.08314473167657851,0.00825356096351752
1772467428338816000,6.34981591796875,0.04921849667727947,0.06288754106760025,0.02649112569564022
1772467428348789000,6.3597890625,0.019618308183550835,0.04730711009800434,0.049294370358507145
1772467428358762000,6.369761962890625,0.017447978407144547,0.024535598580539227,0.049705202481988814
1772467428368734200,6.379734130859375,0.036603345254063606,0.01931961749792099,0.05122608277318068
1772467428378707000,6.38970703125,0.03403554059267044,0.01374298640936613,0.04257641918114386
1772467428388680000,6.399679931640625,0.0419844537705183,0.0025222119539976117,0.03215372945104027
1772467428398653000,6.40965283203125,0.0949310310602188,-0.014521861827373504,0.03046118467065971
1772467428408625200,6.419625244140625,0.08671089972555637,-0.027292203812301158,0.054865224726824084
1772467428418598000,6.429597900390625,0.07015431720018386,-0.061281274914741515,0.06142065141939092
1772467428428571000,6.43957080078125,0.11397884587943553,-0.07938625592589378,0.017019012405350805
1772467428438543000,6.449543212890625,0.08123217605352401,-0.07000497185736894,0.004358962394483387
1772467428448516000,6.45951611328125,0.05121463893055916,-0.09042056789845228,-0.01738619261677377
1772467428458488800,6.46948876953125,0.032792262533307075,-0.08546937523186206,0.016939179501635954
1772467428468462000,6.479462158203125,-0.04860065703988075,-0.07562807243615388,0.015686005669343285
1772467428478434000,6.48943408203125,-0.10050561632215976,-0.09661357731968163,-0.01881760909280274
1772467428488407000,6.499406982421875,-0.10904606565237045,-0.07284604050219058,-0.025565941708697935
1772467428498380000,6.509380126953125,-0.15288637642264366,-0.04098813620954752,-0.0033231393736088645
1772467428508353000,6.51935302734375,-0.16404548381865022,-0.04029080159515142,-0.01896172113807406
1772467428518325000,6.529324951171875,-0.15398118592202661,-0.036978023785352705,-0.005577644868707284
1772467428528298200,6.53929833984375,-0.10044131891429424,-0.01735007099062204,-0.049626273760572076
1772467428538271000,6.54927099609375,-0.04837327802479267,-0.002480126377940178,-0.08134124418487772
1772467428548243000,6.559242919921875,-0.08437982642948627,-0.002379296351969242,-0.05442033050353638
1772467428558216200,6.56921630859375,-0.041558921834826464,0.03407236547172069,-0.032425196486315686
1772467428568189200,6.579189208984375,-0.01852875938117504,0.06804156282991171,0.002959333862783387
1772467428578162000,6.589161865234375,-0.08355565056502819,0.06853957547992467,0.019203192610596307
1772467428588134100,6.599134033203125,-0.036871640801429746,0.05876870757192373,0.012597510735248214
1772467428598107100,6.609107177734375,0.021086042648553845,0.05370382539778947,0.005817591104423627
1772467428608080100,6.619080078125,0.034730537119507784,0.03102612964361906,0.015619822265068068
1772467428618052900,6.629052978515625,0.048993455749750135,0.04114741842448711,0.02330264098579064
1772467428628025000,6.639025146484375,0.07664777087271213,0.05375292523652315,0.023021650353632867
1772467428637998000,6.648998046875,0.11067980433404445,0.07309007839113474,0.02783192757903598
1772467428647971000,6.65897119140625,0.09389350470602512,0.06751403182446956,0.05846084719914943
1772467428657944000,6.668944091796875,0.11709902372658253,0.06398907256871461,0.04975532523402944
1772467428667916000,6.678916015625,0.16386135942339897,0.06663578768521547,0.014501494892779737
1772467428677889000,6.688888916015625,0.1773755055129528,0.03410100704431534,0.0015531751255970447
1772467428687862300,6.6988623046875,0.13798515988886356,0.0070341364204883575,0.03546375589803792
1772467428697834000,6.708833984375,0.0853758517295122,0.0007242226213216781,0.04269537851884961
1772467428707807000,6.718806884765625,0.12465981436967849,0.009036708414554595,0.012897329365462064
1772467428717780200,6.7287802734375,0.12247428702414036,0.025718086363375185,0.04915841878680512
1772467428727753200,6.738753173828125,0.02609130358994007,0.015486907467246055,0.06567375598633661
1772467428737725000,6.748724853515625,-0.006228080734610557,-0.0071586395829916,0.03439516768530011
1772467428747698200,6.7586982421875,-0.023256956946849823,-0.008576105165481566,-0.026007452098233623
1772467428757671200,6.768671142578125,-0.05399579408168793,-0.013713468053936957,-0.038660405648034066
1772467428767644000,6.778643798828125,-0.05105506445467472,-0.03217413063496351,-0.07176332329940051
1772467428777616100,6.7886162109375,-0.04479600405991077,-0.026941198417544363,-0.0854924364470411
1772467428787589000,6.798589111328125,-0.004787818798422813,-0.023656477658450602,-0.09575242131254635
1772467428797562000,6.80856201171875,-0.00023965397477149962,-0.04697977783977985,-0.10052963651856407
1772467428807534800,6.818534912109375,0.04745967031121254,-0.03202069363892078,-0.11396749336835928
1772467428817507000,6.828507080078125,0.08483809159100056,-0.01014145478606224,-0.08655253995922393
1772467428827480000,6.83847998046875,0.009786065477132797,-0.04299392307400703,-0.06337303216275758
1772467428837453000,6.848453125,-0.0025759879678487778,-0.05785860698968172,-0.02880473640025593
1772467428847426000,6.858426025390625,0.0579746345847845,-0.03855652514845133,-0.06049011540389619
1772467428857398000,6.86839794921875,0.04713759874999523,-0.03199848180711269,-0.07552981795975938
1772467428867371000,6.87837109375,0.019257073655724523,-0.025043548102676866,-0.01645079319649376
1772467428877344300,6.88834423828125,-0.03590074994266033,0.007236380994319915,0.012964996907347813
1772467428887316000,6.89831591796875,0.012815057909488677,0.031845044811069964,-0.037491051341407
1772467428897289000,6.9082890625,0.05519172586798667,0.05634440303444862,-0.023580060554528607
1772467428907262200,6.91826220703125,0.007995674929022789,0.059656596322357654,0.062839802068891
1772467428917235200,6.928235107421875,-0.011529694274067878,0.024672084441781043,0.044333345851069315
1772467428927207000,6.93820703125,0.018070494219660758,0.023536650671064852,-0.054579968911502505
1772467428937180200,6.94818017578125,0.02034603793621063,0.05567249512225389,-0.014096969212498514
1772467428947153200,6.958153076171875,-0.03480243331193924,0.04363485132604837,0.04704864182490855
1772467428957126100,6.968126220703125,-0.05244038133323192,0.04890519294440746,0.040705812136828896
1772467428967098000,6.97809814453125,-0.0018137714236974715,0.07625146503150462,0.048959964472102
1772467428977071000,6.988071044921875,-0.009146014007925987,0.048131285962462425,0.04278806177098304
1772467428987044000,6.998044189453125,-0.01144552312195301,-0.005286415970325469,0.03604963862774893
1772467428997016000,7.00801611328125,0.008970657441020012,-0.048507133537530896,-0.06102880712416954
1772467429006989000,7.017989013671875,0.031789222970604894,-0.05912029748857021,-0.09036796092838048
1772467429016962000,7.027962158203125,0.02273380985558033,-0.07066285124421119,-0.04365023155827075
1772467429026935000,7.03793505859375,0.07455050633251667,-0.0631140432998538,-0.0205382360400632
1772467429036907000,7.047906982421875,0.09531155481040478,-0.054201253525912756,-0.00839544223579578
1772467429046880000,7.0578798828125,0.10018237571716308,-0.05276946715712547,-0.006224281342327594
1772467429056853000,7.06785302734375,0.06748480572998523,-0.07065057628452777,-0.033548286798689514
1772467429066826000,7.077825927734375,0.007058686339855193,-0.09368804526180029,-0.07631160685406066
1772467429076798000,7.0877978515625,-0.02292377946972847,-0.1110217496395111,-0.0970271265566349
1772467429086771000,7.09777099609375,-0.04635960011482238,-0.12280921806693076,-0.08854013357986695
1772467429096744000,7.107743896484375,-0.05499824912250042,-0.11938713466376065,-0.10186641981396824
1772467429106717200,7.11771728515625,-0.04352466894984245,-0.1363563896432519,-0.1288838618054986
1772467429116689000,7.12768896484375,-0.003919219270348549,-0.08923252715766429,-0.1380374745979905
1772467429126662000,7.137661865234375,-0.06762450646162033,-0.08637859903126954,-0.07293497916096821
1772467429136635100,7.14763525390625,-0.04857493807673454,-0.09356617244780063,0.0063809423419181254
1772467429146608000,7.157608154296875,0.018733926564455033,-0.0633510669261217,0.006595306611806154
1772467429156580000,7.167580078125,0.024519524228572846,-0.07476356456130742,0.0021567579087801276
1772467429166553000,7.177552978515625,0.01724047313630581,-0.07833090165406464,0.02894066513907164
1772467429176526000,7.187526123046875,0.04760229365229606,-0.05804506947249174,0.03872340614795684
1772467429186499000,7.1974990234375,0.0910451295375824,-0.025728607757389544,-0.0011963336450979112
1772467429196471000,7.207470947265625,0.038576691153645516,-0.00830196439921856,-0.01654885587664321
1772467429206444000,7.217444091796875,0.06887129165232181,0.027972879552841185,-0.04027397832451388
1772467429216417000,7.2274169921875,0.11877952415943145,0.1002162779867649,-0.050388928696140645
1772467429226389000,7.237388916015625,0.04368482794761658,0.09297405177354812,-0.02311910111242905
1772467429236362000,7.247362060546875,-0.002315291205048561,0.061462768961489195,0.02648967352407053
1772467429246335000,7.2573349609375,0.05646423002183437,0.04845335752367973,0.01469796731295064
1772467429256308000,7.267307861328125,0.07500292627513408,0.03865677065253258,0.021069529905170203
1772467429266280000,7.277280029296875,0.08711246626377105,0.010534253495931624,0.022606530214101073
1772467429276253000,7.2872529296875,0.12644377517700195,0.017009586989879606,0.01705605648010969
1772467429286226000,7.297225830078125,0.18188392284810542,0.014806523987650871,0.017748751452006398
1772467429296199200,7.30719921875,0.21286358300149438,0.007817688013613223,0.04316986416280269
1772467429306174700,7.3171748046875,0.17013503286540507,0.014471008422970772,0.1195919730534777
1772467429316147500,7.3271474609375,0.1275485215485096,0.005956278055906296,0.10409352127891033
1772467429326120700,7.33712060546875,0.16904139240980148,0.035227380725741386,0.13601044401610268
1772467429336092700,7.3470927734375,0.09179974729716778,0.06922434287369252,0.09587424846077337
1772467429346065700,7.357065673828125,0.0048287353307008745,0.015756664319336415,0.08422739408044144
1772467429356038700,7.36703857421875,0.01450374164879322,0.01154839897453785,0.06304368147738278
1772467429366011600,7.37701171875,-0.00016775778234004974,0.10338935506492852,0.10079327415712178
1772467429375983600,7.386983642578125,-0.1685258441030979,0.0880558845937252,0.014589629833959042
1772467429385956900,7.396956787109375,-0.2176642612814903,0.0156897365629673,-0.13819984381916
1772467429395929600,7.4069296875,-0.02832125459909439,0.08405483225882053,-0.19880133804250508
1772467429405902600,7.416902587890625,-0.06104805068075657,0.06422814202159642,-0.21058292471840975
1772467429415874800,7.426874755859375,-0.051149757000803944,-0.013688625873625277,-0.09869772664997727
1772467429425847800,7.436847900390625,0.003537526476383209,-0.09003069179803133,-0.028056320052593946
1772467429435820500,7.446820556640625,-0.006238602128624916,-0.0870931770414114,0.049927740925177926
1772467429445793500,7.45679345703125,-0.004352349990606308,-0.06434007796347141,0.18741127143483607
1772467429455765800,7.466765869140625,-0.014806523987650871,-0.05728606779873371,0.14951375818438828
1772467429465738800,7.47673876953125,0.0208440505862236,0.018745032480359077,0.07689337966423482
1772467429475711500,7.48671142578125,-0.05871639286279678,0.07071545821428299,0.020093853273428976
1772467429485684700,7.496684814453125,-0.12229600784778594,0.06977963866889476,-0.06469722083806992
1772467429495656700,7.50665673828125,-0.09355214392244815,0.06545242311954498,-0.24108079270422458
1772467429505629700,7.516629638671875,-0.043965398454666134,0.08243482984155416,-0.16055614386554806
1772467429515602700,7.526602783203125,-0.11158113708794117,0.007046411380171776,0.031952523773536086
1772467429525574700,7.53657470703125,-0.07779869447350501,-0.07853431527167558,0.073789203103818
1772467429535547600,7.546547607421875,0.05722001682519912,-0.07487374693751335,0.04421440477967262
1772467429545521000,7.55652099609375,0.07289572486281394,-0.06110211895555257,0.0301454012863338
1772467429555493600,7.56649365234375,0.05472995357513427,-0.0609638795286417,0.035817820899561044
1772467429565465600,7.576465576171875,0.12697452105283735,-0.03370060954988002,0.024105755795910955
1772467429575438800,7.58643896484375,0.12367840211689471,-0.031360183903574944,-0.00633395226188004
1772467429585411800,7.596411865234375,0.11532616883516311,-0.05447042585611343,-0.013405498083308338
1772467429595384600,7.606384521484375,0.03142974200844764,-0.016033435434103013,-0.004778539513424039
1772467429605356800,7.616356689453125,0.02438333062827587,0.04398673350363969,-0.03704604752026498
1772467429615329800,7.626329833984375,0.04841711716651916,0.10008154569119214,-0.018382227049954236
1772467429625302500,7.636302490234375,0.019528291812539098,0.12596768209785222,-0.021459953994862734
1772467429635275500,7.646275634765625,-0.016124620848894117,0.09200199187099933,-0.07026208842359483
1772467429645247700,7.656247802734375,-0.05333060817122459,0.045827100673317904,-0.07494637378230691
1772467429655220700,7.666220703125,-0.05311316602826118,0.016642799504101274,-0.03500833114758134
1772467429665193500,7.676193359375,-0.06962415584623813,-0.031414544439315795,-0.024396007446758447
1772467429675165700,7.686165771484375,-0.06101824006438255,-0.05071545723676681,-0.007470482011139392
1772467429685138700,7.696138671875,-0.020545944422483444,-0.017827917635440824,-0.023237265865691005
1772467429695111700,7.706111572265625,0.06137129128575325,-0.0023170447707176207,-0.0333210356477648
1772467429705084700,7.716084716796875,0.027395956447720526,-0.014251812714338301,-0.021457944700866937
1772467429715056600,7.726056640625,-0.061523851498961446,-0.053038931748270984,-0.04212492168713361
1772467429725029600,7.736029541015625,-0.03388765655457973,-0.012778817552328108,-0.10265954295303673
1772467429735003000,7.7460029296875,0.01938917560279369,0.015621932023763656,-0.05224292253237217
1772467429744975600,7.7559755859375,-0.06469605179429054,-0.024230185893177984,0.03873535231407731
1772467429754947600,7.765947509765625,-0.10261457130014896,-0.03763736447691917,-0.012284019772708415
1772467429764920800,7.7759208984375,-0.07461129660904407,0.010230302113294601,-0.05233670176304876
1772467429774893800,7.785893798828125,-0.0546679942548275,0.05791764370054006,0.027054486066289244
1772467429784866600,7.795866455078125,-0.05434475364983082,0.01286065061688423,0.06885488850679249
1772467429794838800,7.8058388671875,-0.005749357306957244,-0.06816694277524948,0.010182809709757566
1772467429804811800,7.815811767578125,0.009865560454130172,-0.1011053357809782,0.014604717805236577
1772467429814784800,7.82578466796875,0.078844988656044,-0.11522387750446796,0.030434301230311392
1772467429824757500,7.835757568359375,0.09032207596004009,-0.09169833274930715,0.056336000532284373
1772467429834729700,7.845729736328125,0.1178191546946764,-0.05054886849820613,0.023486162592843175
1772467429844702700,7.85570263671875,0.12353870138525962,0.027774726632237432,0.03732884651701897
1772467429854675700,7.86567578125,0.06180559104979038,0.10168605827838181,0.04228508068490773
1772467429864647700,7.875647705078125,0.06771218474507332,0.12663023765981196,0.032787695956043895
1772467429874620700,7.88562060546875,0.045050271081924435,0.11564356422126293,0.03588441986236721
1772467429884593700,7.89559375,0.0442892235815525,0.07843260846287012,0.051735959390923375
1772467429894566700,7.905566650390625,0.07406886029541492,0.04819061493426561,0.031704978753253815
1772467429904538600,7.91553857421875,0.1248550446808338,0.048241468338668346,0.05729958486743271
1772467429914511600,7.92551171875,0.10487900910079478,0.01016980409771204,0.05215422133561223
1772467429924484600,7.935484619140625,0.06837152543663978,-0.02229191130697727,0.029668906348384916
1772467429934457900,7.945457763671875,-0.00426467170715332,0.006441431224346161,0.050265740707889195
1772467429944429600,7.9554296875,-0.05111000951230526,0.012149287477135657,0.027298706618323922
1772467429954402600,7.965402587890625,-0.05778349592685699,0.008453355568647384,-0.01779825314953923
1772467429964375800,7.975375732421875,-0.11880173599123954,0.009283376652002334,-0.040809272511303424
1772467429974348800,7.985348876953125,-0.14800328055620193,0.008156418448686599,-0.050496480723842975
1772467429984320800,7.99532080078125,-0.09188333392739295,0.03218494428992271,-0.05710059169661253
1772467429994293800,8.005293701171874,-0.09675532387793064,0.04349252024590969,-0.05464260408524423
1772467430004266800,8.015266845703126,-0.12070143213272094,0.019807401014864445,-0.02789933939259499
1772467430014239500,8.025239501953125,-0.10375088185369968,0.011180734705924986,-0.02439008916262537
1772467430024211700,8.035211669921875,-0.11283552106320857,-0.010538052888214588,-0.0282018294705078
1772467430034184700,8.045184814453124,-0.14666589447259903,-0.017677110987901687,-0.010918722768872976
1772467430044157700,8.05515771484375,-0.04730944818556308,-0.011275427252054214,-0.035443434629216786
1772467430054129700,8.065129638671875,0.03098375180661678,-0.019491466933488844,-0.011050788183324039
1772467430064102700,8.0751025390625,0.00035363574326038356,-0.05335749617815017,-0.029396519147790966
1772467430074075600,8.08507568359375,0.02670037539899349,-0.023899346503615377,-0.0015588102819398045
1772467430084048600,8.095048583984376,0.05946399635970592,0.0001721416965126991,-0.01420731598548591
1772467430094020600,8.1050205078125,0.10318097301125526,-0.016221943743526934,-0.034060200109891595
1772467430103993600,8.11499365234375,0.10452303526997565,-0.03080810297876596,-0.028677995614893734
1772467430113966600,8.124966552734374,0.0819295106679201,-0.018188567641377447,-0.0010993395440280437
1772467430123939800,8.13493994140625,0.12178981189131736,-0.0025032149925827978,-0.006987849593348801
1772467430133911600,8.14491162109375,0.11709084042012691,0.022911212249100206,0.049780003017559644
1772467430143884500,8.154884521484375,0.041889176702499385,0.019706278727948664,0.06557287116143852
1772467430153857800,8.16485791015625,0.06361527082026004,0.029757132621109485,0.06790617294721304
1772467430163830800,8.174830810546876,0.04020750722587108,0.022478666050732135,0.042607882898487145
1772467430173802500,8.184802490234375,0.0460322678565979,-0.0077723875671625135,0.05140997883956879
1772467430183775700,8.194775634765625,0.06379238095283508,-0.017874094864726065,0.025253354928456245
1772467430193748700,8.204748779296875,0.07475041281878948,-0.01570025795698166,0.028127923984080552
1772467430203720400,8.214720458984376,0.059097501134872436,-0.0008837970972061156,0.023786716441996394
1772467430213693700,8.224693603515625,0.05842237835228443,0.00779693748652935,0.02252710830233991
1772467430223666700,8.234666748046875,0.05954232229292392,0.024555180063843725,0.029317754823155698
1772467430233639700,8.2446396484375,0.030666940942406653,0.026976269730925557,0.036122356804087756
1772467430243611600,8.254611572265626,0.02849427307844162,0.029727029743790625,0.0045686596224084495
1772467430253584600,8.264584716796875,0.016167290946841238,0.025621347990632055,-0.007813157968968153
1772467430263557600,8.2745576171875,0.016758827099204062,0.020935528261959553,0.006396057712659239
1772467430273530600,8.284530517578125,-0.008482581663131714,0.010333762487769127,0.01618544765803963
1772467430283502600,8.294502685546876,-0.07755787145495414,0.0022927871122956273,0.013664039421640335
1772467430293475600,8.3044755859375,-0.03622983576655388,0.024885142670571802,-0.0017295272063463925
1772467430303449300,8.314449462890625,-0.022241057902574538,0.034653964751958845,-0.01752619474250823
1772467430313422300,8.32442236328125,-0.06204466050267219,0.03728051386326551,-0.03138129975683987
1772467430323394600,8.33439453125,-0.041969840723276135,0.03675678225010633,-0.032907851736992594
1772467430333367300,8.3443671875,-0.08761924674212931,0.023318331745266912,-0.0015197203805670141
1772467430343340300,8.35434033203125,-0.16175708062052727,0.016878069564700126,0.022182642246223985
1772467430353313500,8.3643134765625,-0.10606909566819667,0.037248072898387906,0.04386869661454111
1772467430363285200,8.37428515625,-0.09222001853585243,0.04398761028647422,0.04138071572370827
1772467430373258200,8.38425830078125,-0.1121066222667694,-0.00035714287459850307,0.025568083433434367
1772467430383231500,8.3942314453125,-0.0565630142211914,-0.015377894134819506,0.023361294104158877
1772467430393204500,8.40420458984375,0.0317845467954874,-0.013604162460565566,0.03735810914412141
1772467430403176200,8.41417626953125,0.04984335057735443,-0.056200026127696034,0.033126645586825904
1772467430413149400,8.4241494140625,0.038920974546670914,-0.05040361480861902,0.019476634690538046
1772467430423122400,8.434122314453125,0.03604103519618511,-0.023576690420508382,0.009347637527249753
1772467430433095400,8.444095458984375,0.07372691498994827,0.020479601188004015,-0.01575786989573389
1772467430443067400,8.4540673828125,0.059898296123743054,0.04743336682617664,-0.03081727266591042
1772467430453040400,8.464040283203126,0.07221417233943939,0.06676818189322949,-0.039041714849509294
1772467430463013400,8.474013427734375,0.094770287540555,0.0404465766787529,-0.046311194395832714
1772467430472985600,8.483985595703125,0.06250877088308333,0.016410452052950858,-0.03650573009848594
1772467430482958300,8.493958251953124,0.07773965776264667,-0.007902443687617779,-0.056703993594460184
1772467430492931300,8.503931396484376,0.058465632972121234,-0.004233107525110244,-0.02866871632989496
1772467430502904300,8.513904296875,0.02349018118083477,0.03490969307869673,-0.07392974408566952
1772467430512876500,8.52387646484375,0.008434650868177414,0.1094014549612999,-0.12554722819607705
1772467430522849300,8.533849365234374,0.015892565658688546,0.13335399295687675,-0.09811590817403047
1772467430532822300,8.543822265625,0.023470891958475112,0.08492927700579166,-0.04276457129754126
1772467430542795500,8.55379541015625,-0.025494506740570067,0.019886603730916975,0.0005267638204619288
1772467430552767500,8.563767578125,0.009499065229296683,-0.034654841534793375,-0.00197564745452255
1772467430562740200,8.573740234375,0.085702599465847,-0.07899404173791408,0.042700127759203316
1772467430572713500,8.58371337890625,0.06083645375669002,-0.1410875098183751,0.010317176679149269
1772467430582686500,8.5936865234375,0.1500128668129444,-0.10956921274363994,0.005840615786984562
1772467430592658400,8.603658447265625,0.13778408435881137,-0.0974275240510702,0.008586845755204558
1772467430602631400,8.61363134765625,0.09586918869316577,-0.09265168795138597,-0.021815124108083544
1772467430612604400,8.6236044921875,0.07301613637208938,-0.03480564818233251,-0.05035246914327144
1772467430622577400,8.633577392578125,0.03205868756175041,0.05619359638690948,-0.08894731700811534
1772467430632549600,8.643549560546875,0.01686696364879608,0.14638941561877727,-0.11248977636545895
1772467430642522400,8.6535224609375,-0.051442017945647234,0.18730711694061755,-0.057690739609487354
1772467430652495400,8.663495361328126,-0.1589361779808998,0.16069062043279408,-0.014614946938306093
1772467430662468400,8.67346826171875,-0.17550737355351448,0.12049246555715798,-0.002207666112110019
1772467430672440600,8.683440673828125,-0.1597293741852045,0.07158551904708146,0.02492328272387385
1772467430682413300,8.693413330078124,-0.1542383755534887,-0.006297346578538417,0.047735820371471345
1772467430692386300,8.70338623046875,-0.12725976773500441,-0.02601239313483238,0.06039897565487772
1772467430702359600,8.713359619140626,-0.06386953784227371,-0.0186938868150115,0.037931890444085
1772467430712331500,8.72333154296875,0.0457183796018362,-0.04662292722612619,0.013279168289899826
1772467430722304300,8.73330419921875,0.061530281239748,-0.033199674290418625,0.06318104412145913
1772467430732277500,8.743277587890624,0.09573124152719974,-0.028321839120984075,0.05400317367054522
1772467430742249500,8.75324951171875,0.17860650861263275,-0.003064648267626762,0.05597509479802101
1772467430752222200,8.76322216796875,0.2164975555896759,0.028868659348785877,0.036348237981833516
1772467430762195500,8.773195556640625,0.17009645442068574,0.03911503581404686,0.015303404126502572
1772467430772168400,8.78316845703125,0.13060381746590136,0.07268792733103037,0.022782032911479472
1772467430782140400,8.793140380859375,0.14502981770336626,0.07325958973914384,0.01569609323851764
1772467430792113400,8.803113525390625,0.07882277682423591,0.03939882119148969,0.023328597410954534
1772467430802086400,8.81308642578125,0.06127133804261684,0.024487667785584925,0.0253860413974151
1772467430812059400,8.823059326171874,0.06371171693205833,0.01718026738166809,0.0245374617440626
1772467430822031600,8.833031494140625,-0.0037438627034425734,-0.02427694764435291,0.02761759984176606
1772467430832004400,8.84300439453125,-0.057583004918694496,-0.026793898901343344,0.005633987298980355
1772467430841977300,8.852977294921875,-0.0627110154569149,-0.006281856748461723,-0.033466618130914866
1772467430851950300,8.862950439453124,-0.04921966572105884,-0.010191723668575287,-0.05276760399360209
1772467430861922600,8.872922607421875,-0.05963526127338409,0.011129004518687724,-0.0420634372908622
1772467430871895300,8.882895263671875,-0.12931553122103215,0.019438275441527365,-0.06518441983312367
1772467430881868300,8.892868408203125,-0.02537234166562557,0.033625790748000144,-0.07366396928895265
1772467430891841500,8.902841552734374,0.008130114963650703,0.03304389920681715,-0.016921178054064512
1772467430901813500,8.9128134765625,-0.02129413244128227,-0.014021218828856943,0.00483330190796405
1772467430911786200,8.9227861328125,-0.043736265873909,-0.030438977405428884,0.009353044354729353
1772467430921759500,8.932759521484375,0.014210311660170553,-0.0255278244882822,0.0018115429339930415
1772467430931732500,8.942732421875,0.014098667979240417,-0.02080196501016617,0.04331413147170096
1772467430941704400,8.952704345703125,-0.023051789763569832,-0.03555266715735197,0.053587870867922896
1772467430951677400,8.962677490234375,0.001633154159784317,-0.047288405397534365,0.04454520763661712
1772467430961650400,8.972650390625,0.023348726883530617,-0.049721185502409934,0.05272226701453328
1772467430971623400,8.98262353515625,0.01846738458275795,-0.046078737346827985,0.02971241669654846
1772467430981595400,8.992595458984376,0.028415947145223615,-0.04499561828523874,-0.008278912317194045
1772467430991568400,9.002568359375,0.05000643218457698,-0.025742928543686865,-0.012952128292620182
1772467431001541400,9.012541259765625,0.02976560818850994,0.0010337269619107247,-0.0017349705664440988
1772467431011513300,9.022513427734374,0.0217635035187006,-0.00033639234751462935,0.015388305930979548
1772467431021486600,9.032486572265626,0.08906184676587581,0.016774024668335913,0.027674809921719133
1772467431031459300,9.042459228515625,0.07284487145841122,0.03760930742621422,0.044971360626816746
1772467431041432300,9.052432373046875,0.009391513201594353,0.028478783248364923,0.04337302205208689
1772467431051404500,9.062404541015624,0.015711363872885704,0.02482902856916189,0.046061640081554646
1772467431061377500,9.07237744140625,0.020202245551347732,0.019421908828616143,0.04541362450160086
1772467431071350300,9.082350341796875,-0.04965455000698566,0.004278407971560955,0.023089235697127876
1772467431081323300,9.0923232421875,-0.01663607750236988,0.002838438296318054,0.003785656018555164
1772467431091295500,9.10229541015625,0.006523848810791969,0.0016828385204076767,-0.0066974883446469895
1772467431101268500,9.1122685546875,0.01714461154639721,-0.010545067150890826,-0.04997621970940381
1772467431111241200,9.1222412109375,0.0647059886664152,0.023819559265673158,-0.024122999191656707
1772467431121214500,9.13221435546875,0.03884849383234978,0.01956394764780998,-0.017136135978996752
1772467431131186400,9.1421865234375,-0.03481412374973297,0.01239361762702465,-0.06695139297302811
1772467431141159400,9.152159423828126,-0.018909867653250693,0.06208002407699823,-0.08635934634152799
1772467431151132400,9.16213232421875,0.009855039060115813,0.0784703101247549,-0.042218335591629144
1772467431161105400,9.17210546875,-0.04999357270300388,0.02171118880957365,-0.047806657117977734
1772467431171077400,9.182077392578124,-0.015038579177856445,-0.03431552657783031,-0.08312624617181717
1772467431181050400,9.19205029296875,0.02153086380660534,-0.05664689311236143,-0.07196586013417691
1772467431191023400,9.2020234375,-0.0020317980885505675,-0.05349368977844715,-0.009956124814413487
1772467431200996400,9.211996337890625,0.009310849180817603,-0.04444879805743694,-0.02104125365875661
1772467431210968600,9.221968505859374,0.1410369486749172,0.01858896513581276,-0.03509684968125075
1772467431220941300,9.23194140625,0.11253098515868186,0.030596213793754577,0.022807459613680837
1772467431230914300,9.241914306640625,0.034299744486808774,-0.01977759039849043,0.03955470587294548
1772467431240887300,9.25188720703125,0.012376666492223739,-0.04294657680094242,0.01860050944313407
1772467431250859500,9.261859619140624,0.0005114566534757614,-0.03939356049448251,0.009525112986005842
1772467431260832300,9.271832275390626,0.035330256578326225,-0.03607902911901474,0.01146733309496194
1772467431270805200,9.28180517578125,-0.037976387172937394,-0.03151566672623157,0.022918336109630764
1772467431280778500,9.291778564453125,-0.07943827837407588,-0.025738836890459058,0.014491174428164957
1772467431290750500,9.30175048828125,0.028587212058901783,-0.004424830704927444,-0.02096380450837314
1772467431300718800,9.31171875,0.03085048081576824,0.03254325620830059,-0.011968158756569027
1772467431310691800,9.32169189453125,-0.00962298386991024,0.03325724969655275,0.005911927457526326
1772467431320664800,9.331664794921876,0.01927811644375324,0.03423515481799841,0.017772534186393022
1772467431330636800,9.34163671875,-0.008737433207035064,-0.020809563794732092,-0.0653667906627059
1772467431340609800,9.35160986328125,0.025981997996568678,0.01922463269084692,0.001532945188321173
1772467431350582800,9.361582763671874,-0.02551262691915035,0.03650836044698953,0.0038609497444704174
1772467431360555000,9.371554931640626,-0.027235797449946402,0.032137305755913254,0.0012495251370593906
1772467431370527700,9.38152783203125,-0.05621931535005569,-0.003129530197381973,0.04326839263383299
1772467431380500700,9.391500732421875,0.049261751297116275,0.04994301155954599,-0.004360606362298131
1772467431390473700,9.4014736328125,0.053283261898159975,0.008192951066792012,0.04096446307301521
1772467431400446000,9.411446044921876,-0.05318564674258232,-0.01669920586645603,-0.036990499674435705
1772467431410418700,9.421418701171875,-0.025519056659936902,0.020905133123695848,-0.031116310411412267
1772467431420391700,9.4313916015625,-0.01894084731340408,0.041969840723276135,-0.0001780599806457758
1772467431430365000,9.441364990234375,-0.025756957069039344,0.03550970479846,-0.022520952556189147
1772467431440337000,9.4513369140625,0.05642974323034286,0.04897182843983173,0.000749375328887254
1772467431450309600,9.4613095703125,0.06883388225138187,0.013208148880302905,0.011304525482375174
1772467431460283000,9.471282958984375,0.07150573180913924,-0.036007425187528135,0.016236666388623415
1772467431470255900,9.481255859375,0.08687047420144081,-0.062113926346600054,0.04068002010844648
1772467431480227800,9.491227783203126,0.09263678264319897,-0.08845306721776723,0.03494544024551287
1772467431490200800,9.501200927734375,0.05486614717543125,-0.0600444265961647,0.00556583569990471
1772467431500173800,9.511173828125,0.08365794189572334,-0.013573182800412177,-0.024558741994109002
1772467431510146800,9.521146728515625,0.09180559251606464,0.0023468553870916366,0.006435220679268241
1772467431520119000,9.531119140625,-0.008871873241662978,-0.011321019959449768,-0.009107161568570882
1772467431530091800,9.541091796875,0.03795826699435711,0.017341595423221588,-0.011488540279772133
1772467431540064800,9.551064697265625,0.05254851788282394,0.025725977408885953,0.005223031877912581
1772467431550037800,9.561037841796875,-0.02574526663124561,-0.02689385214447975,0.025976773832179605
1772467431560009700,9.571009765625,-0.03508066573143005,-0.03870850083976984,0.02578373547811061
1772467431569982700,9.580982666015625,0.016987375158071517,-0.009316109877824783,0.00889132686080411
1772467431579955700,9.590955810546875,0.025169512569904327,-0.0001347322955727577,-0.00678538582380861
1772467431589929000,9.600928955078125,-0.0008469722181558609,-0.009773498256504535,0.0248854531978257
1772467431599900700,9.610900634765626,0.005945756661891937,-0.010061667548120021,0.02549021415794268
1772467431609873700,9.620873779296875,0.07676525977253913,-0.008560030813515185,0.024256270182505247
1772467431619847000,9.630846923828125,0.03623217385411262,0.0004731704697012901,0.039437107375264166
1772467431629820000,9.64081982421875,-0.0018657938718795776,0.02195113504528999,0.019039046990871427
1772467431639791600,9.65079150390625,0.060030982592701905,0.0543345245167613,0.003441098630893975
1772467431649764900,9.660764892578126,-0.011354337707161903,0.06286065306067466,-0.03097491091303527
1772467431659737900,9.67073779296875,-0.0742395406872034,0.05777355905473232,-0.0035879232230596244
1772467431669710800,9.6807109375,-0.08688216463923454,0.052773558810353276,0.02582720929365605
1772467431679682800,9.690682861328124,-0.06224105985760688,0.03812748608142137,-0.013381971077248454
1772467431689655800,9.70065576171875,-0.042592941057682035,0.03575111233890056,-0.029666970119625328
1772467431699628800,9.71062890625,-0.034902386555075646,0.03207710000127554,-0.01791234451588243
1772467431709601800,9.720601806640625,-0.02439385202229023,0.015507657994329929,0.009655497900024056
1772467431719573800,9.73057373046875,0.035301030483841894,-0.0027680034086108207,-0.01738912435937673
1772467431729546800,9.740546630859376,0.061677580755949014,0.0006263152047991752,-0.0034284766113385555
1772467431739519700,9.750519775390625,0.06921323695778846,-0.008191197501122951,0.004659808504581451
1772467431749493000,9.760492919921875,0.0917547391116619,-0.006875146466493606,-0.000685242317803204
1772467431759464700,9.770464599609374,0.102028880366683,-0.008519114281237125,-0.02906980794407427
1772467431769437700,9.780437744140626,0.10802607495486735,-0.010811024610698222,-0.03667231883704662
1772467431779411000,9.790410888671875,0.09197159673273562,-0.013037176227569579,-0.06562851033881306
1772467431789384000,9.800384033203125,0.1403711782425642,-0.0279743408575654,-0.0715277609778568
1772467431799355600,9.810355712890624,0.10952128194868564,-0.025277941380441187,-0.038879692688211794
1772467431809329000,9.820328857421876,0.03169043877124786,-0.041786593110859395,-0.04015789593048393
1772467431819302000,9.830302001953125,0.06050912149846553,-0.03483224392831325,-0.038478345345705746
1772467431829273900,9.84027392578125,0.0851975725531578,-0.010238777680695057,-0.031232173609733578
1772467431839246800,9.850246826171874,0.06739245127141476,-0.018016425944864748,-0.00809120772536844
1772467431849219800,9.8602197265625,0.05016425309479236,-0.041402269968390464,0.01590118735656142
1772467431859192800,9.87019287109375,0.0285778597086668,-0.038083062417805194,0.016041216881759465
1772467431869165000,9.8801650390625,0.023971242696046828,-0.02320084284543991,0.02042421773895621
1772467431879137800,9.8901376953125,-0.012249240720272064,-0.017259762358665467,0.0412256347598508
1772467431889110800,9.90011083984375,-0.07225216626226902,-0.017136135978996752,0.028250600515678525
1772467431899083800,9.910083740234375,-0.12131459559500217,0.017073007614910603,0.023975882338546216
1772467431909056000,9.920055908203125,-0.13319734109044074,0.0314598448857665,0.00952584363836795
1772467431919028700,9.93002880859375,-0.1306453185200691,0.04537818786203861,0.00627670564930886
1772467431929001700,9.940001708984376,-0.11874386832416058,0.034793080961704255,0.006401062681339681
1772467431938975700,9.949975830078126,-0.08997545447945594,0.014959376461803913,-0.00047397418729960914
1772467431948948700,9.95994873046875,-0.03242109113335609,-0.016926000359654424,0.014720928063429891
1772467431958920700,9.969920654296875,0.03058919953107834,-0.03145604549348354,0.025389475463517008
1772467431968893700,9.979893798828124,0.07659808651208877,-0.022669804708659647,0.025674685613065955
1772467431978866700,9.98986669921875,0.10390987180769443,-0.0013525836527347563,0.03313504808899015
1772467431988840000,9.99983984375,0.0812239927470684,-0.009579436989128588,0.009031520782783627
1772467431998811600,10.009811767578125,0.10726035127937793,0.015194646522402763,0.0018136435595341026
1772467432008785000,10.019784912109374,0.051663551741838454,0.028091829757392404,-0.009679426764883101
1772467432018758000,10.0297578125,0.07016717668175697,0.007271744568645953,0.02183063220446929
1772467432028731000,10.03973095703125,0.06698328594863415,0.004397065915167331,0.014768420466966926
1772467432038702800,10.049702880859375,0.026897943797707557,0.002125613851845264,0.017415354779176412
1772467432048675800,10.05967578125,0.020243162083625792,-0.03474456564486027,0.03130269982898608
1772467432058648800,10.06964892578125,0.07341945647597313,-0.04389554808884859,0.04375535416686907
1772467432068621800,10.079621826171875,0.07268938863575458,-0.04541881213337183,0.060999042173568156
1772467432078593800,10.08959375,-0.02703238383233547,-0.0492301871150732,0.03695867976406589
1772467432088566800,10.09956689453125,0.0627852497369051,-0.015263327844440936,0.01476600931417197
1772467432098539800,10.109539794921876,0.02546469612419605,0.016811434069275856,0.004502151991147548
1772467432108512800,10.1195126953125,-0.011748305460810661,0.03790945941656828,0.01091578189311549
1772467432118484700,10.129484619140625,-0.03132160545885563,0.0370239087536931,0.014181560489721596
1772467432128457700,10.139457763671874,-0.022294833916425703,0.02599193486869335,-0.010699947185348719
1772467432138430700,10.1494306640625,-0.017381342911720273,0.029438568191230294,-0.03619063626732677
1772467432148404000,10.159404052734375,-0.03535831362903118,0.052744332715868945,-0.029339692660327998
1772467432158375700,10.169375732421875,0.0014238953232765196,0.08167261329740286,-0.03056236632307991
1772467432168348700,10.1793486328125,0.02798866164386272,0.08557984986901283,-0.049417398516554384
1772467432178322000,10.189322021484376,0.013180384090542792,0.0697252781331539,-0.05154781640768051
1772467432188295000,10.199294921875,0.007026537635922431,0.03982259956151247,-0.036528727381583304
1772467432198266600,10.2092666015625,0.009423077383637428,0.0023889409631490705,-0.04799503756323829
1772467432208239900,10.219239990234374,0.04916004448831081,-0.010611702646315098,-0.07331301869312301
1772467432218212900,10.229212890625,0.07420797650516033,-0.04019377096146345,-0.07630367014277727
1772467432228185900,10.239185791015625,0.10682020629644394,-0.05332271712571382,-0.062395921625755725
1772467432238157800,10.24915771484375,0.1309504389464855,-0.04697568618655205,-0.05582180393245071
1772467432248130800,10.259130859375,0.09847557179927825,-0.027911504754424093,-0.03900026859426871
1772467432258103800,10.269103759765626,0.10764788929224013,0.00577829114049673,-0.012898662806022912
1772467432268076800,10.279076904296875,0.10441606776416301,0.03323036168962717,0.020242011306155473
1772467432278048800,10.289048828125,0.04372340639233589,0.04173749327212572,0.04937458228813484
1772467432288021800,10.299021728515624,0.04004501014053821,0.058395198084414,0.09710360759263857
1772467432297996300,10.308996337890624,0.02353986554145813,0.055549453264474864,0.08519379142718389
1772467432307969300,10.31896923828125,0.021592823126912117,0.0522714545071125,0.09093841776009648
1772467432317941200,10.328941162109375,0.03681844930946827,0.056115854975581164,0.12349725513001904
1772467432327914200,10.338914306640625,0.0027706337571144104,0.03990297132134437,0.10840499126985668
1772467432337887200,10.34888720703125,0.006176642808318138,0.07357493929862975,0.12031077058101072
1772467432347860200,10.358860107421876,0.03761281455755233,0.10196282939314842,0.10826059609679504
1772467432357832200,10.368832275390625,-0.004604863446950912,0.08739449807554484,0.08360633957264944
1772467432367805200,10.37880517578125,-0.08122107013761996,0.07083353163599967,0.07916170818870887
1772467432377778200,10.388778076171874,-0.06318330914378166,0.0757037680208683,0.03756039025057107
1772467432387751400,10.39875146484375,-0.038086861810088156,0.03440291260033846,-0.028610282407235354
1772467432397723100,10.40872314453125,-0.06123743577301502,-0.026274843463301657,-0.04888915512505918
1772467432407696100,10.418696044921875,-0.029397359398007392,-0.03281418210417032,-0.04998487793989479
1772467432417669400,10.42866943359375,-0.028639234507083892,-0.04979921917468309,-0.06875930091151967
1772467432427642400,10.438642333984374,-0.05037760358452797,-0.06960106723159551,-0.09776145044686273
1772467432437614000,10.448614013671875,-0.026250878065824507,-0.05986731646358966,-0.11876279222033917
1772467432447587300,10.45858740234375,-0.027481881165504454,-0.06463876864910126,-0.12049715999858453
1772467432457560300,10.468560302734375,-0.00310439575612545,-0.07791238398104906,-0.10302740815104916
1772467432467533300,10.478533203125,-0.010328501790761948,-0.05451777212917804,-0.1448426793671213
1772467432477505300,10.48850537109375,0.025965046861767767,-0.06291267550885676,-0.17036319733178243
1772467432487478300,10.498478271484375,-0.028061726880073547,-0.052907122062146664,-0.14657131152432412
1772467432497451300,10.508451171875,-0.0356669411867857,-0.033864860200881954,-0.15893089901758356
1772467432507424300,10.51842431640625,0.057255672660470006,0.006143032799661159,-0.15240827404949814
1772467432517396200,10.528396240234375,0.0014274024546146393,0.02254559380710125,-0.1043717719647102
1772467432527369200,10.538369140625,-0.006336217284202575,0.018478490498661994,-0.06899124650387092
1772467432537342200,10.54834228515625,0.033573768299818035,-0.002344225038588047,-0.10833179816948249
1772467432547315500,10.5583154296875,-0.006049801558256149,-0.013382044142484664,-0.11077500833682716
1772467432557287200,10.568287109375,-0.0035012861192226406,0.024729075326025484,-0.06818553787786513
1772467432567260200,10.57826025390625,-0.03169862207770347,0.05142857394218445,-0.06378998806634917
1772467432577233400,10.5882333984375,-0.023345804274082182,0.06937661082595586,-0.08036808830378576
1772467432587206400,10.598206298828124,-0.018803484669327734,0.09076017511636018,-0.048070605283789335
1772467432597178000,10.60817822265625,-0.019990064105391503,0.07844225307404995,0.0029271942920051515
1772467432607151400,10.6181513671875,0.0012175590962171553,0.03533727084100246,0.002935907321423292
1772467432617124400,10.628124267578125,0.0346732539743185,0.02073649855852127,0.0010360833157785237
1772467432627097300,10.638097412109374,-0.008376783201098442,0.007889876466989517,-0.00041661797687411305
1772467432637069300,10.6480693359375,0.012320552390813826,0.03547083409279585,-0.00006765840873122215
1772467432647042300,10.658042236328125,-0.0033259295523166655,0.07087532495111226,-0.04259270359566435
1772467432657015300,10.668015380859375,-0.01625438470840454,0.06000292554199695,-0.10284101873347536
1772467432666988300,10.67798828125,0.05771744495332241,0.08357026361227035,-0.036293895712401714
1772467432676960300,10.687960205078125,0.03595920213162899,0.05799918450415134,0.01779823488323018
1772467432686933200,10.697933349609375,0.029821137768030165,0.007855097414553164,0.04361161658093333
1772467432696906200,10.70790625,0.03020049247443676,0.008435527651011944,0.05263897264525294
1772467432706879500,10.71787939453125,-0.00994447090923786,0.012180559398233889,0.07947216237736865
1772467432716851200,10.727851318359376,0.0014794249027967451,-0.010431962165236473,0.053269087242335075
1772467432726824200,10.73782421875,0.04063888438045978,-0.024262042336165905,-0.0353642136468552
1772467432736797400,10.74779736328125,0.08048164994716644,-0.01113572652041912,-0.00874956203624606
1772467432746770400,10.7577705078125,0.03703706049621105,-0.014676467867195606,0.06321043461272492
1772467432756742100,10.7677421875,-0.02460603346824646,-0.043131285718083376,-0.08866649077273905
1772467432766715400,10.77771533203125,0.03954758201241493,-0.007768588174879551,-0.007498246800899505
1772467432776688400,10.7876884765625,-0.05596095667481422,-0.002881400655210018,0.023629918445087966
1772467432786661400,10.797661376953124,-0.09880524214506149,-0.030196400821208953,-0.09002207010015845
1772467432796633300,10.80763330078125,-0.004841010290384292,0.016542261739075182,-0.13721150863524526
1772467432806606300,10.8176064453125,0.4483434869587421,0.1877145286977291,0.05806399336867034
1772467432816579300,10.827579345703125,0.18495850798785685,0.1714542987704277,0.33648481157105414
1772467432826552300,10.83755224609375,-0.24340952791273593,-0.004481821589171886,0.1913762660756707
1772467432836524300,10.847524169921876,0.1304933428287506,0.048562663117051125,0.01851140638757497
1772467432846497300,10.857497314453125,-0.008037175983190536,0.07652706710249185,0.15484072536081075
1772467432856470300,10.86747021484375,0.008064063990116119,-0.015363573348522185,-0.00044717751191928983
1772467432866443500,10.877443603515625,-0.0008060556858777999,-0.00021656536012887954,-0.06011756489761173
1772467432876415200,10.887415283203126,-0.013225392276048659,-0.040697921091318125,-0.15967625575847924
1772467432886388200,10.89738818359375,-0.11537468415200709,-0.061467737397551535,-0.10899230790482833
1772467432896361500,10.907361572265625,-0.19250994628071783,-0.05759732570499181,-0.1692262657237239
1772467432906334500,10.91733447265625,-0.18877134427428244,-0.059035834075510496,-0.19520380674088372
1772467432916306200,10.92730615234375,0.027734394621849057,-0.08383885142058134,-0.21061136536160482
1772467432926279400,10.937279541015625,0.2648001064658165,-0.0371568874835968,-0.07113108981046826
