time,seconds_elapsed,z,y,x
1772467422060991200,0.0719912109375,0.36449700593948364,0.10315434634685516,0.3293217122554779
1772467422070964200,0.081964111328125,0.40829160809516907,0.28498220443725586,0.19199952483177185
1772467422080937500,0.0919375,0.3699719309806824,0.3967428207397461,0.05197185277938843
1772467422090909200,0.1019091796875,0.3523748219013214,0.42753562331199646,-0.05949635058641434
1772467422100882200,0.111882080078125,0.3252286911010742,0.44029802083969116,-0.12652279436588287
1772467422110855400,0.12185546875,0.29397356510162354,0.43836429715156555,-0.15521115064620972
1772467422120827100,0.1318271484375,0.24442732334136963,0.41454872488975525,-0.17919212579727173
1772467422130800000,0.141800048828125,0.19253721833229065,0.38329997658729553,-0.20379334688186646
1772467422140773400,0.1517734375,0.15339381992816925,0.3729410767555237,-0.2111159712076187
1772467422150745300,0.161745361328125,0.13759781420230865,0.38151460886001587,-0.20668606460094452
1772467422160718000,0.171718017578125,0.14271746575832367,0.4110397398471832,-0.17560511827468872
1772467422170691300,0.18169140625,0.15561142563819885,0.40872013568878174,-0.13067865371704102
1772467422180663300,0.191663330078125,0.17634041607379913,0.38724014163017273,-0.07107417285442352
1772467422190636300,0.20163623046875,0.20974603295326233,0.36372068524360657,-0.01221591979265213
1772467422200609300,0.211609375,0.24356712400913239,0.3501385748386383,0.031129423528909683
1772467422210582300,0.221582275390625,0.27061232924461365,0.34033921360969543,0.04946528747677803
1772467422220554200,0.23155419921875,0.2856330871582031,0.3069189190864563,0.047505732625722885
1772467422230527500,0.241527587890625,0.2877683937549591,0.25537237524986267,0.03650288283824921
1772467422240500200,0.251500244140625,0.27456897497177124,0.18039746582508087,0.010689129121601582
1772467422250472200,0.26147216796875,0.25444987416267395,0.14461363852024078,-0.006659766659140587
1772467422260445400,0.271445556640625,0.22878284752368927,0.16096997261047363,-0.0055031562224030495
1772467422270418400,0.28141845703125,0.20405060052871704,0.18500927090644836,-0.01061935443431139
1772467422280390100,0.29139013671875,0.17313289642333984,0.2012641429901123,-0.021827001124620438
1772467422290363100,0.301363037109375,0.15340180695056915,0.20227427780628204,-0.03438061103224754
1772467422300335900,0.3113359375,0.14122849702835083,0.17289134860038757,-0.06265459209680557
1772467422310308000,0.32130810546875,0.128362238407135,0.11580436676740646,-0.10103553533554077
1772467422320281000,0.331281005859375,0.11945874989032745,0.06627941876649857,-0.1247725561261177
1772467422330254000,0.341254150390625,0.11323387920856476,0.042561840265989304,-0.11957167088985443
1772467422340226000,0.35122607421875,0.11538704484701157,0.04851507022976875,-0.08704941719770432
1772467422350199000,0.361198974609375,0.11462085694074631,0.03545040264725685,-0.03734603896737099
1772467422360172000,0.371172119140625,0.11686909198760986,0.006603574380278587,0.019399531185626984
1772467422370144800,0.381144775390625,0.11434228718280792,-0.024022778496146202,0.08385016024112701
1772467422380117000,0.391116943359375,0.09989064186811447,-0.03958389535546303,0.1324496567249298
1772467422390090000,0.401090087890625,0.08035076409578323,-0.03317180275917053,0.15371525287628174
1772467422400063000,0.41106298828125,0.0695955902338028,0.0016743293963372707,0.14118961989879608
1772467422410035000,0.421034912109375,0.06030861288309097,0.03013766184449196,0.1087656319141388
1772467422420008000,0.431008056640625,0.040496826171875,0.016632506623864174,0.04730839282274246
1772467422429981000,0.44098095703125,0.014513695612549782,-0.01918993890285492,-0.017177920788526535
1772467422439953000,0.450952880859375,0.0024535702541470528,-0.02911261096596718,-0.05002028867602348
1772467422449926000,0.46092578125,-0.022070415318012238,-0.06259386986494064,-0.06263647973537445
1772467422459899000,0.47089892578125,-0.055502671748399734,-0.11280537396669388,-0.06343968957662582
1772467422469871000,0.48087109375,-0.09036105871200562,-0.19025516510009766,-0.042578354477882385
1772467422479843800,0.49084375,-0.1105925589799881,-0.27035078406333923,-0.012880112044513226
1772467422489816800,0.50081689453125,-0.10869266092777252,-0.3401615619659424,0.02034308761358261
1772467422499790000,0.5107900390625,-0.09651348739862442,-0.40367263555526733,0.05410131812095642
1772467422509762000,0.520761962890625,-0.08368957042694092,-0.4589462876319885,0.09820219874382019
1772467422519734800,0.53073486328125,-0.09125375002622604,-0.48065289855003357,0.14130918681621552
1772467422529708000,0.5407080078125,-0.0966343954205513,-0.42038610577583313,0.16052363812923431
1772467422539680000,0.550679931640625,-0.07724764943122864,-0.2949352264404297,0.15275146067142487
1772467422549653000,0.560653076171875,-0.04818909987807274,-0.14452069997787476,0.12855105102062225
1772467422559626000,0.5706259765625,0.01227211207151413,0.008215852081775665,0.10117135941982269
1772467422569598000,0.580597900390625,0.07956273853778839,0.1329873502254486,0.09164975583553314
1772467422579571000,0.590571044921875,0.1288735568523407,0.18404759466648102,0.09313313663005829
1772467422589544000,0.6005439453125,0.15135464072227478,0.17409802973270416,0.11932745575904846
1772467422599517000,0.610516845703125,0.16092044115066528,0.13205470144748688,0.16969183087348938
1772467422609489000,0.620489013671875,0.14957910776138306,0.08712264895439148,0.231866255402565
1772467422619462000,0.6304619140625,0.12965519726276398,0.022098110988736153,0.2749743163585663
1772467422629435100,0.64043505859375,0.10766680538654327,-0.04900296404957771,0.2923961877822876
1772467422639406800,0.65040673828125,0.0920814573764801,-0.10449418425559998,0.27265310287475586
1772467422649380000,0.660380126953125,0.09747462719678879,-0.15932893753051758,0.21367020905017853
1772467422659353000,0.67035302734375,0.10740421712398529,-0.1821836531162262,0.12950925529003143
1772467422669324800,0.68032470703125,0.13591469824314117,-0.16907557845115662,0.042923763394355774
1772467422679298000,0.690298095703125,0.16237346827983856,-0.11968858540058136,-0.027695544064044952
1772467422689271000,0.70027099609375,0.16805265843868256,-0.059471581131219864,-0.07065925747156143
1772467422699244000,0.710244140625,0.15954652428627014,-0.010202303528785706,-0.08518946170806885
1772467422709216000,0.720216064453125,0.1378854364156723,0.007369232829660177,-0.06806586682796478
1772467422719189000,0.73018896484375,0.11711756885051727,-0.004058923572301865,-0.017521202564239502
1772467422729162000,0.740161865234375,0.09388894587755203,-0.037335652858018875,0.05055878311395645
1772467422739134000,0.750134033203125,0.07170694321393967,-0.10182436555624008,0.1188661977648735
1772467422749107000,0.76010693359375,0.05720895901322365,-0.15304307639598846,0.19672158360481262
1772467422759080000,0.770079833984375,0.05235055461525917,-0.1886892169713974,0.25370895862579346
1772467422769052000,0.780052001953125,0.047383226454257965,-0.2316388189792633,0.291361540555954
1772467422779025200,0.790025146484375,0.04579758271574974,-0.27100807428359985,0.3177372217178345
1772467422788998000,0.799997802734375,0.04038817062973976,-0.2830128073692322,0.339856892824173
1772467422798970000,0.80997021484375,0.03357447311282158,-0.2492830604314804,0.3674909174442291
1772467422808943000,0.819943115234375,0.0346812829375267,-0.22045114636421204,0.37174853682518005
1772467422818915800,0.829915771484375,0.024596156552433968,-0.20802484452724457,0.3661223351955414
1772467422828888800,0.839888916015625,0.002609631512314081,-0.19438917934894562,0.3277067542076111
1772467422838861000,0.849861083984375,-0.020719392225146294,-0.17168253660202026,0.2685113549232483
1772467422848834000,0.859833984375,-0.030640998855233192,-0.10890597850084305,0.21147044003009796
1772467422858806800,0.869806884765625,-0.03278457745909691,-0.02587367594242096,0.16844360530376434
1772467422868779000,0.879779052734375,-0.03803473338484764,0.07015698403120041,0.13510802388191223
1772467422878752000,0.889751953125,-0.041604168713092804,0.16078221797943115,0.10374743491411209
1772467422888725000,0.89972509765625,-0.04645112156867981,0.2325962334871292,0.0673460140824318
1772467422898697000,0.909697021484375,-0.05613517388701439,0.29875102639198303,0.01600559800863266
1772467422908670000,0.919669921875,-0.04168805852532387,0.33861294388771057,-0.04880721867084503
1772467422918643000,0.929642822265625,-0.01477868016809225,0.3216840326786041,-0.08604007959365845
1772467422928616000,0.939615966796875,-0.00430073868483305,0.2615770101547241,-0.0897008553147316
1772467422938588000,0.949587890625,0.004683701321482658,0.1523277461528778,-0.07611287385225296
1772467422948561000,0.959560791015625,0.01962243765592575,0.013184777460992336,-0.08288689702749252
1772467422958534000,0.969533935546875,0.050932690501213074,-0.10043232887983322,-0.09751510620117188
1772467422968505900,0.979505859375,0.08059843629598618,-0.1504472941160202,-0.10445290803909302
1772467422978478800,0.989478759765625,0.10565026104450226,-0.21258176863193512,-0.11006205528974533
1772467422988451800,0.999451904296875,0.11457424610853195,-0.29488223791122437,-0.12193629145622253
1772467422998424000,1.009424072265625,0.11141547560691833,-0.35677650570869446,-0.1286250799894333
1772467423008396800,1.019396728515625,0.10559087246656418,-0.39160531759262085,-0.137628436088562
1772467423018369800,1.029369873046875,0.09349746257066727,-0.3954099118709564,-0.14577051997184753
1772467423028343000,1.039343017578125,0.0802125483751297,-0.3762918710708618,-0.1598336100578308
1772467423038315000,1.04931494140625,0.06292303651571274,-0.3211822807788849,-0.17986378073692322
1772467423048287700,1.059287841796875,0.05006343498826027,-0.22890934348106384,-0.20195096731185913
1772467423058261000,1.069260986328125,0.041678205132484436,-0.13425101339817047,-0.2063923180103302
1772467423068233000,1.07923291015625,0.02526247873902321,-0.05546459183096886,-0.18699465692043304
1772467423078206000,1.0892060546875,-0.0018032263033092022,0.00031878036679700017,-0.14593669772148132
1772467423088179000,1.099178955078125,-0.024158332496881485,0.038306910544633865,-0.09638725966215134
1772467423098151000,1.10915087890625,-0.04352297633886337,0.047918256372213364,-0.056182846426963806
1772467423108124000,1.1191240234375,-0.04832252487540245,0.06470096856355667,-0.027467310428619385
1772467423118097200,1.12909716796875,-0.046667102724313736,0.10458552837371826,-0.011314173229038715
1772467423128070000,1.13906982421875,-0.04297143593430519,0.15316957235336304,-0.013624732382595539
1772467423138041900,1.149041748046875,-0.030589068308472633,0.1870971918106079,-0.016985375434160233
1772467423148015000,1.15901513671875,-0.02569231390953064,0.2072029858827591,0.0003765709698200226
1772467423157988000,1.168988037109375,-0.011127752251923084,0.19684195518493652,0.025918416678905487
1772467423167959800,1.178959716796875,-0.00018242653459310532,0.16245149075984955,0.03776948153972626
1772467423177933000,1.18893310546875,0.00854342058300972,0.10913234949111938,0.035057853907346725
1772467423187906000,1.198906005859375,0.01697072759270668,0.038246721029281616,0.016586167737841606
1772467423197879000,1.208879150390625,0.028862807899713516,-0.015924638137221336,-0.004322310443967581
1772467423207851000,1.21885107421875,0.031380292028188705,-0.03358139470219612,-0.025836391374468803
1772467423217824000,1.228823974609375,0.03145379573106766,-0.045939795672893524,-0.046666570007801056
1772467423227797000,1.238796875,0.027173830196261406,-0.05699644237756729,-0.0668456107378006
1772467423237769000,1.24876904296875,0.018824022263288498,-0.059483032673597336,-0.073511503636837
1772467423247742000,1.258741943359375,0.00023915186466183513,-0.041014544665813446,-0.06464637070894241
1772467423257715000,1.26871484375,-0.026010828092694283,-0.009081113152205944,-0.04537094384431839
1772467423267687000,1.27868701171875,-0.04959524795413017,0.05037928372621536,-0.015333149582147598
1772467423277660000,1.288659912109375,-0.06455262750387192,0.12002307921648026,0.004634699318557978
1772467423287633000,1.2986328125,-0.06607009470462799,0.1681261509656906,0.005733785685151815
1772467423297606400,1.3086064453125,-0.051835235208272934,0.18277859687805176,-0.011956794187426567
1772467423307578600,1.31857861328125,-0.03723498806357384,0.17658914625644684,-0.021954568102955818
1772467423317551600,1.328551513671875,-0.019522568210959435,0.14143462479114532,-0.029734458774328232
1772467423327524600,1.338524658203125,-0.013159744441509247,0.09320078045129776,-0.0426020547747612
1772467423337496600,1.34849658203125,-0.007121559232473373,0.03687359392642975,-0.057072341442108154
1772467423347469600,1.358469482421875,0.003718571737408638,-0.005028580781072378,-0.08108073472976685
1772467423357442600,1.368442626953125,0.011483018286526203,-0.04722769930958748,-0.12059325724840164
1772467423367415600,1.37841552734375,0.02611762098968029,-0.05414552614092827,-0.1434146910905838
1772467423377387500,1.388387451171875,0.02821246348321438,-0.012062788009643555,-0.12484606355428696
1772467423387360500,1.398360595703125,0.0006135923322290182,0.045403435826301575,-0.06853138655424118
1772467423397333500,1.40833349609375,-0.024172181263566017,0.0677228569984436,-0.013095029629766941
1772467423407305500,1.418305419921875,-0.03825604170560837,0.05708965286612511,0.036616601049900055
1772467423417278500,1.428278564453125,-0.03472176194190979,0.03237471729516983,0.06761419773101807
1772467423427251500,1.43825146484375,-0.018077537417411804,0.004857339430600405,0.07983464747667313
1772467423437223400,1.448223388671875,0.011185276322066784,-0.012749084271490574,0.08142454922199249
1772467423447196400,1.458196533203125,0.03639262914657593,-0.0016562198288738728,0.08422885835170746
1772467423457169400,1.46816943359375,0.042688608169555664,0.03274942561984062,0.09079302102327347
1772467423467142700,1.478142578125,0.04355093836784363,0.04988233745098114,0.08505257964134216
1772467423477114400,1.4881142578125,0.039387620985507965,0.043886762112379074,0.0645265281200409
1772467423487087600,1.498087646484375,0.03127430006861687,0.029812756925821304,0.048828259110450745
1772467423497060600,1.508060546875,0.024713601917028427,0.03020503930747509,0.034387268126010895
1772467423507032600,1.518032470703125,0.015058311633765697,0.03611965477466583,0.023127423599362373
1772467423517005600,1.528005615234375,0.002719353651627898,0.05260781571269035,0.008825715631246567
1772467423526978600,1.537978515625,0.0012775183422490954,0.07195568084716797,-0.014585600234568119
1772467423536951600,1.54795166015625,0.0049377670511603355,0.08909232169389725,-0.029388248920440674
1772467423546923500,1.557923583984375,0.012852681800723076,0.11581341922283173,-0.02918691374361515
1772467423556896500,1.567896484375,0.023745542392134666,0.12327692657709122,-0.01140099298208952
1772467423566869500,1.577869384765625,0.028652949258685112,0.09558111429214478,0.006800648290663958
1772467423576841500,1.587841552734375,0.03217710927128792,0.06814336776733398,0.03087402693927288
1772467423586814700,1.597814697265625,0.03410044685006142,0.06387218832969666,0.07407156378030777
1772467423596787500,1.607787353515625,0.03027348406612873,0.039251264184713364,0.10823646187782288
1772467423606759400,1.617759521484375,0.026583140715956688,0.0014325142838060856,0.1280069649219513
1772467423616732700,1.627732666015625,0.02810460515320301,-0.03188150003552437,0.13638047873973846
1772467423626705700,1.63770556640625,0.02587234415113926,-0.039441414177417755,0.13209278881549835
1772467423636678400,1.647678466796875,0.015535550191998482,-0.046614374965429306,0.10365208983421326
1772467423646650600,1.657650634765625,0.004159058444201946,-0.040228378027677536,0.06780461221933365
1772467423656623600,1.66762353515625,-0.0019315907265990973,-0.03401922062039375,0.018618958070874214
1772467423666596600,1.6775966796875,0.007686415687203407,-0.02425926737487316,-0.02557247132062912
1772467423676568600,1.687568603515625,0.022359101101756096,-0.015540610067546368,-0.05717220902442932
1772467423686541600,1.69754150390625,0.03857482224702835,0.0006892260862514377,-0.0586681067943573
1772467423696514600,1.7075146484375,0.04338023066520691,0.022005433216691017,-0.04276344180107117
1772467423706487600,1.717487548828125,0.040655817836523056,0.015218634158372879,-0.020537765696644783
1772467423716459500,1.72745947265625,0.02485501579940319,-0.010586864314973354,0.0035867453552782536
1772467423726432500,1.7374326171875,0.005862682592123747,-0.018252506852149963,0.02798902429640293
1772467423736405500,1.747405517578125,-0.015371499583125114,-0.017769942060112953,0.039315979927778244
1772467423746377500,1.75737744140625,-0.02666383422911167,-0.014718492515385151,0.04286197945475578
1772467423756350500,1.7673505859375,-0.01894732564687729,-0.0013877731980755925,0.03327086940407753
1772467423766323500,1.777323486328125,-0.006844590418040752,0.02731497772037983,0.024094417691230774
1772467423776296700,1.787296630859375,0.0013036173768341541,0.04048910364508629,0.014160294085741043
1772467423786268400,1.797268310546875,-0.004474643152207136,0.04607534781098366,0.018543057143688202
1772467423796241400,1.807241455078125,-0.01507029589265585,0.055412657558918,0.03832715004682541
1772467423806214700,1.817214599609375,-0.021703697741031647,0.051468782126903534,0.05732906982302666
1772467423816186400,1.827186279296875,-0.023905333131551743,0.028260666877031326,0.06841367483139038
1772467423826159400,1.837159423828125,-0.008102667517960072,0.01537576038390398,0.0721876472234726
1772467423836132600,1.847132568359375,0.011843609623610973,0.009301356039941311,0.06777851283550262
1772467423846105600,1.857105712890625,0.023567376658320427,0.009949569590389729,0.05927024781703949
1772467423856077300,1.867077392578125,0.01549533661454916,0.022474681958556175,0.06027692183852196
1772467423866050600,1.877050537109375,-0.002350772265344858,0.04204625263810158,0.06508845835924149
1772467423876023600,1.8870234375,-0.026402313262224197,0.041785795241594315,0.06275232881307602
1772467423885995500,1.89699560546875,-0.042633745819330215,0.04410674050450325,0.06064656749367714
1772467423895968500,1.906968505859375,-0.04109204187989235,0.04577334597706795,0.057376474142074585
1772467423905941500,1.91694140625,-0.038355376571416855,0.03803287073969841,0.04649746045470238
1772467423915913500,1.92691357421875,-0.01913720928132534,0.036244556307792664,0.034567829221487045
1772467423925886700,1.93688671875,-0.0032743564806878567,0.04747350886464119,0.02562759816646576
1772467423935859500,1.946859375,0.0007829693495295942,0.051422711461782455,0.013951768167316914
1772467423945832400,1.95683251953125,0.0005185174522921443,0.034980352967977524,0.01381275150924921
1772467423955804700,1.9668046875,-0.004552407655864954,0.04742211103439331,0.0325387679040432
1772467423965777700,1.976777587890625,-0.013350692577660084,0.05288398638367653,0.05747181549668312
1772467423975750400,1.98675048828125,-0.022652581334114075,0.03189827874302864,0.07075086981058121
1772467423985723400,1.996723388671875,-0.020488763228058815,0.018854381516575813,0.07395412027835846
1772467423995695600,2.006695556640625,-0.01056103128939867,0.01543781254440546,0.07045632600784302
1772467424005668600,2.016668701171875,0.004084756597876549,0.006280266214162111,0.06457473337650299
1772467424015641300,2.026641357421875,0.019509784877300262,0.002728142309933901,0.05504860356450081
1772467424025613600,2.036613525390625,0.029154423624277115,0.0072866748087108135,0.05085439234972
1772467424035586600,2.046586669921875,0.030911842361092567,0.004288754425942898,0.04316291585564613
1772467424045559600,2.0565595703125,0.02894110418856144,-0.014256699942052364,0.03635188192129135
1772467424055531500,2.066531494140625,0.02425740286707878,-0.010519219562411308,0.030495058745145798
1772467424065504500,2.07650439453125,0.016819993034005165,-0.008406267501413822,0.019842680543661118
1772467424075477500,2.0864775390625,0.01968422159552574,-0.006649913266301155,0.011639345437288284
1772467424085450800,2.09645068359375,0.016924388706684113,0.0043590618297457695,0.017416274175047874
1772467424095422500,2.10642236328125,0.003921504598110914,0.0017233315156772733,0.02835201285779476
1772467424105395500,2.1163955078125,-0.003439472522586584,-0.009064069017767906,0.04854197055101395
1772467424115368700,2.12636865234375,-0.007522364612668753,-0.021400097757577896,0.06102686747908592
1772467424125340400,2.13634033203125,-0.003493002150207758,-0.02514982782304287,0.06818837672472
1772467424135313400,2.1463134765625,-0.0030064424499869347,-0.030225813388824463,0.0551024004817009
1772467424145286700,2.15628662109375,-0.002837598090991378,-0.04093704745173454,0.030594659969210625
1772467424155259600,2.166259765625,0.01056529302150011,-0.024206269532442093,0.015103318728506565
1772467424165231400,2.1762314453125,0.028502214699983597,0.00574896577745676,0.004065315239131451
1772467424175204600,2.18620458984375,0.03218962624669075,0.03753938525915146,0.01432248018682003
1772467424185177600,2.196177490234375,0.02027624286711216,0.046116895973682404,0.03376142680644989
1772467424195150600,2.206150634765625,0.009464874863624573,0.03473374620079994,0.051061585545539856
1772467424205122600,2.21612255859375,-0.0009028115891851485,0.01955213025212288,0.055506136268377304
1772467424215095600,2.226095458984375,-0.004869057331234217,0.007216633763164282,0.05176093056797981
1772467424225068500,2.236068603515625,-0.002710032742470503,-0.014127270318567753,0.033550504595041275
1772467424235040500,2.24604052734375,0.010787933133542538,-0.028856681659817696,0.011951201595366001
1772467424245013500,2.256013427734375,0.03241785988211632,-0.016939569264650345,0.011240137740969658
1772467424254986500,2.265986572265625,0.03482722118496895,-0.01101563312113285,0.01798991858959198
1772467424264958700,2.275958740234375,0.02395513467490673,-0.01883707009255886,0.027119236066937447
1772467424274931500,2.285931396484375,0.00977460015565157,-0.02442518249154091,0.03133795037865639
1772467424284904400,2.295904541015625,-0.0034381409641355276,-0.014404505491256714,0.024816932156682014
1772467424294877700,2.305877685546875,-0.009154349565505981,-0.009661681950092316,0.004628041293472052
1772467424304849700,2.315849609375,-0.004013383761048317,0.006066947244107723,-0.00932239554822445
1772467424314822700,2.32582275390625,0.005862150341272354,0.028626585379242897,-0.013495036400854588
1772467424324795600,2.335795654296875,0.0138993039727211,0.033554498106241226,-0.014281733892858028
1772467424334769000,2.345768798828125,0.011153585277497768,0.017250625416636467,-0.00800279900431633
1772467424344740600,2.35574072265625,0.0068144965916872025,-0.010817760601639748,0.010070477612316608
1772467424354713600,2.365713623046875,0.001945705502294004,-0.025562351569533348,0.03112090192735195
1772467424364686800,2.375686767578125,-0.008206796832382679,-0.030249249190092087,0.055622249841690063
1772467424374658600,2.385658447265625,-0.009254750795662403,-0.024885110557079315,0.06645039469003677
1772467424384631600,2.395631591796875,-0.0000399474156438373,-0.012443886138498783,0.06377578526735306
1772467424394604800,2.405604736328125,0.0039047268219292164,0.000928377965465188,0.04688175395131111
1772467424404576800,2.41557666015625,0.006616889964789152,0.009287774562835693,0.029826339334249496
1772467424414549500,2.425549560546875,0.005913815461099148,0.00980362854897976,0.016447415575385094
1772467424424522800,2.435522705078125,0.0029734193813055754,0.016743026673793793,0.020176108926534653
1772467424434495700,2.445495849609375,0.003817641409114003,0.0170932337641716,0.02526700682938099
1772467424444467700,2.4554677734375,0.009467803873121738,0.018063422292470932,0.024351412430405617
1772467424454440700,2.465440673828125,0.013730992563068867,0.024112792685627937,0.024102140218019485
1772467424464413700,2.47541357421875,0.01395869255065918,0.026862507686018944,0.017229586839675903
1772467424474386700,2.48538671875,0.016923589631915092,0.028441760689020157,0.006460562348365784
1772467424484359000,2.49535888671875,0.01967223733663559,0.03586425632238388,0.004718855023384094
1772467424494331600,2.50533154296875,0.02316497452557087,0.04632009565830231,0.010278469882905483
1772467424504304600,2.5153046875,0.023010777309536934,0.060500629246234894,0.014664430171251297
1772467424514276900,2.52527685546875,0.02148878015577793,0.06741578876972198,0.01625700108706951
1772467424524249600,2.53524951171875,0.012862268835306168,0.06662243604660034,0.009806823916733265
1772467424534222600,2.54522265625,0.007949535734951496,0.03803393617272377,-0.004785700235515833
1772467424544195600,2.555195556640625,0.018143583089113235,0.0344405323266983,-0.008006527088582516
1772467424554167800,2.565167724609375,0.0221516415476799,0.04049496352672577,-0.010178068652749062
1772467424564140500,2.575140625,0.02095135487616062,0.03634229674935341,-0.012583702802658081
1772467424574113500,2.585113525390625,0.019119098782539368,0.034509241580963135,-0.006327936891466379
1772467424584085800,2.595085693359375,0.021894380450248718,0.021999042481184006,-0.0024229439441114664
1772467424594058800,2.605058837890625,0.03557423874735832,0.017913486808538437,-0.0013515542959794402
1772467424604031500,2.615031494140625,0.050639741122722626,0.02195989340543747,-0.0036874127108603716
1772467424614004700,2.625004638671875,0.05835118889808655,0.03169667720794678,-0.006968427449464798
1772467424623976700,2.634976806640625,0.0581064447760582,0.03352333977818489,-0.008038219064474106
1772467424633949700,2.64494970703125,0.04523778706789017,0.040719468146562576,0.013997840695083141
1772467424643922700,2.654922607421875,0.033298034220933914,0.057255566120147705,0.043828707188367844
1772467424653894700,2.664894775390625,0.027417242527008057,0.07078468799591064,0.07053621858358383
1772467424663867600,2.67486767578125,0.030047647655010223,0.07714138925075531,0.09591108560562134
1772467424673840600,2.684840576171875,0.03907070308923721,0.06160503998398781,0.09795825183391571
1772467424683813600,2.694813720703125,0.04662901908159256,0.05832242965698242,0.08393644541501999
1772467424693785600,2.70478564453125,0.05513249337673187,0.059713929891586304,0.06364049762487411
1772467424703758600,2.714758544921875,0.06275525689125061,0.061534199863672256,0.034697525203228
1772467424713731800,2.72473193359375,0.06868771463632584,0.08369915932416916,-0.00344559783115983
1772467424723703600,2.73470361328125,0.06501681357622147,0.07698852568864822,-0.04872466251254082
1772467424733676500,2.744676513671875,0.06713536381721497,0.04603913053870201,-0.08053132891654968
1772467424743649800,2.75464990234375,0.05588563531637192,0.06795322149991989,-0.071085624396801
1772467424753622800,2.764622802734375,0.03695641830563545,0.09753108024597168,-0.05664144083857536
1772467424763594800,2.7745947265625,0.03325995057821274,0.13784681260585785,-0.021760422736406326
1772467424773567700,2.784567626953125,0.025858495384454727,0.19849205017089844,0.029337648302316666
1772467424783540700,2.794540771484375,0.022546853870153427,0.16273565590381622,0.049555037170648575
1772467424793513700,2.804513671875,0.009192166849970818,0.10101156681776047,0.049375537782907486
1772467424803485700,2.814485595703125,0.004293015692383051,0.07068508863449097,0.05242778733372688
1772467424813458700,2.824458740234375,-0.005794771946966648,0.08001547306776047,0.06805867701768875
1772467424823431700,2.834431640625,-0.013626595959067345,0.08238115906715393,0.0723908394575119
1772467424833403600,2.844403564453125,-0.018005365505814552,0.10087255388498306,0.08158726990222931
1772467424843376600,2.854376708984375,-0.018820026889443398,0.15378662943840027,0.09559230506420135
1772467424853349600,2.864349609375,-0.017849570140242577,0.20166733860969543,0.1122698187828064
1772467424863322600,2.874322509765625,-0.012607404962182045,0.18991507589817047,0.1207842081785202
1772467424873294600,2.884294677734375,-0.003591006388887763,0.1638493835926056,0.13114017248153687
1772467424883267600,2.894267578125,0.0008226504432968795,0.10250906646251678,0.12483274936676025
1772467424893240600,2.904240478515625,0.003667971817776561,0.08702491223812103,0.10496130585670471
1772467424903212800,2.914212890625,0.020171314477920532,0.08435695618391037,0.06311611831188202
1772467424913185500,2.924185546875,0.031870581209659576,0.09061352163553238,0.030178941786289215
1772467424923158500,2.934158447265625,0.03867735341191292,0.08344802260398865,0.007553790230304003
1772467424933131800,2.9441318359375,0.035342276096343994,0.06495529413223267,-0.003599262097850442
1772467424943103500,2.954103515625,0.031075095757842064,0.05747980251908302,-0.004197407979518175
1772467424953076500,2.964076416015625,0.027514448389410973,0.03326953947544098,0.002002697205170989
1772467424963049700,2.9740498046875,0.02582200989127159,0.014713166281580925,0.008493353612720966
1772467424973021700,2.984021728515625,0.03352040797472,0.013715812005102634,0.01684236340224743
1772467424982994400,2.993994384765625,0.040766339749097824,0.00911626685410738,0.021096229553222656
1772467424992967700,3.0039677734375,0.0489979013800621,-0.0004623247659765184,0.027906998991966248
1772467425002940700,3.013940673828125,0.04701464623212814,-0.0073196981102228165,0.032694295048713684
1772467425012912600,3.02391259765625,0.0356043316423893,-0.015104650519788265,0.041000429540872574
1772467425022885600,3.0338857421875,0.02365579456090927,-0.009837716817855835,0.04965650290250778
1772467425032858600,3.043858642578125,0.00794420950114727,-0.0062067629769444466,0.04809882119297981
1772467425042831600,3.05383154296875,-0.0009331716573797166,-0.015976037830114365,0.03795403987169266
1772467425052803800,3.063803955078125,-0.014709703624248505,-0.008472047746181488,0.028022047132253647
1772467425062776600,3.073776611328125,-0.013220730237662792,-0.002398442942649126,0.0268944650888443
1772467425072749600,3.08374951171875,-0.004008856136351824,-0.003992611076682806,0.020325511693954468
1772467425082721800,3.0937216796875,-0.0037523938808590174,-0.017122527584433556,0.022611569613218307
1772467425092694800,3.10369482421875,-0.006032059900462627,-0.012357600033283234,0.033597640693187714
1772467425102667500,3.11366748046875,-0.008043545298278332,-0.027124295011162758,0.046544600278139114
1772467425112640500,3.123640625,-0.019237609580159187,-0.036617930978536606,0.0470585897564888
1772467425122612700,3.13361279296875,-0.030421022325754166,-0.042386606335639954,0.04249739274382591
1772467425132585700,3.143585693359375,-0.034802187234163284,-0.052923668175935745,0.027695277705788612
1772467425142558500,3.153558349609375,-0.03759424760937691,-0.05179901421070099,0.015448731370270252
1772467425152530700,3.16353076171875,-0.03129001334309578,-0.03832555189728737,0.0049287122674286366
1772467425162503700,3.173503662109375,-0.028110463172197342,-0.03362906724214554,0.0002719087351579219
1772467425172476700,3.1834765625,-0.025594575330615044,-0.03450045362114906,0.008666991256177425
1772467425182449700,3.19344970703125,-0.03175606578588486,-0.010755442082881927,0.023604927584528923
1772467425192421600,3.203421630859375,-0.026758376508951187,-0.0023968450259417295,0.035226162523031235
1772467425202394600,3.21339453125,-0.03142450004816055,-0.015488412231206894,0.03343838453292847
1772467425212368000,3.223367919921875,-0.024500016123056412,-0.020898090675473213,0.028387965634465218
1772467425222340600,3.233340576171875,-0.019726833328604698,-0.017916416749358177,0.02700658328831196
1772467425232312600,3.2433125,-0.014675082638859749,-0.020741498097777367,0.026443857699632645
1772467425242285800,3.253285888671875,-0.016506537795066833,-0.03984514996409416,0.02863856963813305
1772467425252258800,3.2632587890625,-0.02563239261507988,-0.026071548461914062,0.04230218380689621
1772467425262231600,3.2732314453125,-0.037703968584537506,-0.007464307826012373,0.05020378157496452
1772467425272203800,3.283203857421875,-0.04458797350525856,-0.011789281852543354,0.04258447885513306
1772467425282176800,3.2931767578125,-0.048582449555397034,-0.031252194195985794,0.017358750104904175
1772467425292149800,3.303149658203125,-0.046474557369947433,-0.03130865469574928,-0.0006032059900462627
1772467425302121700,3.313121826171875,-0.04012478142976761,-0.002097505610436201,0.001431182725355029
1772467425312094700,3.3230947265625,-0.034097250550985336,0.006074670236557722,-0.0024927188642323017
1772467425322067700,3.333067626953125,-0.044613540172576904,-0.011635350994765759,0.005736715160310268
1772467425332040700,3.343040771484375,-0.05155560374259949,-0.0027944548055529594,0.010729343630373478
1772467425342012700,3.3530126953125,-0.046242862939834595,0.010602043941617012,0.021622737869620323
1772467425351985700,3.362985595703125,-0.044492099434137344,0.0063002402894198895,0.01423353049904108
1772467425361958700,3.372958740234375,-0.04130056872963905,-0.004449343308806419,0.0037971350830048323
1772467425371930600,3.3829306640625,-0.03663497790694237,0.0033009881153702736,0.002785133896395564
1772467425381903600,3.392903564453125,-0.0342559739947319,0.004037618637084961,0.005394765175879002
1772467425391876600,3.402876708984375,-0.041429199278354645,0.0005430185701698065,0.006563626695424318
1772467425401849900,3.412849853515625,-0.04370593652129173,-0.004815794061869383,0.011691543273627758
1772467425411821600,3.422821533203125,-0.036107137799263,0.003316967049613595,0.022776419296860695
1772467425421794600,3.432794677734375,-0.034935880452394485,-0.005178783088922501,0.024382837116718292
1772467425431767800,3.442767822265625,-0.031920116394758224,-0.025074725970625877,0.02123657986521721
1772467425441740800,3.45274072265625,-0.026643062010407448,-0.017942247912287712,0.025911491364240646
1772467425451712500,3.46271240234375,-0.013728861697018147,-0.012916064821183681,0.037940457463264465
1772467425461685800,3.472685791015625,-0.013833790086209774,-0.014444985426962376,0.04827485606074333
1772467425471658800,3.48265869140625,-0.016759006306529045,-0.018484733998775482,0.04424495995044708
1772467425481630500,3.49263037109375,-0.014258298091590405,-0.007770837750285864,0.040160201489925385
1772467425491603700,3.502603759765625,-0.018573950976133347,0.0031702269334346056,0.038605716079473495
1772467425501576700,3.51257666015625,-0.02214072272181511,0.0002748382103163749,0.028855349868535995
1772467425511549700,3.5225498046875,-0.023077355697751045,0.00788295641541481,0.017956096678972244
1772467425521521700,3.532521728515625,-0.024691764265298843,0.003340935567393899,0.011921906843781471
1772467425531494700,3.54249462890625,-0.025363679975271225,-0.0030067088082432747,0.010008159093558788
1772467425541467600,3.552467529296875,-0.030230605974793434,-0.004804076161235571,0.025593776255846024
1772467425551440600,3.562440673828125,-0.030252976343035698,-0.00959670078009367,0.03927683085203171
1772467425561412600,3.57241259765625,-0.03136351704597473,-0.01865863986313343,0.04977607727050781
1772467425571385600,3.582385498046875,-0.03785763308405876,-0.022310098633170128,0.05643424764275551
1772467425581358600,3.592358642578125,-0.037995051592588425,-0.022613167762756348,0.05155507102608681
1772467425591330800,3.602330810546875,-0.03320402652025223,-0.004365986213088036,0.04727590084075928
1772467425601303600,3.612303466796875,-0.03310788422822952,0.005208876915276051,0.03778599575161934
1772467425611276500,3.622276611328125,-0.04103212058544159,0.005743106827139854,0.026370620355010033
1772467425621249800,3.632249755859375,-0.03750689700245857,0.004003529902547598,0.021937789395451546
1772467425631221800,3.6422216796875,-0.03792634233832359,0.004788097459822893,0.02165229804813862
1772467425641194500,3.652194580078125,-0.034332938492298126,0.004221110139042139,0.019776368513703346
1772467425651167700,3.662167724609375,-0.03448367491364479,0.004720985423773527,0.02082911506295204
1772467425661139700,3.6721396484375,-0.03188629448413849,0.0070768180303275585,0.022291989997029305
1772467425671112700,3.68211279296875,-0.038730084896087646,0.0028487835079431534,0.017581656575202942
1772467425681085700,3.692085693359375,-0.03942117467522621,-0.0011110707418993115,0.008682438172399998
1772467425691058700,3.70205859375,-0.03670741245150566,-0.009770872071385384,-0.007019826211035252
1772467425701030700,3.71203076171875,-0.03761022537946701,-0.023935426026582718,-0.019451994448900223
1772467425711004000,3.72200390625,-0.037995584309101105,-0.02466673031449318,-0.03356727957725525
1772467425720976600,3.7319765625,-0.033726006746292114,-0.03080078959465027,-0.04181855171918869
1772467425730949600,3.74194970703125,-0.025779400020837784,-0.03140772506594658,-0.042155977338552475
1772467425740921900,3.751921875,-0.019566509872674942,-0.01661626063287258,-0.033256758004426956
1772467425750894800,3.761894775390625,-0.018392855301499367,-0.0005845638806931674,-0.024283235892653465
1772467425760867600,3.77186767578125,-0.01685141772031784,0.002261556452140212,-0.024210797622799873
1772467425770839800,3.78183984375,-0.021494906395673752,0.009029713459312916,-0.024921594187617302
1772467425780812800,3.791812744140625,-0.024118386209011078,0.016414659097790718,-0.02749580703675747
1772467425790785500,3.80178564453125,-0.03127403184771538,0.018638132140040398,-0.03266793116927147
1772467425800758500,3.811758544921875,-0.02959970384836197,0.02371331863105297,-0.03663897141814232
1772467425810730800,3.821730712890625,-0.026631344109773636,0.03370922803878784,-0.03002527728676796
1772467425820703700,3.831703857421875,-0.024441426619887352,0.041843853890895844,-0.01558055728673935
1772467425830676500,3.841676513671875,-0.03411775827407837,0.035462651401758194,0.004978513345122337
1772467425840649700,3.851649658203125,-0.035054124891757965,0.03194115310907364,0.024322649464011192
1772467425850621700,3.86162158203125,-0.03665494918823242,0.035721778869628906,0.03517875820398331
1772467425860594700,3.8715947265625,-0.03844911977648735,0.012271846644580364,0.02574983797967434
1772467425870567700,3.881567626953125,-0.04115276411175728,0.0049153962172567844,0.011952533386647701
1772467425880539600,3.89153955078125,-0.029644444584846497,0.011974104680120945,0.009240636602044106
1772467425890512600,3.9015126953125,-0.02641669288277626,0.026511501520872116,0.008924518711864948
1772467425900485600,3.911485595703125,-0.023609455674886703,0.01889432966709137,0.010483799502253532
1772467425910458600,3.921458740234375,-0.021580126136541367,0.01804983988404274,0.019347865134477615
1772467425920430600,3.9314306640625,-0.018435997888445854,0.018195249140262604,0.02327789179980755
1772467425930403600,3.941403564453125,-0.018797656521201134,-0.006145510356873274,0.012440158054232597
1772467425940376800,3.951376953125,-0.012314989231526852,-0.018081799149513245,-0.0020066918805241585
1772467425950349600,3.961349609375,0.0017084177816286683,-0.00703793577849865,-0.011667308397591114
1772467425960321800,3.97132177734375,0.011385812424123287,-0.01107608713209629,-0.021676000207662582
1772467425970294800,3.981294677734375,0.00971547793596983,-0.013804495334625244,-0.02353728376328945
1772467425980267800,3.991267822265625,0.0031369375064969063,-0.011027883738279343,-0.017710553482174873
1772467425990239700,4.00123974609375,0.0017539578257128596,-0.00788588635623455,-0.013844442553818226
1772467426000212700,4.011212646484375,0.004311923868954182,-0.006452306639403105,-0.013764548115432262
1772467426010185700,4.021185791015625,0.012130964547395706,0.0016136092599481344,-0.01461942307651043
1772467426020158700,4.03115869140625,0.017434118315577507,0.018101505935192108,-0.010410829447209835
1772467426030130700,4.041130615234375,0.01968235895037651,0.015327823348343372,-0.005335909314453602
1772467426040103700,4.051103759765625,0.01925358921289444,0.0003962783666793257,0.006914098747074604
1772467426050076700,4.06107666015625,0.023249130696058273,-0.0019587550777941942,0.02166295051574707
1772467426060049700,4.071049560546875,0.02251249924302101,-0.01278876606374979,0.023729031905531883
1772467426070021600,4.081021728515625,0.012548016384243965,-0.009181248024106026,0.02429921366274357
1772467426079994600,4.09099462890625,0.0051958272233605385,-0.00044022052315995097,0.012538428418338299
1772467426089967600,4.100967529296875,0.003552124137058854,-0.0025885924696922302,-0.008756207302212715
1772467426099939600,4.110939697265625,0.008077899925410748,-0.005290369503200054,-0.026250513270497322
1772467426109912600,4.12091259765625,0.013729128055274487,-0.012677978724241257,-0.03490099310874939
1772467426119885600,4.130885498046875,0.019336946308612823,-0.026157833635807037,-0.037401434034109116
1772467426129858800,4.14085888671875,0.02322729118168354,-0.029457224532961845,-0.022305838763713837
1772467426139830500,4.15083056640625,0.01321327406913042,-0.020368387922644615,0.00025246766745112836
1772467426149803500,4.160803466796875,0.005647233221679926,-0.014967497438192368,0.011856126599013805
1772467426159776800,4.17077685546875,0.008892561309039593,-0.006012352649122477,0.01991618424654007
1772467426169749800,4.180749755859375,0.014095312915742397,0.00014061490946915,0.018387263640761375
1772467426179721500,4.190721435546875,0.023572970181703568,-0.00395772373303771,0.008142348378896713
1772467426189694700,4.20069482421875,0.029917152598500252,0.0011262508342042565,0.0008436894277110696
1772467426199667700,4.210667724609375,0.03520406037569046,0.0034847462084144354,-0.0007142598042264581
1772467426209640700,4.220640625,0.03326794132590294,0.012075304985046387,0.00640889722853899
1772467426219612700,4.23061279296875,0.038595594465732574,0.029695311561226845,0.010459032841026783
1772467426229585700,4.240585693359375,0.03957111015915871,0.04681597650051117,0.017058080062270164
1772467426239558700,4.25055859375,0.042697660624980927,0.043301135301589966,0.018864501267671585
1772467426249530600,4.260530517578125,0.04808789864182472,0.032709743827581406,0.009356750175356865
1772467426259503600,4.270503662109375,0.051546283066272736,0.013714480213820934,-0.0004665858286898583
1772467426269476600,4.2804765625,0.057797253131866455,0.017191236838698387,0.0011124024167656898
1772467426279449600,4.29044970703125,0.06228121742606163,0.0268276184797287,0.009667540900409222
1772467426289421600,4.300421630859375,0.04890362545847893,0.01179354265332222,0.013860953971743584
1772467426299394000,4.31039404296875,0.03904726728796959,-0.007020092569291592,0.008541289716959
1772467426309367300,4.3203671875,0.033726539462804794,-0.006362558342516422,0.00899855513125658
1772467426319339300,4.33033935546875,0.039964459836483,0.011375959031283855,0.007528223562985659
1772467426329312000,4.34031201171875,0.039374835789203644,0.023550599813461304,0.0046272422187030315
1772467426339285200,4.35028515625,0.04501727595925331,0.029172798618674278,0.00606375141069293
1772467426349258200,4.36025830078125,0.04338555783033371,0.02383715659379959,0.008773784153163433
1772467426359230200,4.370230224609375,0.04200497269630432,0.01817980222404003,0.01272698026150465
1772467426369203200,4.380203125,0.04079989343881607,0.0320277065038681,0.02454528957605362
1772467426379176200,4.39017626953125,0.041122134774923325,0.037697575986385345,0.03506584092974663
1772467426389149200,4.400149169921875,0.036799561232328415,0.03301680460572243,0.03924860432744026
1772467426399121400,4.410121337890625,0.03399844840168953,0.026160763576626778,0.040353015065193176
1772467426409094100,4.42009423828125,0.03820384293794632,0.012402074411511421,0.030658310279250145
1772467426419067100,4.430067138671875,0.04250431805849075,0.015176556073129177,0.01745462417602539
1772467426429040000,4.4400400390625,0.036734845489263535,0.02207334339618683,0.009225189685821533
1772467426439012000,4.45001220703125,0.02672215737402439,0.024652881547808647,0.0062728095799684525
1772467426448985000,4.459985107421875,0.022335132583975792,0.04103238880634308,0.013681191019713879
1772467426458958000,4.4699580078125,0.02094682678580284,0.029817016795277596,0.02015000954270363
1772467426468930300,4.479930419921875,0.025588184595108032,0.01275494322180748,0.01931191235780716
1772467426478903000,4.489903076171875,0.03681101277470589,-0.00138031633105129,0.017769942060112953
1772467426488876000,4.4998759765625,0.03837775066494942,0.00004953479583491571,0.01314882468432188
1772467426498849300,4.509849365234375,0.03669729456305504,0.012918195687234402,0.006984938867390156
1772467426508821200,4.5198212890625,0.030067354440689087,0.028302744030952454,-0.0024234766606241465
1772467426518794000,4.5297939453125,0.023926638066768646,0.027897944673895836,-0.008504538796842098
1772467426528767200,4.539767333984375,0.031125428155064583,0.027105653658509254,-0.007865912280976772
1772467426538740200,4.549740234375,0.037527136504650116,0.014181066304445267,-0.004622981417924166
1772467426548712200,4.559712158203125,0.04105635732412338,0.004674912896007299,-0.003011502558365464
1772467426558685200,4.569685302734375,0.04532114416360855,0.006614226847887039,-0.003952663857489824
1772467426568658200,4.579658203125,0.046665772795677185,0.01395576260983944,0.002004561247304082
1772467426578630100,4.589630126953125,0.04784821718931198,0.025671275332570076,0.005363340023905039
1772467426588603100,4.59960302734375,0.04514404386281967,0.021854165941476822,0.012590626254677773
1772467426598576000,4.609576171875,0.04592195153236389,0.018874621018767357,0.016583504155278206
1772467426608549000,4.619549072265625,0.050941742956638336,0.027773307636380196,0.012636166997253895
1772467426618521000,4.62952099609375,0.054726362228393555,0.025479260832071304,0.0072866748087108135
1772467426628494300,4.639494384765625,0.05782175436615944,0.030068153515458107,0.0039113848470151424
1772467426638467000,4.649467041015625,0.06222955137491226,0.03003113530576229,0.010084591805934906
1772467426648440000,4.659440185546875,0.0627848207950592,0.022792130708694458,0.009433715604245663
1772467426658412300,4.669412353515625,0.06207855045795441,0.013549630530178547,0.013948839157819748
1772467426668385300,4.67938525390625,0.058875299990177155,0.013341904617846012,0.013874802738428116
1772467426678358000,4.68935791015625,0.06579818576574326,0.007423827890306711,0.0073053170926868916
1772467426688330200,4.699330322265625,0.0678272470831871,0.00660437298938632,0.0010154632618650794
1772467426698303200,4.70930322265625,0.059838566929101944,0.01426229253411293,0.0008996158139780164
1772467426708276200,4.719276123046875,0.048654086887836456,0.010990332812070847,-0.0010996191995218396
1772467426718249000,4.7292490234375,0.04205344244837761,0.018561434000730515,0.0019598202779889107
1772467426728221200,4.73922119140625,0.03768585994839668,0.018923357129096985,0.00047351003740914166
1772467426738194200,4.749194091796875,0.04132799804210663,0.017062339931726456,-0.001216265605762601
1772467426748167200,4.759167236328125,0.05434499680995941,0.014666827395558357,-0.002924150787293911
1772467426758140200,4.76914013671875,0.0631006732583046,0.009396431036293507,0.007157245185226202
1772467426768112000,4.779112060546875,0.06021620333194733,0.004175570327788591,0.012987704016268253
1772467426778085000,4.789085205078125,0.04758589342236519,-0.008496282622218132,0.00983372237533331
1772467426788058400,4.799058349609375,0.041485127061605453,-0.010751447640359402,0.014087855815887451
1772467426798031000,4.809031005859375,0.04138019680976868,0.0015060176374390721,0.01860164664685726
1772467426808003000,4.819003173828125,0.047151532024145126,0.010655040852725506,0.019888220354914665
1772467426817976300,4.828976318359375,0.04992787912487984,0.02551068551838398,0.014435664750635624
1772467426827949300,4.83894921875,0.05188583582639694,0.028311265632510185,0.012132296338677406
1772467426837921000,4.848921142578125,0.052796367555856705,0.019104719161987305,0.00953997578471899
1772467426847894300,4.858894287109375,0.04815234988927841,0.015050588175654411,0.0049489522352814674
1772467426857867300,4.8688671875,0.04379595071077347,0.012949087657034397,0.0067849354818463326
1772467426867840000,4.878840087890625,0.04132586717605591,0.024899490177631378,0.00812077708542347
1772467426877812200,4.888812255859375,0.03801769018173218,0.027119236066937447,-0.00039175100391730666
1772467426887785200,4.89878515625,0.044545628130435944,0.022046979516744614,-0.014914234168827534
1772467426897758200,4.90875830078125,0.05482090264558792,0.012978116981685162,-0.01728098653256893
1772467426907731000,4.91873095703125,0.05732826888561249,0.0025627599097788334,-0.02365765906870365
1772467426917703200,4.928703125,0.0551905520260334,-0.005031776614487171,-0.025959162041544914
1772467426927676200,4.93867626953125,0.05146026238799095,-0.002091380301862955,-0.02617541141808033
1772467426937649200,4.948649169921875,0.04446467012166977,-0.005375324282795191,-0.019769176840782166
1772467426947621000,4.95862109375,0.042990077286958694,-0.009400425478816032,-0.01583275943994522
1772467426957594000,4.968593994140625,0.04909217730164528,0.002311091171577573,-0.0092307822778821
1772467426967567000,4.978567138671875,0.052498362958431244,0.009156214073300362,0.0008937568636611104
1772467426977540400,4.988540283203125,0.05423314496874809,0.017376327887177467,0.013363742269575596
1772467426987512000,4.998511962890625,0.0531790666282177,0.015120362862944603,0.0220847949385643
1772467426997485000,5.008485107421875,0.05007568374276161,0.010035856626927853,0.028904885053634644
1772467427007458300,5.018458251953125,0.039021700620651245,0.004308728501200676,0.028727518394589424
1772467427017431300,5.028431396484375,0.02683241292834282,0.0013195963110774755,0.02532666176557541
1772467427027403000,5.038403076171875,0.018005898222327232,-0.0014642059104517102,0.020231768488883972
1772467427037376300,5.048376220703125,0.022900255396962166,-0.002313754288479686,0.012447082437574863
1772467427047349200,5.058349365234375,0.025482989847660065,-0.007614243775606155,0.01212697010487318
1772467427057321000,5.068321044921875,0.023270169273018837,0.003637877991423011,0.011499796062707901
1772467427067294200,5.078294189453125,0.02142033725976944,-0.0000953411654336378,0.00529463030397892
1772467427077267200,5.08826708984375,0.012359730899333954,-0.007269097957760096,-0.004962800536304712
1772467427087240200,5.098240234375,0.004232828039675951,-0.001386707997880876,-0.012582637369632721
1772467427097212200,5.108212158203125,0.005306880921125412,-0.0062243398278951645,-0.017603227868676186
1772467427107185200,5.11818505859375,0.004255465231835842,-0.004295412451028824,-0.018930016085505486
1772467427117158100,5.128158203125,0.014763233251869678,-0.004799282643944025,-0.02003655955195427
1772467427127131100,5.138131103515625,0.014230867847800255,-0.0009052084642462432,-0.020900487899780273
1772467427137103000,5.14810302734375,0.007771370466798544,-0.012010590173304081,-0.027153857052326202
1772467427147076000,5.158076171875,-0.000261788722127676,-0.03343651816248894,-0.03622431680560112
1772467427157049000,5.168049072265625,-0.004746019374579191,-0.0460260808467865,-0.0460929274559021
1772467427167021300,5.178021240234375,-0.003406715579330921,-0.046292129904031754,-0.04399595409631729
1772467427176994000,5.187994140625,-0.00398781755939126,-0.015573366545140743,-0.020969729870557785
1772467427186967000,5.197967041015625,-0.007680556736886501,-0.0041425470262765884,-0.01065131276845932
1772467427196940300,5.207940185546875,-0.004192880820482969,0.000815193576272577,-0.00703766942024231
1772467427206912300,5.217912353515625,-0.0016948357224464417,0.0007440872141160071,-0.011699533089995384
1772467427216885000,5.227885009765625,-0.007276555057615042,-0.002529470482841134,-0.014823154546320438
1772467427226858200,5.237858154296875,-0.007929296232759953,0.00105328019708395,-0.01092481892555952
1772467427236831200,5.247831298828125,-0.004069842863827944,-0.002796585438773036,-0.009669671766459942
1772467427246803200,5.25780322265625,-0.0018407768802717328,-0.008200405165553093,0.0018929748330265284
1772467427256776200,5.267776123046875,-0.0060416474007070065,0.0026935210917145014,0.0214815903455019
1772467427266749200,5.277749267578125,-0.006591323763132095,0.0018383801216259599,0.03280321881175041
1772467427276721200,5.28772119140625,-0.009476326406002045,-0.0017148094484582543,0.038653917610645294
1772467427286694100,5.297694091796875,-0.012630308046936989,-0.003620833856984973,0.033785659819841385
1772467427296671500,5.30767138671875,-0.013719008304178715,-0.015961656346917152,0.018518822267651558
1772467427306644500,5.31764453125,-0.01672012358903885,-0.028900889679789543,0.007741276640444994
1772467427316616400,5.327616455078125,-0.023549534380435944,-0.026671824976801872,-0.0008812400046736002
1772467427326588400,5.33758837890625,-0.025774871930480003,-0.011168232187628746,-0.010765030048787594
1772467427336561400,5.3475615234375,-0.03361521661281586,-0.0027835359796881676,-0.02652614936232567
1772467427346533600,5.35753369140625,-0.03724430873990059,0.005802229046821594,-0.03670075535774231
1772467427356506400,5.36750634765625,-0.03599022328853607,0.015360847115516663,-0.042274750769138336
1772467427366479400,5.377479248046875,-0.037824876606464386,0.006622482556849718,-0.036263465881347656
1772467427376452400,5.387452392578125,-0.036496490240097046,0.0033654365688562393,-0.014394918456673622
1772467427386424300,5.39742431640625,-0.041133586317300797,0.008270712569355965,0.00526640098541975
1772467427396397300,5.407397216796875,-0.04327636584639549,0.007113569416105747,0.011114436201751232
1772467427406370300,5.417370361328125,-0.043592482805252075,0.004372644238173962,0.0013041499769315124
1772467427416343600,5.427343505859375,-0.04066300764679909,0.014116351492702961,-0.012948289513587952
1772467427426315300,5.437315185546875,-0.03473374620079994,0.017585651949048042,-0.02064775489270687
1772467427436288300,5.447288330078125,-0.03791089728474617,0.010058493353426456,-0.02249705232679844
1772467427446261500,5.457261474609375,-0.03073820471763611,0.0057194046676158905,-0.01317865215241909
1772467427456233500,5.4672333984375,-0.025527730584144592,0.005855492316186428,-0.0008069378091022372
1772467427466206200,5.477206298828125,-0.016754478216171265,0.013324327766895294,0.013016466051340103
1772467427476179500,5.487179443359375,-0.013787983916699886,0.012721654027700424,0.008743157610297203
1772467427486152400,5.49715234375,-0.019232816994190216,0.01130724884569645,0.00021944446780253202
1772467427496124400,5.50712451171875,-0.020240023732185364,0.0057500312104821205,-0.016818128526210785
1772467427506097400,5.517097412109375,-0.02496287412941456,-0.01888394169509411,-0.040553018450737
1772467427516070400,5.5270703125,-0.019649600610136986,-0.04168060049414635,-0.05199981853365898
1772467427526043400,5.53704345703125,-0.020320717245340347,-0.05511651560664177,-0.054902128875255585
1772467427536015600,5.547015625,-0.016233565285801888,-0.07221480458974838,-0.05920659750699997
1772467427545988400,5.55698828125,-0.013258813880383968,-0.052550025284290314,-0.05680549144744873
1772467427555961300,5.56696142578125,-0.017190970480442047,0.001975532853975892,-0.055682968348264694
1772467427565933600,5.57693359375,-0.015364575199782848,0.008144479244947433,-0.05621400475502014
1772467427575906600,5.586906494140625,-0.01882668398320675,-0.011048389598727226,-0.047558464109897614
1772467427585879300,5.59687939453125,-0.028077973052859306,-0.004148405976593494,-0.037530865520238876
1772467427595852300,5.606852294921875,-0.02556794509291649,-0.014698518440127373,-0.026226278394460678
1772467427605824500,5.616824462890625,-0.028931783512234688,-0.03305009379982948,-0.020077571272850037
1772467427615797500,5.626797607421875,-0.020972393453121185,-0.06645599007606506,-0.031389880925416946
1772467427625770200,5.636770263671875,-0.005092762876302004,-0.10779836773872375,-0.05788993090391159
1772467427635743500,5.646743408203125,0.030282538384199142,-0.13990597426891327,-0.08970964699983597
1772467427645715500,5.656715576171875,0.06512227654457092,-0.14194461703300476,-0.09828129410743713
1772467427655688400,5.6666884765625,0.08513513207435608,-0.1563054472208023,-0.0945691168308258
1772467427665661400,5.676661376953125,0.08292444050312042,-0.18318819999694824,-0.08057074248790741
1772467427675634400,5.686634521484375,0.06926322728395462,-0.18352162837982178,-0.0662168338894844
1772467427685606400,5.6966064453125,0.05103575438261032,-0.16641934216022491,-0.05284883454442024
1772467427695579600,5.70657958984375,0.03176219016313553,-0.14637131989002228,-0.049607500433921814
1772467427705552400,5.716552490234375,0.024020647630095482,-0.12976491451263428,-0.04788922891020775
1772467427715524400,5.7265244140625,0.01738378405570984,-0.08319076150655746,-0.02586675062775612
1772467427725497600,5.73649755859375,0.0019747340120375156,-0.03170572966337204,-0.004011785611510277
1772467427735470600,5.746470703125,-0.005370264407247305,-0.01073626708239317,0.012622318230569363
1772467427745443300,5.756443359375,-0.013399428687989712,-0.010980213060975075,0.010998056270182133
1772467427755415600,5.76641552734375,-0.013562147505581379,-0.01438213512301445,-0.0018636800814419985
1772467427765388500,5.776388427734375,-0.00046072687837295234,-0.01293124444782734,-0.014550180174410343
1772467427775361300,5.786361328125,0.018088988959789276,-0.012779178097844124,-0.01756301522254944
1772467427785334300,5.796334228515625,0.020247481763362885,-0.023198796436190605,-0.009120794013142586
1772467427795306500,5.806306396484375,0.0048978193663060665,-0.02672135829925537,0.010399644263088703
1772467427805279500,5.816279541015625,-0.010496316477656364,-0.028751220554113388,0.029562152922153473
1772467427815252200,5.826252197265625,-0.014897456392645836,-0.030489465221762657,0.03612338379025459
1772467427825224400,5.836224365234375,-0.011632421053946018,-0.028321387246251106,0.025713618844747543
1772467427835197400,5.846197509765625,-0.0076294238679111,-0.006580670829862356,0.014828214421868324
1772467427845170400,5.85617041015625,-0.0026940538082271814,0.004279433749616146,-0.012172509916126728
1772467427855143400,5.866143310546875,-0.00048602689639665186,-0.0025033713318407536,-0.02737809531390667
1772467427865115400,5.876115478515625,-0.002788063371554017,0.0017710020765662193,-0.01672571711242199
1772467427875088400,5.88608837890625,-0.013787184841930866,0.0014998923288658261,-0.004519650712609291
1772467427885061400,5.896061279296875,-0.02231782302260399,-0.0017161410069093108,0.014087323099374771
1772467427895034400,5.906034423828125,-0.02732403203845024,-0.0038717035204172134,0.02412424422800541
1772467427905006300,5.91600634765625,-0.02948092669248581,-0.013579990714788437,0.025555960834026337
1772467427914979600,5.9259794921875,-0.030472422018647194,-0.018983012065291405,0.011171428486704826
1772467427924952600,5.93595263671875,-0.02702229656279087,-0.022713834419846535,-0.008418518118560314
1772467427934925300,5.94592529296875,-0.024331972002983093,-0.0075756278820335865,-0.02834934927523136
1772467427944897500,5.9558974609375,-0.015722770243883133,0.023015569895505905,-0.042934682220220566
1772467427954870500,5.96587060546875,-0.009289371781051159,0.0312761627137661,-0.04836566746234894
1772467427964843500,5.975843505859375,-0.003855724586173892,0.019957195967435837,-0.03947124257683754
1772467427974815500,5.9858154296875,-0.008384696207940578,0.005183043889701366,-0.007152451667934656
1772467427984788500,5.99578857421875,-0.017227988690137863,-0.014211692847311497,0.025467809289693832
1772467427994761500,6.005761474609375,-0.029572805389761925,-0.034935612231492996,0.03731674700975418
1772467428004734500,6.015734375,-0.030852189287543297,-0.028313130140304565,0.026129871606826782
1772467428014706400,6.02570654296875,-0.03055844083428383,-0.013825268484652042,0.0004780374001711607
1772467428024679400,6.035679443359375,-0.03170626237988472,-0.008989233523607254,-0.033242110162973404
1772467428034652400,6.04565234375,-0.03165353462100029,-0.0014423680258914828,-0.05425658077001572
1772467428044625400,6.05562548828125,-0.025710422545671463,0.009131180122494698,-0.05968383699655533
1772467428054597400,6.065597412109375,-0.017524398863315582,0.015679627656936646,-0.05643025413155556
1772467428064570400,6.0755703125,-0.015592008829116821,0.017307350412011147,-0.04789215698838234
1772467428074543400,6.08554345703125,-0.017234381288290024,0.018073808401823044,-0.035776641219854355
1772467428084516600,6.0955166015625,-0.01420317031443119,0.0060150157660245895,-0.026214826852083206
1772467428094488300,6.10548828125,-0.011948006227612495,-0.021347898989915848,-0.012496350333094597
1772467428104461300,6.11546142578125,-0.020305272191762924,-0.023270701989531517,0.020920461043715477
1772467428114434600,6.1254345703125,-0.024454476311802864,-0.022948192432522774,0.04753449559211731
1772467428124406300,6.13540625,-0.030640732496976852,-0.02851126901805401,0.062304120510816574
1772467428134379300,6.145379150390625,-0.02292875200510025,-0.021331919357180595,0.05733386427164078
1772467428144352500,6.1553525390625,-0.012793559581041336,0.005932457745075226,0.048707883805036545
1772467428154325500,6.165325439453125,-0.0014330470003187656,0.02046053297817707,0.03417501598596573
1772467428164297200,6.175297119140625,0.01071096770465374,0.02972221001982689,0.027030285447835922
1772467428174270500,6.1852705078125,0.004456799943000078,0.030947528779506683,0.03952477127313614
1772467428184243500,6.195243408203125,-0.008675780147314072,0.03748905286192894,0.06112433969974518
1772467428194216400,6.205216552734375,-0.018547052517533302,0.037830203771591187,0.08221231400966644
1772467428204188400,6.2151884765625,-0.023870179429650307,0.03169454634189606,0.09270516782999039
1772467428214161400,6.225161376953125,-0.023014238104224205,0.03026522696018219,0.0936649739742279
1772467428224134400,6.235134521484375,-0.020231768488883972,0.026373816654086113,0.07873182743787766
1772467428234106400,6.2451064453125,-0.01679442636668682,0.02280118688941002,0.052509013563394547
1772467428244079400,6.255079345703125,-0.0015331818722188473,0.03209242224693298,0.031495340168476105
1772467428254052400,6.26505224609375,0.005952431354671717,0.04646310582756996,0.009008142165839672
1772467428264025300,6.275025390625,0.0006061354652047157,0.035829368978738785,-0.013514210470020771
1772467428273997300,6.284997314453125,-0.010991664603352547,0.01950659044086933,-0.03447674959897995
1772467428283970300,6.29497021484375,-0.019541744142770767,0.022473083809018135,-0.04057112708687782
1772467428293943300,6.304943359375,-0.022546054795384407,0.020139889791607857,-0.04356718435883522
1772467428303912200,6.314912109375,-0.021376661956310272,0.02148052491247654,-0.027764786034822464
1772467428313884000,6.3248837890625,-0.003970507066696882,0.02280304953455925,-0.006623015273362398
1772467428323857200,6.334857177734375,0.0003683151735458523,0.015474563464522362,0.0018575548892840743
1772467428333830100,6.344830078125,0.0019837887957692146,0.000547279603779316,0.0038338867016136646
1772467428343803000,6.354802978515625,-0.00424135010689497,-0.012870258651673794,0.013377591036260128
1772467428353775000,6.364775146484375,-0.011473963037133217,-0.013322995975613594,0.016091352328658104
1772467428363748000,6.374748046875,-0.008265919052064419,-0.00010759170982055366,0.018333733081817627
1772467428373721000,6.38472119140625,0.0046719834208488464,0.014275342226028442,0.013887053355574608
1772467428383693000,6.394693115234375,0.024415859952569008,0.03717639669775963,0.008694421499967575
1772467428393666000,6.404666015625,0.03777267783880234,0.04982694610953331,0.00013608753215521574
1772467428403639000,6.41463916015625,0.03820943832397461,0.03394411876797676,-0.003337739733979106
1772467428413612000,6.424612060546875,0.03566878288984299,0.028367726132273674,-0.005231247283518314
1772467428423584000,6.434583984375,0.030827688053250313,0.03659689426422119,0.00034940673504024744
1772467428433557000,6.444556884765625,0.02474369667470455,0.028659341856837273,0.013402357697486877
1772467428443530000,6.454530029296875,0.013572268187999725,0.016822123900055885,0.027097398415207863
1772467428453503200,6.464503173828125,0.0014034858904778957,0.002380333375185728,0.028264394029974937
1772467428463475000,6.474474853515625,-0.0062917182222008705,-0.0046935551799833775,0.022155901417136192
1772467428473448000,6.484447998046875,-0.0010058758780360222,-0.0027366643771529198,0.019712451845407486
1772467428483421200,6.494421142578125,0.006750314496457577,0.0009622001089155674,0.0040826257318258286
1772467428493393000,6.504392822265625,0.007496265694499016,0.004467719234526157,-0.006734868045896292
1772467428503366000,6.514365966796875,0.002276470186188817,0.013028983026742935,-0.006371080409735441
1772467428513339100,6.524339111328125,-0.011814314872026443,0.03033100813627243,-0.01203881949186325
1772467428523312000,6.53431201171875,-0.007535947021096945,0.05816423520445824,-0.009648365899920464
1772467428533283800,6.544283935546875,-0.011008442379534245,0.06289827078580856,-0.007005445193499327
1772467428543257000,6.554257080078125,-0.0137227363884449,0.05492716282606125,0.0056741307489573956
1772467428553230000,6.56422998046875,-0.011544004082679749,0.04987035319209099,0.026081401854753494
1772467428563203000,6.574203125,-0.010492854751646519,0.022909842431545258,0.0420643612742424
1772467428573175000,6.584175048828125,-0.0042733084410429,0.007895739749073982,0.04992841184139252
1772467428583148000,6.59414794921875,0.007546599488705397,0.015631690621376038,0.046969641000032425
1772467428593121000,6.60412109375,0.015956329181790352,0.03105778433382511,0.03074140101671219
1772467428603094000,6.614093994140625,0.02882206067442894,0.04032851383090019,0.006940996740013361
1772467428613066000,6.62406591796875,0.034747861325740814,0.04187048599123955,-0.007888282649219036
1772467428623039000,6.6340390625,0.03851756453514099,0.04470222443342209,-0.009650763124227524
1772467428633012000,6.644011962890625,0.03724537417292595,0.035707663744688034,-0.0015819176333025098
1772467428642984200,6.653984130859375,0.03249269723892212,0.01956198364496231,0.010427074506878853
1772467428652957000,6.66395703125,0.020610736683011055,0.013368269428610802,0.024344487115740776
1772467428662930000,6.673929931640625,0.019424565136432648,0.01992683671414852,0.03021595999598503
1772467428672903200,6.683903076171875,0.022817963734269142,0.02575756050646305,0.02021791972219944
1772467428682875100,6.693875244140625,0.027185281738638878,0.013771472498774529,0.005693039391189814
1772467428692847900,6.703847900390625,0.03532256931066513,0.008132761344313622,-0.008173773996531963
1772467428702821000,6.713821044921875,0.036559343338012695,0.012073440477252007,-0.004792091902345419
1772467428712794000,6.723794189453125,0.034500718116760254,-0.011239605024456978,-0.008836101740598679
1772467428722766000,6.73376611328125,0.035101260989904404,-0.03255314752459526,-0.016319317743182182
1772467428732739000,6.743739013671875,0.03870638459920883,-0.031434088945388794,-0.026019349694252014
1772467428742712000,6.753712158203125,0.03801529109477997,-0.0190232265740633,-0.041611626744270325
1772467428752685000,6.76368505859375,0.03166684880852699,0.0025473134592175484,-0.05752747505903244
1772467428762657000,6.773656982421875,0.03632152080535889,0.027412449941039085,-0.07332082092761993
1772467428772630000,6.783630126953125,0.048766206949949265,0.04784395545721054,-0.07782529294490814
1772467428782603000,6.79360302734375,0.055335428565740585,0.05036170780658722,-0.07094581425189972
1772467428792575200,6.8035751953125,0.04674699902534485,0.041243843734264374,-0.052263204008340836
1772467428802548000,6.8135478515625,0.025143170729279518,0.03995008021593094,-0.02785373479127884
1772467428812521000,6.82352099609375,0.005074919667094946,0.021450696513056755,-0.0030389330349862576
1772467428822494000,6.833493896484375,-0.005015264730900526,-0.00996155384927988,0.0027084348257631063
1772467428832466200,6.843466064453125,-0.003890611929818988,-0.010357566177845001,0.003960919566452503
1772467428842439000,6.85343896484375,0.010151171125471592,0.012842295691370964,-0.007227286696434021
1772467428852412000,6.863411865234375,0.021695708855986595,0.019991816952824593,-0.024714134633541107
1772467428862385200,6.87338525390625,0.02948678657412529,0.006849383935332298,-0.04494883120059967
1772467428872357000,6.883357177734375,0.026672091335058212,-0.012326174415647984,-0.04857925325632095
1772467428882329900,6.893329833984375,0.020837903022766113,-0.006106894463300705,-0.029805298894643784
1772467428892303000,6.90330322265625,-0.0007241134881041944,-0.008761000819504261,-0.00908697210252285
1772467428902276000,6.913276123046875,-0.02177640236914158,-0.009692841209471226,-0.002683134749531746
1772467428912248000,6.923248046875,-0.021744975820183754,0.018449846655130386,-0.012298744171857834
1772467428922221000,6.933220947265625,0.004050135146826506,0.05275322496891022,-0.031206654384732246
1772467428932194000,6.943194091796875,0.029169071465730667,0.048769935965538025,-0.04224279522895813
1772467428942166000,6.953166015625,0.048229314386844635,0.01895957626402378,-0.037227530032396317
1772467428952139300,6.96313916015625,0.047866858541965485,-0.007598265074193478,-0.009641442447900772
1772467428962112000,6.973112060546875,0.03815297782421112,-0.019454924389719963,0.024539431557059288
1772467428972085000,6.9830849609375,0.019345734268426895,-0.021688517183065414,0.04098951071500778
1772467428982057200,6.99305712890625,0.010448379442095757,0.003373159794136882,0.02828969433903694
1772467428992030200,7.0030302734375,0.017796574160456657,0.03779851272702217,-0.0051897019147872925
1772467429002003000,7.0130029296875,0.031123830005526543,0.04413097724318504,-0.041057687252759933
1772467429011976000,7.022975830078125,0.039867255836725235,0.02780553139746189,-0.05488109216094017
1772467429021948200,7.0329482421875,0.03967151418328285,0.00815246906131506,-0.04313308745622635
1772467429031921200,7.042921142578125,0.026083266362547874,-0.006165483966469765,-0.0202189851552248
1772467429041894000,7.052893798828125,0.007000118959695101,-0.006559898145496845,-0.004120176658034325
1772467429051867100,7.0628671875,0.0005539375124499202,-0.003826429834589362,0.000002663161012605997
1772467429061839000,7.072839111328125,-0.0019126823171973228,0.010881409980356693,-0.00039734362508170307
1772467429071812000,7.08281201171875,-0.011573565192520618,0.030435137450695038,0.0002921487612184137
1772467429081785000,7.09278515625,-0.020501812919974327,0.052868541330099106,0.005881591234356165
1772467429091757000,7.102757080078125,-0.03217710927128792,0.06862593442201614,0.008701878599822521
1772467429101730000,7.11272998046875,-0.03682539239525795,0.09180475771427155,0.019037339836359024
1772467429111703000,7.122703125,-0.03599341958761215,0.08106183260679245,0.04012105241417885
1772467429121676000,7.132676025390625,-0.05511411651968956,0.05535353720188141,0.051544416695833206
1772467429131648000,7.14264794921875,-0.05848035216331482,0.03852315619587898,0.06306019425392151
1772467429141621000,7.15262109375,-0.043530698865652084,0.032164860516786575,0.05741242691874504
1772467429151594200,7.16259423828125,-0.02911500819027424,0.019349729642271996,0.02827291749417782
1772467429161567000,7.17256689453125,-0.0236483383923769,0.017222130671143532,-0.007937817834317684
1772467429171539000,7.1825390625,-0.01575392857193947,0.023268304765224457,-0.03699077293276787
1772467429181512200,7.19251220703125,-0.012926184572279453,0.02647421695291996,-0.0592912882566452
1772467429191485000,7.20248486328125,-0.020181167870759964,0.02393915504217148,-0.05429386347532272
1772467429201458000,7.2124580078125,-0.03242132440209389,0.045769087970256805,-0.027582624927163124
1772467429211430100,7.22243017578125,-0.03646240383386612,0.052809152752161026,0.00535428524017334
1772467429221403100,7.232403076171875,-0.041129861027002335,0.03586612269282341,0.025201493874192238
1772467429231376000,7.2423759765625,-0.039810795336961746,0.023431023582816124,0.03404318913817406
1772467429241348000,7.25234814453125,-0.026691265404224396,0.028904085978865623,0.023814253509044647
1772467429251321000,7.262321044921875,-0.01804478093981743,0.03925313055515289,-0.006615558639168739
1772467429261294000,7.272294189453125,-0.009586314670741558,0.05414579436182976,-0.040415067225694656
1772467429271266800,7.282266845703125,0.004833637271076441,0.08028072118759155,-0.06398137658834457
1772467429281239000,7.292239013671875,0.007278419099748135,0.09051312506198883,-0.07785138487815857
1772467429291212000,7.3022119140625,0.006330067757517099,0.06947947293519974,-0.0766921117901802
1772467429301188600,7.312188720703125,-0.0013606089632958174,0.03116830624639988,-0.0839335173368454
1772467429311161900,7.322161865234375,0.00227886694483459,0.01546630822122097,-0.07655922323465347
1772467429321133600,7.332133544921875,0.01095517911016941,0.030916903167963028,-0.0676829069852829
1772467429331106600,7.3421064453125,0.014108361676335335,0.047264717519283295,-0.06589645892381668
1772467429341079800,7.352079833984375,0.0101964445784688,0.055927179753780365,-0.072270467877388
1772467429351052800,7.362052734375,-0.021922608837485313,0.06985124945640564,-0.07871398329734802
1772467429361024500,7.3720244140625,-0.064173124730587,0.08022000640630722,-0.08550184965133667
1772467429370997800,7.381997802734375,-0.07663112878799438,0.08689121901988983,-0.08414630591869354
1772467429380970800,7.391970703125,-0.0743381455540657,0.16507017612457275,-0.054970573633909225
1772467429390943700,7.40194384765625,-0.06486794352531433,0.23982031643390656,-0.028732845559716225
1772467429400915700,7.411915771484375,-0.056483250111341476,0.2376658171415329,-0.004504470620304346
1772467429410888700,7.421888671875,-0.037880536168813705,0.1929105967283249,0.0029976540245115757
1772467429420861700,7.43186181640625,-0.009472597390413284,0.10370855033397675,0.0016069513512775302
1772467429430833700,7.441833740234375,0.01113441027700901,-0.005584382452070713,-0.011812451295554638
1772467429440806700,7.451806640625,0.021940985694527626,-0.10244355350732803,-0.02888651005923748
1772467429450779600,7.461779541015625,0.028850557282567024,-0.1362321376800537,-0.04662662371993065
1772467429460752600,7.471752685546875,0.02123737707734108,-0.11528797447681427,-0.0608348548412323
1772467429470724600,7.481724609375,0.009665942750871181,-0.05084054544568062,-0.06266125291585922
1772467429480697600,7.491697509765625,0.012732306495308876,0.041852373629808426,-0.05174388736486435
1772467429490670600,7.501670654296875,0.020268520340323448,0.13089622557163239,-0.03202557563781738
1772467429500643800,7.511643798828125,0.009279518388211727,0.12822827696800232,-0.014810637570917606
1772467429510615600,7.521615478515625,-0.0011116034584119916,0.05774665251374245,-0.007655256427824497
1772467429520588500,7.531588623046875,-0.006161223165690899,0.0016114787431433797,-0.00304612354375422
1772467429530561800,7.541561767578125,-0.006364955101162195,-0.02448457106947899,-0.008070709183812141
1772467429540534800,7.55153466796875,-0.00794447585940361,-0.037951111793518066,-0.012683038599789143
1772467429550506500,7.561506591796875,-0.015064969658851624,-0.028718464076519012,-0.02129250578582287
1772467429560479700,7.571479736328125,-0.02540096454322338,-0.009499229490756989,-0.04270618408918381
1772467429570452700,7.58145263671875,-0.024653680622577667,-0.007069627288728952,-0.07940507680177689
1772467429580425700,7.59142578125,-0.027722174301743507,-0.012134693562984467,-0.11983585357666016
1772467429590397700,7.601397705078125,-0.021138042211532593,-0.025920014828443527,-0.14448155462741852
1772467429600370700,7.61137060546875,-0.026626551523804665,-0.019300194457173347,-0.13393595814704895
1772467429610343700,7.62134375,-0.04045234993100166,0.0029907298739999533,-0.10144805908203125
1772467429620315600,7.631315673828125,-0.046600259840488434,0.028773058205842972,-0.05903695523738861
1772467429630288600,7.64128857421875,-0.03491270914673805,0.03807761147618294,-0.03477928414940834
1772467429640261600,7.65126171875,-0.027538150548934937,0.03828640282154083,-0.033129457384347916
1772467429650234600,7.661234619140625,-0.01961844228208065,0.013395700603723526,-0.04728841781616211
1772467429660206600,7.67120654296875,-0.014812235720455647,-0.023575367406010628,-0.06688901782035828
1772467429670179600,7.6811796875,-0.012826848775148392,-0.04670678451657295,-0.06193340942263603
1772467429680152600,7.691152587890625,-0.016944628208875656,-0.054912250488996506,-0.028911542147397995
1772467429690125800,7.701125732421875,-0.028232969343662262,-0.051480233669281006,0.0006844323943369091
1772467429700097500,7.71109765625,-0.0332048237323761,-0.057383399456739426,0.01332992035895586
1772467429710070500,7.721070556640625,-0.034157704561948776,-0.044872134923934937,0.010870491154491901
1772467429720043800,7.731043701171875,-0.026695260778069496,-0.009765811264514923,0.008134359493851662
1772467429730016800,7.741016845703125,-0.027716049924492836,-0.009035306982696056,0.0006048039067536592
1772467429739988500,7.750988525390625,-0.014552843756973743,-0.020388362929224968,-0.003367833560332656
1772467429749961700,7.760961669921875,0.0010381002211943269,-0.02058730088174343,0.011007110588252544
1772467429759934700,7.770934814453125,0.0013225257862359285,-0.0035366779193282127,0.0355800986289978
1772467429769907700,7.78090771484375,-0.014207165688276291,0.002679672557860613,0.06466741114854813
1772467429779879700,7.790879638671875,-0.023622505366802216,0.014703844673931599,0.06800887733697891
1772467429789852700,7.800852783203125,-0.024654746055603027,0.02321850322186947,0.043466515839099884
1772467429799825700,7.81082568359375,0.01737872324883938,0.010039051994681358,0.0062584285624325275
1772467429809798000,7.8207978515625,-0.08531170338392258,0.0004721784498542547,-0.03489167243242264
1772467429819770600,7.8307705078125,0.014785337261855602,-0.028194885700941086,-0.053454700857400894
1772467429829743600,7.84074365234375,-0.07178311049938202,-0.019811522215604782,-0.06174059584736824
1772467429839716600,7.850716552734375,0.03809439018368721,-0.03331880643963814,-0.04097938910126686
1772467429849688800,7.860688720703125,-0.05650162696838379,-0.016528643667697906,-0.02100168727338314
1772467429859661600,7.87066162109375,0.052746836096048355,-0.012793825939297676,0.0062674833461642265
1772467429869634600,7.880634521484375,-0.03756655007600784,0.008229699917137623,0.007167099043726921
1772467429879607600,7.890607666015625,0.05823986977338791,0.00791518110781908,0.016992032527923584
1772467429889579800,7.900579833984375,-0.05042775347828865,0.022967632859945297,0.01637151651084423
1772467429899552500,7.910552490234375,0.033795248717069626,0.00493217445909977,0.030552582815289497
1772467429909525800,7.92052587890625,-0.06886374950408936,-0.0015281217638403177,0.02792777121067047
1772467429919497700,7.930497802734375,0.025736255571246147,-0.03644669055938721,0.025800438597798347
1772467429929470700,7.940470703125,-0.06745840609073639,-0.041917890310287476,0.006216883193701506
1772467429939443700,7.950443603515625,0.043232426047325134,-0.04312429949641228,-0.0029739518649876118
1772467429949416700,7.960416748046875,-0.036791302263736725,-0.011241735890507698,-0.02527286671102047
1772467429959388700,7.970388671875,0.056230783462524414,-0.01287318766117096,-0.022284531965851784
1772467429969361700,7.980361572265625,-0.03821343183517456,0.010453173890709877,-0.006197175942361355
1772467429979334700,7.990334716796875,0.04613287374377251,0.006041913293302059,0.03894500061869621
1772467429989307600,8.0003076171875,-0.054661646485328674,0.020725518465042114,0.06614386290311813
1772467429999279600,8.010279541015626,0.03575054183602333,0.0008474178612232208,0.10064085572957993
1772467430009252900,8.0202529296875,-0.042022284120321274,0.014791462570428848,0.09324419498443604
1772467430019225600,8.0302255859375,0.051906075328588486,0.0007832356495782733,0.08767791837453842
1772467430029198600,8.040198486328125,-0.02460840716958046,0.01870737411081791,0.06174831837415695
1772467430039170800,8.0501708984375,0.05969981476664543,0.031862590461969376,0.07097244262695312
1772467430049143600,8.0601435546875,-0.03531618043780327,0.0472324937582016,0.06023271381855011
1772467430059116500,8.070116455078125,0.03880731761455536,0.02238253690302372,0.06346472352743149
1772467430069089500,8.080089599609375,-0.05173270404338837,0.03280108794569969,0.061040982604026794
1772467430079061800,8.090061767578124,0.031319573521614075,0.02780366875231266,0.07120733708143234
1772467430089034500,8.100034423828125,-0.04453258216381073,0.04857206344604492,0.05415910854935646
1772467430099007500,8.110007568359375,0.025530394166707993,0.03260348364710808,0.05024239793419838
1772467430108980700,8.119980712890625,-0.05499667301774025,0.04040015488862991,0.03478647768497467
1772467430118952700,8.12995263671875,0.022274145856499672,0.025910159572958946,0.042812976986169815
1772467430128925400,8.139925537109375,-0.04356319084763527,0.026758376508951187,0.04044809192419052
1772467430138898700,8.149898681640625,0.036677587777376175,0.0010631339391693473,0.05140433460474014
1772467430148870700,8.15987060546875,-0.02593759074807167,0.015400261618196964,0.04416266828775406
1772467430158843600,8.16984375,0.03567676991224289,0.0006623281515203416,0.04326944425702095
1772467430168816600,8.179816650390626,-0.03994262218475342,0.014562430791556835,0.021556956693530083
1772467430178789600,8.18978955078125,-0.0001930791768245399,0.010939733125269413,0.008988169021904469
1772467430188761600,8.19976171875,-0.01816781796514988,0.016103869304060936,-0.004875981714576483
1772467430198734800,8.20973486328125,-0.00950721837580204,0.006622482556849718,-0.007702128030359745
1772467430208707600,8.21970751953125,0.007564176339656115,-0.004455734975636005,-0.012075304985046387
1772467430218680600,8.2296806640625,0.01332832220941782,-0.016273245215415955,-0.009588445536792278
1772467430228652800,8.23965283203125,0.018446918576955795,-0.012264389544725418,-0.008777245879173279
1772467430238625800,8.249625732421874,0.012665728107094765,0.0011076086666435003,-0.001630120910704136
1772467430248598500,8.2595986328125,0.00304692261852324,0.012663064524531364,0.002529470482841134
1772467430258571500,8.269571533203125,0.0024498419370502234,0.012368785217404366,0.004858138505369425
1772467430268543700,8.279543701171875,0.0012815131340175867,-0.007459780666977167,0.0018855180824175477
1772467430278516700,8.289516845703124,0.011597800068557262,-0.02292076125741005,0.004708468914031982
1772467430288489500,8.299489501953126,0.01130831427872181,-0.013410613872110844,0.020845627412199974
1772467430298463200,8.309463134765625,0.013479323126375675,-0.007407050114125013,0.03189827874302864
1772467430308435500,8.319435546875,0.012983709573745728,0.004536694847047329,0.04192854091525078
1772467430318408400,8.329408447265624,0.012955479323863983,0.01293257623910904,0.04694700241088867
1772467430328381200,8.339381103515626,0.015970177948474884,0.0021518340799957514,0.038121551275253296
1772467430338353400,8.349353515625,0.03020823560655117,-0.004346545320004225,0.03425357863306999
1772467430348326400,8.359326416015625,0.0410265289247036,0.01185106672346592,0.040470995008945465
1772467430358299400,8.36929931640625,0.049606967717409134,0.02732669562101364,0.04161908105015755
1772467430368272400,8.3792724609375,0.049730006605386734,0.03489619866013527,0.042275816202163696
1772467430378244400,8.389244384765625,0.038788143545389175,0.04269819334149361,0.03985527157783508
1772467430388217300,8.39921728515625,0.024579377844929695,0.03959880769252777,0.04145529866218567
1772467430398190600,8.409190673828125,0.02099210023880005,0.023909060284495354,0.031507592648267746
1772467430408163300,8.419163330078124,0.02129942923784256,-0.004830707795917988,0.018865566700696945
1772467430418135300,8.42913525390625,0.029271868988871574,-0.009560481645166874,0.015969112515449524
1772467430428108500,8.439108642578125,0.030614368617534637,-0.0033593112602829933,0.023567643016576767
1772467430438081500,8.44908154296875,0.028854817152023315,0.00159470085054636,0.040039293467998505
1772467430448054300,8.45905419921875,0.0262417234480381,0.007121559232473373,0.045699577778577805
1772467430458026500,8.469026611328125,0.01979181356728077,0.009049953892827034,0.03435371071100235
1772467430467999500,8.47899951171875,0.02142086997628212,0.004288754425942898,0.00669305631890893
1772467430477972500,8.488972412109375,0.016208797693252563,-0.0019411781104281545,-0.017593640834093094
1772467430487945200,8.4989453125,0.008590025827288628,-0.00245117349550128,-0.028308603912591934
1772467430497917400,8.50891748046875,0.004503937903791666,0.010632404126226902,-0.018554508686065674
1772467430507890400,8.518890380859375,0.00603392394259572,0.04382018372416496,0.01570652425289154
1772467430517863400,8.528863525390625,0.0046179210767149925,0.054029680788517,0.049619484692811966
1772467430527836400,8.53883642578125,-0.0003073287953156978,0.04848764091730118,0.06688262522220612
1772467430537808400,8.548808349609375,0.003540938952937722,0.020504210144281387,0.05850325524806976
1772467430547781400,8.558781494140625,0.008447812870144844,0.004519117996096611,0.03787041828036308
1772467430557754600,8.568754638671875,-0.0016261261189356446,-0.02672029472887516,0.0067692226730287075
1772467430567726300,8.578726318359376,-0.020688500255346298,-0.041355960071086884,-0.02087785117328167
1772467430577699300,8.58869921875,-0.03399658203125,-0.055987101048231125,-0.04608094319701195
1772467430587672600,8.598672607421875,-0.04181082919239998,-0.07590381801128387,-0.07162225246429443
1772467430597645600,8.6086455078125,-0.030969634652137756,-0.09122498333454132,-0.08942282199859619
1772467430607617300,8.6186171875,-0.01720055751502514,-0.08818365633487701,-0.08992855995893478
1772467430617590500,8.628590576171876,0.004366785287857056,-0.0571541003882885,-0.05158889293670654
1772467430627563500,8.6385634765625,0.01576245203614235,-0.0204544086009264,0.015342204831540585
1772467430637536500,8.64853662109375,0.011147193610668182,-0.012908874079585075,0.07891851663589478
1772467430647508500,8.658508544921874,0.004320712294429541,-0.017115870490670204,0.12342046946287155
1772467430657481500,8.6684814453125,0.008161257021129131,-0.018808308988809586,0.1386449635028839
1772467430667454500,8.678454345703125,0.015629559755325317,-0.011863317340612411,0.12032028287649155
1772467430677427500,8.688427490234375,0.01197836548089981,-0.0018383801216259599,0.07431231439113617
1772467430687399400,8.6983994140625,0.00697774812579155,0.014493987895548344,0.031921181827783585
1772467430697372400,8.708372314453126,0.011803396046161652,0.04285798594355583,0.0018370485631749034
1772467430707345400,8.718345458984375,0.01002067606896162,0.053461361676454544,-0.024881115183234215
1772467430717318700,8.728318603515625,0.005004612263292074,0.02834322489798069,-0.04338102787733078
1772467430727290400,8.738290283203124,0.002380067016929388,0.003073021536692977,-0.041304830461740494
1772467430737263400,8.748263427734376,0.001246625673957169,-0.007513309828937054,-0.022885873913764954
1772467430747236600,8.758236572265625,-0.00014381069922819734,-0.017239173874258995,0.0012950951931998134
1772467430757209300,8.768209228515625,-0.005745237227529287,-0.038130875676870346,0.024894431233406067
1772467430767181300,8.778181396484374,-0.003915912006050348,-0.037875477224588394,0.03525306284427643
1772467430777154600,8.788154541015626,0.00555215822532773,-0.03068600781261921,0.04452858492732048
1772467430787127600,8.79812744140625,0.016829846426844597,-0.03062821738421917,0.03683577850461006
1772467430797100300,8.808100341796875,0.028136562556028366,-0.02484303154051304,0.030585339292883873
1772467430807072500,8.818072509765624,0.029386917129158974,-0.024095483124256134,0.02064189501106739
1772467430817045500,8.82804541015625,0.020682109519839287,-0.03615640476346016,-0.0017568873008713126
1772467430827018500,8.8380185546875,0.00872105360031128,-0.029145102947950363,-0.021799838170409203
1772467430836991200,8.8479912109375,0.006535930093377829,-0.012093947269022465,-0.033118803054094315
1772467430846963500,8.85796337890625,0.009079515002667904,0.00998898409307003,-0.04307982698082924
1772467430856936400,8.8679365234375,0.012556271627545357,0.017006414011120796,-0.04183639585971832
1772467430866909400,8.877909423828125,0.016047408804297447,0.03343971446156502,-0.019706593826413155
1772467430876881400,8.88788134765625,0.00800093449652195,0.04928845167160034,0.013772005215287209
1772467430886854400,8.8978544921875,0.0029976540245115757,0.04036207124590874,0.041498441249132156
1772467430896827400,8.907827392578126,-0.005375590641051531,0.015343536622822285,0.05597511678934097
1772467430906800400,8.91780029296875,-0.0031587753910571337,-0.001847701147198677,0.06405860930681229
1772467430916772400,8.9277724609375,0.004769455175846815,-0.004424309358000755,0.0679609403014183
1772467430926745300,8.937745361328124,0.017905497923493385,-0.010731739923357964,0.06384982168674469
1772467430936718300,8.94771826171875,0.029890254139900208,-0.01450011320412159,0.04801972210407257
1772467430946691600,8.957691650390625,0.0302596352994442,-0.00848349928855896,0.022435801103711128
1772467430956663300,8.967663330078125,0.02298254705965519,0.0030538467690348625,-0.0052235242910683155
1772467430966636500,8.977636474609374,0.01601145789027214,0.021102089434862137,-0.03485145792365074
1772467430976609500,8.987609619140626,0.01667804643511772,0.04145236685872078,-0.04671530798077583
1772467430986582500,8.99758251953125,0.011663047596812248,0.05354924499988556,-0.04276610538363457
1772467430996554500,9.007554443359375,0.007442736066877842,0.04085608571767807,-0.02809927798807621
1772467431006527500,9.017527587890624,0.0041617220267653465,0.028387432917952538,0.0018953717080876231
1772467431016500500,9.02750048828125,0.0023249397054314613,0.01745568960905075,0.035842154175043106
1772467431026473500,9.037473388671875,-0.0016849819803610444,-0.010459299199283123,0.05811736360192299
1772467431036445400,9.047445556640625,0.000592020689509809,-0.024746092036366463,0.06155470758676529
1772467431046418400,9.05741845703125,0.011628160253167152,-0.018637066707015038,0.05037742108106613
1772467431056391400,9.067391357421876,0.024811340495944023,-0.015451660379767418,0.023359118029475212
1772467431066364400,9.077364501953125,0.031430892646312714,-0.006580937188118696,-0.009580455720424652
1772467431076336400,9.08733642578125,0.028671326115727425,0.017122261226177216,-0.03548102825880051
1772467431086309400,9.097309326171874,0.023787355050444603,0.0226251520216465,-0.0514562651515007
1772467431096282400,9.107282470703124,0.016573917120695114,0.022784940898418427,-0.04760480299592018
1772467431106255600,9.117255615234376,0.00821132492274046,0.005899434443563223,-0.035597410053014755
1772467431116227300,9.127227294921875,0.012860138900578022,-0.017190704122185707,-0.019698070362210274
1772467431126200300,9.137200439453125,0.027280889451503754,-0.032590966671705246,-0.0007209177128970623
1772467431136173600,9.147173583984374,0.029835660010576248,-0.021215273067355156,0.03429032862186432
1772467431146146600,9.157146484375,0.0249082800000906,-0.011950402520596981,0.05197744816541672
1772467431156118300,9.1671181640625,0.015460981987416744,-0.005906624719500542,0.04693901166319847
1772467431166091500,9.177091552734375,0.008317052386701107,0.0010668623726814985,0.02455727383494377
1772467431176064500,9.187064453125,0.006615558639168739,-0.009700298309326172,-0.004284493625164032
1772467431186036200,9.1970361328125,0.007533816155046225,-0.035416312515735626,-0.028357073664665222
1772467431196009500,9.207009521484375,0.015030615031719208,-0.01739523559808731,-0.011157846078276634
1772467431205982500,9.216982421875,0.020136959850788116,0.0026325348298996687,0.01691053993999958
1772467431215955500,9.22695556640625,0.010989267379045486,-0.012265454977750778,0.03743552416563034
1772467431225927400,9.236927490234375,0.007890413515269756,-0.030940338969230652,0.03568582609295845
1772467431235900400,9.246900390625,0.00797430332750082,-0.046657782047986984,0.01901976391673088
1772467431245873400,9.256873291015625,0.009822537191212177,-0.036620330065488815,0.009278452955186367
1772467431255846400,9.266846435546874,0.006191583350300789,-0.027993550524115562,-0.005586779210716486
1772467431265818400,9.276818359375,-0.0015195996966212988,-0.04681091383099556,-0.021256553009152412
1772467431275791400,9.286791259765625,0.002998719457536936,-0.043592218309640884,-0.01363138947635889
1772467431285764400,9.296764404296875,0.0025662221014499664,-0.024706944823265076,0.0034615767654031515
1772467431295737600,9.306737548828124,-0.0024405207950621843,-0.01728072017431259,0.017967548221349716
1772467431305705000,9.316705078125,-0.011069162748754025,-0.01745568960905075,0.03465438261628151
1772467431315678000,9.326677978515624,-0.0035055188927799463,-0.03513774648308754,0.04289153963327408
1772467431325651000,9.33665087890625,0.0023787354584783316,-0.0427999272942543,0.045574408024549484
1772467431335623700,9.346623779296875,-0.0003270361921750009,-0.05200088396668434,0.04842132702469826
1772467431345596000,9.356595947265625,-0.0008085357258096337,-0.05584382265806198,0.05764545127749443
1772467431355569000,9.36656884765625,0.0004926847759634256,-0.07572858035564423,0.07018627971410751
1772467431365542000,9.3765419921875,0.008562062866985798,-0.0828823670744896,0.07671954482793808
1772467431375514600,9.3865146484375,0.00777563126757741,-0.05686754360795021,0.06756040453910828
1772467431385486800,9.39648681640625,0.016931045800447464,-0.04466600343585014,0.038423821330070496
1772467431395459800,9.4064599609375,0.034178476780653,-0.028433505445718765,0.007767641916871071
1772467431405432800,9.416432861328126,0.04068484529852867,0.00180908537004143,-0.010004697367548943
1772467431415405800,9.42640576171875,0.038420360535383224,0.012523248791694641,-0.0002069276088150218
1772467431425377800,9.436377685546875,0.03728718310594559,0.026248382404446602,0.022286662831902504
1772467431435350800,9.446350830078124,0.02316577360033989,0.03155126795172691,0.051176633685827255
1772467431445324000,9.456323974609376,0.019160112366080284,0.01637151651084423,0.0585557222366333
1772467431455296800,9.466296875,0.013758156448602676,0.0009006810723803937,0.039737291634082794
1772467431465268700,9.476268798828125,0.013876933604478836,-0.010303770191967487,0.01050270814448595
1772467431475242000,9.486241943359374,0.016952885314822197,-0.01786182075738907,-0.023752734065055847
1772467431485215000,9.496215087890626,0.027948809787631035,-0.006839263718575239,-0.04123265668749809
1772467431495187700,9.506187744140625,0.03707306459546089,0.012825516983866692,-0.04339487850666046
1772467431505160000,9.516159912109375,0.0344754196703434,0.013575996272265911,-0.029502231627702713
1772467431515133000,9.5261328125,0.025523735210299492,0.002692722249776125,-0.006136189214885235
1772467431525106000,9.53610595703125,0.01238982379436493,0.009748500771820545,0.026504311710596085
1772467431535078700,9.54607861328125,0.00392869533970952,-0.0008844357798807323,0.04201829060912132
1772467431545051000,9.55605078125,0.0006301039247773588,-0.012315255589783192,0.03033287264406681
1772467431555024000,9.56602392578125,0.003796602366492152,-0.0046392264775931835,0.022562300786376
1772467431564996600,9.57599658203125,0.01209660992026329,0.029209816828370094,0.008463792502880096
1772467431574968800,9.58596875,0.01605832949280739,0.04854436591267586,-0.005596633069217205
1772467431584941800,9.59594189453125,0.01793132908642292,0.04460368677973747,-0.009096825495362282
1772467431594914800,9.605914794921874,0.014416223391890526,0.04292110353708267,-0.008642223663628101
1772467431604887800,9.6158876953125,0.005622199270874262,0.025411617010831833,-0.007547132205218077
1772467431614859800,9.62585986328125,-0.0028823392931371927,0.0014500912511721253,-0.007448595017194748
1772467431624832800,9.635832763671875,-0.006618488114327192,0.0005432848702184856,0.0057127466425299644
1772467431634806000,9.645805908203124,-0.0018002968281507492,0.02046319656074047,0.012663064524531364
1772467431644778800,9.65577880859375,0.006293049547821283,0.021372133865952492,0.005976666230708361
1772467431654750700,9.665750732421875,0.009011604823172092,0.021747106686234474,0.003751328680664301
1772467431664724000,9.675723876953125,0.009244364686310291,0.01949620246887207,0.004241084214299917
1772467431674697000,9.685697021484375,0.015117700211703777,0.03370097279548645,0.007188937161117792
1772467431684669700,9.695669677734376,0.012316587381064892,0.044376518577337265,0.012115784920752048
1772467431694642000,9.705641845703125,0.013463877141475677,0.0471254326403141,0.015994412824511528
1772467431704615000,9.715614990234375,0.01889938861131668,0.040162865072488785,0.01768472045660019
1772467431714588000,9.725587890625,0.02166987583041191,0.03429938480257988,0.014846057631075382
1772467431724560600,9.735560546875,0.019480757415294647,0.016498282551765442,0.006287456955760717
1772467431734532900,9.745532958984375,0.021030982956290245,-0.0014950985787436366,-0.0019113506423309445
1772467431744505900,9.755505859375,0.023303458467125893,-0.0008495483780279756,-0.0059966398403048515
1772467431754478800,9.765478759765625,0.02165762521326542,-0.0006181196658872068,-0.00954157393425703
1772467431764451800,9.775451904296874,0.016157131642103195,0.00851652305573225,-0.018940934911370277
1772467431774423800,9.785423828125,0.011287009343504906,0.013711284846067429,-0.015966448932886124
1772467431784396800,9.795396728515625,-0.0015765913994982839,0.02479163184762001,-0.01563834771513939
1772467431794370000,9.8053701171875,-0.006472812965512276,-0.0029880667570978403,-0.025978870689868927
1772467431804342800,9.8153427734375,-0.006040848325937986,-0.021138042211532593,-0.032276980578899384
1772467431814314800,9.825314697265625,0.0006793724023737013,-0.018735870718955994,-0.030959513038396835
1772467431824288000,9.8352880859375,0.006743123754858971,-0.009547432884573936,-0.024480575695633888
1772467431834261000,9.845260986328125,0.0013046825770288706,-0.005839246790856123,-0.026448918506503105
1772467431844233700,9.855233642578124,-0.0017449031583964825,-0.006578274071216583,-0.03122902475297451
1772467431854206000,9.8652060546875,-0.0012322446564212441,-0.008764729835093021,-0.03123168833553791
1772467431864179000,9.875178955078125,-0.003631486324593425,-0.010399111546576023,-0.026146382093429565
1772467431874152000,9.88515185546875,-0.0017353157745674253,-0.022221416234970093,-0.021950839087367058
1772467431884124700,9.895124755859374,0.003281813347712159,-0.034332938492298126,-0.015925437211990356
1772467431894097000,9.905096923828125,0.010546917095780373,-0.032460737973451614,-0.0037739656399935484
1772467431904070000,9.91506982421875,0.015414908528327942,-0.021167069673538208,0.015367770567536354
1772467431914043000,9.92504296875,0.018965700641274452,0.0030692932195961475,0.03526824340224266
1772467431924015900,9.935015869140624,0.017251158133149147,0.013377591036260128,0.03822381794452667
1772467431933987800,9.94498779296875,0.014374944381415844,0.024202806875109673,0.03945686295628548
1772467431943961900,9.9549619140625,0.014723019674420357,0.021614480763673782,0.03506797179579735
1772467431953934800,9.964934814453125,0.012614861130714417,0.002712962217628956,0.029994117096066475
1772467431963907800,9.974907958984375,0.013617807999253273,-0.011237474158406258,0.029273733496665955
1772467431973880800,9.984880859375,0.018929483368992805,-0.0263594351708889,0.03165193647146225
1772467431983852800,9.994852783203125,0.024176975712180138,-0.028132835403084755,0.03437022492289543
1772467431993825800,10.00482568359375,0.02744121104478836,-0.02347070537507534,0.024755945429205894
1772467432003798800,10.014798828125,0.03587491065263748,-0.01914253458380699,0.022159364074468613
1772467432013771800,10.024771728515624,0.04059722647070885,-0.008795888163149357,0.025363946333527565
1772467432023743700,10.03474365234375,0.04506228491663933,-0.008024370297789574,0.0252760611474514
1772467432033717000,10.044717041015625,0.045761097222566605,-0.023984694853425026,0.019151058048009872
1772467432043689700,10.054689697265625,0.04529637470841408,-0.035950012505054474,0.013232448138296604
1772467432053661700,10.06466162109375,0.03568262979388237,-0.03794658184051514,0.006729009095579386
1772467432063635000,10.074635009765625,0.02468244358897209,-0.06402052938938141,-0.008200138807296753
1772467432073608000,10.08460791015625,0.019629094749689102,-0.06895297020673752,-0.01763492077589035
1772467432083580700,10.09458056640625,0.014362427406013012,-0.062134210020303726,-0.016629576683044434
1772467432093553000,10.104552978515626,0.016528110951185226,-0.057309895753860474,-0.015230618417263031
1772467432103526000,10.11452587890625,0.010299775749444962,-0.04958619549870491,-0.019051188603043556
1772467432113499000,10.124498779296875,0.012739230878651142,-0.04350699856877327,-0.03291879966855049
1772467432123471600,10.1344716796875,0.011817777529358864,-0.030584273859858513,-0.046731021255254745
1772467432133443800,10.14444384765625,0.012783972546458244,-0.026818564161658287,-0.05437295883893967
1772467432143416800,10.154416748046875,0.0075841499492526054,-0.028114458546042442,-0.043227098882198334
1772467432153389800,10.164389892578125,0.005624862387776375,-0.025143437087535858,-0.010676080361008644
1772467432163362800,10.17436279296875,0.013351491652429104,-0.026979420334100723,0.017602162435650826
1772467432173334800,10.184334716796876,0.02515249140560627,-0.032532110810279846,0.02690858021378517
1772467432183307800,10.194307861328125,0.030835676938295364,-0.040346890687942505,0.02442757785320282
1772467432193281000,10.204281005859375,0.04319513961672783,-0.036192625761032104,0.009615609422326088
1772467432203253800,10.214253662109375,0.04146541655063629,-0.02610856667160988,-0.0070307450369000435
1772467432213225700,10.224225830078124,0.0350290909409523,-0.02177853137254715,-0.017907094210386276
1772467432223199000,10.234198974609376,0.027149595320224762,-0.015544604510068893,-0.02937360107898712
1772467432233172000,10.244171875,0.02093217894434929,-0.015361911617219448,-0.04454323276877403
1772467432243144700,10.254144775390625,0.013844442553818226,-0.024525582790374756,-0.05449386686086655
1772467432253117000,10.264116943359374,0.02298254705965519,-0.02081979438662529,-0.05010924115777016
1772467432263090000,10.27408984375,0.027461186051368713,-0.020250409841537476,-0.048462074249982834
1772467432273063000,10.28406298828125,0.028932848945260048,-0.0130319120362401,-0.04508199170231819
1772467432283035600,10.29403564453125,0.02737676352262497,-0.0014671353856101632,-0.04646709933876991
1772467432293008000,10.3040078125,0.025674203410744667,0.015181349590420723,-0.04845648258924484
1772467432302982400,10.313982421875,0.016347015276551247,0.023006515577435493,-0.05607738345861435
1772467432312955400,10.323955322265626,0.012944027781486511,0.0223215501755476,-0.06530550122261047
1772467432322928000,10.33392822265625,0.01338824350386858,0.0019446401856839657,-0.07245662063360214
1772467432332900400,10.343900390625,0.013200757093727589,-0.002304699504747987,-0.05853574723005295
1772467432342873300,10.353873291015624,0.022478410974144936,-0.003882089862599969,-0.037281058728694916
1772467432352846300,10.363846435546876,0.025237446650862694,-0.013731790706515312,-0.02467764914035797
1772467432362819000,10.373819091796875,0.025428926572203636,-0.011138138361275196,-0.010072873905301094
1772467432372791300,10.383791259765625,0.029218604788184166,0.008888300508260727,-0.006995591334998608
1772467432382764300,10.393764404296874,0.03297259658575058,0.03128894791007042,-0.0051862397231161594
1772467432392737300,10.4037373046875,0.0255716722458601,0.04590277746319771,-0.004487959202378988
1772467432402710300,10.413710205078125,0.012124041095376015,0.0483907014131546,0.002971288748085499
1772467432412682200,10.42368212890625,0.0008351673022843897,0.026251310482621193,0.012863067910075188
1772467432422655200,10.4336552734375,0.0028509139083325863,0.00971547793596983,0.019588349387049675
1772467432432628500,10.44362841796875,-0.003605920122936368,-0.012321380898356438,0.03214701637625694
1772467432442601200,10.453601318359375,-0.007419566623866558,-0.016988836228847504,0.03965979442000389
1772467432452573200,10.4635732421875,-0.01625700108706951,-0.00920388475060463,0.03725229576230049
1772467432462546400,10.47354638671875,-0.022470155730843544,0.009182047098875046,0.03266020864248276
1772467432472519400,10.48351953125,-0.028725920245051384,0.02364993467926979,0.02147919312119484
1772467432482492200,10.4934921875,-0.04050401598215103,0.015260445885360241,0.01871829479932785
1772467432492464400,10.50346435546875,-0.04583912715315819,0.014215154573321342,0.030649788677692413
1772467432502437400,10.513437255859374,-0.04632488638162613,0.005655755288898945,0.05682013928890228
1772467432512410400,10.523410400390626,-0.05004878714680672,-0.01949380710721016,0.06662642955780029
1772467432522383000,10.533383056640625,-0.05528296157717705,-0.021795043721795082,0.057674214243888855
1772467432532355300,10.543355224609375,-0.049737993627786636,-0.009499495849013329,0.027366910129785538
1772467432542328300,10.553328369140624,-0.041974082589149475,0.005119128152728081,-0.0020658141002058983
1772467432552301300,10.56330126953125,-0.042446792125701904,0.013683588244020939,-0.019423499703407288
1772467432562274300,10.5732744140625,-0.031676437705755234,0.03025910258293152,-0.018262360244989395
1772467432572246300,10.583246337890625,-0.033780068159103394,0.03854872286319733,-0.003549993736669421
1772467432582219300,10.59321923828125,-0.03862622007727623,0.030910246074199677,0.018080200999975204
1772467432592192500,10.603192626953126,-0.047323573380708694,0.020648818463087082,0.023032348603010178
1772467432602165200,10.613165283203125,-0.042577020823955536,0.005342300981283188,0.017707090824842453
1772467432612137200,10.62313720703125,-0.04122466966509819,-0.009218531660735607,0.002491120947524905
1772467432622110500,10.6331103515625,-0.036197151988744736,-0.023667778819799423,-0.01546337828040123
1772467432632083200,10.643083251953126,-0.031749140471220016,-0.010941331274807453,-0.010688064619898796
1772467432642056200,10.65305615234375,-0.028363464400172234,0.014227138832211494,0.0026615632232278585
1772467432652028400,10.6630283203125,-0.029634058475494385,0.04272162914276123,0.0327419675886631
1772467432662001400,10.67300146484375,-0.044626057147979736,0.04994865134358406,0.05718099698424339
1772467432671974100,10.68297412109375,-0.04643434286117554,0.040893372148275375,0.05498575419187546
1772467432681947100,10.692947021484375,-0.03639289364218712,0.029393574222922325,0.04193466529250145
1772467432691919400,10.70291943359375,-0.020848821848630905,0.021627796813845634,0.01852681301534176
1772467432701892400,10.712892333984374,0.0010929612908512354,0.019700201228260994,-0.010018013417720795
1772467432711865000,10.722864990234376,0.018925221636891365,0.034983549267053604,-0.03482988476753235
1772467432721838300,10.73283837890625,0.024623854085803032,0.053403835743665695,-0.05582411587238312
1772467432731810300,10.742810302734375,0.012624715454876423,0.06137627363204956,-0.06076987460255623
1772467432741783300,10.752783203125,-0.0035582494456321,0.05919807404279709,-0.07768627256155014
1772467432751756300,10.76275634765625,-0.010522948578000069,0.07231280952692032,-0.08440569788217545
1772467432761729300,10.772729248046875,-0.012856143526732922,0.07844820618629456,-0.08762039244174957
1772467432771701200,10.782701171875,-0.003058107802644372,0.0866914838552475,-0.10304329544305801
1772467432781674500,10.792674560546875,0.016599483788013458,0.1265193223953247,-0.11695244908332825
1772467432791647200,10.802647216796874,0.021013937890529633,0.16367201507091522,-0.10219214856624603
1772467432801620200,10.8126201171875,-0.016629843041300774,0.17357738316059113,0.0059838565066456795
1772467432811593200,10.82259326171875,-0.014071078039705753,-0.05150846391916275,0.04282389581203461
1772467432821565400,10.8325654296875,0.02635038085281849,-0.1449446678161621,0.08132361620664597
1772467432831538200,10.8425380859375,0.030342193320393562,-0.1983271986246109,0.08733996748924255
1772467432841511200,10.85251123046875,0.03037841245532036,-0.20496459305286407,0.057007625699043274
1772467432851483400,10.8624833984375,0.018989136442542076,-0.16681721806526184,0.0010932276491075754
1772467432861456400,10.872456298828125,0.032945167273283005,-0.11799720674753189,-0.04565377160906792
1772467432871429000,10.88242919921875,0.03449565917253494,-0.06340959668159485,-0.0871649980545044
1772467432881402400,10.89240234375,0.03868214786052704,-0.01835450530052185,-0.1166272833943367
1772467432891375400,10.902375244140625,0.03614282235503197,0.025380989536643028,-0.14521923661231995
1772467432901347300,10.912347412109375,0.04032079130411148,0.0969020426273346,-0.16259290277957916
1772467432911320300,10.9223203125,0.03727040812373161,0.1924986094236374,-0.1515037715435028
1772467432921293300,10.932293212890626,0.016217852011322975,0.18032796680927277,-0.12605486810207367
