time,seconds_elapsed,z,y,x
1772563521939388200,0.05838818359375,-0.9976959228515625,-0.0110015869140625,0.03265380859375
1772563521949456100,0.0684560546875,-0.9850006103515625,-0.0130462646484375,0.0323028564453125
1772563521959524000,0.078524169921875,-0.986297607421875,-0.011383056640625,0.0301361083984375
1772563521969592300,0.08859228515625,-0.994110107421875,-0.0147552490234375,0.0305023193359375
1772563521979661300,0.098661376953125,-0.9924468994140625,-0.011993408203125,0.0325164794921875
1772563521989729300,0.108729248046875,-0.991729736328125,-0.012481689453125,0.0326385498046875
1772563521999797000,0.118796875,-0.994049072265625,-0.0141754150390625,0.030426025390625
1772563522009865200,0.128865234375,-0.992950439453125,-0.0137176513671875,0.03302001953125
1772563522019933200,0.13893310546875,-0.9894866943359375,-0.0146484375,0.031646728515625
1772563522030001200,0.149001220703125,-0.98712158203125,-0.0110321044921875,0.0316162109375
1772563522040069000,0.159069091796875,-0.9941864013671875,-0.0125274658203125,0.03216552734375
1772563522050137300,0.169137451171875,-0.9962921142578125,-0.0133056640625,0.032073974609375
1772563522060205300,0.179205322265625,-0.9928741455078125,-0.0123748779296875,0.0312652587890625
1772563522070273300,0.189273193359375,-0.9860992431640625,-0.01507568359375,0.0338134765625
1772563522080342300,0.19934228515625,-0.988128662109375,-0.0105743408203125,0.03253173828125
1772563522090410200,0.20941015625,-0.9947662353515625,-0.012054443359375,0.0330047607421875
1772563522100478200,0.219478271484375,-0.99493408203125,-0.01123046875,0.03167724609375
1772563522110546200,0.229546142578125,-0.9923095703125,-0.011993408203125,0.029541015625
1772563522120614400,0.239614501953125,-0.992279052734375,-0.0140228271484375,0.030426025390625
1772563522130682000,0.24968212890625,-0.991485595703125,-0.0133056640625,0.0319366455078125
1772563522140750000,0.25975,-0.993011474609375,-0.0130767822265625,0.0345611572265625
1772563522150818000,0.269818115234375,-0.989898681640625,-0.0133209228515625,0.0338287353515625
1772563522160886300,0.27988623046875,-0.989532470703125,-0.0144805908203125,0.0308380126953125
1772563522170955300,0.289955322265625,-0.9943084716796875,-0.0130615234375,0.0290069580078125
1772563522181023200,0.300023193359375,-0.9945068359375,-0.0101318359375,0.0308685302734375
1772563522191091200,0.31009130859375,-0.9944305419921875,-0.0121307373046875,0.032958984375
1772563522201159200,0.3201591796875,-0.99066162109375,-0.0135498046875,0.0342254638671875
1772563522211227100,0.33022705078125,-0.9886016845703125,-0.0137786865234375,0.03466796875
1772563522221295000,0.340295166015625,-0.990081787109375,-0.01226806640625,0.03271484375
1772563522231363300,0.35036328125,-0.9916534423828125,-0.011627197265625,0.031036376953125
1772563522241431300,0.360431396484375,-0.99517822265625,-0.0108642578125,0.0318603515625
1772563522251499300,0.370499267578125,-0.9951019287109375,-0.0121307373046875,0.0313873291015625
1772563522261567200,0.380567138671875,-0.991546630859375,-0.0118408203125,0.031463623046875
1772563522271636200,0.39063623046875,-0.9897308349609375,-0.0137176513671875,0.03253173828125
1772563522281704200,0.4007041015625,-0.990814208984375,-0.013427734375,0.03302001953125
1772563522291772200,0.410772216796875,-0.99261474609375,-0.0131988525390625,0.0333709716796875
1772563522301840400,0.42084033203125,-0.993072509765625,-0.011810302734375,0.031524658203125
1772563522311908400,0.430908447265625,-0.9928741455078125,-0.0128021240234375,0.031463623046875
1772563522321976000,0.44097607421875,-0.990692138671875,-0.011383056640625,0.031463623046875
1772563522332044000,0.4510439453125,-0.9910430908203125,-0.0120086669921875,0.029937744140625
1772563522342112300,0.4611123046875,-0.991119384765625,-0.0126190185546875,0.0305328369140625
1772563522352180200,0.47118017578125,-0.992950439453125,-0.0126800537109375,0.0330352783203125
1772563522362248200,0.481248291015625,-0.9922637939453125,-0.0141754150390625,0.0335235595703125
1772563522372317400,0.4913173828125,-0.990936279296875,-0.01446533203125,0.0314788818359375
1772563522382385200,0.50138525390625,-0.990264892578125,-0.0118255615234375,0.031463623046875
1772563522392453000,0.511453125,-0.9932403564453125,-0.011749267578125,0.031158447265625
1772563522402521000,0.52152099609375,-0.9933319091796875,-0.0111083984375,0.031890869140625
1772563522412589300,0.53158935546875,-0.99176025390625,-0.0127716064453125,0.0314788818359375
1772563522422657300,0.5416572265625,-0.990936279296875,-0.013336181640625,0.0316314697265625
1772563522432725200,0.551725341796875,-0.9925537109375,-0.0119781494140625,0.0317840576171875
1772563522442793200,0.561793212890625,-0.992828369140625,-0.0135650634765625,0.0314483642578125
1772563522452861200,0.571861083984375,-0.9921417236328125,-0.0114593505859375,0.033294677734375
1772563522462930200,0.58193017578125,-0.9924163818359375,-0.012237548828125,0.032012939453125
1772563522472998100,0.591998046875,-0.9910430908203125,-0.0116729736328125,0.0308685302734375
1772563522483066400,0.60206640625,-0.9891357421875,-0.0123443603515625,0.0298919677734375
1772563522493134300,0.61213427734375,-0.99169921875,-0.0138397216796875,0.032928466796875
1772563522503202300,0.622202392578125,-0.9926300048828125,-0.0124359130859375,0.0322265625
1772563522513270000,0.63227001953125,-0.9924774169921875,-0.0126495361328125,0.0323486328125
1772563522523338200,0.642338134765625,-0.99139404296875,-0.01214599609375,0.032867431640625
1772563522533406200,0.65240625,-0.9905548095703125,-0.012451171875,0.03106689453125
1772563522543474200,0.66247412109375,-0.9933624267578125,-0.0118408203125,0.0323333740234375
1772563522553543000,0.67254296875,-0.9923553466796875,-0.0113067626953125,0.0322418212890625
1772563522563611000,0.68261083984375,-0.99139404296875,-0.0130615234375,0.0323028564453125
1772563522573678800,0.692678955078125,-0.99163818359375,-0.0129241943359375,0.033233642578125
1772563522583746800,0.702746826171875,-0.9914398193359375,-0.011810302734375,0.0323028564453125
1772563522593814800,0.712814697265625,-0.9935302734375,-0.0132904052734375,0.0308380126953125
1772563522603882800,0.7228828125,-0.9943389892578125,-0.0128021240234375,0.0321807861328125
1772563522613950700,0.73295068359375,-0.9939727783203125,-0.0112152099609375,0.0331878662109375
1772563522624019000,0.74301904296875,-0.9921875,-0.0133514404296875,0.0329742431640625
1772563522634087000,0.7530869140625,-0.9921112060546875,-0.013824462890625,0.0323944091796875
1772563522644155000,0.76315478515625,-0.9913177490234375,-0.0118865966796875,0.030609130859375
1772563522654223600,0.7732236328125,-0.9918975830078125,-0.0124053955078125,0.0318756103515625
1772563522664291800,0.783291748046875,-0.99041748046875,-0.011505126953125,0.030670166015625
1772563522674359800,0.79335986328125,-0.99212646484375,-0.0123291015625,0.0299530029296875
1772563522684427800,0.803427734375,-0.9918365478515625,-0.012359619140625,0.032379150390625
1772563522694496000,0.81349609375,-0.991912841796875,-0.0132904052734375,0.0321044921875
1772563522704564000,0.82356396484375,-0.9917449951171875,-0.0127105712890625,0.0333099365234375
1772563522714631700,0.833631591796875,-0.9917755126953125,-0.01422119140625,0.0323486328125
1772563522724699600,0.84369970703125,-0.9922637939453125,-0.0135498046875,0.0320587158203125
1772563522734767900,0.853767822265625,-0.9919586181640625,-0.012725830078125,0.031982421875
1772563522744835800,0.8638359375,-0.990234375,-0.01287841796875,0.032501220703125
1772563522754904800,0.87390478515625,-0.992034912109375,-0.0116729736328125,0.032745361328125
1772563522764972800,0.883972900390625,-0.9919586181640625,-0.0131378173828125,0.031341552734375
1772563522775040800,0.894040771484375,-0.991119384765625,-0.012359619140625,0.032196044921875
1772563522785108700,0.904108642578125,-0.990081787109375,-0.011932373046875,0.03271484375
1772563522795176700,0.9141767578125,-0.98956298828125,-0.0121917724609375,0.0300140380859375
1772563522805244700,0.92424462890625,-0.991973876953125,-0.011322021484375,0.031402587890625
1772563522815313000,0.93431298828125,-0.9930572509765625,-0.0116119384765625,0.0313873291015625
1772563522825380900,0.944380859375,-0.99151611328125,-0.0113525390625,0.029754638671875
1772563522835448800,0.95444873046875,-0.9308319091796875,-0.0079193115234375,0.0393829345703125
1772563522845517800,0.964517822265625,-0.9228363037109375,-0.0202484130859375,0.0452880859375
1772563522855585800,0.974585693359375,-1.070220947265625,-0.015411376953125,0.033172607421875
1772563522865653800,0.98465380859375,-1.1242828369140625,-0.00506591796875,0.0076904296875
1772563522875721700,0.9947216796875,-1.0130615234375,-0.013214111328125,0.0012664794921875
1772563522885790000,1.0047900390625,-0.9524688720703125,-0.01116943359375,0.0233001708984375
1772563522895858000,1.01485791015625,-0.96630859375,-0.004638671875,0.0505218505859375
1772563522905925600,1.024925537109375,-0.9543914794921875,-0.0156097412109375,0.0583038330078125
1772563522915993600,1.03499365234375,-0.9382171630859375,-0.015899658203125,0.0423126220703125
1772563522926061800,1.045061767578125,-0.9968414306640625,-0.015289306640625,0.020965576171875
1772563522936129800,1.0551298828125,-1.0578765869140625,-0.0127716064453125,0.01470947265625
1772563522946198800,1.06519873046875,-1.03509521484375,-0.00799560546875,0.022705078125
1772563522956267000,1.07526708984375,-0.9675140380859375,-0.00994873046875,0.0352630615234375
1772563522966334700,1.085334716796875,-0.9372100830078125,-0.0126190185546875,0.0435333251953125
1772563522976402700,1.095402587890625,-0.9755401611328125,-0.0147857666015625,0.0406951904296875
1772563522986470700,1.105470703125,-1.0174560546875,-0.0164794921875,0.0274505615234375
1772563522996539000,1.115538818359375,-1.0191192626953125,-0.0138702392578125,0.02423095703125
1772563523006606800,1.12560693359375,-0.9991912841796875,-0.0112457275390625,0.0272216796875
1772563523016674800,1.1356748046875,-0.98065185546875,-0.0094757080078125,0.032623291015625
1772563523026742800,1.14574267578125,-0.9773406982421875,-0.0099334716796875,0.0394134521484375
1772563523036811800,1.155811767578125,-0.980987548828125,-0.012786865234375,0.0359954833984375
1772563523046879700,1.165879638671875,-0.993377685546875,-0.0141143798828125,0.028076171875
1772563523056947700,1.17594775390625,-1.0107421875,-0.0156402587890625,0.0277862548828125
1772563523067016000,1.186015869140625,-1.00732421875,-0.013885498046875,0.0310211181640625
1772563523077084000,1.196083984375,-0.987091064453125,-0.014068603515625,0.0336761474609375
1772563523087151900,1.20615185546875,-0.9713897705078125,-0.0114593505859375,0.0341644287109375
1772563523097219600,1.216219482421875,-0.981109619140625,-0.009124755859375,0.0335845947265625
1772563523107287800,1.226287841796875,-1.00244140625,-0.01123046875,0.0295562744140625
1772563523117355800,1.236355712890625,-1.0085906982421875,-0.0132293701171875,0.0278472900390625
1772563523127423700,1.246423828125,-0.995025634765625,-0.015411376953125,0.030517578125
1772563523137493000,1.256492919921875,-0.9811248779296875,-0.015106201171875,0.0330963134765625
1772563523147561000,1.26656103515625,-0.981842041015625,-0.01165771484375,0.0366668701171875
1772563523157628700,1.276628662109375,-0.9884796142578125,-0.01080322265625,0.0332183837890625
1772563523167696600,1.286696533203125,-0.994964599609375,-0.00958251953125,0.02911376953125
1772563523177764900,1.296764892578125,-1.0023956298828125,-0.012359619140625,0.026519775390625
1772563523187832800,1.306832763671875,-0.9982452392578125,-0.0131378173828125,0.030670166015625
1772563523197900800,1.31690087890625,-0.988525390625,-0.012725830078125,0.0352630615234375
1772563523207968800,1.32696875,-0.9823150634765625,-0.01300048828125,0.0372314453125
1772563523218037000,1.337037109375,-0.98388671875,-0.011077880859375,0.03448486328125
1772563523228104700,1.347104736328125,-0.9947052001953125,-0.01226806640625,0.030548095703125
1772563523238173700,1.357173583984375,-1.00042724609375,-0.0107269287109375,0.02618408203125
1772563523248242000,1.367241943359375,-0.9999847412109375,-0.010650634765625,0.029022216796875
1772563523258310000,1.377309814453125,-0.991851806640625,-0.0132598876953125,0.033203125
1772563523268377900,1.3873779296875,-0.984161376953125,-0.0135650634765625,0.03558349609375
1772563523278445800,1.39744580078125,-0.986083984375,-0.0141448974609375,0.03594970703125
1772563523288513800,1.407513671875,-0.99102783203125,-0.0135650634765625,0.032379150390625
1772563523298581800,1.417581787109375,-0.996368408203125,-0.0110931396484375,0.0286865234375
1772563523308649700,1.427649658203125,-0.997833251953125,-0.0110931396484375,0.028533935546875
1772563523318717700,1.4377177734375,-0.9937744140625,-0.0099029541015625,0.0326080322265625
1772563523328787000,1.447786865234375,-0.9889373779296875,-0.01397705078125,0.0336151123046875
1772563523338855000,1.45785498046875,-0.98565673828125,-0.0137176513671875,0.03265380859375
1772563523348922600,1.467922607421875,-0.9891815185546875,-0.0141143798828125,0.0324859619140625
1772563523358990800,1.477990966796875,-0.994476318359375,-0.0131072998046875,0.0322113037109375
1772563523369058800,1.488058837890625,-0.9959259033203125,-0.0112762451171875,0.03070068359375
1772563523379126800,1.498126708984375,-0.9931488037109375,-0.00994873046875,0.0304107666015625
1772563523389194800,1.50819482421875,-0.9915618896484375,-0.011383056640625,0.031005859375
1772563523399263000,1.518262939453125,-0.990692138671875,-0.01226806640625,0.031402587890625
1772563523409331000,1.5283310546875,-0.99188232421875,-0.013519287109375,0.032073974609375
1772563523419399000,1.53839892578125,-0.99334716796875,-0.0146026611328125,0.03375244140625
1772563523429468000,1.548468017578125,-0.9916229248046875,-0.01446533203125,0.0325927734375
1772563523439535900,1.558535888671875,-0.991790771484375,-0.012359619140625,0.031524658203125
1772563523449603800,1.568603759765625,-0.9919281005859375,-0.0124053955078125,0.03125
1772563523459671800,1.578671875,-0.9919281005859375,-0.0113525390625,0.031158447265625
1772563523469740000,1.588739990234375,-0.99249267578125,-0.0125274658203125,0.03118896484375
1772563523479807700,1.598807861328125,-0.992950439453125,-0.01318359375,0.0328521728515625
1772563523489875700,1.608875732421875,-0.991851806640625,-0.014923095703125,0.0322265625
1772563523499943700,1.618943603515625,-0.9900054931640625,-0.01318359375,0.032470703125
1772563523510012000,1.629011962890625,-0.992034912109375,-0.012481689453125,0.03253173828125
1772563523520081000,1.639080810546875,-0.992889404296875,-0.0107421875,0.0312347412109375
1772563523530148900,1.64914892578125,-0.992523193359375,-0.010223388671875,0.0327606201171875
1772563523540216600,1.659216552734375,-0.991943359375,-0.0125732421875,0.031494140625
1772563523550285600,1.66928564453125,-0.9918060302734375,-0.0134735107421875,0.03265380859375
1772563523560353800,1.679353759765625,-0.9904022216796875,-0.013153076171875,0.0341033935546875
1772563523570421800,1.689421875,-0.9910888671875,-0.0119781494140625,0.0325469970703125
1772563523580489700,1.69948974609375,-0.9924163818359375,-0.0116424560546875,0.0311126708984375
1772563523590557700,1.7095576171875,-0.9932861328125,-0.0110626220703125,0.03033447265625
1772563523600625700,1.719625732421875,-0.994964599609375,-0.0119476318359375,0.030731201171875
1772563523610693600,1.729693603515625,-0.9931182861328125,-0.0124664306640625,0.0312957763671875
1772563523620762600,1.7397626953125,-0.99114990234375,-0.0129547119140625,0.031768798828125
1772563523630830800,1.749830810546875,-0.9879150390625,-0.012420654296875,0.032806396484375
1772563523640898800,1.75989892578125,-0.98797607421875,-0.012786865234375,0.032806396484375
1772563523650966500,1.769966552734375,-0.991973876953125,-0.0135955810546875,0.0315399169921875
1772563523661034500,1.780034423828125,-0.9936370849609375,-0.0118408203125,0.029510498046875
1772563523671102700,1.790102783203125,-0.993194580078125,-0.0119781494140625,0.03173828125
1772563523681170700,1.800170654296875,-0.9931182861328125,-0.01300048828125,0.033294677734375
1772563523691238700,1.81023876953125,-0.9921875,-0.0127105712890625,0.0314483642578125
1772563523701306600,1.820306640625,-0.990234375,-0.0145416259765625,0.0324249267578125
1772563523711375600,1.830375732421875,-0.9908294677734375,-0.0134124755859375,0.0326080322265625
1772563523721443600,1.840443603515625,-0.9918365478515625,-0.01190185546875,0.0316009521484375
1772563523731511600,1.850511474609375,-0.993377685546875,-0.012939453125,0.0322723388671875
1772563523741579800,1.860579833984375,-0.99365234375,-0.012908935546875,0.0302581787109375
1772563523751647700,1.870647705078125,-0.992462158203125,-0.012481689453125,0.03125
1772563523761715700,1.8807158203125,-0.9909515380859375,-0.0127105712890625,0.032806396484375
1772563523771783700,1.89078369140625,-0.9913330078125,-0.0131988525390625,0.0323333740234375
1772563523781851600,1.9008515625,-0.99267578125,-0.01300048828125,0.032196044921875
1772563523791919600,1.910919677734375,-0.9918975830078125,-0.01104736328125,0.02978515625
1772563523801987600,1.920987548828125,-0.991546630859375,-0.0120086669921875,0.032012939453125
1772563523812056800,1.931056884765625,-0.9927978515625,-0.01129150390625,0.032135009765625
1772563523822124800,1.941124755859375,-0.995147705078125,-0.013427734375,0.0311279296875
1772563523832192800,1.95119287109375,-0.992645263671875,-0.0127716064453125,0.033203125
1772563523842260500,1.961260498046875,-0.990142822265625,-0.01336669921875,0.033538818359375
1772563523852328700,1.97132861328125,-0.9907684326171875,-0.0128173828125,0.0314788818359375
1772563523862396700,1.981396728515625,-0.9907073974609375,-0.012481689453125,0.031219482421875
1772563523872464600,1.991464599609375,-0.992401123046875,-0.0130767822265625,0.0306396484375
1772563523882532600,2.00153271484375,-0.992462158203125,-0.0121612548828125,0.0313262939453125
1772563523892600800,2.011600830078125,-0.9912261962890625,-0.0126953125,0.0304107666015625
1772563523902669600,2.021669677734375,-0.9900360107421875,-0.012664794921875,0.0318450927734375
1772563523912737500,2.031737548828125,-0.99285888671875,-0.0119781494140625,0.034332275390625
1772563523922805800,2.0418056640625,-0.98931884765625,-0.0127105712890625,0.0311737060546875
1772563523932873700,2.051873779296875,-0.9919891357421875,-0.013336181640625,0.0320892333984375
1772563523942941700,2.061941650390625,-0.9927215576171875,-0.011199951171875,0.0320281982421875
1772563523953009700,2.072009765625,-0.991119384765625,-0.013397216796875,0.0317840576171875
1772563523963078000,2.082077880859375,-0.9928131103515625,-0.0133514404296875,0.030670166015625
1772563523973145600,2.0921455078125,-0.9923095703125,-0.0129852294921875,0.033447265625
1772563523983213600,2.102213623046875,-0.990142822265625,-0.0139923095703125,0.031890869140625
1772563523993281500,2.112281494140625,-0.9905853271484375,-0.0123748779296875,0.032012939453125
1772563524003350800,2.122350830078125,-0.9910125732421875,-0.0134735107421875,0.0304412841796875
1772563524013418800,2.132418701171875,-0.9924163818359375,-0.0108795166015625,0.0309906005859375
1772563524023486700,2.14248681640625,-0.9920654296875,-0.0105743408203125,0.0308380126953125
1772563524033554400,2.152554443359375,-0.9931640625,-0.0125885009765625,0.0322723388671875
1772563524043622700,2.16262255859375,-0.992828369140625,-0.0117034912109375,0.0315399169921875
1772563524053690600,2.172690673828125,-0.99188232421875,-0.0127410888671875,0.03192138671875
1772563524063758600,2.182758544921875,-0.9911346435546875,-0.0127716064453125,0.0331573486328125
1772563524073826800,2.192826904296875,-0.99127197265625,-0.012603759765625,0.0319671630859375
1772563524083894800,2.202894775390625,-0.9923248291015625,-0.011474609375,0.032501220703125
1772563524093963500,2.212963623046875,-0.993011474609375,-0.010498046875,0.0328369140625
1772563524104031500,2.223031494140625,-0.99066162109375,-0.0120849609375,0.0341339111328125
1772563524114099700,2.233099609375,-0.99139404296875,-0.013916015625,0.0327301025390625
1772563524124167700,2.243167724609375,-0.9921417236328125,-0.0145263671875,0.031585693359375
1772563524134235600,2.253235595703125,-0.991119384765625,-0.0144195556640625,0.0333099365234375
1772563524144303600,2.2633037109375,-0.9904937744140625,-0.013580322265625,0.0316619873046875
1772563524154371800,2.273371826171875,-0.99224853515625,-0.011199951171875,0.03192138671875
1772563524164439600,2.283439453125,-0.99212646484375,-0.0123291015625,0.0320281982421875
1772563524174507500,2.293507568359375,-0.9916229248046875,-0.0127716064453125,0.0313720703125
1772563524184575500,2.303575439453125,-0.9908599853515625,-0.0106353759765625,0.0321502685546875
1772563524194644700,2.313644775390625,-0.9907379150390625,-0.0115814208984375,0.03387451171875
1772563524204712700,2.323712646484375,-0.9911651611328125,-0.0138397216796875,0.0318145751953125
1772563524214780700,2.33378076171875,-0.9921112060546875,-0.012237548828125,0.0317230224609375
1772563524224848600,2.3438486328125,-0.9924468994140625,-0.012786865234375,0.0309906005859375
1772563524234916600,2.35391650390625,-0.9922027587890625,-0.0125579833984375,0.031768798828125
1772563524244984600,2.363984619140625,-0.99365234375,-0.01165771484375,0.0322723388671875
1772563524255052500,2.374052490234375,-0.9908599853515625,-0.013397216796875,0.0320892333984375
1772563524265120800,2.384120849609375,-0.9896087646484375,-0.0120086669921875,0.0320892333984375
1772563524275188700,2.394188720703125,-0.9905853271484375,-0.01251220703125,0.0327911376953125
1772563524285257500,2.404257568359375,-0.992095947265625,-0.0129547119140625,0.0317840576171875
1772563524295325700,2.41432568359375,-0.9916839599609375,-0.0117950439453125,0.0325775146484375
1772563524305393700,2.4243935546875,-0.992279052734375,-0.0117340087890625,0.0317840576171875
1772563524315461600,2.434461669921875,-0.9926910400390625,-0.0120849609375,0.0309600830078125
1772563524325529600,2.444529541015625,-0.99249267578125,-0.0124664306640625,0.0308990478515625
1772563524335597800,2.454597900390625,-0.992919921875,-0.012451171875,0.0316162109375
1772563524345665800,2.464665771484375,-0.9908294677734375,-0.0144500732421875,0.0318756103515625
1772563524355733800,2.474733642578125,-0.9915771484375,-0.012298583984375,0.0316009521484375
1772563524365801500,2.484801513671875,-0.991607666015625,-0.0127716064453125,0.0306854248046875
1772563524375869700,2.49486962890625,-0.99267578125,-0.013275146484375,0.031036376953125
1772563524385938700,2.504938720703125,-0.9929656982421875,-0.01251220703125,0.0305328369140625
1772563524396006700,2.515006591796875,-0.99090576171875,-0.0115203857421875,0.0319976806640625
1772563524406075000,2.525074951171875,-0.99102783203125,-0.0127716064453125,0.0311431884765625
1772563524416142600,2.535142578125,-0.9914398193359375,-0.013275146484375,0.0319671630859375
1772563524426210600,2.54521044921875,-0.9913330078125,-0.0126190185546875,0.032562255859375
1772563524436278500,2.555278564453125,-0.99041748046875,-0.013275146484375,0.0308990478515625
1772563524446346800,2.5653466796875,-0.991485595703125,-0.0124664306640625,0.03277587890625
1772563524456414700,2.575414794921875,-0.9913787841796875,-0.0121917724609375,0.0323333740234375
1772563524466482700,2.585482666015625,-0.99151611328125,-0.0115814208984375,0.031158447265625
1772563524476551700,2.5955517578125,-0.992431640625,-0.0127410888671875,0.0314483642578125
1772563524486619600,2.60561962890625,-0.9912261962890625,-0.0118865966796875,0.0326385498046875
1772563524496687600,2.6156875,-0.9910430908203125,-0.012725830078125,0.0314788818359375
1772563524506755600,2.625755615234375,-0.9910736083984375,-0.0125274658203125,0.0326995849609375
1772563524516823800,2.63582373046875,-0.992034912109375,-0.0128936767578125,0.0323944091796875
1772563524526891800,2.645891845703125,-0.9927825927734375,-0.0114593505859375,0.0315093994140625
1772563524536959700,2.655959716796875,-0.992218017578125,-0.0115203857421875,0.031494140625
1772563524547027700,2.66602783203125,-0.992034912109375,-0.0138397216796875,0.0306243896484375
1772563524557095000,2.676094970703125,-0.9911651611328125,-0.012969970703125,0.030181884765625
1772563524567163000,2.686162841796875,-0.9921875,-0.0131683349609375,0.032257080078125
1772563524577232000,2.69623193359375,-0.991058349609375,-0.013427734375,0.030487060546875
1772563524587299800,2.7062998046875,-0.9920196533203125,-0.0135345458984375,0.0315399169921875
1772563524597368000,2.7163681640625,-0.9920806884765625,-0.0121917724609375,0.0318603515625
1772563524607436000,2.72643603515625,-0.9922027587890625,-0.0128021240234375,0.0321807861328125
1772563524617504000,2.73650390625,-0.9929962158203125,-0.011627197265625,0.0313262939453125
1772563524627571700,2.74657177734375,-0.99163818359375,-0.0123443603515625,0.030792236328125
1772563524637640000,2.756639892578125,-0.989990234375,-0.0120849609375,0.0320587158203125
1772563524647708000,2.7667080078125,-0.991912841796875,-0.01409912109375,0.032867431640625
1772563524657775900,2.77677587890625,-0.9915771484375,-0.0121307373046875,0.032623291015625
1772563524667845000,2.78684521484375,-0.9895782470703125,-0.011749267578125,0.032440185546875
1772563524677912800,2.796912841796875,-0.99200439453125,-0.013031005859375,0.03271484375
1772563524687980800,2.806980712890625,-0.992156982421875,-0.0124664306640625,0.0336151123046875
1772563524698048800,2.817048828125,-0.98980712890625,-0.013092041015625,0.0329742431640625
1772563524708117000,2.827116943359375,-0.9917144775390625,-0.0115509033203125,0.0324859619140625
1772563524718185000,2.83718505859375,-0.9911346435546875,-0.0121612548828125,0.0312347412109375
1772563524728253000,2.8472529296875,-0.9922027587890625,-0.012603759765625,0.030853271484375
1772563524738321000,2.85732080078125,-0.9910888671875,-0.0127716064453125,0.03314208984375
1772563524748389000,2.86738916015625,-0.992950439453125,-0.0132598876953125,0.0311431884765625
1772563524758457900,2.877457763671875,-0.99151611328125,-0.013458251953125,0.0329742431640625
1772563524768525800,2.88752587890625,-0.9914398193359375,-0.0117034912109375,0.0322265625
1772563524778594000,2.897593994140625,-0.99200439453125,-0.0127716064453125,0.0311737060546875
1772563524788662000,2.907662109375,-0.991455078125,-0.012451171875,0.0317230224609375
1772563524798730000,2.91772998046875,-0.9906005859375,-0.0125579833984375,0.0308685302734375
1772563524808798000,2.9277978515625,-0.99224853515625,-0.0114288330078125,0.0307159423828125
1772563524818866000,2.937865966796875,-0.99188232421875,-0.01129150390625,0.0313720703125
1772563524828934000,2.947933837890625,-0.9914703369140625,-0.0116119384765625,0.033355712890625
1772563524839001900,2.958001953125,-0.9905853271484375,-0.0127716064453125,0.033111572265625
1772563524849069800,2.96806982421875,-0.9918365478515625,-0.012786865234375,0.0321502685546875
1772563524859138000,2.978137939453125,-0.993194580078125,-0.0135498046875,0.0331878662109375
1772563524869206800,2.988206787109375,-0.9918975830078125,-0.0135345458984375,0.0315399169921875
1772563524879274800,2.998274658203125,-0.9902191162109375,-0.0132598876953125,0.030609130859375
1772563524889343000,3.008343017578125,-0.9920654296875,-0.0115966796875,0.0304718017578125
1772563524899411000,3.018410888671875,-0.992584228515625,-0.0126953125,0.0320892333984375
1772563524909479000,3.02847900390625,-0.9913482666015625,-0.0126190185546875,0.0334014892578125
1772563524919547000,3.038546875,-0.99163818359375,-0.0117950439453125,0.0317535400390625
1772563524929615000,3.048614990234375,-0.9930267333984375,-0.013031005859375,0.0326080322265625
1772563524939683000,3.05868310546875,-0.9911346435546875,-0.011260986328125,0.033233642578125
1772563524949750800,3.068750732421875,-0.9918365478515625,-0.011932373046875,0.0303955078125
1772563524959820000,3.078820068359375,-0.9939117431640625,-0.0115203857421875,0.0319061279296875
1772563524969888000,3.088887939453125,-0.99169921875,-0.012420654296875,0.0319366455078125
1772563524979956000,3.0989560546875,-0.9916534423828125,-0.0118865966796875,0.0316009521484375
1772563524990024000,3.10902392578125,-0.9919281005859375,-0.01324462890625,0.0326995849609375
1772563525000092000,3.119091796875,-0.9923858642578125,-0.0138092041015625,0.0313568115234375
1772563525010159900,3.129159912109375,-0.9922943115234375,-0.0129852294921875,0.030242919921875
1772563525020227800,3.139227783203125,-0.9914398193359375,-0.01361083984375,0.0318450927734375
1772563525030295800,3.1492958984375,-0.9917144775390625,-0.011993408203125,0.0308074951171875
1772563525040364000,3.159364013671875,-0.9911651611328125,-0.011932373046875,0.031707763671875
1772563525050432000,3.169431884765625,-0.9920196533203125,-0.01123046875,0.0308685302734375
1772563525060500700,3.179500732421875,-0.9932861328125,-0.0124053955078125,0.031402587890625
1772563525070569000,3.18956884765625,-0.9906005859375,-0.012359619140625,0.0319366455078125
1772563525080637000,3.199636962890625,-0.9914093017578125,-0.0126953125,0.0309600830078125
1772563525090705000,3.209704833984375,-0.991363525390625,-0.011962890625,0.030792236328125
1772563525100772900,3.21977294921875,-0.9921112060546875,-0.012237548828125,0.03204345703125
1772563525110841000,3.229841064453125,-0.992706298828125,-0.0117645263671875,0.0308380126953125
1772563525120909000,3.239908935546875,-0.991790771484375,-0.0119476318359375,0.0319061279296875
1772563525130977000,3.24997705078125,-0.9918670654296875,-0.012603759765625,0.03192138671875
1772563525141044700,3.260044677734375,-0.990631103515625,-0.01312255859375,0.0335235595703125
1772563525151114000,3.270114013671875,-0.9920501708984375,-0.0124664306640625,0.0317535400390625
1772563525161182000,3.280181884765625,-0.9910736083984375,-0.012542724609375,0.032135009765625
1772563525171250000,3.29025,-0.9912567138671875,-0.013824462890625,0.0336151123046875
1772563525181318000,3.30031787109375,-0.9923553466796875,-0.01275634765625,0.03179931640625
1772563525191386000,3.31038623046875,-0.9903717041015625,-0.012908935546875,0.0320281982421875
1772563525201453800,3.320453857421875,-0.990509033203125,-0.0138397216796875,0.03076171875
1772563525211521800,3.330521728515625,-0.99188232421875,-0.0124359130859375,0.031005859375
1772563525221590000,3.340590087890625,-0.991546630859375,-0.0125274658203125,0.0321044921875
1772563525231658000,3.350657958984375,-0.994110107421875,-0.0125885009765625,0.03131103515625
1772563525241726000,3.360725830078125,-0.9916839599609375,-0.0115509033203125,0.032501220703125
1772563525251794700,3.370794677734375,-0.9924468994140625,-0.0129852294921875,0.033355712890625
1772563525261863000,3.38086279296875,-0.991455078125,-0.01361083984375,0.032073974609375
1772563525271931000,3.390930908203125,-0.99029541015625,-0.0129241943359375,0.0328521728515625
1772563525281998800,3.400998779296875,-0.9907684326171875,-0.0123138427734375,0.0309600830078125
1772563525292066800,3.41106689453125,-0.990570068359375,-0.0128631591796875,0.0305938720703125
1772563525302135000,3.421135009765625,-0.991973876953125,-0.01287841796875,0.03106689453125
1772563525312203000,3.431203125,-0.99407958984375,-0.0120086669921875,0.0309600830078125
1772563525322271000,3.44127099609375,-0.9921875,-0.012664794921875,0.0319976806640625
1772563525332338700,3.451338623046875,-0.991790771484375,-0.012786865234375,0.033050537109375
1772563525342408000,3.461407958984375,-0.992645263671875,-0.0131988525390625,0.0316009521484375
1772563525352476000,3.471475830078125,-0.9932708740234375,-0.0121307373046875,0.0313262939453125
1772563525362543900,3.4815439453125,-0.9915313720703125,-0.012115478515625,0.0302734375
1772563525372612000,3.491612060546875,-0.9938812255859375,-0.01251220703125,0.0316009521484375
1772563525382680000,3.50168017578125,-0.9926300048828125,-0.0133514404296875,0.032958984375
1772563525392747800,3.511747802734375,-0.99298095703125,-0.013458251953125,0.031829833984375
1772563525402815700,3.521815673828125,-0.9906768798828125,-0.0108795166015625,0.0329132080078125
1772563525412884000,3.531884033203125,-0.99053955078125,-0.012542724609375,0.0308990478515625
1772563525422952000,3.541951904296875,-0.99169921875,-0.012908935546875,0.0314788818359375
1772563525433020000,3.55202001953125,-0.99188232421875,-0.0119781494140625,0.0317230224609375
1772563525443089000,3.5620888671875,-0.992034912109375,-0.0140228271484375,0.0316162109375
1772563525453156900,3.572156982421875,-0.9933624267578125,-0.014129638671875,0.0323638916015625
1772563525463224800,3.582224853515625,-0.991973876953125,-0.0126190185546875,0.031646728515625
1772563525473292800,3.592292724609375,-0.9931793212890625,-0.0125732421875,0.0316619873046875
1772563525483361000,3.602361083984375,-0.992462158203125,-0.01226806640625,0.0308685302734375
1772563525493429000,3.612428955078125,-0.9926605224609375,-0.0127716064453125,0.0317230224609375
1772563525503497000,3.6224970703125,-0.99237060546875,-0.01202392578125,0.0303955078125
1772563525513565000,3.63256494140625,-0.9932098388671875,-0.0119171142578125,0.03167724609375
1772563525523633000,3.6426328125,-0.992950439453125,-0.012542724609375,0.033050537109375
1772563525533702000,3.652701904296875,-0.9912872314453125,-0.01214599609375,0.0323333740234375
1772563525543769900,3.662769775390625,-0.9911346435546875,-0.01251220703125,0.0319366455078125
1772563525553838300,3.67283837890625,-0.991546630859375,-0.0115203857421875,0.031707763671875
1772563525563906300,3.68290625,-0.992401123046875,-0.0116119384765625,0.0319061279296875
1772563525573974000,3.69297412109375,-0.992950439453125,-0.0130767822265625,0.0305938720703125
1772563525584042200,3.703042236328125,-0.992279052734375,-0.0136871337890625,0.031341552734375
1772563525594110200,3.713110107421875,-0.993011474609375,-0.0130615234375,0.0303192138671875
1772563525604178200,3.72317822265625,-0.9926300048828125,-0.0111236572265625,0.0318603515625
1772563525614246100,3.73324609375,-0.9913177490234375,-0.012176513671875,0.0327911376953125
1772563525624314400,3.743314453125,-0.9908599853515625,-0.011077880859375,0.030914306640625
1772563525634383000,3.753383056640625,-0.9910125732421875,-0.013336181640625,0.0303192138671875
1772563525644451000,3.763451171875,-0.99169921875,-0.014404296875,0.031646728515625
1772563525654519300,3.773519287109375,-0.99114990234375,-0.0140533447265625,0.03369140625
1772563525664587300,3.783587158203125,-0.9922332763671875,-0.0127105712890625,0.032196044921875
1772563525674655200,3.7936552734375,-0.9926605224609375,-0.0117034912109375,0.030792236328125
1772563525684723200,3.80372314453125,-0.9914093017578125,-0.013092041015625,0.03057861328125
1772563525694791400,3.81379150390625,-0.9924163818359375,-0.0119476318359375,0.0302886962890625
1772563525704859100,3.823859130859375,-0.992767333984375,-0.0137786865234375,0.0318603515625
1772563525714927000,3.833927001953125,-0.993316650390625,-0.0119476318359375,0.033905029296875
1772563525724995000,3.8439951171875,-0.990936279296875,-0.0124053955078125,0.0332794189453125
1772563525735064300,3.854064208984375,-0.990264892578125,-0.0130157470703125,0.0303955078125
1772563525745132300,3.86413232421875,-0.992828369140625,-0.0119171142578125,0.0302276611328125
1772563525755200300,3.8742001953125,-0.9920196533203125,-0.01239013671875,0.0310516357421875
1772563525765268200,3.884268310546875,-0.9907073974609375,-0.0115966796875,0.0338287353515625
1772563525775336200,3.894336181640625,-0.9919586181640625,-0.0119476318359375,0.033203125
1772563525785404200,3.904404052734375,-0.9925384521484375,-0.01226806640625,0.031982421875
1772563525795472100,3.91447216796875,-0.99261474609375,-0.0119781494140625,0.0322113037109375
1772563525805540400,3.924540283203125,-0.9926910400390625,-0.0122528076171875,0.0309600830078125
1772563525815608300,3.9346083984375,-0.9918060302734375,-0.0126495361328125,0.0325775146484375
1772563525825677000,3.944677001953125,-0.9937896728515625,-0.0129547119140625,0.031646728515625
1772563525835745000,3.9547451171875,-0.9920654296875,-0.013641357421875,0.0315704345703125
1772563525845813200,3.964813232421875,-0.9916839599609375,-0.011077880859375,0.0329437255859375
1772563525855881200,3.974881103515625,-0.991424560546875,-0.01043701171875,0.032928466796875
1772563525865949200,3.98494921875,-0.992889404296875,-0.0135498046875,0.0319366455078125
1772563525876017400,3.995017333984375,-0.992279052734375,-0.0137481689453125,0.0332183837890625
1772563525886085400,4.00508544921875,-0.9919281005859375,-0.01239013671875,0.0318603515625
1772563525896153000,4.015153076171875,-0.9923553466796875,-0.0129852294921875,0.0320892333984375
1772563525906221000,4.025220947265625,-0.9921112060546875,-0.0126190185546875,0.033111572265625
1772563525916289300,4.035289306640625,-0.991180419921875,-0.011932373046875,0.0321807861328125
1772563525926357200,4.045357177734375,-0.9911651611328125,-0.0132293701171875,0.033966064453125
1772563525936426200,4.05542626953125,-0.9918670654296875,-0.0148468017578125,0.03167724609375
1772563525946494200,4.065494140625,-0.992706298828125,-0.013946533203125,0.0320892333984375
1772563525956562200,4.075562255859375,-0.9913787841796875,-0.0125579833984375,0.0322265625
1772563525966630100,4.085630126953125,-0.9907073974609375,-0.01202392578125,0.0334320068359375
1772563525976698000,4.095697998046875,-0.992462158203125,-0.0116729736328125,0.032745361328125
1772563525986766000,4.10576611328125,-0.992889404296875,-0.011383056640625,0.0321502685546875
1772563525996834300,4.115834228515625,-0.99237060546875,-0.01318359375,0.0310516357421875
1772563526006902300,4.12590234375,-0.991241455078125,-0.0129852294921875,0.0311279296875
1772563526016970200,4.13597021484375,-0.99127197265625,-0.012908935546875,0.0321044921875
1772563526027039200,4.146039306640625,-0.9908599853515625,-0.0140380859375,0.0320587158203125
1772563526037107200,4.156107177734375,-0.9927978515625,-0.0124664306640625,0.031982421875
1772563526047175200,4.166175048828125,-0.991485595703125,-0.0137176513671875,0.0338287353515625
1772563526057243100,4.1762431640625,-0.992462158203125,-0.01202392578125,0.03131103515625
1772563526067311400,4.186311279296875,-0.990997314453125,-0.012481689453125,0.0307769775390625
1772563526077379300,4.19637939453125,-0.9920654296875,-0.0114288330078125,0.0308990478515625
1772563526087447000,4.206447021484375,-0.9925079345703125,-0.0128631591796875,0.031463623046875
1772563526097515000,4.216514892578125,-0.9915008544921875,-0.013214111328125,0.03289794921875
1772563526107583200,4.226583251953125,-0.992401123046875,-0.0138702392578125,0.031158447265625
1772563526117651200,4.236651123046875,-0.9913482666015625,-0.0132598876953125,0.03204345703125
1772563526127720200,4.24672021484375,-0.9916839599609375,-0.0123138427734375,0.03179931640625
1772563526137788400,4.256788330078125,-0.992523193359375,-0.0121612548828125,0.0321502685546875
1772563526147856100,4.266856201171875,-0.9908599853515625,-0.0117645263671875,0.031158447265625
1772563526157924000,4.276924072265625,-0.9918365478515625,-0.011810302734375,0.0317535400390625
1772563526167992000,4.286991943359375,-0.992340087890625,-0.0128326416015625,0.0324249267578125
1772563526178060300,4.297060302734375,-0.9907379150390625,-0.0132293701171875,0.032073974609375
1772563526188128300,4.307128173828125,-0.9904022216796875,-0.013153076171875,0.034027099609375
1772563526198196200,4.3171962890625,-0.9899139404296875,-0.012054443359375,0.0311431884765625
1772563526208264200,4.32726416015625,-0.991546630859375,-0.0121612548828125,0.0317535400390625
1772563526218332400,4.33733251953125,-0.99102783203125,-0.01324462890625,0.0323944091796875
1772563526228401200,4.347401123046875,-0.991241455078125,-0.0131072998046875,0.0312957763671875
1772563526238469000,4.35746923828125,-0.991912841796875,-0.01287841796875,0.0315704345703125
1772563526248537300,4.367537353515625,-0.992095947265625,-0.01263427734375,0.031829833984375
1772563526258605300,4.377605224609375,-0.9920501708984375,-0.0133209228515625,0.032196044921875
1772563526268673300,4.38767333984375,-0.991241455078125,-0.011871337890625,0.032257080078125
1772563526278741200,4.3977412109375,-0.99102783203125,-0.01251220703125,0.033233642578125
1772563526288809200,4.407809326171875,-0.9918212890625,-0.012481689453125,0.0334625244140625
1772563526298877200,4.417877197265625,-0.99139404296875,-0.013641357421875,0.030853271484375
1772563526308945200,4.427945068359375,-0.9915924072265625,-0.01171875,0.03173828125
1772563526319014400,4.438014404296875,-0.991180419921875,-0.012542724609375,0.031982421875
1772563526329082400,4.448082275390625,-0.9921722412109375,-0.0123443603515625,0.03143310546875
1772563526339150000,4.458150146484375,-0.9927978515625,-0.01202392578125,0.0313720703125
1772563526349218000,4.468218017578125,-0.992279052734375,-0.0122528076171875,0.0322418212890625
1772563526359286300,4.478286376953125,-0.992156982421875,-0.0134429931640625,0.0313262939453125
1772563526369354200,4.488354248046875,-0.9925384521484375,-0.013916015625,0.0316619873046875
1772563526379422200,4.498422119140625,-0.9916229248046875,-0.01287841796875,0.0312042236328125
1772563526389490200,4.508490234375,-0.992431640625,-0.012298583984375,0.031707763671875
1772563526399558400,4.518558349609375,-0.99176025390625,-0.01251220703125,0.03265380859375
1772563526409626400,4.52862646484375,-0.9901885986328125,-0.01300048828125,0.032257080078125
1772563526419694000,4.538694091796875,-0.991424560546875,-0.0117645263671875,0.03155517578125
1772563526429763300,4.548763427734375,-0.991363525390625,-0.01226806640625,0.0312957763671875
1772563526439831300,4.558831298828125,-0.9937286376953125,-0.01220703125,0.0319976806640625
1772563526449899300,4.568899169921875,-0.9929351806640625,-0.013031005859375,0.033203125
1772563526459967200,4.57896728515625,-0.990997314453125,-0.0119476318359375,0.03228759765625
1772563526470035200,4.58903515625,-0.9918670654296875,-0.01312255859375,0.0308074951171875
1772563526480103200,4.599103271484375,-0.9915618896484375,-0.013427734375,0.03155517578125
1772563526490171100,4.609171142578125,-0.99188232421875,-0.0120697021484375,0.0327301025390625
1772563526500239000,4.619239013671875,-0.9911651611328125,-0.0123138427734375,0.030303955078125
1772563526510307300,4.629307373046875,-0.990814208984375,-0.0107269287109375,0.032745361328125
1772563526520376300,4.639376220703125,-0.9902801513671875,-0.0130615234375,0.032501220703125
1772563526530444000,4.649444091796875,-0.9918365478515625,-0.013824462890625,0.0311279296875
1772563526540512300,4.65951220703125,-0.9913787841796875,-0.013275146484375,0.0318756103515625
1772563526550580200,4.669580322265625,-0.9913330078125,-0.0126953125,0.0343780517578125
1772563526560649000,4.67964892578125,-0.9900360107421875,-0.01348876953125,0.03302001953125
1772563526570717000,4.689717041015625,-0.992034912109375,-0.0123443603515625,0.0312957763671875
1772563526580785200,4.69978515625,-0.9923553466796875,-0.011383056640625,0.0317535400390625
1772563526590852900,4.709852783203125,-0.992584228515625,-0.01397705078125,0.0305023193359375
1772563526600920800,4.7199208984375,-0.9914398193359375,-0.0131683349609375,0.0321197509765625
1772563526610988800,4.72998876953125,-0.9917755126953125,-0.01263427734375,0.0316619873046875
1772563526621058000,4.74005810546875,-0.993896484375,-0.0115814208984375,0.032196044921875
1772563526631126000,4.7501259765625,-0.9917144775390625,-0.011383056640625,0.032562255859375
1772563526641194000,4.760194091796875,-0.9915008544921875,-0.0123138427734375,0.0329132080078125
1772563526651261700,4.77026171875,-0.993072509765625,-0.0128936767578125,0.0324554443359375
1772563526661330000,4.780329833984375,-0.991546630859375,-0.0133819580078125,0.0322418212890625
1772563526671398000,4.79039794921875,-0.9903717041015625,-0.01373291015625,0.0318756103515625
1772563526681465900,4.8004658203125,-0.9907379150390625,-0.013275146484375,0.0314483642578125
1772563526691534000,4.8105341796875,-0.991302490234375,-0.0118255615234375,0.030792236328125
1772563526701602000,4.82060205078125,-0.99114990234375,-0.0122833251953125,0.0318145751953125
1772563526711670000,4.830669921875,-0.992431640625,-0.0125732421875,0.0307159423828125
1772563526721738800,4.84073876953125,-0.9922637939453125,-0.0115814208984375,0.032684326171875
1772563526731807000,4.850806884765625,-0.99285888671875,-0.012176513671875,0.03204345703125
1772563526741875000,4.860875,-0.992767333984375,-0.0118408203125,0.0321197509765625
1772563526751943000,4.87094287109375,-0.9906768798828125,-0.0129852294921875,0.0318145751953125
1772563526762011000,4.881010986328125,-0.9922943115234375,-0.0134735107421875,0.0306549072265625
1772563526772079000,4.8910791015625,-0.9913330078125,-0.01275634765625,0.0319061279296875
1772563526782146800,4.901146728515625,-0.9915618896484375,-0.0120697021484375,0.031707763671875
1772563526792214800,4.91121484375,-0.9918060302734375,-0.013214111328125,0.030914306640625
1772563526802282800,4.92128271484375,-0.99169921875,-0.0125732421875,0.0310821533203125
1772563526812351000,4.93135107421875,-0.9915008544921875,-0.0123138427734375,0.0312042236328125
1772563526822420000,4.941419921875,-0.9917755126953125,-0.0129547119140625,0.0318603515625
1772563526832488000,4.951488037109375,-0.99249267578125,-0.0142059326171875,0.0322265625
1772563526842556000,4.961555908203125,-0.992431640625,-0.0121917724609375,0.032257080078125
1772563526852624000,4.971623779296875,-0.9925994873046875,-0.0128173828125,0.0315399169921875
1772563526862691800,4.98169189453125,-0.990875244140625,-0.01263427734375,0.0321044921875
1772563526872759800,4.991759765625,-0.99005126953125,-0.0127410888671875,0.0331878662109375
1772563526882828000,5.001828125,-0.991546630859375,-0.0115966796875,0.031524658203125
1772563526892896000,5.01189599609375,-0.992034912109375,-0.01239013671875,0.0306396484375
1772563526902964000,5.0219638671875,-0.99072265625,-0.0134735107421875,0.0308380126953125
1772563526913031000,5.032031005859375,-0.991302490234375,-0.012939453125,0.0327606201171875
1772563526923099100,5.04209912109375,-0.9910430908203125,-0.0128631591796875,0.033050537109375
1772563526933167000,5.0521669921875,-0.9899444580078125,-0.0116424560546875,0.032012939453125
1772563526943234800,5.06223486328125,-0.9918365478515625,-0.0125579833984375,0.031219482421875
1772563526953302800,5.072302734375,-0.9902191162109375,-0.0118560791015625,0.0316009521484375
1772563526963371000,5.08237109375,-0.991729736328125,-0.012603759765625,0.031585693359375
1772563526973439000,5.09243896484375,-0.99273681640625,-0.0139312744140625,0.0319061279296875
1772563526983508000,5.102508056640625,-0.9920196533203125,-0.0113983154296875,0.0321807861328125
1772563526993576000,5.112575927734375,-0.993011474609375,-0.0129241943359375,0.0324554443359375
1772563527003644000,5.122643798828125,-0.9911346435546875,-0.0119476318359375,0.033233642578125
1772563527013712000,5.1327119140625,-0.9927215576171875,-0.0121002197265625,0.0334320068359375
1772563527023779800,5.14277978515625,-0.9921417236328125,-0.01263427734375,0.02911376953125
1772563527033847800,5.152847900390625,-0.990753173828125,-0.011688232421875,0.03131103515625
1772563527043916000,5.162916015625,-0.9917755126953125,-0.011016845703125,0.03277587890625
1772563527053984000,5.17298388671875,-0.9931793212890625,-0.0123291015625,0.0308685302734375
1772563527064052000,5.183052001953125,-0.99212646484375,-0.013214111328125,0.0315704345703125
1772563527074119700,5.19311962890625,-0.991119384765625,-0.0118865966796875,0.0335693359375
1772563527084189000,5.20318896484375,-0.99249267578125,-0.0118865966796875,0.032012939453125
1772563527094257000,5.2132568359375,-0.992889404296875,-0.0117645263671875,0.0334625244140625
1772563527104324900,5.223324951171875,-0.99273681640625,-0.0118865966796875,0.031707763671875
1772563527114393000,5.23339306640625,-0.993743896484375,-0.0131683349609375,0.031585693359375
1772563527124461000,5.2434609375,-0.9923095703125,-0.0138092041015625,0.03271484375
1772563527134528800,5.25352880859375,-0.9914398193359375,-0.0128936767578125,0.0321197509765625
1772563527144596700,5.2635966796875,-0.992034912109375,-0.0120849609375,0.0308074951171875
1772563527154665000,5.2736650390625,-0.9907073974609375,-0.0119476318359375,0.03118896484375
1772563527164733000,5.28373291015625,-0.992706298828125,-0.0128173828125,0.03070068359375
1772563527174801000,5.29380078125,-0.9922027587890625,-0.013824462890625,0.0310821533203125
1772563527184870000,5.303869873046875,-0.9919281005859375,-0.01153564453125,0.03143310546875
1772563527194937900,5.313937744140625,-0.9923858642578125,-0.0121307373046875,0.0296478271484375
1772563527205005800,5.324005859375,-0.9919891357421875,-0.0121307373046875,0.0316619873046875
1772563527215073800,5.33407373046875,-0.9910125732421875,-0.0118560791015625,0.0321044921875
1772563527225142000,5.34414208984375,-0.994140625,-0.01153564453125,0.0307464599609375
1772563527235210000,5.3542099609375,-0.992279052734375,-0.01361083984375,0.0313720703125
1772563527245278000,5.36427783203125,-0.992950439453125,-0.0125579833984375,0.030853271484375
1772563527255346000,5.374345947265625,-0.9920806884765625,-0.013916015625,0.031524658203125
1772563527265414000,5.384413818359375,-0.991241455078125,-0.012542724609375,0.031158447265625
1772563527275481900,5.39448193359375,-0.991119384765625,-0.0115203857421875,0.0319976806640625
1772563527285550800,5.40455078125,-0.9931793212890625,-0.013092041015625,0.0315399169921875
1772563527295619000,5.414619140625,-0.9913177490234375,-0.0127716064453125,0.032562255859375
1772563527305687000,5.42468701171875,-0.992706298828125,-0.0133514404296875,0.0324554443359375
1772563527315755000,5.434755126953125,-0.992767333984375,-0.012298583984375,0.030853271484375
1772563527325822700,5.44482275390625,-0.9913482666015625,-0.0140838623046875,0.0320281982421875
1772563527335891000,5.454890869140625,-0.9925079345703125,-0.0119781494140625,0.0311279296875
1772563527345959000,5.464958984375,-0.990814208984375,-0.0125732421875,0.0308837890625
1772563527356027000,5.47502685546875,-0.99176025390625,-0.0121002197265625,0.0316009521484375
1772563527366094800,5.4850947265625,-0.9913482666015625,-0.01226806640625,0.0323638916015625
1772563527376163000,5.4951630859375,-0.9907073974609375,-0.0126495361328125,0.0311279296875
1772563527386231000,5.50523095703125,-0.9917449951171875,-0.01513671875,0.0319976806640625
1772563527396299800,5.5152998046875,-0.9932403564453125,-0.0133056640625,0.033538818359375
1772563527406368000,5.525367919921875,-0.9922637939453125,-0.0126495361328125,0.032135009765625
1772563527416436000,5.53543603515625,-0.991485595703125,-0.01446533203125,0.0322723388671875
1772563527426504000,5.54550390625,-0.9929962158203125,-0.013092041015625,0.032196044921875
1772563527436572000,5.555572021484375,-0.992523193359375,-0.010650634765625,0.03204345703125
1772563527446640000,5.56564013671875,-0.991912841796875,-0.0124053955078125,0.0301971435546875
1772563527456707800,5.575707763671875,-0.9910736083984375,-0.0135955810546875,0.0315704345703125
1772563527466775800,5.58577587890625,-0.99090576171875,-0.01397705078125,0.0313720703125
1772563527476843800,5.59584375,-0.9911651611328125,-0.0132598876953125,0.0317535400390625
1772563527486912000,5.605912109375,-0.9914703369140625,-0.0139007568359375,0.0316925048828125
1772563527496981000,5.61598095703125,-0.9915008544921875,-0.0130157470703125,0.0302734375
1772563527507049000,5.626049072265625,-0.994140625,-0.01251220703125,0.0325927734375
1772563527517117000,5.636116943359375,-0.9925079345703125,-0.01312255859375,0.030120849609375
1772563527527185000,5.646184814453125,-0.991546630859375,-0.0107269287109375,0.030487060546875
1772563527537252900,5.6562529296875,-0.9921417236328125,-0.0128631591796875,0.032073974609375
1772563527547320800,5.66632080078125,-0.9924774169921875,-0.012786865234375,0.0326385498046875
1772563527557389000,5.67638916015625,-0.991943359375,-0.0136566162109375,0.031768798828125
1772563527567456000,5.6864560546875,-0.991485595703125,-0.012603759765625,0.031005859375
1772563527577524000,5.69652392578125,-0.9923858642578125,-0.0128936767578125,0.032440185546875
1772563527587592200,5.70659228515625,-0.991180419921875,-0.011444091796875,0.0316314697265625
1772563527597661000,5.716660888671875,-0.991363525390625,-0.0121307373046875,0.0313873291015625
1772563527607729000,5.72672900390625,-0.991241455078125,-0.01287841796875,0.0322113037109375
1772563527617797000,5.736797119140625,-0.991302490234375,-0.0134735107421875,0.03228759765625
1772563527627865000,5.746864990234375,-0.99267578125,-0.0107879638671875,0.031341552734375
1772563527637933000,5.75693310546875,-0.9913177490234375,-0.0135345458984375,0.033447265625
1772563527648001000,5.7670009765625,-0.9918975830078125,-0.013702392578125,0.031829833984375
1772563527658069200,5.7770693359375,-0.992584228515625,-0.0124664306640625,0.0323333740234375
1772563527668137000,5.787136962890625,-0.99249267578125,-0.012451171875,0.031463623046875
1772563527678205000,5.797204833984375,-0.991607666015625,-0.012908935546875,0.0323333740234375
1772563527688273000,5.80727294921875,-0.992279052734375,-0.0120849609375,0.03277587890625
1772563527698341000,5.817341064453125,-0.992156982421875,-0.0123138427734375,0.0322723388671875
1772563527708410000,5.82741015625,-0.992828369140625,-0.01287841796875,0.033721923828125
1772563527718478000,5.83747802734375,-0.992279052734375,-0.0129547119140625,0.0330963134765625
1772563527728546000,5.847546142578125,-0.991241455078125,-0.0130462646484375,0.030792236328125
1772563527738614000,5.857614013671875,-0.99176025390625,-0.0111846923828125,0.03118896484375
1772563527748682000,5.867681884765625,-0.9921112060546875,-0.011810302734375,0.0325927734375
1772563527758750000,5.87775,-0.9911346435546875,-0.01165771484375,0.0313262939453125
1772563527768818200,5.887818115234375,-0.9929351806640625,-0.0128173828125,0.031463623046875
1772563527778886100,5.89788623046875,-0.991180419921875,-0.0131683349609375,0.0318450927734375
1772563527788954000,5.9079541015625,-0.9920501708984375,-0.0120697021484375,0.0304718017578125
1772563527799022000,5.91802197265625,-0.9911956787109375,-0.0126495361328125,0.0318145751953125
1772563527809091000,5.928091064453125,-0.9919891357421875,-0.012786865234375,0.03271484375
1772563527819159000,5.938158935546875,-0.9913330078125,-0.01239013671875,0.031982421875
1772563527829227000,5.94822705078125,-0.99139404296875,-0.0128021240234375,0.030609130859375
1772563527839295200,5.958295166015625,-0.991119384765625,-0.011505126953125,0.03033447265625
1772563527849363200,5.96836328125,-0.991485595703125,-0.01226806640625,0.0315093994140625
1772563527859431000,5.978430908203125,-0.9922332763671875,-0.0129547119140625,0.031951904296875
1772563527869499000,5.988498779296875,-0.992095947265625,-0.0124359130859375,0.0311279296875
1772563527879567000,5.998567138671875,-0.99102783203125,-0.013824462890625,0.0320281982421875
1772563527889635000,6.008635009765625,-0.9931793212890625,-0.012725830078125,0.029998779296875
1772563527899703000,6.018703125,-0.99139404296875,-0.0121307373046875,0.03143310546875
1772563527909772000,6.02877197265625,-0.991424560546875,-0.0117950439453125,0.032470703125
1772563527919840000,6.038840087890625,-0.992584228515625,-0.013336181640625,0.030181884765625
1772563527929908000,6.048907958984375,-0.9917449951171875,-0.0123443603515625,0.032623291015625
1772563527939976000,6.058975830078125,-0.9918060302734375,-0.0123291015625,0.0320587158203125
1772563527950044200,6.069044189453125,-0.991912841796875,-0.0112457275390625,0.030426025390625
1772563527960112000,6.079112060546875,-0.993133544921875,-0.012237548828125,0.031982421875
1772563527970180000,6.08918017578125,-0.9911956787109375,-0.01287841796875,0.0331268310546875
1772563527980248000,6.099248046875,-0.991302490234375,-0.0140838623046875,0.0319061279296875
1772563527990316000,6.10931591796875,-0.9923858642578125,-0.012542724609375,0.030548095703125
1772563528000384000,6.119384033203125,-0.991058349609375,-0.0116119384765625,0.0318145751953125
1772563528010452000,6.129451904296875,-0.9909210205078125,-0.013427734375,0.032379150390625
1772563528020521200,6.139521240234375,-0.992218017578125,-0.013916015625,0.0334625244140625
1772563528030589200,6.149589111328125,-0.9924468994140625,-0.01226806640625,0.031341552734375
1772563528040657200,6.1596572265625,-0.991058349609375,-0.0123443603515625,0.031585693359375
1772563528050724900,6.169724853515625,-0.9919586181640625,-0.012420654296875,0.0316009521484375
1772563528060793000,6.17979296875,-0.9919281005859375,-0.01275634765625,0.0321807861328125
1772563528070861000,6.189861083984375,-0.9915771484375,-0.0125885009765625,0.0308990478515625
1772563528080929000,6.199928955078125,-0.9915771484375,-0.0127105712890625,0.0308837890625
1772563528090997000,6.2099970703125,-0.9922943115234375,-0.0118865966796875,0.030975341796875
1772563528101065200,6.220065185546875,-0.99249267578125,-0.0115966796875,0.031768798828125
1772563528111133200,6.23013330078125,-0.992645263671875,-0.0118560791015625,0.033416748046875
1772563528121202000,6.240201904296875,-0.99176025390625,-0.0136260986328125,0.031036376953125
1772563528131270000,6.250269775390625,-0.9915313720703125,-0.0124053955078125,0.031341552734375
1772563528141338000,6.260338134765625,-0.991302490234375,-0.0142059326171875,0.0311126708984375
1772563528151406000,6.270406005859375,-0.9918670654296875,-0.0123748779296875,0.03277587890625
1772563528161474000,6.28047412109375,-0.9907989501953125,-0.01190185546875,0.0316009521484375
1772563528171542000,6.2905419921875,-0.9909515380859375,-0.0128173828125,0.0316314697265625
1772563528181610000,6.30060986328125,-0.993194580078125,-0.0124969482421875,0.0323486328125
1772563528191678000,6.310677978515625,-0.991363525390625,-0.0133209228515625,0.03240966796875
1772563528201746000,6.320745849609375,-0.9907684326171875,-0.011566162109375,0.0322113037109375
1772563528211814100,6.330814208984375,-0.992584228515625,-0.0131378173828125,0.03033447265625
1772563528221883100,6.340883056640625,-0.9927215576171875,-0.012542724609375,0.0315093994140625
1772563528231951000,6.350951171875,-0.992645263671875,-0.0126495361328125,0.030181884765625
1772563528242018800,6.361018798828125,-0.9931793212890625,-0.012298583984375,0.0322723388671875
1772563528252087000,6.371087158203125,-0.9916229248046875,-0.0118255615234375,0.031463623046875
1772563528262155000,6.381155029296875,-0.99237060546875,-0.012786865234375,0.0313262939453125
1772563528272223000,6.391222900390625,-0.9929046630859375,-0.0121917724609375,0.0295867919921875
1772563528282291000,6.401291015625,-0.99200439453125,-0.0124969482421875,0.0308990478515625
1772563528292359200,6.411359130859375,-0.99285888671875,-0.0141448974609375,0.0333099365234375
1772563528302427100,6.42142724609375,-0.9914093017578125,-0.0134735107421875,0.0320281982421875
1772563528312495000,6.4314951171875,-0.9928741455078125,-0.012481689453125,0.03240966796875
1772563528322562800,6.441562744140625,-0.9928741455078125,-0.01287841796875,0.031280517578125
1772563528332632000,6.451632080078125,-0.992279052734375,-0.0120086669921875,0.033050537109375
1772563528342700000,6.461699951171875,-0.9915313720703125,-0.013214111328125,0.0321807861328125
1772563528352768000,6.47176806640625,-0.99176025390625,-0.0126495361328125,0.0321502685546875
1772563528362836200,6.481836181640625,-0.9920806884765625,-0.01141357421875,0.0308685302734375
1772563528372904000,6.491904052734375,-0.99139404296875,-0.0124053955078125,0.0313720703125
1772563528382972000,6.501971923828125,-0.9896087646484375,-0.01318359375,0.0314788818359375
1772563528393040000,6.512039794921875,-0.9914703369140625,-0.0123443603515625,0.0326995849609375
1772563528403108000,6.522108154296875,-0.99090576171875,-0.0124359130859375,0.0316314697265625
1772563528413176000,6.532176025390625,-0.9919281005859375,-0.011932373046875,0.0319366455078125
1772563528423244000,6.542244140625,-0.9905853271484375,-0.0117950439453125,0.032135009765625
1772563528433313000,6.55231298828125,-0.992950439453125,-0.0134429931640625,0.0319366455078125
1772563528443381000,6.562381103515625,-0.991790771484375,-0.012725830078125,0.03253173828125
1772563528453449000,6.572448974609375,-0.9923095703125,-0.0123138427734375,0.03204345703125
1772563528463517000,6.582516845703125,-0.9908905029296875,-0.0114898681640625,0.031707763671875
1772563528473585200,6.592585205078125,-0.99188232421875,-0.012725830078125,0.0298309326171875
1772563528483653000,6.602653076171875,-0.9913330078125,-0.012298583984375,0.0311431884765625
1772563528493721000,6.61272119140625,-0.9912872314453125,-0.0110931396484375,0.03265380859375
1772563528503789000,6.6227890625,-0.9923248291015625,-0.01416015625,0.0327606201171875
1772563528513857000,6.63285693359375,-0.9922027587890625,-0.0130615234375,0.0330963134765625
1772563528523925000,6.642925048828125,-0.9930877685546875,-0.01202392578125,0.0341033935546875
1772563528533993000,6.652992919921875,-0.9911651611328125,-0.0114593505859375,0.03082275390625
1772563528544062200,6.663062255859375,-0.9902801513671875,-0.0136871337890625,0.0306854248046875
1772563528554130200,6.673130126953125,-0.991729736328125,-0.0126800537109375,0.03057861328125
1772563528564198400,6.683198486328125,-0.990386962890625,-0.0124053955078125,0.0319366455078125
1772563528574266400,6.693266357421875,-0.9912261962890625,-0.0125732421875,0.0318756103515625
1772563528584334300,6.703334228515625,-0.990875244140625,-0.0121307373046875,0.03173828125
1772563528594402600,6.713402587890625,-0.992034912109375,-0.013031005859375,0.0322418212890625
1772563528604470500,6.723470458984375,-0.9918975830078125,-0.0124053955078125,0.0312652587890625
1772563528614538500,6.73353857421875,-0.9916534423828125,-0.0126495361328125,0.0294189453125
1772563528624606500,6.7436064453125,-0.990997314453125,-0.012603759765625,0.0320587158203125
1772563528634674400,6.75367431640625,-0.9925079345703125,-0.012603759765625,0.0315093994140625
1772563528644743400,6.763743408203125,-0.991302490234375,-0.011932373046875,0.0325469970703125
1772563528654811400,6.773811279296875,-0.992095947265625,-0.012176513671875,0.0321197509765625
1772563528664879600,6.783879638671875,-0.9912109375,-0.0126495361328125,0.03228759765625
1772563528674947600,6.793947509765625,-0.9921112060546875,-0.011688232421875,0.031341552734375
1772563528685015600,6.804015625,-0.992523193359375,-0.01190185546875,0.0310211181640625
1772563528695083300,6.814083251953125,-0.9929962158203125,-0.0123138427734375,0.0316314697265625
1772563528705151500,6.8241513671875,-0.9927978515625,-0.01165771484375,0.03240966796875
1772563528715219500,6.834219482421875,-0.991943359375,-0.0120849609375,0.03094482421875
1772563528725287400,6.844287353515625,-0.9910736083984375,-0.0130767822265625,0.0323333740234375
1772563528735355400,6.85435546875,-0.9920806884765625,-0.01287841796875,0.030548095703125
1772563528745423600,6.864423583984375,-0.9909210205078125,-0.01129150390625,0.031036376953125
1772563528755492400,6.874492431640625,-0.9907684326171875,-0.012847900390625,0.0312957763671875
1772563528765560300,6.884560302734375,-0.991180419921875,-0.0119781494140625,0.0312652587890625
1772563528775628500,6.894628662109375,-0.9933013916015625,-0.0129547119140625,0.0314788818359375
1772563528785696500,6.904696533203125,-0.99249267578125,-0.0133056640625,0.03167724609375
1772563528795764500,6.914764404296875,-0.990997314453125,-0.0121612548828125,0.0299835205078125
1772563528805832400,6.92483251953125,-0.990966796875,-0.012908935546875,0.0315704345703125
1772563528815900700,6.934900634765625,-0.9919586181640625,-0.013031005859375,0.033721923828125
1772563528825968400,6.944968505859375,-0.993133544921875,-0.0118560791015625,0.0334320068359375
1772563528836036400,6.955036376953125,-0.9929351806640625,-0.0123291015625,0.0325775146484375
1772563528846104300,6.965104248046875,-0.992218017578125,-0.012542724609375,0.0305633544921875
1772563528856173600,6.975173583984375,-0.991485595703125,-0.0120391845703125,0.031402587890625
1772563528866241500,6.985241455078125,-0.9911651611328125,-0.0129852294921875,0.0321044921875
1772563528876309500,6.9953095703125,-0.9914398193359375,-0.0118255615234375,0.0335845947265625
1772563528886377500,7.00537744140625,-0.990936279296875,-0.0120086669921875,0.0313873291015625
1772563528896445400,7.015445556640625,-0.9910736083984375,-0.0130767822265625,0.0305938720703125
1772563528906513400,7.025513427734375,-0.9918975830078125,-0.011444091796875,0.032196044921875
1772563528916581400,7.035581298828125,-0.9916839599609375,-0.010711669921875,0.0316009521484375
1772563528926649600,7.045649658203125,-0.9915618896484375,-0.013397216796875,0.0316009521484375
1772563528936717600,7.055717529296875,-0.9911956787109375,-0.0140533447265625,0.0345611572265625
1772563528946785500,7.06578564453125,-0.9923858642578125,-0.0130157470703125,0.0322265625
1772563528956853500,7.075853515625,-0.9930572509765625,-0.0112457275390625,0.0310516357421875
1772563528966922500,7.085922607421875,-0.9901275634765625,-0.011322021484375,0.0332489013671875
1772563528976990500,7.095990478515625,-0.9915924072265625,-0.0134735107421875,0.031829833984375
1772563528987058400,7.106058349609375,-0.9918365478515625,-0.01373291015625,0.0309600830078125
1772563528997126700,7.116126708984375,-0.9915618896484375,-0.01324462890625,0.029876708984375
1772563529007194600,7.126194580078125,-0.991058349609375,-0.0119476318359375,0.030364990234375
1772563529017262300,7.136262451171875,-0.9903106689453125,-0.012542724609375,0.031097412109375
1772563529027330300,7.146330322265625,-0.9912872314453125,-0.01361083984375,0.0327911376953125
1772563529037398500,7.1563984375,-0.9925994873046875,-0.0125579833984375,0.030914306640625
1772563529047466500,7.166466552734375,-0.9908599853515625,-0.0128326416015625,0.0302886962890625
1772563529057534500,7.176534423828125,-0.9925079345703125,-0.011962890625,0.030670166015625
1772563529067602400,7.1866025390625,-0.992095947265625,-0.0141754150390625,0.0301361083984375
1772563529077671400,7.19667138671875,-0.9919281005859375,-0.0115814208984375,0.032989501953125
1772563529087739400,7.206739501953125,-0.990753173828125,-0.0110626220703125,0.0313873291015625
1772563529097807400,7.216807373046875,-0.990753173828125,-0.01324462890625,0.0313873291015625
1772563529107875300,7.226875244140625,-0.991180419921875,-0.011871337890625,0.0343475341796875
1772563529117943600,7.236943603515625,-0.9918975830078125,-0.012237548828125,0.0317230224609375
1772563529128011500,7.247011474609375,-0.990936279296875,-0.0135040283203125,0.0334014892578125
1772563529138079500,7.25707958984375,-0.9905242919921875,-0.01275634765625,0.031005859375
1772563529148147500,7.2671474609375,-0.99310302734375,-0.0123748779296875,0.0310516357421875
1772563529158215400,7.27721533203125,-0.9917755126953125,-0.0126953125,0.033203125
1772563529168283400,7.287283447265625,-0.9915008544921875,-0.01239013671875,0.03082275390625
1772563529178352400,7.297352294921875,-0.9918060302734375,-0.01220703125,0.0315704345703125
1772563529188420600,7.307420654296875,-0.9913482666015625,-0.011993408203125,0.0309295654296875
1772563529198488600,7.317488525390625,-0.9925384521484375,-0.012420654296875,0.031890869140625
1772563529208556300,7.327556396484375,-0.990997314453125,-0.01483154296875,0.0312042236328125
1772563529218624300,7.337624267578125,-0.9913787841796875,-0.0132598876953125,0.0310211181640625
1772563529228692500,7.3476923828125,-0.9927825927734375,-0.0107879638671875,0.032135009765625
1772563529238760400,7.357760498046875,-0.9933624267578125,-0.013580322265625,0.0317840576171875
1772563529248828400,7.367828369140625,-0.992156982421875,-0.0132293701171875,0.031494140625
1772563529258896400,7.377896484375,-0.9921112060546875,-0.0147552490234375,0.031097412109375
1772563529268964600,7.387964599609375,-0.9916839599609375,-0.0121307373046875,0.0321044921875
1772563529279032600,7.398032470703125,-0.9921722412109375,-0.011566162109375,0.030517578125
1772563529289101300,7.408101318359375,-0.9913482666015625,-0.011505126953125,0.0316162109375
1772563529299169500,7.41816943359375,-0.993499755859375,-0.0131378173828125,0.0319976806640625
1772563529309237500,7.428237548828125,-0.9910736083984375,-0.013671875,0.0326690673828125
1772563529319305500,7.438305419921875,-0.9916839599609375,-0.0123748779296875,0.0330352783203125
1772563529329373400,7.44837353515625,-0.992034912109375,-0.0125885009765625,0.0306549072265625
1772563529339441700,7.458441650390625,-0.9912109375,-0.0130615234375,0.03045654296875
1772563529349509400,7.46850927734375,-0.990936279296875,-0.011077880859375,0.031829833984375
1772563529359577300,7.478577392578125,-0.9917755126953125,-0.012725830078125,0.0308380126953125
1772563529369645300,7.488645263671875,-0.9910125732421875,-0.013153076171875,0.0303192138671875
1772563529379713500,7.498713623046875,-0.9916229248046875,-0.0120086669921875,0.031463623046875
1772563529389782500,7.508782470703125,-0.9920654296875,-0.0132293701171875,0.0308837890625
1772563529399850500,7.5188505859375,-0.9906005859375,-0.0125579833984375,0.031097412109375
1772563529409918500,7.52891845703125,-0.99267578125,-0.012908935546875,0.0318145751953125
1772563529419986400,7.538986328125,-0.99169921875,-0.0127410888671875,0.0312042236328125
1772563529430054400,7.549054443359375,-0.9914093017578125,-0.0125732421875,0.0319366455078125
1772563529440122400,7.559122314453125,-0.990966796875,-0.0131683349609375,0.0319366455078125
1772563529450190600,7.569190673828125,-0.9910430908203125,-0.0129547119140625,0.03204345703125
1772563529460258600,7.579258544921875,-0.991790771484375,-0.0128173828125,0.0313568115234375
1772563529470326500,7.589326416015625,-0.9918670654296875,-0.012786865234375,0.03173828125
1772563529480394200,7.599394287109375,-0.991790771484375,-0.013092041015625,0.033416748046875
1772563529490462500,7.60946240234375,-0.9908599853515625,-0.01220703125,0.031158447265625
1772563529500531500,7.619531494140625,-0.9915618896484375,-0.013153076171875,0.030975341796875
1772563529510599400,7.629599365234375,-0.9922943115234375,-0.0136871337890625,0.0313262939453125
1772563529520667600,7.639667724609375,-0.992218017578125,-0.012542724609375,0.031463623046875
1772563529530735600,7.649735595703125,-0.9919891357421875,-0.01263427734375,0.03118896484375
1772563529540803300,7.65980322265625,-0.993499755859375,-0.0139007568359375,0.0333099365234375
1772563529550871300,7.669871337890625,-0.992828369140625,-0.013031005859375,0.0321197509765625
1772563529560939300,7.679939208984375,-0.9917755126953125,-0.0133056640625,0.0327606201171875
1772563529571007500,7.690007568359375,-0.99090576171875,-0.011505126953125,0.030303955078125
1772563529581075500,7.700075439453125,-0.9925384521484375,-0.0128631591796875,0.0311431884765625
1772563529591143400,7.710143310546875,-0.98956298828125,-0.0123748779296875,0.0337066650390625
1772563529601211400,7.72021142578125,-0.9911041259765625,-0.013214111328125,0.0326690673828125
1772563529611280400,7.7302802734375,-0.99066162109375,-0.01287841796875,0.0330047607421875
1772563529621348400,7.740348388671875,-0.991729736328125,-0.01177978515625,0.0311279296875
1772563529631416300,7.750416259765625,-0.9920806884765625,-0.01153564453125,0.0311431884765625
1772563529641484500,7.760484619140625,-0.99127197265625,-0.01275634765625,0.0303802490234375
1772563529651552500,7.770552490234375,-0.99163818359375,-0.0128021240234375,0.0322265625
1772563529661620500,7.780620361328125,-0.9927825927734375,-0.0135498046875,0.033294677734375
1772563529671688200,7.790688232421875,-0.990753173828125,-0.012359619140625,0.030029296875
1772563529681756400,7.80075634765625,-0.9904327392578125,-0.0127410888671875,0.03143310546875
1772563529691824400,7.810824462890625,-0.99334716796875,-0.0129852294921875,0.0327606201171875
1772563529701892400,7.820892333984375,-0.992279052734375,-0.0135955810546875,0.0326690673828125
1772563529711960300,7.830960205078125,-0.9914093017578125,-0.013275146484375,0.032501220703125
1772563529722029600,7.841029541015625,-0.990966796875,-0.0122528076171875,0.03240966796875
1772563529732097300,7.85109716796875,-0.992584228515625,-0.012542724609375,0.0324249267578125
1772563529742165200,7.861165283203125,-0.992462158203125,-0.0130767822265625,0.0319061279296875
1772563529752233500,7.8712333984375,-0.992462158203125,-0.012298583984375,0.0312347412109375
1772563529762301400,7.881301513671875,-0.9920654296875,-0.0119476318359375,0.03204345703125
1772563529772369400,7.891369384765625,-0.9921722412109375,-0.0133819580078125,0.034210205078125
1772563529782437400,7.901437255859375,-0.9927215576171875,-0.0116119384765625,0.0322113037109375
1772563529792505600,7.911505615234375,-0.991546630859375,-0.012481689453125,0.0317840576171875
1772563529802573600,7.921573486328125,-0.9904937744140625,-0.0122528076171875,0.0320281982421875
1772563529812641300,7.931641357421875,-0.9897003173828125,-0.0115509033203125,0.033294677734375
1772563529822709200,7.941709228515625,-0.99102783203125,-0.0133209228515625,0.033294677734375
1772563529832778500,7.951778564453125,-0.9926605224609375,-0.013092041015625,0.0320281982421875
1772563529842846500,7.961846435546875,-0.9917144775390625,-0.0130157470703125,0.0303192138671875
1772563529852914400,7.97191455078125,-0.9914398193359375,-0.0122833251953125,0.03076171875
1772563529862982400,7.981982421875,-0.9921112060546875,-0.01220703125,0.0319976806640625
1772563529873050400,7.99205029296875,-0.992950439453125,-0.0111846923828125,0.0306549072265625
1772563529883118300,8.002118408203126,-0.9919281005859375,-0.0128936767578125,0.032318115234375
1772563529893186300,8.012186279296875,-0.9924468994140625,-0.0123748779296875,0.0320892333984375
1772563529903254500,8.022254638671875,-0.992828369140625,-0.0114593505859375,0.0305328369140625
1772563529913322500,8.032322509765624,-0.9924774169921875,-0.0116424560546875,0.0323333740234375
1772563529923390500,8.042390380859375,-0.9906158447265625,-0.0138702392578125,0.0318756103515625
1772563529933458400,8.05245849609375,-0.991119384765625,-0.0117645263671875,0.033203125
1772563529943527400,8.06252734375,-0.9915008544921875,-0.0118255615234375,0.0327606201171875
1772563529953595400,8.072595458984376,-0.991119384765625,-0.0125732421875,0.031463623046875
1772563529963663400,8.082663330078125,-0.9923858642578125,-0.01287841796875,0.0306243896484375
1772563529973731600,8.092731689453124,-0.9907989501953125,-0.0113983154296875,0.030670166015625
1772563529983799600,8.102799560546876,-0.9906158447265625,-0.012359619140625,0.0316314697265625
1772563529993867500,8.112867431640625,-0.9911956787109375,-0.011199951171875,0.0323028564453125
1772563530003935200,8.122935302734374,-0.991943359375,-0.012115478515625,0.0340728759765625
1772563530014003500,8.13300341796875,-0.992919921875,-0.0117645263671875,0.0320892333984375
1772563530024071400,8.143071533203125,-0.9905242919921875,-0.011749267578125,0.032379150390625
1772563530034139400,8.153139404296875,-0.9906463623046875,-0.0128631591796875,0.031402587890625
1772563530044207400,8.163207275390626,-0.9914703369140625,-0.0110321044921875,0.03240966796875
1772563530054276400,8.1732763671875,-0.992034912109375,-0.0119781494140625,0.030670166015625
1772563530064344300,8.18334423828125,-0.9916839599609375,-0.011688232421875,0.03216552734375
1772563530074412300,8.193412353515624,-0.991790771484375,-0.0121612548828125,0.03240966796875
1772563530084480500,8.20348046875,-0.991607666015625,-0.0133209228515625,0.0329132080078125
1772563530094548500,8.213548583984375,-0.9911041259765625,-0.0132598876953125,0.0321807861328125
1772563530104616400,8.223616455078124,-0.992218017578125,-0.0132598876953125,0.030609130859375
1772563530114684400,8.233684326171876,-0.991851806640625,-0.0120086669921875,0.0325164794921875
1772563530124752600,8.243752685546875,-0.991912841796875,-0.0137786865234375,0.032257080078125
1772563530134820400,8.2538203125,-0.99212646484375,-0.0133514404296875,0.0318145751953125
1772563530144888300,8.263888427734376,-0.992462158203125,-0.0127716064453125,0.03125
1772563530154956300,8.273956298828125,-0.991424560546875,-0.0145111083984375,0.031646728515625
1772563530165025500,8.284025634765625,-0.9921112060546875,-0.0127716064453125,0.031341552734375
1772563530175093500,8.294093505859376,-0.9922027587890625,-0.0114593505859375,0.03094482421875
1772563530185161500,8.304161376953125,-0.99139404296875,-0.0118865966796875,0.03240966796875
1772563530195229400,8.3142294921875,-0.9926910400390625,-0.01202392578125,0.031036376953125
1772563530205297400,8.32429736328125,-0.9936370849609375,-0.013153076171875,0.0326995849609375
1772563530215365400,8.334365478515625,-0.9904937744140625,-0.0133514404296875,0.0334625244140625
1772563530225433300,8.344433349609375,-0.992431640625,-0.0126953125,0.0326385498046875
1772563530235501600,8.35450146484375,-0.9903411865234375,-0.0123443603515625,0.0321807861328125
1772563530245569500,8.364569580078125,-0.9921722412109375,-0.0117034912109375,0.0317840576171875
1772563530255637500,8.374637451171875,-0.992279052734375,-0.01171875,0.0326995849609375
1772563530265705500,8.38470556640625,-0.99261474609375,-0.0116729736328125,0.0326690673828125
1772563530275774500,8.3947744140625,-0.9910125732421875,-0.01104736328125,0.031829833984375
1772563530285842400,8.404842529296875,-0.991485595703125,-0.0130615234375,0.03173828125
1772563530295910400,8.414910400390625,-0.9916534423828125,-0.012725830078125,0.032562255859375
1772563530305978600,8.424978515625,-0.9929656982421875,-0.01177978515625,0.031524658203125
1772563530316046600,8.435046630859375,-0.9936676025390625,-0.0118408203125,0.0326385498046875
1772563530326114300,8.4451142578125,-0.9911346435546875,-0.01220703125,0.0301361083984375
1772563530336182300,8.455182373046876,-0.9915771484375,-0.011077880859375,0.0330047607421875
1772563530346250500,8.46525048828125,-0.9920501708984375,-0.0126953125,0.0311126708984375
1772563530356318500,8.475318359375,-0.9915924072265625,-0.0125579833984375,0.031097412109375
1772563530366386400,8.485386474609374,-0.9917449951171875,-0.0125885009765625,0.0327911376953125
1772563530376454400,8.495454345703125,-0.9924468994140625,-0.0117950439453125,0.032135009765625
1772563530386523400,8.5055234375,-0.9910736083984375,-0.0119171142578125,0.0322418212890625
1772563530396591400,8.51559130859375,-0.9913330078125,-0.012939453125,0.031494140625
1772563530406659300,8.525659423828126,-0.9903106689453125,-0.01324462890625,0.031707763671875
1772563530416727300,8.535727294921875,-0.9910430908203125,-0.0132293701171875,0.031494140625
1772563530426795500,8.54579541015625,-0.9925689697265625,-0.012237548828125,0.0324554443359375
1772563530436863500,8.555863525390626,-0.9912872314453125,-0.012359619140625,0.0330963134765625
1772563530446931500,8.565931396484375,-0.991546630859375,-0.01263427734375,0.0319366455078125
1772563530456999400,8.57599951171875,-0.991485595703125,-0.0123748779296875,0.03082275390625
1772563530467067400,8.5860673828125,-0.990966796875,-0.0133056640625,0.0313873291015625
1772563530477135400,8.59613525390625,-0.99200439453125,-0.0125579833984375,0.0330963134765625
1772563530487203300,8.606203369140625,-0.9907379150390625,-0.01275634765625,0.03240966796875
1772563530497271600,8.616271484375,-0.9914093017578125,-0.0113677978515625,0.031341552734375
1772563530507340500,8.626340576171875,-0.991546630859375,-0.011810302734375,0.03118896484375
1772563530517408300,8.636408203125,-0.99273681640625,-0.012847900390625,0.030426025390625
1772563530527476200,8.646476318359374,-0.99169921875,-0.0141143798828125,0.0315704345703125
1772563530537544400,8.65654443359375,-0.9914093017578125,-0.0118408203125,0.03125
1772563530547612400,8.6666123046875,-0.9921112060546875,-0.0124664306640625,0.0315399169921875
1772563530557680400,8.676680419921874,-0.9935302734375,-0.01275634765625,0.03240966796875
1772563530567748400,8.686748291015626,-0.992706298828125,-0.01287841796875,0.0322723388671875
1772563530577816600,8.696816650390625,-0.992279052734375,-0.0125579833984375,0.0323028564453125
1772563530587884500,8.706884521484374,-0.99298095703125,-0.0120086669921875,0.0319061279296875
1772563530597952300,8.7169521484375,-0.9922637939453125,-0.0112457275390625,0.0327606201171875
1772563530608020200,8.727020263671875,-0.9917144775390625,-0.012237548828125,0.030609130859375
1772563530618089500,8.73708935546875,-0.99176025390625,-0.0129241943359375,0.031951904296875
1772563530628157400,8.747157470703126,-0.9930419921875,-0.0121612548828125,0.034088134765625
1772563530638225400,8.757225341796875,-0.9912567138671875,-0.012664794921875,0.0309906005859375
1772563530648293400,8.76729345703125,-0.9907073974609375,-0.012969970703125,0.0305938720703125
1772563530658361300,8.777361328125,-0.9926300048828125,-0.011566162109375,0.032196044921875
1772563530668429300,8.78742919921875,-0.99298095703125,-0.0132293701171875,0.031524658203125
1772563530678497300,8.797497314453125,-0.9925537109375,-0.0129241943359375,0.0328369140625
1772563530688565500,8.8075654296875,-0.99078369140625,-0.01287841796875,0.0326995849609375
1772563530698633500,8.817633544921875,-0.9907379150390625,-0.0137176513671875,0.0326385498046875
1772563530708701400,8.827701416015625,-0.9922027587890625,-0.0140228271484375,0.03155517578125
1772563530718769400,8.837769287109374,-0.9929962158203125,-0.0128326416015625,0.0307159423828125
1772563530728838400,8.84783837890625,-0.99359130859375,-0.0108489990234375,0.032501220703125
1772563530738906400,8.85790625,-0.9936981201171875,-0.01177978515625,0.031585693359375
1772563530748974300,8.867974365234375,-0.9926910400390625,-0.01312255859375,0.0301055908203125
1772563530759042600,8.87804248046875,-0.9904632568359375,-0.01263427734375,0.03253173828125
1772563530769110500,8.888110595703125,-0.98980712890625,-0.0124359130859375,0.0326385498046875
1772563530779178500,8.898178466796875,-0.9906158447265625,-0.0118255615234375,0.0317840576171875
1772563530789246200,8.90824609375,-0.99188232421875,-0.011993408203125,0.0321044921875
1772563530799314400,8.918314453125,-0.990142822265625,-0.01275634765625,0.0320281982421875
1772563530809382400,8.92838232421875,-0.9898681640625,-0.01287841796875,0.0316162109375
1772563530819450400,8.938450439453124,-0.9919586181640625,-0.0121307373046875,0.031707763671875
1772563530829518300,8.948518310546875,-0.99200439453125,-0.0120697021484375,0.03192138671875
1772563530839586600,8.958586669921875,-0.991943359375,-0.0119476318359375,0.03271484375
1772563530849655300,8.9686552734375,-0.9907684326171875,-0.01220703125,0.0312957763671875
1772563530859723300,8.97872314453125,-0.9908905029296875,-0.012786865234375,0.03021240234375
1772563530869791500,8.98879150390625,-0.9905548095703125,-0.013397216796875,0.033172607421875
1772563530879859500,8.998859375,-0.992584228515625,-0.0110015869140625,0.0320281982421875
1772563530889927400,9.008927490234376,-0.991973876953125,-0.0118560791015625,0.031158447265625
1772563530899995400,9.018995361328125,-0.991943359375,-0.0120849609375,0.0305938720703125
1772563530910063600,9.029063720703125,-0.9911651611328125,-0.01214599609375,0.031494140625
1772563530920131300,9.03913134765625,-0.991363525390625,-0.011810302734375,0.032196044921875
1772563530930199300,9.04919921875,-0.9912109375,-0.0125274658203125,0.0321044921875
1772563530940267300,9.059267333984375,-0.9912109375,-0.0123138427734375,0.033111572265625
1772563530950335500,9.06933544921875,-0.9916229248046875,-0.01220703125,0.030914306640625
1772563530960404500,9.079404541015625,-0.99200439453125,-0.013275146484375,0.03216552734375
1772563530970472400,9.089472412109375,-0.9906158447265625,-0.01312255859375,0.03216552734375
1772563530980540400,9.09954052734375,-0.9908447265625,-0.0128021240234375,0.0321044921875
1772563530990608400,9.1096083984375,-0.9917449951171875,-0.012847900390625,0.031158447265625
1772563531000676400,9.11967626953125,-0.9918365478515625,-0.0131378173828125,0.032257080078125
1772563531010744300,9.129744384765624,-0.9929046630859375,-0.013824462890625,0.0314483642578125
1772563531020812500,9.1398125,-0.992828369140625,-0.013092041015625,0.031768798828125
1772563531030880500,9.149880615234375,-0.9902191162109375,-0.0128173828125,0.0321502685546875
1772563531040948500,9.159948486328124,-0.9908294677734375,-0.0135498046875,0.03228759765625
1772563531051016400,9.170016357421876,-0.9910125732421875,-0.012603759765625,0.0326080322265625
1772563531061084400,9.18008447265625,-0.992767333984375,-0.012786865234375,0.0328521728515625
1772563531071152400,9.19015234375,-0.9911346435546875,-0.014404296875,0.031768798828125
1772563531081221400,9.200221435546876,-0.989715576171875,-0.0135040283203125,0.0315093994140625
1772563531091289600,9.21028955078125,-0.9905242919921875,-0.0124664306640625,0.031036376953125
1772563531101357600,9.220357666015625,-0.9911346435546875,-0.0122833251953125,0.031646728515625
1772563531111425300,9.23042529296875,-0.9920196533203125,-0.012481689453125,0.0316162109375
1772563531121493200,9.2404931640625,-0.99200439453125,-0.01318359375,0.0319976806640625
1772563531131561500,9.2505615234375,-0.99212646484375,-0.0121917724609375,0.032501220703125
1772563531141629400,9.26062939453125,-0.99127197265625,-0.0126953125,0.0305938720703125
1772563531151697400,9.270697509765625,-0.9916839599609375,-0.01251220703125,0.0327606201171875
1772563531161765400,9.280765380859375,-0.99267578125,-0.0126800537109375,0.0315704345703125
1772563531171833600,9.29083349609375,-0.991180419921875,-0.0124664306640625,0.0302886962890625
1772563531181901600,9.300901611328126,-0.9922943115234375,-0.0135650634765625,0.03179931640625
1772563531191969300,9.31096923828125,-0.9918060302734375,-0.0124969482421875,0.03045654296875
1772563531202038500,9.32103857421875,-0.9918060302734375,-0.0120391845703125,0.031463623046875
1772563531212106500,9.3311064453125,-0.991302490234375,-0.01324462890625,0.0309295654296875
1772563531222174500,9.341174560546875,-0.992584228515625,-0.0143585205078125,0.03192138671875
1772563531232242400,9.351242431640625,-0.9909515380859375,-0.0127410888671875,0.0310821533203125
1772563531242310400,9.361310302734376,-0.992340087890625,-0.0121002197265625,0.031829833984375
1772563531252378400,9.37137841796875,-0.992401123046875,-0.0135345458984375,0.031402587890625
1772563531262446300,9.3814462890625,-0.992095947265625,-0.01116943359375,0.0314788818359375
1772563531272514300,9.391514404296874,-0.990875244140625,-0.012939453125,0.0322418212890625
1772563531282582500,9.40158251953125,-0.9924774169921875,-0.0130157470703125,0.0323028564453125
1772563531292650500,9.411650390625,-0.99090576171875,-0.01251220703125,0.0313720703125
1772563531302720300,9.42172021484375,-0.9930267333984375,-0.01324462890625,0.031494140625
1772563531312788500,9.43178857421875,-0.9912261962890625,-0.013397216796875,0.032928466796875
1772563531322856400,9.4418564453125,-0.9928436279296875,-0.0123291015625,0.0307159423828125
1772563531332924400,9.45192431640625,-0.9915924072265625,-0.0131683349609375,0.032470703125
1772563531342992400,9.461992431640626,-0.9921417236328125,-0.01361083984375,0.03204345703125
1772563531353060600,9.472060546875,-0.9917144775390625,-0.0117034912109375,0.0299072265625
1772563531363128300,9.48212841796875,-0.990753173828125,-0.01153564453125,0.032806396484375
1772563531373197300,9.492197265625,-0.991729736328125,-0.011474609375,0.03240966796875
1772563531383265500,9.502265625,-0.9917144775390625,-0.01226806640625,0.0314483642578125
1772563531393333500,9.51233349609375,-0.99078369140625,-0.0125885009765625,0.0315399169921875
1772563531403401500,9.5224013671875,-0.9917449951171875,-0.013763427734375,0.032196044921875
1772563531413469400,9.532469482421876,-0.9914398193359375,-0.013763427734375,0.030914306640625
1772563531423537400,9.542537353515625,-0.9910125732421875,-0.0127105712890625,0.03143310546875
1772563531433605400,9.55260546875,-0.9907684326171875,-0.0118560791015625,0.0310211181640625
1772563531443673300,9.56267333984375,-0.991668701171875,-0.0127105712890625,0.032318115234375
1772563531453741300,9.5727412109375,-0.9922332763671875,-0.0140380859375,0.029022216796875
1772563531463809500,9.5828095703125,-0.993682861328125,-0.0115509033203125,0.0312042236328125
1772563531473877500,9.59287744140625,-0.99237060546875,-0.0123748779296875,0.032318115234375
1772563531483945500,9.602945556640625,-0.9916229248046875,-0.0126495361328125,0.0319366455078125
1772563531494014500,9.613014404296875,-0.99072265625,-0.011260986328125,0.0313568115234375
1772563531504082400,9.62308251953125,-0.991363525390625,-0.012939453125,0.032257080078125
1772563531514150400,9.633150390625,-0.9900970458984375,-0.0133514404296875,0.03125
1772563531524218400,9.64321826171875,-0.9918670654296875,-0.0099639892578125,0.0312652587890625
1772563531534286600,9.65328662109375,-0.9916229248046875,-0.0125579833984375,0.0337066650390625
1772563531544354600,9.6633544921875,-0.9912261962890625,-0.0134429931640625,0.031402587890625
1772563531554422300,9.67342236328125,-0.9914093017578125,-0.0109710693359375,0.03021240234375
1772563531564490000,9.683489990234374,-0.992767333984375,-0.012664794921875,0.03076171875
1772563531574558000,9.693557861328125,-0.9923095703125,-0.0141754150390625,0.0308837890625
1772563531584626200,9.703626220703125,-0.990478515625,-0.012237548828125,0.0316619873046875
1772563531594694100,9.713694091796874,-0.9918365478515625,-0.01300048828125,0.0318603515625
1772563531604762000,9.72376220703125,-0.9927978515625,-0.0120391845703125,0.0307159423828125
1772563531614830800,9.733830810546875,-0.992919921875,-0.0118560791015625,0.03179931640625
1772563531624899000,9.743899169921875,-0.9912567138671875,-0.012420654296875,0.0324859619140625
1772563531634967000,9.753967041015626,-0.9918670654296875,-0.0128173828125,0.03131103515625
1772563531645035000,9.764034912109375,-0.9922332763671875,-0.0111083984375,0.03179931640625
1772563531655103200,9.774103271484375,-0.9918212890625,-0.012542724609375,0.0315704345703125
1772563531665171200,9.784171142578124,-0.9924468994140625,-0.0125274658203125,0.031707763671875
1772563531675239200,9.7942392578125,-0.991424560546875,-0.011138916015625,0.02972412109375
1772563531685307100,9.80430712890625,-0.9915313720703125,-0.0126190185546875,0.0301055908203125
1772563531695375000,9.814375,-0.991973876953125,-0.01312255859375,0.032501220703125
1772563531705443000,9.824443115234375,-0.9938812255859375,-0.0133819580078125,0.03082275390625
1772563531715511000,9.834510986328125,-0.9915924072265625,-0.0127105712890625,0.031890869140625
1772563531725579000,9.8445791015625,-0.9921112060546875,-0.0122833251953125,0.0312347412109375
1772563531735648300,9.854648193359376,-0.99273681640625,-0.0117645263671875,0.0302581787109375
1772563531745716000,9.864716064453125,-0.9931488037109375,-0.0122833251953125,0.0307769775390625
1772563531755784000,9.874783935546875,-0.992950439453125,-0.0135498046875,0.0304107666015625
1772563531765852000,9.884851806640626,-0.99285888671875,-0.0112762451171875,0.0305633544921875
1772563531775920000,9.894920166015625,-0.9904632568359375,-0.0132598876953125,0.03070068359375
1772563531785988000,9.904988037109375,-0.992584228515625,-0.01214599609375,0.03057861328125
1772563531796056000,9.91505615234375,-0.9916534423828125,-0.0121612548828125,0.032623291015625
1772563531806124000,9.9251240234375,-0.9915924072265625,-0.01202392578125,0.032470703125
1772563531816192300,9.935192138671875,-0.9925537109375,-0.0127716064453125,0.0311126708984375
1772563531826260000,9.945260009765626,-0.9900970458984375,-0.01373291015625,0.0309295654296875
1772563531836328000,9.955327880859375,-0.9908905029296875,-0.0128936767578125,0.0328521728515625
1772563531846396200,9.965396240234375,-0.9925537109375,-0.0121612548828125,0.0316925048828125
1772563531856465200,9.975465087890624,-0.9932098388671875,-0.011993408203125,0.0312042236328125
1772563531866533000,9.985533203125,-0.9911346435546875,-0.0108795166015625,0.0330963134765625
1772563531876601000,9.99560107421875,-0.9919586181640625,-0.012969970703125,0.0322113037109375
1772563531886669000,10.0056689453125,-0.9925384521484375,-0.0130462646484375,0.0323486328125
1772563531896737000,10.015737060546876,-0.9916229248046875,-0.012451171875,0.0321502685546875
1772563531906805000,10.025804931640625,-0.9927520751953125,-0.012115478515625,0.0328369140625
1772563531916873000,10.035873046875,-0.9922943115234375,-0.013336181640625,0.0313720703125
1772563531926941200,10.045941162109376,-0.9915618896484375,-0.0131378173828125,0.0306854248046875
1772563531937009200,10.056009033203125,-0.9917755126953125,-0.01287841796875,0.0299072265625
1772563531947077000,10.0660771484375,-0.9923858642578125,-0.012939453125,0.0314483642578125
1772563531957145000,10.07614501953125,-0.9919281005859375,-0.0120086669921875,0.03070068359375
1772563531967213000,10.086213134765625,-0.9926605224609375,-0.0126953125,0.0320892333984375
1772563531977282000,10.096281982421875,-0.9925537109375,-0.013397216796875,0.03338623046875
1772563531987350000,10.10635009765625,-0.9932708740234375,-0.0132598876953125,0.03173828125
1772563531997418200,10.116418212890625,-0.9933013916015625,-0.0135955810546875,0.0327301025390625
1772563532007486200,10.126486328125,-0.991851806640625,-0.011810302734375,0.0335235595703125
1772563532017554000,10.136553955078124,-0.991668701171875,-0.0125885009765625,0.0324859619140625
1772563532027622000,10.146621826171875,-0.9915313720703125,-0.0121307373046875,0.0310211181640625
1772563532037690000,10.156690185546875,-0.9925079345703125,-0.013641357421875,0.0301513671875
1772563532047758000,10.166758056640624,-0.9917449951171875,-0.0128936767578125,0.032135009765625
1772563532057826000,10.176825927734376,-0.99261474609375,-0.0117340087890625,0.031402587890625
1772563532067894000,10.18689404296875,-0.9914093017578125,-0.011962890625,0.0310211181640625
1772563532077962200,10.196962158203124,-0.992828369140625,-0.013519287109375,0.032135009765625
1772563532088031000,10.207031005859376,-0.991180419921875,-0.011871337890625,0.0330810546875
1772563532098099000,10.217098876953125,-0.9930267333984375,-0.011505126953125,0.03155517578125
1772563532108167200,10.227167236328125,-0.9927215576171875,-0.012603759765625,0.03192138671875
1772563532118235100,10.237235107421874,-0.99249267578125,-0.012298583984375,0.03228759765625
1772563532128303000,10.24730322265625,-0.99029541015625,-0.0130462646484375,0.0310821533203125
1772563532138371000,10.25737109375,-0.9911346435546875,-0.01226806640625,0.0301055908203125
1772563532148439300,10.267439208984374,-0.991790771484375,-0.01092529296875,0.0323638916015625
1772563532158507000,10.277507080078125,-0.9901580810546875,-0.012176513671875,0.032684326171875
1772563532168575000,10.287574951171875,-0.9919281005859375,-0.0123138427734375,0.031494140625
1772563532178643000,10.297642822265624,-0.9899444580078125,-0.012237548828125,0.030853271484375
1772563532188711200,10.307711181640625,-0.9912567138671875,-0.0123138427734375,0.032623291015625
1772563532198779100,10.317779052734375,-0.9924468994140625,-0.0120697021484375,0.0308380126953125
1772563532208848000,10.327847900390625,-0.9911041259765625,-0.0110931396484375,0.031585693359375
1772563532218916000,10.337916015625,-0.99322509765625,-0.01239013671875,0.030242919921875
1772563532228984000,10.347984130859375,-0.9922943115234375,-0.01300048828125,0.0293731689453125
1772563532239052000,10.358052001953125,-0.992462158203125,-0.01312255859375,0.0306549072265625
1772563532249120000,10.3681201171875,-0.992706298828125,-0.012725830078125,0.0307464599609375
1772563532259188200,10.378188232421875,-0.991058349609375,-0.0138702392578125,0.0305938720703125
1772563532269256200,10.388256103515625,-0.9925079345703125,-0.013427734375,0.031829833984375
1772563532279324200,10.39832421875,-0.992889404296875,-0.0137786865234375,0.03302001953125
1772563532289391900,10.408391845703125,-0.9927520751953125,-0.0130767822265625,0.0318756103515625
1772563532299460000,10.418460205078125,-0.9914093017578125,-0.0125274658203125,0.0322113037109375
1772563532309528000,10.428528076171874,-0.991119384765625,-0.0124359130859375,0.0316162109375
1772563532319596000,10.438595947265625,-0.9930419921875,-0.0131683349609375,0.0325927734375
1772563532329665300,10.448665283203125,-0.9921112060546875,-0.01263427734375,0.0332183837890625
1772563532339733200,10.458733154296874,-0.990386962890625,-0.0123443603515625,0.03277587890625
1772563532349801000,10.468801025390626,-0.991790771484375,-0.0123748779296875,0.03204345703125
1772563532359869000,10.478868896484375,-0.9919891357421875,-0.0124053955078125,0.0310516357421875
1772563532369937200,10.488937255859375,-0.9914093017578125,-0.0135955810546875,0.031829833984375
1772563532380005000,10.499005126953126,-0.9919281005859375,-0.0120391845703125,0.032806396484375
1772563532390073000,10.509072998046875,-0.991546630859375,-0.012542724609375,0.0314178466796875
1772563532400141000,10.51914111328125,-0.992767333984375,-0.01141357421875,0.0314788818359375
1772563532410209300,10.529209228515626,-0.9907379150390625,-0.0121612548828125,0.0311431884765625
1772563532420277000,10.539277099609375,-0.992156982421875,-0.0128936767578125,0.03302001953125
1772563532430345000,10.549344970703125,-0.989959716796875,-0.0128173828125,0.0316619873046875
1772563532440413000,10.559412841796876,-0.99176025390625,-0.0139617919921875,0.03167724609375
1772563532450482200,10.569482177734375,-0.993560791015625,-0.01312255859375,0.0315399169921875
1772563532460550100,10.579550048828125,-0.9922637939453125,-0.01385498046875,0.030120849609375
1772563532470618000,10.5896181640625,-0.991546630859375,-0.012420654296875,0.03131103515625
1772563532480686000,10.59968603515625,-0.9922943115234375,-0.01239013671875,0.0317230224609375
1772563532490754000,10.609754150390625,-0.9916229248046875,-0.0119781494140625,0.0298919677734375
1772563532500822000,10.619822021484374,-0.9914703369140625,-0.0113677978515625,0.0321197509765625
1772563532510890000,10.629889892578126,-0.9923095703125,-0.01434326171875,0.0329132080078125
1772563532520958200,10.639958251953125,-0.990997314453125,-0.013153076171875,0.0305328369140625
1772563532531026200,10.650026123046874,-0.990631103515625,-0.0113372802734375,0.0311126708984375
1772563532541094100,10.66009423828125,-0.991485595703125,-0.012664794921875,0.031524658203125
1772563532551162000,10.670162109375,-0.9918975830078125,-0.0132904052734375,0.03143310546875
1772563532561230300,10.680230224609375,-0.9917144775390625,-0.01153564453125,0.032012939453125
1772563532571299300,10.69029931640625,-0.9927825927734375,-0.011260986328125,0.0325775146484375
1772563532581367600,10.700367431640625,-0.991058349609375,-0.011871337890625,0.03228759765625
1772563532591435500,10.710435546875,-0.992645263671875,-0.0115966796875,0.0312042236328125
1772563532601503500,10.72050341796875,-0.991668701171875,-0.0124359130859375,0.03131103515625
1772563532611571200,10.7305712890625,-0.99249267578125,-0.0127105712890625,0.0323638916015625
1772563532621639400,10.740639404296875,-0.9922332763671875,-0.0126953125,0.0316162109375
1772563532631707400,10.750707275390624,-0.991180419921875,-0.01324462890625,0.033111572265625
1772563532641775400,10.760775390625,-0.9918365478515625,-0.0134735107421875,0.0314178466796875
1772563532651843300,10.77084326171875,-0.9932403564453125,-0.0124969482421875,0.0310211181640625
1772563532661911600,10.78091162109375,-0.9911041259765625,-0.01214599609375,0.0308685302734375
1772563532671979500,10.7909794921875,-0.99176025390625,-0.012847900390625,0.031158447265625
1772563532682047500,10.801047607421875,-0.992218017578125,-0.0123138427734375,0.0316162109375
1772563532692116500,10.811116455078125,-0.9913482666015625,-0.012115478515625,0.0321044921875
1772563532702184400,10.821184326171876,-0.9929962158203125,-0.013031005859375,0.030242919921875
1772563532712252400,10.83125244140625,-0.993377685546875,-0.0127410888671875,0.0316619873046875
1772563532722320400,10.8413203125,-0.992584228515625,-0.0117645263671875,0.032135009765625
1772563532732388600,10.851388671875,-0.9932861328125,-0.0118408203125,0.033935546875
1772563532742456300,10.861456298828125,-0.991790771484375,-0.0111083984375,0.0319976806640625
1772563532752524300,10.871524169921875,-0.992950439453125,-0.01312255859375,0.0316925048828125
1772563532762592300,10.88159228515625,-0.9911651611328125,-0.012786865234375,0.0316925048828125
1772563532772660500,10.891660400390625,-0.9916839599609375,-0.01361083984375,0.03228759765625
1772563532782728400,10.901728515625,-0.990692138671875,-0.0121002197265625,0.0318145751953125
1772563532792796400,10.91179638671875,-0.9924163818359375,-0.0120086669921875,0.03204345703125
1772563532802864400,10.921864501953126,-0.9922027587890625,-0.01177978515625,0.0315093994140625
1772563532812933400,10.931933349609375,-0.9919891357421875,-0.0129852294921875,0.031982421875
1772563532823001300,10.94200146484375,-0.9915313720703125,-0.0118865966796875,0.0311279296875
1772563532833069300,10.9520693359375,-0.991607666015625,-0.0126800537109375,0.0335845947265625
1772563532843137500,10.962137451171875,-0.991607666015625,-0.011749267578125,0.032440185546875
1772563532853205500,10.97220556640625,-0.9900360107421875,-0.0113067626953125,0.0311737060546875
1772563532863273500,10.9822734375,-0.9910736083984375,-0.013458251953125,0.0305023193359375
1772563532873341400,10.992341552734375,-0.9925384521484375,-0.0134735107421875,0.030792236328125
1772563532883409400,11.002409423828125,-0.99310302734375,-0.0127410888671875,0.03143310546875
1772563532893477400,11.012477294921876,-0.992034912109375,-0.01397705078125,0.0305023193359375
1772563532903545300,11.02254541015625,-0.9925994873046875,-0.0120849609375,0.0294189453125
1772563532913613300,11.03261328125,-0.9923248291015625,-0.0124664306640625,0.0313720703125
1772563532923681500,11.042681640625,-0.9914398193359375,-0.01226806640625,0.0333709716796875
1772563532933749500,11.05274951171875,-0.99139404296875,-0.011810302734375,0.032135009765625
1772563532943818200,11.062818359375,-0.991241455078125,-0.0118560791015625,0.03179931640625
1772563532953886500,11.072886474609374,-0.9903717041015625,-0.0130157470703125,0.0317230224609375
1772563532963954400,11.082954345703126,-0.9911651611328125,-0.012969970703125,0.0311431884765625
1772563532974022400,11.0930224609375,-0.990447998046875,-0.0125732421875,0.0311279296875
1772563532984090400,11.10309033203125,-0.9915924072265625,-0.012603759765625,0.0314788818359375
1772563532994158600,11.11315869140625,-0.990997314453125,-0.0122222900390625,0.0317535400390625
1772563533004226600,11.1232265625,-0.99273681640625,-0.0130767822265625,0.03094482421875
1772563533014294300,11.133294189453125,-0.9925079345703125,-0.01348876953125,0.030975341796875
1772563533024362200,11.1433623046875,-0.9913787841796875,-0.0130767822265625,0.031707763671875
1772563533034430500,11.153430419921875,-0.990875244140625,-0.01214599609375,0.0319366455078125
1772563533044498400,11.16349853515625,-0.9917449951171875,-0.012298583984375,0.0313568115234375
1772563533054566400,11.17356640625,-0.9900665283203125,-0.0132598876953125,0.0324554443359375
1772563533064635400,11.183635498046876,-0.9909210205078125,-0.0132293701171875,0.0309906005859375
1772563533074703400,11.193703369140625,-0.9923858642578125,-0.01220703125,0.0312347412109375
1772563533084771300,11.203771240234374,-0.9926605224609375,-0.0135498046875,0.0323486328125
1772563533094839300,11.21383935546875,-0.990753173828125,-0.0122222900390625,0.030975341796875
1772563533104907500,11.223907470703125,-0.994049072265625,-0.0131378173828125,0.0322113037109375
1772563533114975500,11.2339755859375,-0.992523193359375,-0.0146331787109375,0.0325469970703125
1772563533125043500,11.24404345703125,-0.991241455078125,-0.012725830078125,0.0337982177734375
1772563533135111400,11.254111328125,-0.9918212890625,-0.0131072998046875,0.031402587890625
1772563533145179400,11.264179443359374,-0.992340087890625,-0.0122222900390625,0.0321197509765625
1772563533155247400,11.274247314453126,-0.99169921875,-0.012359619140625,0.030181884765625
1772563533165315300,11.2843154296875,-0.9924163818359375,-0.0140228271484375,0.0316009521484375
1772563533175383300,11.29438330078125,-0.9905853271484375,-0.0128631591796875,0.032257080078125
1772563533185452500,11.30445263671875,-0.9920806884765625,-0.0124359130859375,0.03240966796875
1772563533195520500,11.3145205078125,-0.99212646484375,-0.0124969482421875,0.0322723388671875
1772563533205588200,11.324588134765625,-0.99169921875,-0.0116729736328125,0.0309906005859375
1772563533215656400,11.334656494140624,-0.9906768798828125,-0.013153076171875,0.0316162109375
1772563533225724400,11.344724365234375,-0.9907379150390625,-0.0129547119140625,0.031982421875
1772563533235792400,11.35479248046875,-0.993011474609375,-0.0120849609375,0.0315093994140625
1772563533245860400,11.3648603515625,-0.9898681640625,-0.010894775390625,0.031982421875
1772563533255928600,11.374928466796876,-0.992156982421875,-0.01171875,0.032623291015625
1772563533265996500,11.38499658203125,-0.9915924072265625,-0.013580322265625,0.03125
1772563533276064500,11.395064453125,-0.9897003173828125,-0.013916015625,0.03125
1772563533286132200,11.40513232421875,-0.99090576171875,-0.0122222900390625,0.031829833984375
1772563533296200400,11.415200439453125,-0.99078369140625,-0.013336181640625,0.0322723388671875
1772563533306268400,11.425268310546874,-0.9920806884765625,-0.01300048828125,0.0317535400390625
1772563533316337400,11.43533740234375,-0.990234375,-0.0127716064453125,0.0324859619140625
1772563533326405600,11.445405517578125,-0.990753173828125,-0.0132598876953125,0.0326995849609375
1772563533336473300,11.455473388671875,-0.9916839599609375,-0.0129852294921875,0.0310211181640625
1772563533346541300,11.465541259765626,-0.9916229248046875,-0.01239013671875,0.02984619140625
1772563533356609300,11.475609375,-0.992340087890625,-0.0128326416015625,0.0310821533203125
1772563533366677500,11.485677490234375,-0.9927825927734375,-0.0122222900390625,0.0319671630859375
1772563533376745500,11.495745361328124,-0.991912841796875,-0.0133819580078125,0.0320892333984375
1772563533386813400,11.5058134765625,-0.98974609375,-0.01300048828125,0.0315093994140625
1772563533396881400,11.51588134765625,-0.991363525390625,-0.0111846923828125,0.032928466796875
1772563533406949600,11.52594970703125,-0.9924163818359375,-0.013092041015625,0.0319061279296875
1772563533417017300,11.536017333984375,-0.9927215576171875,-0.01361083984375,0.0324859619140625
1772563533427085300,11.546085205078125,-0.990081787109375,-0.0113067626953125,0.031829833984375
1772563533437154600,11.556154541015625,-0.9925537109375,-0.013031005859375,0.030364990234375
1772563533447222500,11.566222412109376,-0.9922943115234375,-0.0120391845703125,0.0306243896484375
1772563533457290500,11.57629052734375,-0.991790771484375,-0.0130767822265625,0.032379150390625
1772563533467358500,11.5863583984375,-0.991302490234375,-0.0135498046875,0.033172607421875
1772563533477426400,11.596426513671876,-0.9929962158203125,-0.01214599609375,0.032958984375
1772563533487494400,11.606494384765625,-0.9912261962890625,-0.0113372802734375,0.0341339111328125
1772563533497562400,11.616562255859375,-0.991973876953125,-0.01202392578125,0.030975341796875
1772563533507630300,11.62663037109375,-0.99261474609375,-0.011260986328125,0.032012939453125
1772563533517698600,11.636698486328125,-0.99273681640625,-0.01275634765625,0.0306854248046875
1772563533527766500,11.6467666015625,-0.9907379150390625,-0.013702392578125,0.0319976806640625
1772563533537834500,11.65683447265625,-0.9915008544921875,-0.0134735107421875,0.0316314697265625
1772563533547902500,11.66690234375,-0.99224853515625,-0.0123443603515625,0.03192138671875
1772563533557971500,11.676971435546875,-0.9925994873046875,-0.0127410888671875,0.030059814453125
1772563533568040000,11.6870400390625,-0.9922943115234375,-0.01190185546875,0.0312347412109375
1772563533578108000,11.69710791015625,-0.9915313720703125,-0.0130615234375,0.0305023193359375
1772563533588176000,11.70717578125,-0.9937591552734375,-0.0123748779296875,0.0317230224609375
1772563533598243800,11.717243896484375,-0.99237060546875,-0.013702392578125,0.0328826904296875
1772563533608311800,11.727311767578126,-0.99298095703125,-0.013519287109375,0.0299072265625
1772563533618379800,11.7373798828125,-0.992889404296875,-0.0129852294921875,0.029998779296875
1772563533628447700,11.74744775390625,-0.9919281005859375,-0.01226806640625,0.0328826904296875
1772563533638515700,11.757515625,-0.9923858642578125,-0.013427734375,0.031890869140625
1772563533648584000,11.767583984375,-0.99163818359375,-0.012054443359375,0.0322723388671875
1772563533658652000,11.77765185546875,-0.9914398193359375,-0.01165771484375,0.0328369140625
1772563533668719900,11.787719970703124,-0.99090576171875,-0.012939453125,0.031890869140625
1772563533678787600,11.79778759765625,-0.9918670654296875,-0.012939453125,0.033050537109375
1772563533688856800,11.80785693359375,-0.99188232421875,-0.0135498046875,0.0320587158203125
1772563533698924800,11.8179248046875,-0.991424560546875,-0.013458251953125,0.0320587158203125
1772563533708992800,11.82799267578125,-0.9918212890625,-0.011688232421875,0.0316314697265625
1772563533719061000,11.83806103515625,-0.991302490234375,-0.0113067626953125,0.0326080322265625
1772563533729129000,11.84812890625,-0.9915313720703125,-0.01214599609375,0.03106689453125
1772563533739196700,11.85819677734375,-0.9919281005859375,-0.0112152099609375,0.0332794189453125
1772563533749264600,11.8682646484375,-0.9918212890625,-0.012603759765625,0.0326690673828125
1772563533759332900,11.878332763671875,-0.9932098388671875,-0.0131378173828125,0.0303802490234375
1772563533769400800,11.88840087890625,-0.9927978515625,-0.0104522705078125,0.03118896484375
1772563533779468800,11.89846875,-0.9932403564453125,-0.0131072998046875,0.0313720703125
1772563533789536800,11.908536865234375,-0.992919921875,-0.013153076171875,0.0309600830078125
1772563533799605000,11.91860498046875,-0.990631103515625,-0.01336669921875,0.034454345703125
1772563533809673700,11.928673828125,-0.98974609375,-0.0122528076171875,0.0330963134765625
1772563533819741700,11.93874169921875,-0.9909515380859375,-0.0135650634765625,0.0308990478515625
1772563533829810000,11.948809814453124,-0.9915313720703125,-0.0126800537109375,0.0306396484375
1772563533839878000,11.9588779296875,-0.99249267578125,-0.012481689453125,0.0311431884765625
1772563533849945900,11.96894580078125,-0.9923858642578125,-0.014251708984375,0.03076171875
1772563533860013800,11.979013916015624,-0.9922027587890625,-0.01300048828125,0.03033447265625
1772563533870081800,11.989081787109376,-0.9918975830078125,-0.011444091796875,0.0321502685546875
1772563533880149800,11.999149658203125,-0.9926605224609375,-0.0117645263671875,0.0296478271484375
1772563533890217700,12.0092177734375,-0.9928741455078125,-0.012054443359375,0.0319976806640625
1772563533900285700,12.01928564453125,-0.9904632568359375,-0.011810302734375,0.0329742431640625
1772563533910354000,12.02935400390625,-0.99151611328125,-0.01239013671875,0.03192138671875
1772563533920422000,12.039421875,-0.9917449951171875,-0.0121917724609375,0.03240966796875
1772563533930489900,12.04948974609375,-0.9909820556640625,-0.01312255859375,0.03216552734375
1772563533940558800,12.059558837890625,-0.9913787841796875,-0.01348876953125,0.0311279296875
1772563533950626800,12.069626708984375,-0.9927825927734375,-0.013427734375,0.0316162109375
1772563533960694800,12.07969482421875,-0.9895782470703125,-0.0120849609375,0.03271484375
1772563533970762800,12.0897626953125,-0.9919586181640625,-0.0124664306640625,0.032684326171875
1772563533980831000,12.0998310546875,-0.9920501708984375,-0.0134429931640625,0.031524658203125
1772563533990899000,12.10989892578125,-0.99267578125,-0.0131072998046875,0.0320892333984375
1772563534000967000,12.119966796875,-0.9918060302734375,-0.011474609375,0.031158447265625
1772563534011034600,12.13003466796875,-0.9914703369140625,-0.012298583984375,0.0312652587890625
1772563534021102800,12.140102783203124,-0.9931488037109375,-0.012847900390625,0.03143310546875
1772563534031170800,12.1501708984375,-0.9916534423828125,-0.0122222900390625,0.03173828125
1772563534041238800,12.16023876953125,-0.9911956787109375,-0.012481689453125,0.0312957763671875
1772563534051306800,12.170306640625,-0.993133544921875,-0.0132904052734375,0.0318450927734375
1772563534061375000,12.180375,-0.9921722412109375,-0.014373779296875,0.031768798828125
1772563534071443700,12.190443603515625,-0.9922943115234375,-0.0117645263671875,0.031494140625
1772563534081511700,12.20051171875,-0.9916534423828125,-0.012176513671875,0.032470703125
1772563534091580000,12.210579833984376,-0.9926910400390625,-0.012176513671875,0.0304718017578125
1772563534101648000,12.22064794921875,-0.9925994873046875,-0.01239013671875,0.0313262939453125
1772563534111715800,12.2307158203125,-0.9927520751953125,-0.0115203857421875,0.0320892333984375
1772563534121783800,12.24078369140625,-0.991424560546875,-0.0130767822265625,0.0311737060546875
1772563534131852000,12.25085205078125,-0.991973876953125,-0.013458251953125,0.03192138671875
1772563534141919700,12.260919677734375,-0.9923248291015625,-0.0125885009765625,0.0314788818359375
1772563534151987700,12.27098779296875,-0.9913482666015625,-0.0125732421875,0.031982421875
1772563534162055700,12.2810556640625,-0.992706298828125,-0.0131378173828125,0.03173828125
1772563534172124000,12.2911240234375,-0.9922027587890625,-0.0128173828125,0.0327301025390625
1772563534182191900,12.30119189453125,-0.9942626953125,-0.012664794921875,0.032989501953125
1772563534192259800,12.311259765625,-0.990936279296875,-0.01226806640625,0.031646728515625
1772563534202327800,12.321327880859375,-0.9910430908203125,-0.01361083984375,0.0318603515625
1772563534212396800,12.331396728515625,-0.9906768798828125,-0.01214599609375,0.0314788818359375
1772563534222464800,12.34146484375,-0.9910430908203125,-0.0123138427734375,0.0318450927734375
1772563534232532700,12.35153271484375,-0.9918060302734375,-0.013031005859375,0.0314788818359375
1772563534242600700,12.3616005859375,-0.9925384521484375,-0.0120391845703125,0.0323333740234375
1772563534252669000,12.3716689453125,-0.9921112060546875,-0.0120849609375,0.0326995849609375
1772563534262737000,12.38173681640625,-0.9911956787109375,-0.0123291015625,0.03253173828125
1772563534272804900,12.391804931640625,-0.992706298828125,-0.0128631591796875,0.03106689453125
1772563534282872800,12.401872802734376,-0.992218017578125,-0.011871337890625,0.0317840576171875
1772563534292940800,12.41194091796875,-0.9924774169921875,-0.0122528076171875,0.03106689453125
1772563534303008800,12.4220087890625,-0.9927520751953125,-0.0125274658203125,0.0329437255859375
1772563534313076700,12.43207666015625,-0.9905548095703125,-0.0127105712890625,0.032196044921875
1772563534323145000,12.44214501953125,-0.99127197265625,-0.0137939453125,0.0309600830078125
1772563534333213700,12.452213623046875,-0.992401123046875,-0.012908935546875,0.0316009521484375
1772563534343281700,12.46228173828125,-0.9918670654296875,-0.011688232421875,0.031982421875
1772563534353349600,12.472349609375,-0.99224853515625,-0.0125579833984375,0.03192138671875
1772563534363417900,12.48241796875,-0.993133544921875,-0.014190673828125,0.0304412841796875
1772563534373485800,12.49248583984375,-0.9910430908203125,-0.0125732421875,0.031951904296875
1772563534383553800,12.5025537109375,-0.9915618896484375,-0.0123138427734375,0.0305328369140625
1772563534393621800,12.512621826171875,-0.992462158203125,-0.012908935546875,0.0297088623046875
1772563534403690000,12.52268994140625,-0.992218017578125,-0.0119781494140625,0.0318450927734375
1772563534413757700,12.5327578125,-0.991546630859375,-0.0117645263671875,0.0307159423828125
1772563534423825700,12.54282568359375,-0.9920196533203125,-0.01202392578125,0.0328826904296875
1772563534433893600,12.5528935546875,-0.991729736328125,-0.013397216796875,0.0326995849609375
1772563534443961900,12.5629619140625,-0.9926300048828125,-0.0129241943359375,0.0318450927734375
1772563534454029800,12.57302978515625,-0.9908905029296875,-0.012725830078125,0.0301361083984375
1772563534464098800,12.583098876953125,-0.9902496337890625,-0.0125885009765625,0.033538818359375
1772563534474166800,12.593166748046874,-0.9921417236328125,-0.01214599609375,0.03167724609375
1772563534484234800,12.60323486328125,-0.9923095703125,-0.013031005859375,0.0323028564453125
1772563534494302700,12.613302734375,-0.993255615234375,-0.0125579833984375,0.032806396484375
1772563534504370700,12.62337060546875,-0.9936065673828125,-0.012176513671875,0.0312957763671875
1772563534514439000,12.63343896484375,-0.9926910400390625,-0.0129852294921875,0.0315093994140625
1772563534524507000,12.6435068359375,-0.9915924072265625,-0.0142669677734375,0.031890869140625
1772563534534574800,12.653574951171874,-0.9921875,-0.01324462890625,0.030975341796875
1772563534544642600,12.663642578125,-0.9913177490234375,-0.013153076171875,0.0311737060546875
1772563534554710800,12.673710693359375,-0.9918212890625,-0.013580322265625,0.031158447265625
1772563534564778500,12.683778564453124,-0.9923248291015625,-0.014556884765625,0.0321502685546875
1772563534574846500,12.693846435546876,-0.9914398193359375,-0.012969970703125,0.0313568115234375
1772563534584914400,12.70391455078125,-0.99285888671875,-0.013641357421875,0.031707763671875
1772563534594983700,12.713983642578125,-0.9926300048828125,-0.0116729736328125,0.0308990478515625
1772563534605051400,12.724051513671874,-0.9912109375,-0.0114593505859375,0.03009033203125
1772563534615119400,12.734119384765625,-0.990966796875,-0.0118255615234375,0.0317840576171875
1772563534625187300,12.744187255859375,-0.9911041259765625,-0.0126190185546875,0.03302001953125
1772563534635255600,12.754255615234374,-0.991607666015625,-0.012420654296875,0.03314208984375
1772563534645323500,12.764323486328125,-0.9909515380859375,-0.0133819580078125,0.0317840576171875
1772563534655391500,12.7743916015625,-0.99151611328125,-0.0119171142578125,0.0326690673828125
1772563534665459500,12.78445947265625,-0.9917755126953125,-0.01190185546875,0.03009033203125
1772563534675527700,12.794527587890625,-0.992767333984375,-0.01239013671875,0.0316619873046875
1772563534685595400,12.804595458984375,-0.9924163818359375,-0.011627197265625,0.031646728515625
1772563534695663400,12.814663330078124,-0.9919891357421875,-0.0113525390625,0.0312957763671875
1772563534705731300,12.8247314453125,-0.9919586181640625,-0.0122833251953125,0.0322418212890625
1772563534715799600,12.834799560546875,-0.9915924072265625,-0.0125274658203125,0.0312347412109375
1772563534725867500,12.844867431640624,-0.9902801513671875,-0.013580322265625,0.0326995849609375
1772563534735936500,12.8549365234375,-0.99066162109375,-0.0115203857421875,0.0312652587890625
1772563534746004500,12.86500439453125,-0.9910430908203125,-0.0139007568359375,0.03143310546875
1772563534756072400,12.875072509765625,-0.9920501708984375,-0.013275146484375,0.032135009765625
1772563534766140400,12.885140380859376,-0.991302490234375,-0.0128173828125,0.0306549072265625
1772563534776208400,12.89520849609375,-0.9918212890625,-0.010986328125,0.0304718017578125
1772563534786276600,12.905276611328125,-0.9920806884765625,-0.0136871337890625,0.0317230224609375
1772563534796344600,12.915344482421874,-0.9923095703125,-0.0129852294921875,0.032958984375
1772563534806412500,12.92541259765625,-0.9907379150390625,-0.0102081298828125,0.03271484375
1772563534816480500,12.93548046875,-0.9917755126953125,-0.010833740234375,0.03155517578125
1772563534826548500,12.945548583984374,-0.990875244140625,-0.011810302734375,0.0316162109375
1772563534836616400,12.955616455078125,-0.9927215576171875,-0.01318359375,0.0334014892578125
1772563534846684400,12.965684326171875,-0.9900054931640625,-0.0140838623046875,0.0332489013671875
1772563534856752400,12.97575244140625,-0.9914703369140625,-0.0126190185546875,0.030120849609375
1772563534866820600,12.985820556640626,-0.9927825927734375,-0.012481689453125,0.0322113037109375
