time,seconds_elapsed,z,y,x
1772563521949456100,0.0684560546875,-0.0006346218287944794,0.012159629724919796,-0.0008168560452759266
1772563521959524000,0.078524169921875,0.001236248528584838,-0.008864428848028183,0.0001325609628111124
1772563521969592300,0.08859228515625,0.00005784002132713795,-0.015975650399923325,0.00008376594632863998
1772563521979661300,0.098661376953125,0.001248805783689022,-0.0024278853088617325,0.0004038778133690357
1772563521989729300,0.108729248046875,0.0003128673415631056,0.012037714943289757,-0.00014644255861639977
1772563521999797000,0.118796875,-0.001277039758861065,0.009982554242014885,-0.002595219062641263
1772563522009865200,0.128865234375,0.0036481781862676144,-0.004688238725066185,-0.0003871442750096321
1772563522019933200,0.13893310546875,-0.0013399224262684584,-0.010833748616278172,0.002445393707603216
1772563522030001200,0.149001220703125,-0.0010366598144173622,-0.005385108292102814,0.0003977955784648657
1772563522040069000,0.159069091796875,0.00021316180936992168,0.00460787070915103,-0.0006205970421433449
1772563522050137300,0.169137451171875,-0.0004622158594429493,0.008214323781430721,0.001109924865886569
1772563522060205300,0.179205322265625,0.0013705715537071228,0.002559633692726493,0.0014715821016579866
1772563522070273300,0.189273193359375,0.0010387818329036236,-0.0009304885752499104,-0.002192719839513302
1772563522080342300,0.19934228515625,-0.0008493994828313589,-0.00449246633797884,-0.003743212204426527
1772563522090410200,0.20941015625,-0.000019955914467573166,-0.004006311297416687,0.0005621169693768024
1772563522100478200,0.219478271484375,-0.0011818930506706238,0.00282656098715961,-0.0018536364659667015
1772563522110546200,0.229546142578125,0.0015143277123570442,0.0036715418100357056,-0.0011816422920674086
1772563522120614400,0.239614501953125,0.0004437370225787163,0.002626251196488738,0.0006980167236179113
1772563522130682000,0.24968212890625,0.0006237933412194252,-0.0006286837160587311,-0.0026332384441047907
1772563522140750000,0.25975,0.0003689287696033716,0.0004847841337323189,0.0002999671269208193
1772563522150818000,0.269818115234375,-0.0007072545122355223,-0.002494228072464466,-0.0004888612311333418
1772563522160886300,0.27988623046875,0.0005899711977690458,-0.002859880216419697,-0.001468105474486947
1772563522170955300,0.289955322265625,0.002165664453059435,-0.0019535073079168797,-0.0010164175182580948
1772563522181023200,0.300023193359375,0.002653555478900671,0.0051081301644444466,0.0014842906966805458
1772563522191091200,0.31009130859375,-0.0013128933496773243,0.005728854797780514,0.0026453330647200346
1772563522201159200,0.3201591796875,-0.0003666721750050783,0.003602320561185479,-0.0005081158597022295
1772563522211227100,0.33022705078125,-0.0007824238855391741,-0.004214293323457241,0.0012693258468061686
1772563522221295000,0.340295166015625,0.00025088293477892876,-0.008629548363387585,-0.0017456387868151069
1772563522231363300,0.35036328125,0.0010469695553183556,-0.003953640349209309,0.0025335601530969143
1772563522241431300,0.360431396484375,-0.0012342941481620073,0.004707492422312498,-0.0020907525904476643
1772563522251499300,0.370499267578125,-0.0010773069225251675,0.008691463619470596,-0.002052594907581806
1772563522261567200,0.380567138671875,0.00031153159216046333,0.0027614026330411434,0.00008752127178013325
1772563522271636200,0.39063623046875,0.0012409156188368797,-0.004033603705465794,-0.00246622646227479
1772563522281704200,0.4007041015625,0.00044249999336898327,-0.005942291580140591,-0.0008337085600942373
1772563522291772200,0.410772216796875,-0.0006878450512886047,-0.002552255056798458,0.0010997620411217213
1772563522301840400,0.42084033203125,0.00177850853651762,0.0031959116458892822,0.0006456929259002209
1772563522311908400,0.430908447265625,0.0030119537841528654,0.0019805734045803547,-0.0024799960665404797
1772563522321976000,0.44097607421875,0.0015930215595290065,-0.001559300348162651,-0.0023636161349713802
1772563522332044000,0.4510439453125,0.00002484838478267193,0.0009742728434503078,-0.0006286771968007088
1772563522342112300,0.4611123046875,0.0005066143348813057,0.0001367088407278061,-0.0017115183873102069
1772563522352180200,0.47118017578125,0.0038699160795658827,-0.001729357521981001,0.0007925240788608789
1772563522362248200,0.481248291015625,0.0005007509607821703,-0.000367150641977787,-0.0012647679541260004
1772563522372317400,0.4913173828125,-0.00036401208490133286,-0.0029898015782237053,-0.0014511412009596825
1772563522382385200,0.50138525390625,-0.00033205421641469,-0.002137324307113886,-0.0004029208794236183
1772563522392453000,0.511453125,-0.0010306094773113728,0.00004912074655294418,-0.0024169422686100006
1772563522402521000,0.52152099609375,0.00006821053102612495,0.0029407809488475323,0.00091121019795537
1772563522412589300,0.53158935546875,-0.0008618873544037342,0.0030668575782328844,-0.0020223730243742466
1772563522422657300,0.5416572265625,-0.0032613957300782204,-0.0023409570567309856,-0.0020130521152168512
1772563522432725200,0.551725341796875,-0.002989227185025811,-0.0026608132757246494,-0.002191356848925352
1772563522442793200,0.561793212890625,0.0017461396055296063,-0.0023819804191589355,0.00033518392592668533
1772563522452861200,0.571861083984375,0.000927080400288105,0.0008304622024297714,-0.0016473362920805812
1772563522462930200,0.58193017578125,0.0007289410568773746,0.0021705650724470615,0.0013393987901508808
1772563522472998100,0.591998046875,0.0020900072995573282,0.0010816790163516998,-0.0011916644871234894
1772563522483066400,0.60206640625,-0.0019252407364547253,-0.00034151459112763405,-0.0018803580896928906
1772563522493134300,0.61213427734375,-0.002319319872185588,-0.0008313502185046673,-0.0005571180954575539
1772563522503202300,0.622202392578125,-0.0004223503638058901,0.0015686906408518553,-0.0010623198468238115
1772563522513270000,0.63227001953125,-0.0005177576094865799,0.0008537201210856438,0.002777711721137166
1772563522523338200,0.642338134765625,-0.0006647640839219093,-0.0020184991881251335,0.0010850063990801573
1772563522533406200,0.65240625,-0.001137269427999854,0.0012339025270193815,0.0002608075737953186
1772563522543474200,0.66247412109375,-0.0008003793191164732,0.0043340884149074554,0.0000038123689591884613
1772563522553543000,0.67254296875,0.0005596177652478218,0.004422878846526146,0.0010005761869251728
1772563522563611000,0.68261083984375,-0.0006752903573215008,0.0008332040160894394,0.0005241369362920523
1772563522573678800,0.692678955078125,-0.0007430850528180599,-0.0020814272575080395,-0.0020558987744152546
1772563522583746800,0.702746826171875,-0.0013577425852417946,-0.004880942404270172,-0.0012367104645818472
1772563522593814800,0.712814697265625,0.0026046212296932936,-0.0013406546786427498,-0.002375188749283552
1772563522603882800,0.7228828125,-0.0013578960206359625,0.0025627403520047665,0.0009114185813814402
1772563522613950700,0.73295068359375,0.0017891655443236232,0.0028328336775302887,0.00020158360712230206
1772563522624019000,0.74301904296875,-0.000009799841791391373,-0.0011331457644701004,-0.003246677340939641
1772563522634087000,0.7530869140625,-0.00009418884292244911,-0.001029173843562603,-0.000023110071197152138
1772563522644155000,0.76315478515625,-0.0002060416154563427,-0.0028297370299696922,-0.001719011110253632
1772563522654223600,0.7732236328125,0.0016518754418939352,0.0010330895893275738,-0.0028140691574662924
1772563522664291800,0.783291748046875,-0.0021079753059893847,0.002007273957133293,0.0019452658016234636
1772563522674359800,0.79335986328125,-0.000682758167386055,0.0027142446488142014,-0.00019163265824317932
1772563522684427800,0.803427734375,0.00017744279466569424,-0.001446145586669445,0.00132450507953763
1772563522694496000,0.81349609375,-0.0006259421352297068,-0.0012976592406630516,0.0005421906244009733
1772563522704564000,0.82356396484375,-0.0023223755415529013,0.003914679400622845,-0.00158061517868191
1772563522714631700,0.833631591796875,-0.000039786333218216896,-0.0001768535003066063,-0.0005685212090611458
1772563522724699600,0.84369970703125,0.00034397514536976814,-0.0021497230045497417,0.00134682422503829
1772563522734767900,0.853767822265625,0.0009479571599513292,-0.0023370315320789814,0.002169876592233777
1772563522744835800,0.8638359375,0.0005325039383023977,0.0020417380146682262,0.0012545480858534575
1772563522754904800,0.87390478515625,-0.0006644839886575937,-0.0004806807264685631,0.0015420988202095032
1772563522764972800,0.883972900390625,0.0003272769972681999,0.0018802115228027105,-0.0013181362301111221
1772563522775040800,0.894040771484375,0.00177860411349684,-0.0016813026741147041,-0.0012295613996684551
1772563522785108700,0.904108642578125,0.00008829566650092602,-0.0010421439073979855,0.001999255269765854
1772563522795176700,0.9141767578125,0.00035552866756916046,-0.000572647899389267,-0.000840057386085391
1772563522805244700,0.92424462890625,0.00278166844509542,0.0006193830631673336,-0.0021386146545410156
1772563522815313000,0.93431298828125,0.00006300816312432289,0.0006830035708844662,-0.0010540962684899569
1772563522825380900,0.944380859375,6.903428584337234e-7,0.013350862078368664,0.015054299496114254
1772563522835448800,0.95444873046875,0.0021659405902028084,-0.07610853016376495,-0.01518224272876978
1772563522845517800,0.964517822265625,0.004180089570581913,-0.17626255750656128,-0.05822371691465378
1772563522855585800,0.974585693359375,0.002789386548101902,-0.13199016451835632,0.01011885330080986
1772563522865653800,0.98465380859375,-0.003659377805888653,0.09147880226373672,0.03152889758348465
1772563522875721700,0.9947216796875,-0.005715031176805496,0.2582707107067108,0.009643256664276123
1772563522885790000,1.0047900390625,-0.005038055591285229,0.1915651559829712,0.009416887536644936
1772563522895858000,1.01485791015625,0.0011779011692851782,-0.01850724220275879,0.013666694983839989
1772563522905925600,1.024925537109375,0.006218998692929745,-0.15309755504131317,-0.014686914160847664
1772563522915993600,1.03499365234375,0.003446020884439349,-0.13119587302207947,-0.021079016849398613
1772563522926061800,1.045061767578125,-0.0003455213736742735,-0.0005848687142133713,-0.005151716526597738
1772563522936129800,1.0551298828125,-0.00212074420414865,0.10304215550422668,0.012596200220286846
1772563522946198800,1.06519873046875,-0.003223026404157281,0.1079799234867096,0.01734115555882454
1772563522956267000,1.07526708984375,0.00010602432303130627,0.022961607202887535,-0.00009230710566043854
1772563522966334700,1.085334716796875,0.003136168932542205,-0.071391262114048,-0.012867490760982037
1772563522976402700,1.095402587890625,0.002878614002838731,-0.09464381635189056,-0.009541420266032219
1772563522986470700,1.105470703125,-0.00034887087531387806,-0.025147035717964172,-0.0005660355091094971
1772563522996539000,1.115538818359375,-0.002205383498221636,0.0638720691204071,0.008161583915352821
1772563523006606800,1.12560693359375,-0.004131648223847151,0.077915720641613,0.0073328083381056786
1772563523016674800,1.1356748046875,-0.0019805096089839935,0.012423962354660034,0.0006836783140897751
1772563523026742800,1.14574267578125,0.0038922931998968124,-0.05462058633565903,-0.0019384698243811727
1772563523036811800,1.155811767578125,0.002189837396144867,-0.05722552165389061,-0.007620606105774641
1772563523046879700,1.165879638671875,-0.0006088786758482456,-0.006966079585254192,-0.003402159083634615
1772563523056947700,1.17594775390625,-0.0038201864808797836,0.043612487614154816,0.003863584715873003
1772563523067016000,1.186015869140625,0.0016866979422047734,0.04358665272593498,0.005096095148473978
1772563523077084000,1.196083984375,-0.0028529581613838673,0.0029633687809109688,0.0023614815436303616
1772563523087151900,1.20615185546875,0.0010829276870936155,-0.035408519208431244,-0.009854171425104141
1772563523097219600,1.216219482421875,0.0031891977414488792,-0.03833824768662453,-0.0012876722030341625
1772563523107287800,1.226287841796875,0.0025705453008413315,-0.0023549445904791355,0.00239175115711987
1772563523117355800,1.236355712890625,-0.002762791933491826,0.03154372423887253,0.004952789284288883
1772563523127423700,1.246423828125,-0.001760644605383277,0.03470196574926376,0.003085380420088768
1772563523137493000,1.256492919921875,0.000929408473894,0.0008167228661477566,-0.004039894789457321
1772563523147561000,1.26656103515625,-0.0007768785580992699,-0.03273218125104904,-0.00361938145942986
1772563523157628700,1.276628662109375,-0.0008426511194556952,-0.03371463343501091,-0.0022107078693807125
1772563523167696600,1.286696533203125,-0.0007422498892992735,-0.003013179637491703,0.0015472786035388708
1772563523177764900,1.296764892578125,0.0014871088787913322,0.024899138137698174,0.0033635159488767385
1772563523187832800,1.306832763671875,0.0006724479608237743,0.032016970217227936,0.005058085545897484
1772563523197900800,1.31690087890625,-0.0014935305807739496,0.008198216557502747,0.0014671275857836008
1772563523207968800,1.32696875,-0.0022954081650823355,-0.019054975360631943,0.0017683312762528658
1772563523218037000,1.337037109375,-0.0008236675057560205,-0.02841421216726303,-0.0028690097387880087
1772563523228104700,1.347104736328125,0.000507913064211607,-0.011449609883129597,-0.0021960288286209106
1772563523238173700,1.357173583984375,0.0004848111420869827,0.012098257429897785,0.0005441289395093918
1772563523248242000,1.367241943359375,-0.002425225218757987,0.023782342672348022,0.00513834785670042
1772563523258310000,1.377309814453125,-0.0001423268113285303,0.013966159895062447,0.0013396937865763903
1772563523268377900,1.3873779296875,0.0006483655888587236,-0.007719694636762142,-0.0018648876575753093
1772563523278445800,1.39744580078125,-0.0009312275797128677,-0.024248789995908737,-0.0010626350995153189
1772563523288513800,1.407513671875,-0.000017763348296284676,-0.01545450184494257,-0.0011060447432100773
1772563523298581800,1.417581787109375,-0.00003213807940483093,0.005201498977839947,0.00015668640844523907
1772563523308649700,1.427649658203125,0.0007492334116250277,0.016652025282382965,0.00471095833927393
1772563523318717700,1.4377177734375,0.0008692031260579824,0.014852942898869514,0.0025354980025440454
1772563523328787000,1.447786865234375,-0.0011292330455034971,0.003125979797914624,0.0013703650329262018
1772563523338855000,1.45785498046875,-0.00023697386495769024,-0.011138807982206345,-0.001085884403437376
1772563523348922600,1.467922607421875,0.001489553484134376,-0.010714299976825714,-0.0025005557108670473
1772563523358990800,1.477990966796875,0.0006349459290504456,0.0009348983876407146,-0.0030550258234143257
1772563523369058800,1.488058837890625,-0.00007265596650540829,0.006956838071346283,0.0006068206857889891
1772563523379126800,1.498126708984375,0.0004294819664210081,0.008793758228421211,0.003648353274911642
1772563523389194800,1.50819482421875,-0.00015534809790551662,0.001457015983760357,-0.0005301465280354023
1772563523399263000,1.518262939453125,0.001075072679668665,-0.0035910559818148613,-0.0006646958645433187
1772563523409331000,1.5283310546875,-0.00009325612336397171,-0.00020005274564027786,-0.0012127743102610111
1772563523419399000,1.53839892578125,-0.0012744355481117964,-0.00015950342640280724,-0.0017006966518238187
1772563523429468000,1.548468017578125,-0.0020478174556046724,0.0032424184028059244,-0.002334795193746686
1772563523439535900,1.558535888671875,-0.0007545549888163805,-0.0005994876846671104,-0.0025779895950108767
1772563523449603800,1.568603759765625,-0.0008048887830227613,-0.001204824075102806,-0.0010575910564512014
1772563523459671800,1.578671875,0.000032874057069420815,0.000468243844807148,-0.0008504290599375963
1772563523469740000,1.588739990234375,-0.0012473075184971094,0.0007412177510559559,0.0007828876841813326
1772563523479807700,1.598807861328125,0.001647883909754455,0.0032660907600075006,0.0029395476449280977
1772563523489875700,1.608875732421875,0.00003427453339099884,-0.000382173340767622,-0.00115399737842381
1772563523499943700,1.618943603515625,-0.0005363356322050095,-0.0032803332433104515,-0.0009040823206305504
1772563523510012000,1.629011962890625,0.0026562619023025036,-0.0036209523677825928,0.0004128508735448122
1772563523520081000,1.639080810546875,-0.0006591395940631628,-0.0036278367042541504,0.0013195781502872705
1772563523530148900,1.64914892578125,-0.00014195358380675316,0.0011818320490419865,0.00007747998461127281
1772563523540216600,1.659216552734375,-0.0004988790024071932,0.004446936305612326,0.0018018449191004038
1772563523550285600,1.66928564453125,0.0015680002979934216,0.0022034896537661552,0.00011952617205679417
1772563523560353800,1.679353759765625,0.0005887597799301147,0.00011796830222010612,0.0030173116829246283
1772563523570421800,1.689421875,-0.00006477977149188519,-0.004572657868266106,0.00014722300693392754
1772563523580489700,1.69948974609375,0.0006837376859039068,-0.005493469536304474,0.0009252866730093956
1772563523590557700,1.7095576171875,0.0017047937726601958,-0.0003221430815756321,-0.0016835457645356655
1772563523600625700,1.719625732421875,0.0010082826483994722,0.0013557467609643936,-0.0009042888414114714
1772563523610693600,1.729693603515625,0.0012290587183088064,0.004776044748723507,-0.003414051840081811
1772563523620762600,1.7397626953125,0.0003192899748682976,0.001519037876278162,0.0017308287788182497
1772563523630830800,1.749830810546875,0.0014735041186213493,-0.004426735453307629,0.0010197649244219065
1772563523640898800,1.75989892578125,-0.001207053428515792,-0.008115390315651894,0.00006916024722158909
1772563523650966500,1.769966552734375,0.0013823378831148148,-0.0035672439262270927,-0.0009396451059728861
1772563523661034500,1.780034423828125,0.00015489081852138042,0.0011500129476189613,0.0024127422366291285
1772563523671102700,1.790102783203125,0.0010971170850098133,0.00608991039916873,-0.0009281935635954142
1772563523681170700,1.800170654296875,-0.00000976421870291233,0.004147746600210667,0.0018775532953441143
1772563523691238700,1.81023876953125,-0.00016103172674775124,-0.0013948245905339718,0.0009608929976820946
1772563523701306600,1.820306640625,0.0013611337635666132,-0.004192386753857136,0.0009498519357293844
1772563523711375600,1.830375732421875,0.001734775141812861,-0.0040536364540457726,-0.0009537755977362394
1772563523721443600,1.840443603515625,0.0021455353125929832,-0.0013591484166681767,-0.0007127756252884865
1772563523731511600,1.850511474609375,-0.0005778130143880844,0.002212150488048792,0.0006315880455076694
1772563523741579800,1.860579833984375,0.0008335395250469446,0.004282619338482618,0.00010381359606981277
1772563523751647700,1.870647705078125,0.0015834857476875186,0.0017038804944604635,0.0013704129960387945
1772563523761715700,1.8807158203125,-0.001585726160556078,0.00004559988155961037,-0.00023443996906280518
1772563523771783700,1.89078369140625,0.002428723033517599,-0.001414611004292965,-0.0022419309243559837
1772563523781851600,1.9008515625,-0.0008213925175368786,-0.0030433526262640953,-0.001652884529903531
1772563523791919600,1.910919677734375,-0.0007739881984889507,-0.0024888822808861732,0.0000051995739340782166
1772563523801987600,1.920987548828125,0.0010743304155766964,-0.00040444545447826385,-0.0026733148843050003
1772563523812056800,1.931056884765625,-0.0017480873502790928,0.0006525632925331593,-0.0009691582527011633
1772563523822124800,1.941124755859375,-0.0012713761534541845,0.0027333791367709637,0.0023225669283419847
1772563523832192800,1.95119287109375,0.000023985514417290688,0.00319224176928401,-0.002227976219728589
1772563523842260500,1.961260498046875,-0.0010707392357289791,-0.0012615779414772987,0.0021335368510335684
1772563523852328700,1.97132861328125,-0.0021045785397291183,-0.0027316431514918804,0.00008529960177838802
1772563523862396700,1.981396728515625,0.0035929700825363398,-0.0021091350354254246,-0.002396468771621585
1772563523872464600,1.991464599609375,0.002251802012324333,0.0011867934372276068,0.0006845423486083746
1772563523882532600,2.00153271484375,0.00141349365003407,0.0003626542165875435,-0.0004467794205993414
1772563523892600800,2.011600830078125,0.00024223537184298038,0.0025754745583981276,0.0001212728675454855
1772563523902669600,2.021669677734375,0.00010817497968673706,0.00008941395208239555,0.0009377694223076105
1772563523912737500,2.031737548828125,0.0008280274923890829,0.0006998102180659771,-0.001432444085367024
1772563523922805800,2.0418056640625,0.00015786150470376015,-0.0018283678218722343,0.00023939646780490875
1772563523932873700,2.051873779296875,0.0017767971148714423,-0.002201742958277464,0.0007323476020246744
1772563523942941700,2.061941650390625,-0.0016987917479127645,-0.001551428809762001,0.0011901583056896925
1772563523953009700,2.072009765625,0.00045357528142631054,0.0018475637771189213,-0.0033127146307379007
1772563523963078000,2.082077880859375,0.00044206506572663784,-0.0007462278008460999,0.0008678128942847252
1772563523973145600,2.0921455078125,-0.0009230710566043854,0.001461000181734562,-0.0007838797755539417
1772563523983213600,2.102213623046875,-0.00013133371248841286,0.0006957463920116425,0.00122630107216537
1772563523993281500,2.112281494140625,-0.00023200130090117455,0.00017296802252531052,-0.0003055492416024208
1772563524003350800,2.122350830078125,-0.0009714378975331783,-0.0025370647199451923,0.00087382597848773
1772563524013418800,2.132418701171875,-0.0016020741313695908,-0.0036958055570721626,0.0026805144734680653
1772563524023486700,2.14248681640625,0.00014859135262668133,0.0005834694020450115,0.0032101310789585114
1772563524033554400,2.152554443359375,-0.00034329434856772423,0.0007706894539296627,-0.002354810480028391
1772563524043622700,2.16262255859375,-0.0007524110842496157,0.0017654981929808855,0.000004407251253724098
1772563524053690600,2.172690673828125,-0.0012618738692253828,-0.000014824792742729187,-0.005252406001091003
1772563524063758600,2.182758544921875,0.0005954960361123085,-0.0026740198954939842,0.0005243264604359865
1772563524073826800,2.192826904296875,-0.0012207799591124058,-0.0026742862537503242,-0.0003824797458946705
1772563524083894800,2.202894775390625,-0.0011289357207715511,0.0010520773939788342,0.0005326897371560335
1772563524093963500,2.212963623046875,-0.00027485983446240425,-0.0005578030832111835,0.00017635896801948547
1772563524104031500,2.223031494140625,-0.0008622491732239723,0.0014248318038880825,0.0030572402756661177
1772563524114099700,2.233099609375,-0.0011498704552650452,0.0006447918713092804,0.002096904208883643
1772563524124167700,2.243167724609375,-0.0004534265026450157,-0.0007577184587717056,0.001416508574038744
1772563524134235600,2.253235595703125,0.0005868042353540659,-0.0008479994721710682,0.00091210613027215
1772563524144303600,2.2633037109375,0.00007797242142260075,-0.002369118854403496,0.00012026075273752213
1772563524154371800,2.273371826171875,0.0014068898744881153,-0.0014593829400837421,0.0009636839386075735
1772563524164439600,2.283439453125,-0.00046242796815931797,-0.000987953506410122,-0.0007935999892652035
1772563524174507500,2.293507568359375,-0.00021768338046967983,0.0018661562353372574,-0.001497739809565246
1772563524184575500,2.303575439453125,-0.00011449772864580154,0.003367119003087282,0.003262933576479554
1772563524194644700,2.313644775390625,-0.00132277375087142,0.0016134274192154408,0.00018165609799325466
1772563524204712700,2.323712646484375,-0.0009966329671442509,-0.0002843160182237625,0.00028244988061487675
1772563524214780700,2.33378076171875,-0.0020895940251648426,-0.0012411894276738167,-0.00013273698277771473
1772563524224848600,2.3438486328125,-0.0014333310537040234,-0.0014077220112085342,0.002408913802355528
1772563524234916600,2.35391650390625,0.0009379473049193621,0.002112177899107337,-0.0000015133991837501526
1772563524244984600,2.363984619140625,-0.00019712699577212334,0.001178667414933443,0.0008831631857901812
1772563524255052500,2.374052490234375,0.001716620521619916,0.002790412399917841,-0.0038071961607784033
1772563524265120800,2.384120849609375,0.0003297845833003521,0.0009944741614162922,0.00036697229370474815
1772563524275188700,2.394188720703125,0.0005028899759054184,-0.0014798687770962715,-0.0018762083491310477
1772563524285257500,2.404257568359375,0.0017766938544809818,-0.00028804875910282135,-0.0009892042726278305
1772563524295325700,2.41432568359375,0.000269078416749835,-0.001981819048523903,-0.0003859985154122114
1772563524305393700,2.4243935546875,-0.00007789209485054016,-0.00025605782866477966,0.0036526061594486237
1772563524315461600,2.434461669921875,0.0023389265406876802,-0.00019347388297319412,0.0026280879974365234
1772563524325529600,2.444529541015625,0.002754969522356987,0.0004733232781291008,-0.00042756577022373676
1772563524335597800,2.454597900390625,-0.0004852984566241503,-0.0012308331206440926,0.0018084244802594185
1772563524345665800,2.464665771484375,-0.00010586273856461048,-0.001262870617210865,0.0006834431551396847
1772563524355733800,2.474733642578125,-0.0012608759570866823,-0.00010945554822683334,-0.0004254973027855158
1772563524365801500,2.484801513671875,0.0019951541908085346,0.0032568802125751972,-0.002015279605984688
1772563524375869700,2.49486962890625,0.001061716116964817,-0.00008831638842821121,-0.0010448237881064415
1772563524385938700,2.504938720703125,0.00023083598352968693,0.0006899242289364338,0.0009292459581047297
1772563524396006700,2.515006591796875,0.002010626718401909,0.0020452067255973816,0.0026302069891244173
1772563524406075000,2.525074951171875,-0.0001423289068043232,0.0014661147724837065,-0.0005758702754974365
1772563524416142600,2.535142578125,0.0008046911098062992,-0.000024722889065742493,-0.001457376522012055
1772563524426210600,2.54521044921875,0.00043116742745041847,-0.001507891807705164,-0.0017173843225464225
1772563524436278500,2.555278564453125,-0.0007259759586304426,-0.0006122710183262825,-0.002388234483078122
1772563524446346800,2.5653466796875,-0.0013232999481260777,-0.00020967889577150345,-0.002421046607196331
1772563524456414700,2.575414794921875,0.0007752708625048399,0.0010803560726344585,0.00013239216059446335
1772563524466482700,2.585482666015625,0.0026678070425987244,0.0007664491422474384,0.0003606060054153204
1772563524476551700,2.5955517578125,0.0010858892928808928,0.0012133275158703327,-0.0006703035905957222
1772563524486619600,2.60561962890625,0.0005607139319181442,0.0004564570263028145,-0.0017640638398006558
1772563524496687600,2.6156875,0.002109743654727936,-0.0010326635092496872,-0.0018690871074795723
1772563524506755600,2.625755615234375,0.002395277377218008,-0.002725786529481411,-0.0032624707091599703
1772563524516823800,2.63582373046875,-0.0008516486268490553,0.0011669555678963661,-0.0009172910358756781
1772563524526891800,2.645891845703125,-0.0021830820478498936,0.0005709188990294933,0.0020263968035578728
1772563524536959700,2.655959716796875,-0.00008344603702425957,0.0020670825615525246,0.0016508912667632103
1772563524547027700,2.66602783203125,0.001495893346145749,-0.0016325153410434723,0.0011904400307685137
1772563524557095000,2.676094970703125,-0.0002665866632014513,0.0012674005702137947,0.00003809039480984211
1772563524567163000,2.686162841796875,-0.0010481765493750572,-0.003670752514153719,-0.0012999179307371378
1772563524577232000,2.69623193359375,0.0021164575591683388,-0.0018235836178064346,0.0009991892147809267
1772563524587299800,2.7062998046875,-0.0002980895806103945,-0.0006677689962089062,-0.00026597059331834316
1772563524597368000,2.7163681640625,-0.0019375316333025694,-0.0005516549572348595,-0.0009003353770822287
1772563524607436000,2.72643603515625,-0.00015854835510253906,-0.00016829464584589005,0.0011005531996488571
1772563524617504000,2.73650390625,-0.0010879917535930872,-0.0006695017218589783,-0.000046203844249248505
1772563524627571700,2.74657177734375,0.0015689226565882564,-0.0023795231245458126,0.00039294036105275154
1772563524637640000,2.756639892578125,0.0022624097764492035,-0.0014141271822154522,-0.0028651708271354437
1772563524647708000,2.7667080078125,-0.00035814731381833553,-0.0008973740041255951,0.0012373111676424742
1772563524657775900,2.77677587890625,-0.0019350051879882812,-0.0007354537956416607,-0.000839954474940896
1772563524667845000,2.78684521484375,0.0006528596859425306,0.001811209600418806,0.00017056381329894066
1772563524677912800,2.796912841796875,-0.0005735261365771294,0.0008612601086497307,0.0012640575878322124
1772563524687980800,2.806980712890625,0.0017291961703449488,0.0006975545547902584,0.003079248359426856
1772563524698048800,2.817048828125,-0.00015552295371890068,-0.0001607821322977543,-0.003517135512083769
1772563524708117000,2.827116943359375,-0.0012477913405746222,-0.0013608993031084538,0.0012492402456700802
1772563524718185000,2.83718505859375,-0.0006778745446354151,-0.0008261362090706825,0.00003537139855325222
1772563524728253000,2.8472529296875,0.00048753898590803146,-0.0003437804989516735,-0.001170262461528182
1772563524738321000,2.85732080078125,0.0022694598883390427,0.0023084618151187897,0.00023854966275393963
1772563524748389000,2.86738916015625,0.000575781799852848,0.0006766053847968578,0.00031549064442515373
1772563524758457900,2.877457763671875,-0.001902023097500205,-0.0014715003781020641,-0.0006243390962481499
1772563524768525800,2.88752587890625,-0.000049043213948607445,-0.00005355989560484886,-0.0009910778608173132
1772563524778594000,2.897593994140625,-0.0013196375221014023,0.0021382214035838842,0.00022785109467804432
1772563524788662000,2.907662109375,-0.00007930677384138107,-0.000255014281719923,-0.00144754140637815
1772563524798730000,2.91772998046875,-0.0023022470995783806,0.0012209094129502773,-0.0014368887059390545
1772563524808798000,2.9277978515625,0.00028362940065562725,-0.000514637678861618,-0.0007443358190357685
1772563524818866000,2.937865966796875,-0.00009986571967601776,0.0003096107393503189,0.002328951843082905
1772563524828934000,2.947933837890625,0.0012631064746528864,-0.0016888948157429695,0.0011663767509162426
1772563524839001900,2.958001953125,0.000966962892562151,-0.001005527563393116,-0.0003494946286082268
1772563524849069800,2.96806982421875,-0.002029637573286891,-0.0005651703104376793,0.0007044831290841103
1772563524859138000,2.978137939453125,0.0005435089115053415,-0.0009806230664253235,-0.0018502870807424188
1772563524869206800,2.988206787109375,0.0018614281434565783,-0.0008490108884871006,0.00003838934935629368
1772563524879274800,2.998274658203125,-0.0007817593868821859,-0.0008064000867307186,0.0026283133774995804
1772563524889343000,3.008343017578125,-0.000662702601402998,0.001352360937744379,0.0004110389854758978
1772563524899411000,3.018410888671875,-0.0021444852463901043,0.0016980392392724752,-0.00002891523763537407
1772563524909479000,3.02847900390625,-0.0004789866507053375,-0.0009476020932197571,0.0015512267127633095
1772563524919547000,3.038546875,0.0006339482497423887,-0.0011910153552889824,-0.0020126153249293566
1772563524929615000,3.048614990234375,0.0008412604220211506,-0.001323401927947998,0.000769397709518671
1772563524939683000,3.05868310546875,-0.0001390492543578148,0.0010702474974095821,0.0011603501625359058
1772563524949750800,3.068750732421875,0.0009132209233939648,0.0007454250007867813,-0.001928659388795495
1772563524959820000,3.078820068359375,-0.00020024669356644154,0.00005140528082847595,0.0013251907657831907
1772563524969888000,3.088887939453125,-0.0006723394617438316,0.0009568128734827042,-0.0013961705844849348
1772563524979956000,3.0989560546875,0.00001795194111764431,-0.0008139228448271751,-0.001983397640287876
1772563524990024000,3.10902392578125,0.0008477771189063787,-0.0016194912604987621,-0.0021025040186941624
1772563525000092000,3.119091796875,-0.0010132396128028631,0.0005656327120959759,-0.004692960996180773
1772563525010159900,3.129159912109375,0.000007395632565021515,-0.0016691284254193306,0.0018211824353784323
1772563525020227800,3.139227783203125,-0.0012996839359402657,0.0022425225470215082,0.0010467355605214834
1772563525030295800,3.1492958984375,0.00030402233824133873,0.0012795999646186829,-0.0018889870261773467
1772563525040364000,3.159364013671875,0.000011607306078076363,-0.001169176772236824,0.00017496268264949322
1772563525050432000,3.169431884765625,0.00016342243179678917,-0.0012071817182004452,0.000032964395359158516
1772563525060500700,3.179500732421875,-0.00009756721556186676,-0.0018521994352340698,-0.0003273612819612026
1772563525070569000,3.18956884765625,-0.00009305565617978573,0.001317240297794342,0.0016333968378603458
1772563525080637000,3.199636962890625,-0.0009591158013790846,-0.0025193095207214355,0.0014126207679510117
1772563525090705000,3.209704833984375,-0.0002144437748938799,0.0007585217244923115,0.00013599381782114506
1772563525100772900,3.21977294921875,0.0020979787223041058,0.001965466421097517,0.0005216195713728666
1772563525110841000,3.229841064453125,-0.000741871539503336,0.0005517741665244102,0.00028882594779133797
1772563525120909000,3.239908935546875,0.0017194220563396811,-0.0002783332020044327,0.0015232013538479805
1772563525130977000,3.24997705078125,0.000458291033282876,0.00040118955075740814,0.0019244560971856117
1772563525141044700,3.260044677734375,0.0005730732809752226,-0.0017200182192027569,0.002648303285241127
1772563525151114000,3.270114013671875,0.0005093759391456842,-0.000155674759298563,0.001480588223785162
1772563525161182000,3.280181884765625,-0.00022485759109258652,-0.001774344127625227,0.0010616728104650974
1772563525171250000,3.29025,-0.00003539165481925011,0.001081074122339487,0.0011869745794683695
1772563525181318000,3.30031787109375,-0.0017430104780942202,0.0013316776603460312,-0.0013132010353729129
1772563525191386000,3.31038623046875,-0.0008421705570071936,0.0014390628784894943,-0.004558187909424305
1772563525201453800,3.320453857421875,0.0007085881661623716,-0.0005910648033022881,0.0014435118064284325
1772563525211521800,3.330521728515625,-0.00047905067913234234,-0.000287751667201519,-0.0011538940016180277
1772563525221590000,3.340590087890625,0.00010418146848678589,-0.001355146523565054,-0.00096480967476964
1772563525231658000,3.350657958984375,-0.0010067943949252367,-0.000606792513281107,-0.000865421025082469
1772563525241726000,3.360725830078125,-0.0006246308330446482,-0.00019373605027794838,0.0006789460312575102
1772563525251794700,3.370794677734375,0.002608060836791992,0.001476920209825039,0.002560205291956663
1772563525261863000,3.38086279296875,0.0006623552180826664,0.0004382873885333538,0.0011639101430773735
1772563525271931000,3.390930908203125,-0.0005523159634321928,-0.0017574625089764595,-0.001739119878038764
1772563525281998800,3.400998779296875,-0.00036616111174225807,0.000474798958748579,0.0015466881450265646
1772563525292066800,3.41106689453125,0.0018106966745108366,0.0009360481053590775,0.0020348369143903255
1772563525302135000,3.421135009765625,0.002070088405162096,0.000019387807697057724,0.0009019281715154648
1772563525312203000,3.431203125,-0.00026557454839348793,0.00031369877979159355,-0.00030279182828962803
1772563525322271000,3.44127099609375,0.001992519712075591,0.0011283596977591515,0.00047991122119128704
1772563525332338700,3.451338623046875,-0.00026932405307888985,-0.0015257247723639011,0.0014915070496499538
1772563525342408000,3.461407958984375,0.0021243251394480467,0.0009563416242599487,-0.0019298559054732323
1772563525352476000,3.471475830078125,-0.000552621902897954,0.0015439356211572886,0.0004084012471139431
1772563525362543900,3.4815439453125,-0.00018989923410117626,-0.0006814016960561275,-0.0030244134832173586
1772563525372612000,3.491612060546875,0.002361612394452095,-0.0012052110396325588,0.001405453309416771
1772563525382680000,3.50168017578125,0.0010207106824964285,-0.0009415578097105026,0.0017010639421641827
1772563525392747800,3.511747802734375,-0.000244959257543087,-0.0004742452874779701,0.0009638478513807058
1772563525402815700,3.521815673828125,0.0003782203420996666,0.00007782783359289169,0.00243311352096498
1772563525412884000,3.531884033203125,0.0003487167414277792,-0.0011422708630561829,0.0015070366207510233
1772563525422952000,3.541951904296875,-0.0006427783519029617,0.001951789716258645,0.00009156623855233192
1772563525433020000,3.55202001953125,0.001414623809978366,0.0018420042470097542,-0.0016056119929999113
1772563525443089000,3.5620888671875,-0.0023875711485743523,-0.0022366270422935486,0.00137260090559721
1772563525453156900,3.572156982421875,0.00032494356855750084,0.0007275878451764584,0.00009938818402588367
1772563525463224800,3.582224853515625,0.0012666373513638973,-0.000539011787623167,-0.003731835400685668
1772563525473292800,3.592292724609375,-0.00008040177635848522,0.00008973153308033943,0.0027847052551805973
1772563525483361000,3.602361083984375,-0.0018873566295951605,0.0008798916824162006,0.0020233076065778732
1772563525493429000,3.612428955078125,-0.0008785540703684092,0.0005572140216827393,0.0017808594275265932
1772563525503497000,3.6224970703125,0.0000058817677199840546,0.000040294136852025986,-0.0014098737156018615
1772563525513565000,3.63256494140625,0.00032551493495702744,-0.0000027944333851337433,-0.00003334321081638336
1772563525523633000,3.6426328125,-0.0021885090973228216,0.0001900182105600834,0.0013826594222337008
1772563525533702000,3.652701904296875,0.0004974771291017532,0.00006578490138053894,0.001284735044464469
1772563525543769900,3.662769775390625,0.0006538047455251217,-0.0028794053941965103,-0.0027254526503384113
1772563525553838300,3.67283837890625,0.0016784498002380133,0.0010224515572190285,-0.0003351548220962286
1772563525563906300,3.68290625,-0.0008132036309689283,0.0008469489403069019,-0.00005898508243262768
1772563525573974000,3.69297412109375,-0.0019558314234018326,0.001075089443475008,0.0025014819111675024
1772563525584042200,3.703042236328125,0.0004255669191479683,0.00014671171084046364,-0.0013182901311665773
1772563525594110200,3.713110107421875,-0.000855195801705122,-0.000048397574573755264,0.0002480417024344206
1772563525604178200,3.72317822265625,0.0013722722651436925,0.0001814332790672779,0.0007955874316394329
1772563525614246100,3.73324609375,0.0008552568033337593,0.00020535476505756378,-0.0026564705185592175
1772563525624314400,3.743314453125,-0.0011554297525435686,-0.000027671921998262405,-0.00018372549675405025
1772563525634383000,3.753383056640625,0.0013891411945223808,-0.0004790886305272579,0.00023768027313053608
1772563525644451000,3.763451171875,0.0005158907733857632,-0.0006346176378428936,-0.0014592859661206603
1772563525654519300,3.773519287109375,0.00237149465829134,-0.000918481033295393,-0.0031451769173145294
1772563525664587300,3.783587158203125,0.0005741270724684,-0.00038025621324777603,0.002095391508191824
1772563525674655200,3.7936552734375,-0.0017735373694449663,-0.0017593838274478912,0.0019488951656967402
1772563525684723200,3.80372314453125,-0.0003663229290395975,0.002216183114796877,-0.003606991609558463
1772563525694791400,3.81379150390625,-0.0008940994739532471,0.0016380846500396729,-0.0013223584974184632
1772563525704859100,3.823859130859375,-0.0019223461858928204,-0.0019286870956420898,0.00022147595882415771
1772563525714927000,3.833927001953125,-0.000730377621948719,-0.0011768992990255356,-0.001915247761644423
1772563525724995000,3.8439951171875,-0.0014584856107831001,-0.0020522805862128735,0.000045637600123882294
1772563525735064300,3.854064208984375,-0.0004474320448935032,0.0004376368597149849,-0.0010748179629445076
1772563525745132300,3.86413232421875,0.000945401145145297,0.00042298948392271996,-0.0013001213083043694
1772563525755200300,3.8742001953125,0.00032000383362174034,-0.0012329821474850178,-0.0013712095096707344
1772563525765268200,3.884268310546875,-0.0007077099289745092,0.001238697674125433,0.0002980597782880068
1772563525775336200,3.894336181640625,-0.0008074520155787468,0.0011127828620374203,0.00025392253883183
1772563525785404200,3.904404052734375,-0.0022309115156531334,0.0009569879621267319,0.0032691534142941236
1772563525795472100,3.91447216796875,-0.0036011531483381987,-0.0007150964811444283,0.001543282764032483
1772563525805540400,3.924540283203125,0.0010593789629638195,-0.0017105862498283386,0.0006705650594085455
1772563525815608300,3.9346083984375,-0.0013075058814138174,0.00033995090052485466,0.002282731933519244
1772563525825677000,3.944677001953125,-0.0010363960172981024,-0.0002155844122171402,-0.003112566191703081
1772563525835745000,3.9547451171875,-0.0007358328439295292,-0.0013581514358520508,-0.0002137275878340006
1772563525845813200,3.964813232421875,-0.0017811236903071404,0.00026611052453517914,0.0021652739960700274
1772563525855881200,3.974881103515625,0.0006129853427410126,-0.0006852890364825726,0.0018787023145705462
1772563525865949200,3.98494921875,0.00012642564252018929,0.0010162047110497952,0.0005852046888321638
1772563525876017400,3.995017333984375,0.001673598773777485,-0.0013782293535768986,0.0029910732991993427
1772563525886085400,4.00508544921875,0.0006376290693879128,0.003281503450125456,-0.0003029908984899521
1772563525896153000,4.015153076171875,0.00042618950828909874,-0.002231215126812458,0.00005968427285552025
1772563525906221000,4.025220947265625,-0.0006803537253290415,-0.00009216414764523506,0.0008831336162984371
1772563525916289300,4.035289306640625,-0.0007138457149267197,-0.0010552885942161083,-0.000780981034040451
1772563525926357200,4.045357177734375,0.0006132074631750584,-0.0008041523396968842,-0.001039307564496994
1772563525936426200,4.05542626953125,-0.00019855261780321598,-0.00024040509015321732,0.0021055717952549458
1772563525946494200,4.065494140625,0.0009785646107047796,0.0011359164491295815,-0.002440976444631815
1772563525956562200,4.075562255859375,-0.0010655056685209274,-0.0006946739740669727,0.0034960240591317415
1772563525966630100,4.085630126953125,0.00018937583081424236,-0.00037615979090332985,-0.0014790272107347846
1772563525976698000,4.095697998046875,0.0012781983241438866,0.002648269757628441,0.0015200534835457802
1772563525986766000,4.10576611328125,-0.0000035811681300401688,0.0014573042280972004,-0.0007074146997183561
1772563525996834300,4.115834228515625,0.0008465072605758905,0.001101135741919279,-0.001494629424996674
1772563526006902300,4.12590234375,0.0006049585063010454,0.00010671140626072884,-0.0012349712196737528
1772563526016970200,4.13597021484375,-0.0014138317201286554,-0.0014093085192143917,0.001242488855496049
1772563526027039200,4.146039306640625,0.000024541746824979782,-0.0015608426183462143,0.0018118724692612886
1772563526037107200,4.156107177734375,0.0014158885460346937,0.00019945204257965088,0.00047004735097289085
1772563526047175200,4.166175048828125,-0.0005548505578190088,-0.0005377107299864292,0.0009978858288377523
1772563526057243100,4.1762431640625,0.0004855648148804903,-0.0004155864007771015,0.0034235073253512383
1772563526067311400,4.186311279296875,0.00011112447828054428,-0.0007705860771238804,0.00129697285592556
1772563526077379300,4.19637939453125,-0.0010846806690096855,-0.0011039883829653263,-0.0012364762369543314
1772563526087447000,4.206447021484375,-0.0011153067462146282,-0.00036735786125063896,0.0013854056596755981
1772563526097515000,4.216514892578125,-0.00005942629650235176,-0.0017116190865635872,0.0007004730869084597
1772563526107583200,4.226583251953125,-0.0007987197022885084,0.001583510311320424,-0.0011272542178630829
1772563526117651200,4.236651123046875,-0.0008118702098727226,0.001594393514096737,0.0006803430151194334
1772563526127720200,4.24672021484375,0.0033450578339397907,-0.00010550208389759064,0.0005527776665985584
1772563526137788400,4.256788330078125,0.0023904338013380766,-0.0018351394683122635,-0.00029324833303689957
1772563526147856100,4.266856201171875,0.001377367414534092,0.0008591804653406143,-0.0002650190144777298
1772563526157924000,4.276924072265625,-0.0013022441416978836,-0.0000024959444999694824,0.00012942892499268055
1772563526167992000,4.286991943359375,-0.0023930747993290424,-0.0008786758407950401,0.0014610097277909517
1772563526178060300,4.297060302734375,0.0005388797726482153,0.0003166664391756058,-0.0022150937002152205
1772563526188128300,4.307128173828125,-0.0006907018832862377,0.0005667372606694698,0.0012278410140424967
1772563526198196200,4.3171962890625,-0.0014535621739923954,-0.0008871895261108875,0.0015822607092559338
1772563526208264200,4.32726416015625,-0.0013052243739366531,-0.001563366036862135,-0.0015464207390323281
1772563526218332400,4.33733251953125,0.0004645157605409622,-0.0010971669107675552,0.00023861671797931194
1772563526228401200,4.347401123046875,0.0025566949043422937,0.0011867599096149206,-0.0014516916126012802
1772563526238469000,4.35746923828125,-0.0012785482686012983,0.00043542683124542236,0.000707193510606885
1772563526248537300,4.367537353515625,-0.0006055671256035566,-0.0000692424364387989,0.0015514155384153128
1772563526258605300,4.377605224609375,-0.0003951205871999264,-0.0010236711241304874,-0.0009881118312478065
1772563526268673300,4.38767333984375,0.0008544344455003738,0.0004051150754094124,-0.0022310090716928244
1772563526278741200,4.3977412109375,0.002551114885136485,-0.0004779514856636524,0.0005193310789763927
1772563526288809200,4.407809326171875,0.00228053773753345,-0.0006087124347686768,0.0019047076348215342
1772563526298877200,4.417877197265625,-0.0014230185188353062,-0.0018616397865116596,0.0013319090940058231
1772563526308945200,4.427945068359375,-0.00045922049321234226,-0.0001742606982588768,0.0008354955352842808
1772563526319014400,4.438014404296875,-0.00015617022290825844,-0.000024357344955205917,-0.0034933581482619047
1772563526329082400,4.448082275390625,0.0011557030957192183,0.0013130821753293276,0.00004891236312687397
1772563526339150000,4.458150146484375,-0.0014218979049474,-0.0025967564433813095,0.0013296040706336498
1772563526349218000,4.468218017578125,-0.0004631597548723221,-0.0014350851997733116,-0.0008480625692754984
1772563526359286300,4.478286376953125,-0.0006410107016563416,0.0021439124830067158,0.0009966592770069838
1772563526369354200,4.488354248046875,-0.0008253012783825397,-0.0006417538970708847,0.0010752228554338217
1772563526379422200,4.498422119140625,0.0005055863875895739,-0.0004989160224795341,-0.000057879602536559105
1772563526389490200,4.508490234375,-0.0002656651195138693,0.003399152774363756,-0.001533004455268383
1772563526399558400,4.518558349609375,-0.002029240131378174,-0.0011544073931872845,0.0023657619021832943
1772563526409626400,4.52862646484375,0.000862953020259738,-0.0011264439672231674,-0.0011022065300494432
1772563526419694000,4.538694091796875,-0.00035932869650423527,0.00027675507590174675,-0.0018569427775219083
1772563526429763300,4.548763427734375,-0.0011577443219721317,-0.0011672107502818108,0.002165761776268482
1772563526439831300,4.558831298828125,-0.00010725576430559158,0.0011653422843664885,-0.0019120490178465843
1772563526449899300,4.568899169921875,0.0007031443528831005,-0.0016397652216255665,-0.0003618230111896992
1772563526459967200,4.57896728515625,0.00023048673756420612,-0.0007582595571875572,0.00027960073202848434
1772563526470035200,4.58903515625,-0.0008307830430567265,0.002762173069640994,-0.0006117592565715313
1772563526480103200,4.599103271484375,-0.0017755625303834677,0.0011420163791626692,0.004808902740478516
1772563526490171100,4.609171142578125,0.0003725432325154543,0.001067447941750288,0.002504735952243209
1772563526500239000,4.619239013671875,0.00018240814097225666,0.0009632487781345844,-0.00035311817191541195
1772563526510307300,4.629307373046875,-0.0012796674855053425,0.0007155747152864933,0.0007912421133369207
1772563526520376300,4.639376220703125,-0.0005827667191624641,-0.00010133208706974983,-0.000576996011659503
1772563526530444000,4.649444091796875,-0.0004911539144814014,0.0009436924010515213,-0.00005288585089147091
1772563526540512300,4.65951220703125,0.0002273872960358858,-0.0016519362106919289,-0.00030059064738452435
1772563526550580200,4.669580322265625,0.00043111899867653847,-0.00034219352528452873,0.0016978452913463116
1772563526560649000,4.67964892578125,0.00018761912360787392,-0.0005597984418272972,-0.001933578634634614
1772563526570717000,4.689717041015625,0.0009341032709926367,-0.0013704649172723293,-0.002341042272746563
1772563526580785200,4.69978515625,-0.0022931923158466816,-0.0014108335599303246,-0.0001276121474802494
1772563526590852900,4.709852783203125,0.0003025906626135111,0.0006291479803621769,0.0009549628011882305
1772563526600920800,4.7199208984375,-0.001385990297421813,-0.001729902345687151,-0.00028714933432638645
1772563526610988800,4.72998876953125,0.0004840814508497715,0.00024136947467923164,0.0018881203141063452
1772563526621058000,4.74005810546875,0.0005718187894672155,0.002250392222777009,-0.0007838169112801552
1772563526631126000,4.7501259765625,-0.0021904120221734047,-0.0018295706249773502,-0.0004570470191538334
1772563526641194000,4.760194091796875,0.0020222370512783527,0.0000872630625963211,0.0018663140945136547
1772563526651261700,4.77026171875,-0.0019322906155139208,0.0009272242896258831,0.0006577714812010527
1772563526661330000,4.780329833984375,0.0010777399875223637,-0.00024177134037017822,0.00011921394616365433
1772563526671398000,4.79039794921875,-0.0012248293496668339,0.00102562690153718,-0.0017053177580237389
1772563526681465900,4.8004658203125,-0.0018045958131551743,0.0001476122997701168,0.0009088630322366953
1772563526691534000,4.8105341796875,-0.0014493302442133427,-0.000711789820343256,0.00045532663352787495
1772563526701602000,4.82060205078125,-0.002408263273537159,-0.0010660625994205475,-0.0025588804855942726
1772563526711670000,4.830669921875,0.00011028815060853958,0.00047510862350463867,-0.000350054819136858
1772563526721738800,4.84073876953125,0.0005524898879230022,-0.0026367041282355785,0.0003370626363903284
1772563526731807000,4.850806884765625,-0.0012049302458763123,-0.0016420134343206882,0.00482448935508728
1772563526741875000,4.860875,-0.000391628360375762,-0.0008133314549922943,0.0005439906381070614
1772563526751943000,4.87094287109375,-0.0006768528837710619,0.00032064272090792656,0.0014513295609503984
1772563526762011000,4.881010986328125,-0.00042633828707039356,-0.00009447615593671799,-0.0008132383227348328
1772563526772079000,4.8910791015625,0.001298058545216918,0.00214231270365417,0.0012192863505333662
1772563526782146800,4.901146728515625,0.0015157560119405389,0.0006308411248028278,-0.0033151356037706137
1772563526792214800,4.91121484375,-0.00013673538342118263,-0.001302347518503666,0.0012399349361658096
1772563526802282800,4.92128271484375,-0.00045849476009607315,0.0019461973570287228,0.0032359568867832422
1772563526812351000,4.93135107421875,0.0017308898968622088,-0.00023972522467374802,-0.00020324927754700184
1772563526822420000,4.941419921875,-0.001040886389091611,-0.0014419704675674438,0.00041188299655914307
1772563526832488000,4.951488037109375,0.0014640830922871828,0.00019107991829514503,-0.00075724464841187
1772563526842556000,4.961555908203125,0.001396797364577651,-0.0014704111963510513,-0.000491320388391614
1772563526852624000,4.971623779296875,-0.0008133598603308201,-0.0013319267891347408,0.00007140566594898701
1772563526862691800,4.98169189453125,-0.0007152366451919079,-0.0011409237049520016,0.0038946010172367096
1772563526872759800,4.991759765625,0.0004791913088411093,-0.00044211000204086304,0.0011936230584979057
1772563526882828000,5.001828125,0.0009799476247280836,0.00023401109501719475,-0.00361935468390584
1772563526892896000,5.01189599609375,-0.000483193201944232,0.0011655851267278194,0.0011897813528776169
1772563526902964000,5.0219638671875,-0.002010769210755825,-0.00032158149406313896,-0.0010061496868729591
1772563526913031000,5.032031005859375,-0.002197456546127796,-0.0015812567435204983,-0.0013022931525483727
1772563526923099100,5.04209912109375,0.00018590898253023624,-0.002580048982053995,-0.0005699505563825369
1772563526933167000,5.0521669921875,0.0013294701930135489,0.002204586286097765,0.00045696436427533627
1772563526943234800,5.06223486328125,-0.0013716688845306635,0.00002038991078734398,0.0002239122986793518
1772563526953302800,5.072302734375,0.0009293023031204939,0.0010172110050916672,-0.0002677072770893574
1772563526963371000,5.08237109375,-0.00020464765839278698,0.0003991038538515568,-0.001313012675382197
1772563526973439000,5.09243896484375,0.0014917858643457294,0.000031587667763233185,0.0027054313104599714
1772563526983508000,5.102508056640625,-0.0010019666515290737,0.002247154712677002,0.0016041952185332775
1772563526993576000,5.112575927734375,-0.0023681684397161007,0.0010679070837795734,-0.0009559013415127993
1772563527003644000,5.122643798828125,0.001392387435771525,-0.0015249554999172688,-0.0014000574592500925
1772563527013712000,5.1327119140625,0.00008344370871782303,0.000006095971912145615,0.00009291060268878937
1772563527023779800,5.14277978515625,0.0022601927630603313,-0.0004619513638317585,0.0005466626025736332
1772563527033847800,5.152847900390625,-0.002162252552807331,-0.0007429146207869053,-0.0010941107757389545
1772563527043916000,5.162916015625,0.0001790586393326521,-0.00016790488734841347,-0.0031184027902781963
1772563527053984000,5.17298388671875,0.0026012035086750984,0.00019801314920186996,0.0005202740430831909
1772563527064052000,5.183052001953125,-0.0013101811055094004,0.0015485023614019156,0.0001322515308856964
1772563527074119700,5.19311962890625,0.0027147619985044003,-0.0017576226964592934,-0.0017292394768446684
1772563527084189000,5.20318896484375,-0.00014219246804714203,-0.0009110532701015472,-0.0009420744609087706
1772563527094257000,5.2132568359375,0.0010860573966056108,-0.00038055144250392914,-0.00005444302223622799
1772563527104324900,5.223324951171875,0.0009372429922223091,-0.0032229144126176834,0.0005075505468994379
1772563527114393000,5.23339306640625,-0.0011794371530413628,-0.0007978398352861404,0.002530221361666918
1772563527124461000,5.2434609375,0.0017276426078751683,-0.0011785398237407207,0.0014538629911839962
1772563527134528800,5.25352880859375,-0.000019923551008105278,0.0003136293962597847,-0.0015680256765335798
1772563527144596700,5.2635966796875,-0.0015807515010237694,-0.0009042955935001373,0.000517403706908226
1772563527154665000,5.2736650390625,0.0005092974752187729,-0.00008510751649737358,-0.00012761377729475498
1772563527164733000,5.28373291015625,0.0007377024739980698,0.0007536397315561771,-0.00010352092795073986
1772563527174801000,5.29380078125,-0.00010998174548149109,0.002498010406270623,-0.0001120429951697588
1772563527184870000,5.303869873046875,-0.000816375482827425,0.00044139986857771873,0.002011744072660804
1772563527194937900,5.313937744140625,-0.0003684316761791706,0.0017625940963625908,0.0003355506341904402
1772563527205005800,5.324005859375,0.0009860943537205458,0.0003043520264327526,0.0017661291640251875
1772563527215073800,5.33407373046875,0.0007512036245316267,0.0009389831684529781,-0.001978009007871151
1772563527225142000,5.34414208984375,-0.0007167942821979523,0.0010036216117441654,-0.002534981817007065
1772563527235210000,5.3542099609375,-0.0014060204848647118,0.0010803206823766232,0.0002261835616081953
1772563527245278000,5.36427783203125,-0.00013432325795292854,0.001222765538841486,0.002256668172776699
1772563527255346000,5.374345947265625,0.0006345314905047417,0.0000621601939201355,-0.001332207815721631
1772563527265414000,5.384413818359375,-0.00029916269704699516,-0.0002040569670498371,0.0013092251028865576
1772563527275481900,5.39448193359375,-0.00059903459623456,0.0018750729504972696,0.0003116049338132143
1772563527285550800,5.40455078125,0.00021059531718492508,0.00040449947118759155,0.000004303408786654472
1772563527295619000,5.414619140625,0.002795459469780326,0.0017757609020918608,-0.002052189549431205
1772563527305687000,5.42468701171875,0.0012084816116839647,0.000533662736415863,-0.0009155524894595146
1772563527315755000,5.434755126953125,0.0005325335077941418,0.00038976408541202545,0.00004409649409353733
1772563527325822700,5.44482275390625,-0.002456065732985735,-0.00033434946089982986,0.0018356051295995712
1772563527335891000,5.454890869140625,-0.0009873048402369022,0.0020852393936365843,-0.00011787889525294304
1772563527345959000,5.464958984375,-0.0009814458899199963,-0.000026381108909845352,0.0002459087409079075
1772563527356027000,5.47502685546875,-0.001817807788029313,0.0002277935855090618,-0.002447862643748522
1772563527366094800,5.4850947265625,-0.0010039459448307753,-0.003432454541325569,-0.0005492949858307838
1772563527376163000,5.4951630859375,-0.0006725324783474207,0.002294509904459119,0.003518605837598443
1772563527386231000,5.50523095703125,-0.00006453273817896843,0.0011546770110726357,0.0020362904760986567
1772563527396299800,5.5152998046875,-0.0005701899062842131,0.00323694059625268,0.000018171733245253563
1772563527406368000,5.525367919921875,-0.002291124314069748,0.0011532832868397236,-0.0017999684205278754
1772563527416436000,5.53543603515625,-0.0009000746067613363,-0.0002836473286151886,-0.001068262616172433
1772563527426504000,5.54550390625,-0.0018838464748114347,0.00009345635771751404,-0.00012070988304913044
1772563527436572000,5.555572021484375,-0.0012898663990199566,0.0017963121645152569,0.0014258029405027628
1772563527446640000,5.56564013671875,-0.0018294230103492737,0.0006271842867136002,0.002320891013368964
1772563527456707800,5.575707763671875,-0.001413125777617097,-0.0006443173624575138,0.0027255271561443806
1772563527466775800,5.58577587890625,0.001017275033518672,-0.0011825421825051308,0.00278305122628808
1772563527476843800,5.59584375,-0.000667729414999485,-0.001004828605800867,-0.0005604701582342386
1772563527486912000,5.605912109375,0.0003264285624027252,0.00009132875129580498,0.0010904234368354082
1772563527496981000,5.61598095703125,-0.0010916243772953749,0.0005144700407981873,-0.002060436177998781
1772563527507049000,5.626049072265625,-0.0011278435122221708,0.0025027862284332514,-0.00006785895675420761
1772563527517117000,5.636116943359375,0.0006526603829115629,0.0008619208820164204,0.0008168532513082027
1772563527527185000,5.646184814453125,-0.0012320587411522865,0.002068599220365286,-0.001070795115083456
1772563527537252900,5.6562529296875,-0.00028194556944072247,-0.001504287589341402,0.0006135005969554186
1772563527547320800,5.66632080078125,-0.0012609236873686314,-0.0013516885228455067,-0.0007977085188031197
1772563527557388000,5.676387939453125,0.0015691131120547652,-0.0003862357698380947,0.0008317010942846537
1772563527567456000,5.6864560546875,-0.0008881858084350824,0.0011000744998455048,0.0011704552453011274
1772563527577524000,5.69652392578125,0.0008248281665146351,-0.0011385204270482063,-0.00010761781595647335
1772563527587592200,5.70659228515625,0.0018637272296473384,0.0014580613933503628,-0.00015555485151708126
1772563527597661000,5.716660888671875,-0.0016727987676858902,-0.0014868751168251038,-0.0019290110794827342
1772563527607729000,5.72672900390625,0.0004915520548820496,-0.00045916158705949783,0.0018553407862782478
1772563527617797000,5.736797119140625,0.00010249041952192783,-0.0024145273491740227,0.00013922946527600288
1772563527627865000,5.746864990234375,-0.0012133775744587183,-0.00025763316079974174,0.004614138975739479
1772563527637933000,5.75693310546875,0.0005706888623535633,0.0024546922650188208,-0.002337299520149827
1772563527648001000,5.7670009765625,0.0006955910939723253,-0.001168271992355585,0.00035968353040516376
1772563527658069200,5.7770693359375,0.002418401651084423,0.00029964372515678406,0.0015280414372682571
1772563527668137000,5.787136962890625,0.0010061273351311684,-0.000784529373049736,0.0038276808336377144
1772563527678205000,5.797204833984375,0.0005775592289865017,0.0016507662367075682,-0.0013764252653345466
1772563527688273000,5.80727294921875,0.001465190784074366,-0.0009732460603117943,-0.001163372304290533
1772563527698341000,5.817341064453125,0.0028369666542857885,-0.0013170531019568443,-0.0010065608657896519
1772563527708410000,5.82741015625,0.00012480327859520912,-0.00141079630702734,0.0013716418761759996
1772563527718478000,5.83747802734375,0.00025266665033996105,0.0017924734856933355,-0.0028237036895006895
1772563527728546000,5.847546142578125,0.002526473719626665,-0.00028692279011011124,0.0008418713696300983
1772563527738614000,5.857614013671875,-0.0021077971905469894,0.0016585902776569128,0.0013944737147539854
1772563527748682000,5.867681884765625,0.0015314124757423997,-0.0007526357658207417,-0.000459086149930954
1772563527758750000,5.87775,0.0006708181463181973,0.00211124774068594,0.0010240308474749327
1772563527768818200,5.887818115234375,-0.001792872091755271,-0.0008555138483643532,0.0026347103994339705
1772563527778886100,5.89788623046875,-0.000523693859577179,0.0008320226334035397,-0.0003910281229764223
1772563527788954000,5.9079541015625,0.0004217284731566906,-0.0011773323640227318,0.0025461723562330008
1772563527799022000,5.91802197265625,-0.001094222068786621,0.00021682539954781532,-0.00019416166469454765
1772563527809091000,5.928091064453125,0.0003303028643131256,-0.0009256708435714245,-0.0030237704049795866
1772563527819159000,5.938158935546875,0.001070478931069374,0.0009056199342012405,0.0002317733597010374
1772563527829227000,5.94822705078125,0.000923738582059741,0.000024380162358283997,-0.0007882171776145697
1772563527839295200,5.958295166015625,-0.0013508731499314308,0.0014046896249055862,0.001685210270807147
1772563527849363200,5.96836328125,0.00005927053280174732,0.0002342304214835167,0.002978174714371562
1772563527859431000,5.978430908203125,0.0012599967885762453,0.0023938200902193785,-0.001931691193021834
1772563527869499000,5.988498779296875,-0.0014455087948590517,0.0005037747323513031,-0.003933589439839125
1772563527879567000,5.998567138671875,-0.0001974289771169424,-0.000022407621145248413,0.0015205105300992727
1772563527889635000,6.008635009765625,-0.0007337897550314665,0.0001520290970802307,0.000005704350769519806
1772563527899703000,6.018703125,0.00006759143434464931,0.00022922130301594734,0.0026076778303831816
1772563527909772000,6.02877197265625,-0.00009672553278505802,0.00026011373847723007,0.000219621229916811
1772563527919840000,6.038840087890625,0.0001065228134393692,0.0014212066307663918,-0.002366024535149336
1772563527929908000,6.048907958984375,-0.000509998993948102,0.000057934317737817764,-0.000441091600805521
1772563527939976000,6.058975830078125,0.0007567687425762415,0.0007571517489850521,-0.0005282564088702202
1772563527950044200,6.069044189453125,-0.0007226171437650919,0.002291931537911296,-0.0020691612735390663
1772563527960112000,6.079112060546875,0.000976532930508256,-0.0007606758736073971,0.0013722265139222145
1772563527970180000,6.08918017578125,-0.001305529847741127,-0.0009700004011392593,0.0018555903807282448
1772563527980248000,6.099248046875,0.0006830829661339521,0.0007538064382970333,-0.0008253611158579588
1772563527990316000,6.10931591796875,-0.0005456996150314808,-0.0025503775104880333,0.0005078173708170652
1772563528000384000,6.119384033203125,-0.0009944378398358822,0.0012270677834749222,0.0003342246636748314
1772563528010452000,6.129451904296875,0.0010210422333329916,-0.0008629807271063328,-0.0002338276244699955
1772563528020521200,6.139521240234375,0.00034291879273951054,0.0006763595156371593,0.0017872536554932594
1772563528030589200,6.149589111328125,0.0021165842190384865,0.0007040565833449364,0.0015361174009740353
1772563528040657200,6.1596572265625,0.00042312033474445343,0.0025143653620034456,-0.0014848841819912195
1772563528050724900,6.169724853515625,-0.0003460007719695568,-0.0010468135587871075,0.002580431057140231
1772563528060793000,6.17979296875,-0.0003148044925183058,-0.0009598741307854652,0.000657037366181612
1772563528070861000,6.189861083984375,-0.0017457208596169949,-0.001557221170514822,0.0025161902885884047
1772563528080929000,6.199928955078125,-0.0001986115239560604,0.0006961999461054802,0.0012502896133810282
1772563528090997000,6.2099970703125,0.00021790689788758755,-0.0002180631272494793,-0.001143626170232892
1772563528101065200,6.220065185546875,-0.002057173755019903,-0.0008387663401663303,0.0005273360293358564
1772563528111133200,6.23013330078125,-0.0013354569673538208,-0.00006511807441711426,0.0007334647234529257
1772563528121202000,6.240201904296875,0.0014402075903490186,0.0022009629756212234,-0.0034709929022938013
1772563528131270000,6.250269775390625,0.0007057078182697296,-0.0004837699234485626,-0.0018619110342115164
1772563528141338000,6.260338134765625,0.0011231107637286186,-0.00023352261632680893,-0.0020776360761374235
1772563528151406000,6.270406005859375,-0.000888108741492033,-0.00011288141831755638,-0.0009061114396899939
1772563528161474000,6.28047412109375,-0.0014951892662793398,0.001575494883581996,0.0010360230226069689
1772563528171542000,6.2905419921875,-0.0006008998025208712,0.0018953406251966953,-0.00019275955855846405
1772563528181610000,6.30060986328125,0.00024314946494996548,0.000008201692253351212,-0.0006416609976440668
1772563528191678000,6.310677978515625,-0.0011536786332726479,0.0016955803148448467,0.00028724968433380127
1772563528201746000,6.320745849609375,-0.0014248951338231564,0.0013163848780095577,-0.000425104983150959
1772563528211814100,6.330814208984375,-0.0023780404590070248,0.0002194289118051529,-0.00038355961441993713
1772563528221883100,6.340883056640625,0.001410017954185605,0.0022198264487087727,0.0003137353342026472
1772563528231951000,6.350951171875,-0.00027070287615060806,-0.002423927653580904,-0.00007668393664062023
1772563528242018800,6.361018798828125,0.00023463298566639423,0.0013814372941851616,-0.000042164698243141174
1772563528252087000,6.371087158203125,-0.003249314147979021,0.00010418519377708435,0.00208516838029027
1772563528262155000,6.381155029296875,-0.000298467930406332,0.0008045155555009842,0.0023919078521430492
1772563528272223000,6.391222900390625,0.0008986229076981544,0.0021547384094446898,-0.00012184982188045979
1772563528282291000,6.401291015625,-0.0008465247228741646,0.0017621403094381094,-0.0005735608283430338
1772563528292359200,6.411359130859375,0.0008525722660124302,-0.001674935221672058,-0.0019381645834073424
1772563528302427100,6.42142724609375,-0.0009153957944363356,0.000721923541277647,0.00009013363160192966
1772563528312495000,6.4314951171875,-0.0017678735312074423,-0.0020584166049957275,0.0023988280445337296
1772563528322562800,6.441562744140625,0.000683109275996685,-0.0018844474107027054,0.0009251548908650875
1772563528332632000,6.451632080078125,-0.0007214418146759272,0.0011065490543842316,0.0002423205878585577
1772563528342700000,6.461699951171875,-0.0005768162664026022,0.0005965558812022209,0.00024407543241977692
1772563528352768000,6.47176806640625,-0.0012471338268369436,-7.91158527135849e-7,-0.0015186708187684417
1772563528362836200,6.481836181640625,-0.0012191995047032833,-0.0008921138942241669,-0.0008435749914497137
1772563528372904000,6.491904052734375,-0.0002167855855077505,-0.0011560330167412758,0.0008475321810692549
1772563528382972000,6.501971923828125,0.0004110827576369047,0.0006656432524323463,0.000012525124475359917
1772563528393040000,6.512039794921875,0.0001615446526557207,0.000434214249253273,-0.0025885843206197023
1772563528403108000,6.522108154296875,0.00024142884649336338,0.002355873817577958,0.004855956882238388
1772563528413176000,6.532176025390625,-0.00030478532426059246,-0.0005520316772162914,0.001975481631234288
1772563528423244000,6.542244140625,0.002681138925254345,0.0036668984685093164,0.0006318159867078066
1772563528433313000,6.55231298828125,-0.00029760668985545635,0.001761406660079956,0.0012536642607301474
1772563528443381000,6.562381103515625,0.0005702085327357054,0.0008132006041705608,-0.0015669047133997083
1772563528453449000,6.572448974609375,0.0014991192147135735,-0.00036657974123954773,0.0019276952371001244
1772563528463517000,6.582516845703125,-0.0019215918146073818,-0.000997896771878004,0.000864746980369091
1772563528473585200,6.592585205078125,-0.0000059800222516059875,-0.0008860439993441105,0.0006735317874699831
1772563528483653000,6.602653076171875,0.0018913302337750793,-0.0006708316504955292,-0.0013483118964359164
1772563528493721000,6.61272119140625,-0.0008842165116220713,-0.000025281216949224472,-0.0036159935407340527
1772563528503789000,6.6227890625,0.0010592991020530462,0.0008967430330812931,-0.0005078285466879606
1772563528513857000,6.63285693359375,0.0014382670633494854,0.0007113870233297348,0.0013976634945720434
1772563528523925000,6.642925048828125,-0.0008459778036922216,-0.0004989625886082649,-0.001832269597798586
1772563528533993000,6.652992919921875,0.00011888542212545872,-0.00019855797290802002,0.0021909677889198065
1772563528544062200,6.663062255859375,-0.0011806199327111244,-0.0026869792491197586,-0.0007104985415935516
1772563528554130200,6.673130126953125,-0.0024123317562043667,0.0020001844968646765,0.0023388208355754614
1772563528564198400,6.683198486328125,0.0010606972500681877,-0.000255014281719923,-0.0037232351023703814
1772563528574266400,6.693266357421875,-0.001304988982155919,-0.0028505311347544193,0.0007926872931420803
1772563528584334300,6.703334228515625,0.0021657380275428295,-0.0026234090328216553,0.0013457427266985178
1772563528594402600,6.713402587890625,0.00011750077828764915,-0.0024830601178109646,0.0009846182074397802
1772563528604470500,6.723470458984375,-0.002107303123921156,0.0004005376249551773,-0.001141499960795045
1772563528614538500,6.73353857421875,0.002213675994426012,0.0012815112713724375,-0.0004477463662624359
1772563528624606500,6.7436064453125,0.0004123824182897806,-0.0008048978634178638,-0.0008399528451263905
1772563528634674400,6.75367431640625,0.00023474963381886482,-0.0009476430714130402,0.0005536791868507862
1772563528644743400,6.763743408203125,0.002807104028761387,0.0013062008656561375,0.002230923157185316
1772563528654811400,6.773811279296875,0.0013748558703809977,0.0008774320594966412,0.0020445017144083977
1772563528664879600,6.783879638671875,-0.0029786473605781794,-0.0006036423146724701,0.00030918652191758156
1772563528674947600,6.793947509765625,-0.0017416093032807112,0.002392147434875369,0.0023723372723907232
1772563528685015600,6.804015625,0.0027507946360856295,0.0012553660199046135,0.0003886914346367121
1772563528695083300,6.814083251953125,0.001405099406838417,0.0008455053903162479,0.0009657987393438816
1772563528705151500,6.8241513671875,-0.0002002241089940071,-0.0016505857929587364,0.0025303612928837538
1772563528715219500,6.834219482421875,-0.000026053516194224358,-0.000426596961915493,0.0012099661398679018
1772563528725287400,6.844287353515625,-0.0003397003747522831,0.0000012908130884170532,0.002577968407422304
1772563528735355400,6.85435546875,0.00108562340028584,0.0018308823928236961,-0.0007397974841296673
1772563528745423600,6.864423583984375,-0.0004306377377361059,0.00012163817882537842,-0.00019150041043758392
1772563528755492400,6.874492431640625,0.0007637899834662676,0.0011229868978261948,-0.0030410827603191137
1772563528765560300,6.884560302734375,0.002138616982847452,0.001013278029859066,-0.002301426138728857
1772563528775628500,6.894628662109375,-0.002136821858584881,0.00013576680794358253,-0.000027086585760116577
1772563528785696500,6.904696533203125,-0.00036120624281466007,-0.00041377823799848557,0.00008718762546777725
1772563528795764500,6.914764404296875,-0.00011379853822290897,0.00008902652189135551,0.0012877406552433968
1772563528805832400,6.92483251953125,0.0006926048081368208,0.0013933575246483088,0.001700698398053646
1772563528815900700,6.934900634765625,0.001171973766759038,-0.0007680640555918217,-0.00012489850632846355
1772563528825968400,6.944968505859375,-0.0002175190020352602,-0.00001273956149816513,-0.003074138890951872
1772563528836036400,6.955036376953125,-0.0009424316231161356,0.00018859561532735825,-0.002926599932834506
1772563528846104300,6.965104248046875,0.0016609001904726028,0.0005106581375002861,-0.0014633212704211473
1772563528856173600,6.975173583984375,-0.00010024826042354107,-0.0016646119765937328,0.0003574818838387728
1772563528866241500,6.985241455078125,0.000013308832421898842,0.0020223106257617474,-0.0007554381154477596
1772563528876309500,6.9953095703125,0.0011528756003826857,-0.00024830037727952003,0.0003798676189035177
1772563528886377500,7.00537744140625,-0.00009249080903828144,0.0011018128134310246,-0.0004697428084909916
1772563528896445400,7.015445556640625,0.00036663818173110485,-0.0001480085775256157,-0.0007997085340321064
1772563528906513400,7.025513427734375,-0.0013295742683112621,0.000615531112998724,0.002225879579782486
1772563528916581400,7.035581298828125,0.0015024312306195498,0.000658674631267786,-0.002857562154531479
1772563528926649600,7.045649658203125,-0.0012224458623677492,-0.0017029568552970886,-0.001499873585999012
1772563528936717600,7.055717529296875,-0.0016701233107596636,-0.0014073457568883896,0.0003829812631011009
1772563528946785500,7.06578564453125,-0.001854747999459505,0.00016904110088944435,0.0014786822721362114
1772563528956853500,7.075853515625,0.0005942946299910545,-0.001067464705556631,0.000015541445463895798
1772563528966922500,7.085922607421875,0.00009018019773066044,0.0016957547049969435,-0.0008772388100624084
1772563528976990500,7.095990478515625,0.0016446673544123769,0.0012696487829089165,0.0009347756858915091
1772563528987058400,7.106058349609375,-0.0006853889208287001,-0.0006336523219943047,-0.0004922421649098396
1772563528997126700,7.116126708984375,-0.0024505320470780134,-0.0028246352449059486,0.0019251091871410608
1772563529007194600,7.126194580078125,-0.0006792817730456591,0.0011142222210764885,0.0009465517941862345
1772563529017262300,7.136262451171875,-0.0010904737282544374,0.001223145518451929,0.002171339699998498
1772563529027330300,7.146330322265625,-0.002419675700366497,-0.0010136724449694157,0.0003141830675303936
1772563529037398500,7.1563984375,-0.0007397537119686604,0.0015719907823950052,-0.003142067464068532
1772563529047466500,7.166466552734375,-0.0007290015928447247,0.0004336163401603699,0.0018062158487737179
1772563529057534500,7.176534423828125,-0.001113295555114746,-0.00170090701431036,0.0035071768797934055
1772563529067602400,7.1866025390625,-0.0010640709660947323,-0.001136300154030323,0.0014154298696666956
1772563529077671400,7.19667138671875,0.000560190761461854,0.0008323080837726593,0.0014303436037153006
1772563529087739400,7.206739501953125,-0.0011852907482534647,0.0007330980151891708,0.0017584774177521467
1772563529097807400,7.216807373046875,0.00009835301898419857,0.00020579202100634575,0.00028681475669145584
1772563529107875300,7.226875244140625,-0.0007224241271615028,-0.00025585805997252464,0.002699095755815506
1772563529117943600,7.236943603515625,-0.0019418857991695404,-0.00232087355107069,0.002606683876365423
1772563529128011500,7.247011474609375,-0.0007296886760741472,-0.0017247721552848816,0.0007889282424002886
1772563529138079500,7.25707958984375,-0.0009664434473961592,0.0006270655430853367,-0.001063033938407898
1772563529148147500,7.2671474609375,0.00009689829312264919,-0.0008933693170547485,-0.0010849102400243282
1772563529158215400,7.27721533203125,0.0007424484938383102,-0.0011492990888655186,0.0013492191210389137
1772563529168283400,7.287283447265625,-0.001188972732052207,0.0027662310749292374,-0.0008489612955600023
1772563529178352400,7.297352294921875,0.0015476914122700691,0.00005433429032564163,-0.00032005738466978073
1772563529188420600,7.307420654296875,0.0001122686080634594,-0.00021271314471960068,-0.0013604939449578524
1772563529198488600,7.317488525390625,0.0004094773903489113,-0.00009553413838148117,0.0004238239489495754
1772563529208556300,7.327556396484375,0.0017007816350087523,-0.0008940924890339375,0.0005086599849164486
1772563529218624300,7.337624267578125,0.001417421386577189,-0.0021897205151617527,-0.000808006851002574
1772563529228692500,7.3476923828125,0.0008625658228993416,0.0008070985786616802,0.0012214677408337593
1772563529238760400,7.357760498046875,0.000625544460490346,0.0009783399291336536,-0.00149042927660048
1772563529248828400,7.367828369140625,0.001062346389517188,-0.00027410173788666725,0.001333304913714528
1772563529258896400,7.377896484375,-0.0008322261273860931,0.0011613420210778713,0.000562852481380105
1772563529268964600,7.387964599609375,0.001014977227896452,-0.000046688131988048553,-0.00063339713960886
1772563529279032600,7.398032470703125,0.0000924582127481699,-0.000059470999985933304,-0.001974831335246563
1772563529289101300,7.408101318359375,-0.0015830050688236952,-0.0021729962900280952,-0.0009137375745922327
1772563529299169500,7.41816943359375,0.0005874712951481342,0.0019823338370770216,0.0007286337204277515
1772563529309237500,7.428237548828125,-0.0003020241856575012,-0.000292979646474123,0.00047615007497370243
1772563529319305500,7.438305419921875,-0.0009659503120929003,0.002300939057022333,0.0008332799188792706
1772563529329373400,7.44837353515625,0.002896192017942667,0.00038842111825942993,0.0018704591784626245
1772563529339441700,7.458441650390625,-0.0006561987102031708,0.0003354242071509361,-0.0008811191655695438
1772563529349509400,7.46850927734375,-0.0009212482254952192,0.0012234128080308437,0.0022025785874575377
1772563529359577300,7.478577392578125,0.00020233914256095886,-0.0002320045605301857,0.001848910702392459
1772563529369645300,7.488645263671875,0.0006538196466863155,0.0000123525969684124,-0.0035125967115163803
1772563529379713500,7.498713623046875,0.0009805895388126373,0.00023792264983057976,0.00017241924069821835
1772563529389782500,7.508782470703125,-0.0017332318238914013,-0.001447383314371109,-0.00007603410631418228
1772563529399850500,7.5188505859375,0.0021318141371011734,0.0009007258340716362,0.0009764470160007477
1772563529409918500,7.52891845703125,0.0011687506921589375,-0.0011495277285575867,0.001752457581460476
1772563529419986400,7.538986328125,0.00010827998630702496,0.00043585198000073433,0.001411838922649622
1772563529430054400,7.549054443359375,0.0035947042051702738,0.0011697500012814999,0.0010983641259372234
1772563529440122400,7.559122314453125,-0.0008594326209276915,-0.0006750216707587242,0.004691501148045063
1772563529450190600,7.569190673828125,0.0009008708875626326,-0.00011843955144286156,0.00036493176594376564
1772563529460258600,7.579258544921875,0.0006318916566669941,-0.001279577612876892,-0.0031128902919590473
1772563529470326500,7.589326416015625,-0.000645768828690052,0.0025872832629829645,0.0011495924554765224
1772563529480394200,7.599394287109375,-0.0008846544660627842,0.000038638245314359665,-0.0013724210439249873
1772563529490462500,7.60946240234375,0.003802478313446045,0.0001577446237206459,0.000659093726426363
1772563529500531500,7.619531494140625,-0.00004765368066728115,0.0016653600614517927,0.0014005179982632399
1772563529510599400,7.629599365234375,-0.0009266762062907219,0.0002756267786026001,0.0013068891130387783
1772563529520667600,7.639667724609375,-0.0015128375962376595,-0.0027260221540927887,0.0004887660034000874
1772563529530735600,7.649735595703125,-0.0011525608133524656,-0.0000850483775138855,-0.0008905923459678888
1772563529540803300,7.65980322265625,-0.0005919653922319412,0.00023905839771032333,-0.0019912768620997667
1772563529550871300,7.669871337890625,0.001620266237296164,-0.0001368955709040165,0.0021917761769145727
1772563529560939300,7.679939208984375,-0.0014021552633494139,-0.0012993654236197472,-0.0013422383926808834
1772563529571007500,7.690007568359375,-0.0024174524005502462,-0.0005791382864117622,-0.0011179845314472914
1772563529581075500,7.700075439453125,-0.0008224851917475462,-0.0017834198661148548,-0.0008085251320153475
1772563529591143400,7.710143310546875,-0.0014689287636429071,0.0023147028405219316,0.001430136151611805
1772563529601211400,7.72021142578125,-0.0004766348283737898,0.0007066861726343632,0.00043624453246593475
1772563529611280400,7.7302802734375,0.0008903106208890676,-0.001014877576380968,0.0010995364282280207
1772563529621348400,7.740348388671875,-0.0011616547126322985,-0.0018148915842175484,0.0005951337516307831
1772563529631416300,7.750416259765625,0.0006101198960095644,0.0012783922720700502,-0.0011109206825494766
1772563529641484500,7.760484619140625,-0.0001387610100209713,0.0012826533056795597,0.0015346633736044168
1772563529651552500,7.770552490234375,0.0016012071864679456,-0.00015162117779254913,-0.0007324367761611938
1772563529661620500,7.780620361328125,0.0011103865690529346,0.0014878208748996258,-0.0011130026541650295
1772563529671688200,7.790688232421875,0.0004474103916436434,-0.0007377169094979763,-0.00007627508603036404
1772563529681756400,7.80075634765625,-0.0011624705512076616,-0.0005824542604386806,-0.0004512481391429901
1772563529691824400,7.810824462890625,-0.0011913159396499395,-0.0012971027754247189,0.00013555167242884636
1772563529701892400,7.820892333984375,-0.0002863737754523754,-0.0014228038489818573,0.0011845710687339306
1772563529711960300,7.830960205078125,0.0005411864258348942,0.0005165906623005867,0.0004083018284291029
1772563529722029600,7.841029541015625,0.0011108366306871176,0.0002569328062236309,-0.001476949779316783
1772563529732097300,7.85109716796875,0.0021986556239426136,0.000998293049633503,0.0020703040063381195
1772563529742165200,7.861165283203125,0.00022978056222200394,0.000025973189622163773,0.00303676538169384
1772563529752233500,7.8712333984375,-0.0009434623643755913,0.00042710080742836,0.0012839788105338812
1772563529762301400,7.881301513671875,0.0014954605139791965,0.00010272813960909843,-0.00022257165983319283
1772563529772369400,7.891369384765625,-0.0012505240738391876,0.0019018794409930706,-0.0007328693754971027
1772563529782437400,7.901437255859375,-0.0016968701966106892,-0.0022891368716955185,0.0015944670885801315
1772563529792505600,7.911505615234375,0.0001031619030982256,-0.0005976036190986633,0.00009900052100419998
1772563529802573600,7.921573486328125,-0.0014164380263537169,-0.00039839884266257286,0.0011895650532096624
1772563529812641300,7.931641357421875,0.00006470782682299614,0.001062725204974413,0.0009221923537552357
1772563529822709200,7.941709228515625,-0.0009848438203334808,0.00051864143460989,0.000003401888534426689
1772563529832778500,7.951778564453125,-0.0024231316056102514,-0.0007937997579574585,0.0004425381775945425
1772563529842846500,7.961846435546875,-0.0015347006265074015,0.0005369819700717926,0.00009393040090799332
1772563529852914400,7.97191455078125,0.00047072721645236015,-0.0024292301386594772,0.002048895228654146
1772563529862982400,7.981982421875,-0.00008906936272978783,-0.0018031210638582706,0.0009689833968877792
1772563529873050400,7.99205029296875,-0.0018609340768307447,0.00012761354446411133,0.0011758033651858568
1772563529883118300,8.002118408203126,-0.001465188106521964,-0.0012018363922834396,0.0010093555320054293
1772563529893186300,8.012186279296875,0.0011802071239799261,-0.0007535284385085106,-0.00031730812042951584
1772563529903254500,8.022254638671875,0.0012569061946123838,0.0012552940752357244,0.003211913164705038
1772563529913322500,8.032322509765624,-0.00013799499720335007,-0.0018179556354880333,-0.0025069699622690678
1772563529923390500,8.042390380859375,-0.002006202470511198,0.000008972827345132828,-0.0021138873416930437
1772563529933458400,8.05245849609375,-0.00006668921560049057,-0.0005733920261263847,-0.0000066051725298166275
1772563529943527400,8.06252734375,-0.0005878699012100697,-0.0015078950673341751,0.00011270423419773579
1772563529953595400,8.072595458984376,0.00027897628024220467,0.00014448817819356918,0.001111860852688551
1772563529963663400,8.082663330078125,0.0006118712481111288,0.0009692693129181862,0.00007003219798207283
1772563529973731600,8.092731689453124,-0.00023391866125166416,0.00047507649287581444,0.0020979829132556915
1772563529983799600,8.102799560546876,-0.0009953163098543882,0.000010088551789522171,-0.001934841857291758
1772563529993867500,8.112867431640625,0.0009014785755425692,0.0011219419538974762,0.0012905432377010584
1772563530003935200,8.122935302734374,0.0007414226420223713,0.0011139526031911373,0.00033153919503092766
1772563530014003500,8.13300341796875,0.0014972143108025193,0.00005567166954278946,0.00027865031734108925
1772563530024071400,8.143071533203125,-0.003061052178964019,-0.0021462300792336464,0.00041846628300845623
1772563530034139400,8.153139404296875,-0.0009061782620847225,-0.0015826812013983727,0.0009027714841067791
1772563530044207400,8.163207275390626,-0.001306451391428709,0.0011268190573900938,-0.0014064554125070572
1772563530054276400,8.1732763671875,0.0020246324129402637,0.000781496986746788,-0.002190183848142624
1772563530064344300,8.18334423828125,-0.0005506444722414017,-0.0012933718971908092,0.0019728695042431355
1772563530074412300,8.193412353515624,-0.0004958196077495813,-0.00010109832510352135,-0.00043460167944431305
1772563530084480500,8.20348046875,0.0003667781129479408,0.0016254289075732231,-0.002570723183453083
1772563530094548500,8.213548583984375,-0.0010284483432769775,-0.0007355180568993092,-0.0012101493775844574
1772563530104616400,8.223616455078124,0.001449090545065701,-0.00027212779968976974,0.0017313121352344751
1772563530114684400,8.233684326171876,0.0004493442829698324,-0.00040680961683392525,-0.00019833073019981384
1772563530124752600,8.243752685546875,0.002001434564590454,0.0022893748246133327,0.0009614757727831602
1772563530134820400,8.2538203125,-0.0001523164100944996,0.0006260056979954243,0.00023747840896248817
1772563530144888300,8.263888427734376,0.001670084660872817,-0.0017857528291642666,0.002566146431490779
1772563530154956300,8.273956298828125,-0.00039055454544723034,-0.0001227869652211666,-0.0008464308921247721
1772563530165025500,8.284025634765625,-0.0019394492264837027,-0.002620032988488674,0.0016417605802416801
1772563530175093500,8.294093505859376,-0.0009480605367571115,0.0004399470053613186,-0.0007723686285316944
1772563530185161500,8.304161376953125,0.0004303916357457638,-0.00006871670484542847,0.001474540214985609
1772563530195229400,8.3142294921875,-0.00024505751207470894,-0.0004077986814081669,0.0011102375574409962
1772563530205297400,8.32429736328125,-0.0012573248241096735,-0.0012834458611905575,0.00038186321035027504
1772563530215365400,8.334365478515625,-0.00015364820137619972,0.00038738641887903214,-0.000632457435131073
1772563530225433300,8.344433349609375,0.002401122357696295,-0.00300867622718215,-0.0011142233852297068
1772563530235501600,8.35450146484375,0.001755819539539516,-0.00018347520381212234,-0.003686238080263138
1772563530245569500,8.364569580078125,-0.00002796575427055359,-0.0018133297562599182,0.0023247827775776386
1772563530255637500,8.374637451171875,0.0017185539472848177,0.0009333579801023006,-0.0020554340444505215
1772563530265705500,8.38470556640625,0.0010237351525574923,-0.00007145293056964874,-0.0005462206900119781
1772563530275774500,8.3947744140625,-0.0008730371482670307,-0.002666797023266554,-0.00020662578754127026
1772563530285842400,8.404842529296875,0.00018663471564650536,-0.0002499781548976898,-0.0029126638546586037
1772563530295910400,8.414910400390625,0.0006857826374471188,-0.0008404268883168697,0.0007671972271054983
1772563530305978600,8.424978515625,0.0000687281135469675,0.0030589732341468334,-0.0005342895165085793
1772563530316046600,8.435046630859375,-0.0006107438821345568,-0.00007931282743811607,0.003305215621367097
1772563530326114300,8.4451142578125,-0.0005944983568042517,0.001312721287831664,0.0018322209361940622
1772563530336182300,8.455182373046876,-0.0008543010335415602,-0.0006359159015119076,-0.0021526431664824486
1772563530346250500,8.46525048828125,-0.0013030434492975473,0.002141761127859354,-0.0005009504966437817
1772563530356318500,8.475318359375,-0.0009605856612324715,-0.00279593700543046,0.0017946308944374323
1772563530366386400,8.485386474609374,0.0007206681184470654,0.0023010866716504097,-0.0026195584796369076
1772563530376454400,8.495454345703125,0.0019056773744523525,0.00013080239295959473,-0.0005521273706108332
1772563530386523400,8.5055234375,0.0004973977338522673,0.002237096196040511,0.0012375169899314642
1772563530396591400,8.51559130859375,0.0001845832448452711,0.0002939174883067608,-0.00029409746639430523
1772563530406659300,8.525659423828126,0.0006445113103836775,0.000019079074263572693,-0.0017300740582868457
1772563530416727300,8.535727294921875,0.000030028866603970528,0.00040970509871840477,-0.002667512744665146
1772563530426795500,8.54579541015625,-0.00043975282460451126,-0.0014284085482358932,-0.0007982400711625814
1772563530436863500,8.555863525390626,0.001718385610729456,-0.0004153982736170292,-0.004312696401029825
1772563530446931500,8.565931396484375,-0.0012449135538190603,0.00007382454350590706,-0.0018391525372862816
1772563530456999400,8.57599951171875,-0.0012281816452741623,0.00020108046010136604,0.0005864305421710014
1772563530467067400,8.5860673828125,-0.0014122058637440205,-0.0004165070131421089,0.0035199022386223078
1772563530477135400,8.59613525390625,0.00025853817351162434,-0.0018170205876231194,-0.000990510219708085
1772563530487203300,8.606203369140625,-0.0012863615993410349,0.0002442663535475731,0.0013048683758825064
1772563530497271600,8.616271484375,-0.0019288873299956322,-0.0006300355307757854,-0.0003946893848478794
1772563530507340500,8.626340576171875,-0.001428479328751564,0.0009561432525515556,-0.002592596225440502
1772563530517408300,8.636408203125,-0.0002498279791325331,0.0006581083871424198,0.00038436870090663433
1772563530527476200,8.646476318359374,0.0015786984004080296,-0.00026627490296959877,-0.003388797864317894
1772563530537544400,8.65654443359375,0.0011289925314486027,-0.000770125538110733,-0.0026010768488049507
1772563530547612400,8.6666123046875,0.00040408014319837093,-0.001071861945092678,-0.000786931486800313
1772563530557680400,8.676680419921874,0.0006179637275636196,-0.0010139504447579384,-0.003329108003526926
1772563530567748400,8.686748291015626,-0.0012145575601607561,0.0006928695365786552,-0.0006108195520937443
1772563530577816600,8.696816650390625,-0.00011049490422010422,0.0008421489037573338,0.00044431164860725403
1772563530587884500,8.706884521484374,-0.0006678944919258356,0.0011928870808333158,0.000815023435279727
1772563530597952300,8.7169521484375,-0.0021232864819467068,-0.000996201764792204,0.0009173268917948008
1772563530608020200,8.727020263671875,-0.0011746683157980442,0.00011114031076431274,-0.001763677573762834
1772563530618089500,8.73708935546875,0.0010878038592636585,0.0031551767606288195,-0.0029603519942611456
1772563530628157400,8.747157470703126,-0.0014440633822232485,-0.0010922988876700401,0.0005901744589209557
1772563530638225400,8.757225341796875,0.001329504419118166,0.0009354972280561924,0.00010781572200357914
1772563530648293400,8.76729345703125,-0.0017168857157230377,-0.00045493897050619125,0.00014376849867403507
1772563530658361300,8.777361328125,-0.000455179950222373,-0.001964590512216091,-0.00006473623216152191
1772563530668429300,8.78742919921875,0.0005027588922530413,-0.0016806977801024914,-0.000008809845894575119
1772563530678497300,8.797497314453125,-0.0013452963903546333,-0.000621420331299305,-0.001282840850763023
1772563530688565500,8.8075654296875,-0.000894955825060606,-0.0012344797141849995,-0.0004434124566614628
1772563530698633500,8.817633544921875,-0.00245117349550128,0.0002412879839539528,0.0014923890121281147
1772563530708701400,8.827701416015625,-0.0009584720246493816,0.0007353043183684349,-0.0002146970946341753
1772563530718769400,8.837769287109374,0.0006331631448119879,0.0005217455327510834,0.00203842855989933
1772563530728838400,8.84783837890625,-0.0009492870885878801,-0.001496930606663227,0.0009590494446456432
1772563530738906400,8.85790625,-0.000022283755242824554,-0.000512667465955019,-0.0006170398555696011
1772563530748974300,8.867974365234375,-0.00045930827036499977,0.00016484037041664124,0.00027511920779943466
1772563530759042600,8.87804248046875,-0.0009002475999295712,-0.0012643104419112206,-0.0023118576500564814
1772563530769110500,8.888110595703125,0.00012799887917935848,0.0013293419033288956,-0.0015856135869398713
1772563530779178500,8.898178466796875,0.0008198346477001905,0.0008679800666868687,-0.005734249018132687
1772563530789246200,8.90824609375,-0.0007072221487760544,-0.0017389883287250996,0.0021614909637719393
1772563530799314400,8.918314453125,0.00006188149563968182,0.0019587334245443344,-0.0011866048444062471
1772563530809382400,8.92838232421875,-0.0022936847526580095,0.001263914629817009,-0.00039857556112110615
1772563530819450400,8.938450439453124,0.0007217871025204659,0.0010114670731127262,-0.0005418460350483656
1772563530829518300,8.948518310546875,0.0007303091697394848,-0.0012133377604186535,0.0005343372467905283
1772563530839586600,8.958586669921875,0.0009835464879870415,-0.0018045841716229916,0.00014514080248773098
1772563530849655300,8.9686552734375,0.0019899550825357437,-0.002010712865740061,0.002614690223708749
1772563530859723300,8.97872314453125,0.0020255837589502335,-0.0013330457732081413,-0.0015803960850462317
1772563530869791500,8.98879150390625,-0.0011297294404357672,-0.0013681994751095772,-0.0024749517906457186
1772563530879859500,8.998859375,0.0017063209088519216,-0.0017565488815307617,0.00008998345583677292
1772563530889927400,9.008927490234376,-0.0006617619656026363,-0.0006952793337404728,0.00008971709758043289
1772563530899995400,9.018995361328125,0.00082784378901124,-0.0005262033082544804,-0.0009627740364521742
1772563530910063600,9.029063720703125,0.00033196317963302135,0.0019268342293798923,-0.0000730117317289114
1772563530920131300,9.03913134765625,0.0002257893793284893,0.001988544361665845,0.0006861009169369936
1772563530930199300,9.04919921875,0.0009190102573484182,0.0016918680630624294,0.00015240348875522614
1772563530940267300,9.059267333984375,-0.0007947150152176619,0.001261257566511631,-0.0014110238989815116
1772563530950335500,9.06933544921875,0.0008734597358852625,-0.00070553133264184,0.002461313735693693
1772563530960404500,9.079404541015625,0.0034434101544320583,0.0010215286165475845,0.00048444955609738827
1772563530970472400,9.089472412109375,0.0013005961664021015,-0.0004235641099512577,0.0011786019895225763
1772563530980540400,9.09954052734375,0.0016731724608689547,0.002170354826375842,-0.0010896124877035618
1772563530990608400,9.1096083984375,-0.0008241904433816671,-0.0015723477117717266,0.0006700453814119101
1772563531000676400,9.11967626953125,0.0009769054595381021,-0.0015222802758216858,-0.0014580865390598774
1772563531010744300,9.129744384765624,-0.0011738007888197899,0.00012700818479061127,0.0011421327944844961
1772563531020812500,9.1398125,-0.0010411753319203854,-0.0012623625807464123,0.0013434679713100195
1772563531030880500,9.149880615234375,-0.0005289851687848568,0.000159344170242548,-0.002320893807336688
1772563531040948500,9.159948486328124,-0.002104245126247406,0.00012658722698688507,-0.0004329788498580456
1772563531051016400,9.170016357421876,-0.00026725023053586483,0.0014445376582443714,0.0004266786854714155
1772563531061084400,9.18008447265625,0.0016813847469165921,-0.0001970347948372364,0.0015329555608332157
1772563531071152400,9.19015234375,-0.0003923086915165186,-0.0009629786945879459,0.00023452891036868095
1772563531081221400,9.200221435546876,-0.0004759321454912424,0.0003132079727947712,0.0017719718161970377
1772563531091289600,9.21028955078125,0.00010671676136553288,-0.0010449509136378765,-0.0006384288426488638
1772563531101357600,9.220357666015625,0.0030969141516834497,-0.00042310263961553574,0.00009820167906582355
1772563531111425300,9.23042529296875,-0.000377005897462368,-0.0035058893263339996,0.0022056999150663614
1772563531121493200,9.2404931640625,0.0021419539116322994,-0.0016585146076977253,0.0022511016577482224
1772563531131561500,9.2505615234375,-0.0011352701112627983,-0.0001243269070982933,-0.0012145621003583074
1772563531141629400,9.26062939453125,0.0003833337686955929,-0.00009022373706102371,-0.002709998982027173
1772563531151697400,9.270697509765625,0.0014451361494138837,0.0011835661716759205,-0.0008939893450587988
1772563531161765400,9.280765380859375,0.0006664518732577562,-0.0016448935493826866,-0.0014867383288219571
1772563531171833600,9.29083349609375,-0.0024614306166768074,0.000051540322601795197,-0.0009080334566533566
1772563531181901600,9.300901611328126,0.00010023219510912895,-0.0004802485927939415,0.0004787254147231579
1772563531191969300,9.31096923828125,-0.001386610558256507,0.000734951812773943,-0.0020669903606176376
1772563531202038500,9.32103857421875,0.00037050829268991947,-0.0006168321706354618,0.0019460604526102543
1772563531212106500,9.3311064453125,-0.0012023549061268568,0.0012337982188910246,-0.0012843537842854857
1772563531222174500,9.341174560546875,0.0007308772765100002,0.0010283836163580418,0.0018937040586024523
1772563531232242400,9.351242431640625,-0.00045875669457018375,-0.00046964455395936966,-0.0025812056846916676
1772563531242310400,9.361310302734376,-0.0002326304093003273,0.0012565855868160725,0.0012180341873317957
1772563531252378400,9.37137841796875,0.0005468768067657948,0.0004017106257379055,0.0048796143382787704
1772563531262446300,9.3814462890625,0.0006960704922676086,0.0002828487195074558,-0.0033178054727613926
1772563531272514300,9.391514404296874,0.0005245627835392952,0.0007750010117888451,-0.0014607834164053202
1772563531282582500,9.40158251953125,0.001580296317115426,0.0008983653970062733,-0.001333735417574644
1772563531292650500,9.411650390625,0.001170422649011016,0.003182576037943363,-0.0018540964229032397
1772563531302720300,9.42172021484375,-0.0031203357502818108,-0.0011701066978275776,0.003311940236017108
1772563531312788500,9.43178857421875,0.0007429288234561682,-0.00046597421169281006,-0.0003380817361176014
1772563531322856400,9.4418564453125,0.001090471399948001,0.0011186068877577782,-0.0004901483189314604
1772563531332924400,9.45192431640625,-0.0009485334157943726,-0.0013251672498881817,0.0008151163347065449
1772563531342992400,9.461992431640626,-0.0003112389240413904,-0.0012924103066325188,0.0009898198768496513
1772563531353060600,9.472060546875,0.00030147796496748924,0.0018184198997914791,-0.0008427600841969252
1772563531363128300,9.48212841796875,0.0005653973203152418,0.0004093414172530174,-0.0024531735107302666
1772563531373197300,9.492197265625,0.0014086535666137934,-0.00005445675924420357,-0.0015546854119747877
1772563531383265500,9.502265625,-0.0023069889284670353,-0.0005527343600988388,0.0007942228112369776
1772563531393333500,9.51233349609375,-0.0018025427125394344,-0.0012523834593594074,0.00023806141689419746
1772563531403401500,9.5224013671875,-0.0015751086175441742,0.0001276666298508644,0.00037707830779254436
1772563531413469400,9.532469482421876,-0.0023523462004959583,-0.0003301212564110756,0.0011651378590613604
1772563531423537400,9.542537353515625,-0.0013925428502261639,-0.00040495628491044044,-0.0027728783898055553
1772563531433605400,9.55260546875,-0.0010795451235026121,-0.00235176645219326,-0.003482467494904995
1772563531443673300,9.56267333984375,-0.001152249751612544,-0.00295177660882473,0.0014542341232299805
1772563531453741300,9.5727412109375,0.0014696141006425023,0.001575365662574768,-0.00021617114543914795
1772563531463809500,9.5828095703125,-0.0014702493790537119,-0.00019537005573511124,0.0005979572888463736
1772563531473877500,9.59287744140625,-0.0014526359736919403,0.0018694025930017233,0.0004954927135258913
1772563531483945500,9.602945556640625,0.0011615229304879904,0.0009404919110238552,0.0003729874733835459
1772563531494014500,9.613014404296875,-0.0005298266187310219,-0.001304761040955782,0.0022946710232645273
1772563531504082400,9.62308251953125,0.0023937916848808527,-0.00010261032730340958,-0.0030388417653739452
1772563531514150400,9.633150390625,-0.0015212420839816332,-0.0011797109618782997,-0.0006354828365147114
1772563531524218400,9.64321826171875,-0.0008767570834606886,0.0002919514663517475,0.0011893149930983782
1772563531534286600,9.65328662109375,-0.0009931884706020355,-0.00004995986819267273,0.0022277897223830223
1772563531544354600,9.6633544921875,0.0013650404289364815,0.000565230380743742,-0.0010348488576710224
1772563531554422300,9.67342236328125,-0.000911736860871315,-0.00006292667239904404,-0.00025739287957549095
1772563531564490000,9.683489990234374,0.0003210401628166437,-0.0005774497985839844,-0.0006938851438462734
1772563531574558000,9.693557861328125,-0.0014337634202092886,-0.000055373646318912506,-0.0007013848517090082
1772563531584626200,9.703626220703125,0.0008778604678809643,0.00223095016553998,0.0009172845166176558
1772563531594694100,9.713694091796874,0.00008102343417704105,-0.0003397110849618912,-0.0012183201033622026
1772563531604762000,9.72376220703125,-0.0012723952531814575,0.00024485262110829353,-0.0006768994498997927
1772563531614830800,9.733830810546875,0.001758317812345922,-0.0005276873707771301,0.0013908559922128916
1772563531624899000,9.743899169921875,-0.00039591314271092415,0.002554921666160226,0.0017115005757659674
1772563531634967000,9.753967041015626,-0.00014663184992969036,-0.0013943403027951717,0.0020900422241538763
1772563531645035000,9.764034912109375,0.0027024177834391594,-0.0006116372533142567,-0.001037574140354991
1772563531655103200,9.774103271484375,0.0016748327761888504,0.0005930266343057156,-0.000015759142115712166
1772563531665171200,9.784171142578124,-0.0009563704952597618,0.0010905051603913307,-0.0009156414307653904
1772563531675239200,9.7942392578125,-0.00039582978934049606,0.0004649478942155838,0.0008351223077625036
1772563531685307100,9.80430712890625,0.0013504049275070429,0.0001634778454899788,-0.00036037084646523
1772563531695375000,9.814375,0.0011733483988791704,-0.0003747241571545601,-0.001960713416337967
1772563531705443000,9.824443115234375,0.0015336741926148534,0.003079928457736969,-0.0003673441242426634
1772563531715511000,9.834510986328125,0.000235626008361578,-0.00017045903950929642,0.0001898929476737976
1772563531725579000,9.8445791015625,0.0007437572348862886,0.0009089205414056778,-0.0017062777187675238
1772563531735648300,9.854648193359376,-0.0002538412809371948,-0.0016953768208622932,-0.00009740632958710194
1772563531745716000,9.864716064453125,-0.0013055235613137484,0.0008338270708918571,-0.0030678962357342243
1772563531755784000,9.874783935546875,0.00017767702229321003,-0.0017777266912162304,0.002576645463705063
1772563531765852000,9.884851806640626,-0.0006111511029303074,-0.00029567768797278404,-0.0011424588738009334
1772563531775920000,9.894920166015625,-0.001080741873010993,-0.0005859388038516045,-0.0017287138616666198
1772563531785988000,9.904988037109375,0.0026359655894339085,0.0012287390418350697,-0.0006938094738870859
1772563531796056000,9.91505615234375,-0.00030293758027255535,-0.002495430875569582,-0.000319446437060833
1772563531806124000,9.9251240234375,0.000409191707149148,0.002036470454186201,-0.0034595797769725323
1772563531816192300,9.935192138671875,-0.0026328498497605324,-0.0013521513901650906,0.0036436845548450947
1772563531826260000,9.945260009765626,0.001569352112710476,0.0005629276856780052,0.0012194090522825718
1772563531836328000,9.955327880859375,0.00012951227836310863,0.00042014289647340775,-0.0013970411382615566
1772563531846396200,9.965396240234375,0.0005092790815979242,-0.0015447372570633888,-0.001407427480444312
1772563531856465200,9.975465087890624,0.0011189705692231655,-0.0005545467138290405,-0.0018862270517274737
1772563531866533000,9.985533203125,-0.0013428556267172098,-0.0011542909778654575,0.0000698647927492857
1772563531876601000,9.99560107421875,0.000038943951949477196,-0.0007542180828750134,0.00036672758869826794
1772563531886669000,10.0056689453125,0.00019207573495805264,0.0009536673314869404,0.002280208747833967
1772563531896737000,10.015737060546876,0.0004994121845811605,0.00009992625564336777,-0.0027148155495524406
1772563531906805000,10.025804931640625,0.00227147969417274,0.002031250623986125,-0.002804830204695463
1772563531916873000,10.035873046875,-0.0008994587697088718,-0.0007745306938886642,0.0024065899197012186
1772563531926941200,10.045941162109376,0.001428676419891417,-0.00023097917437553406,0.000809758435934782
1772563531937009200,10.056009033203125,-0.0003010800573974848,0.0024520400911569595,0.0037334486842155457
1772563531947077000,10.0660771484375,-0.0005418297369033098,0.0007606665603816509,0.0009001116268336773
1772563531957145000,10.07614501953125,-0.0019318107515573502,0.00009471597149968147,-0.0005601819138973951
1772563531967213000,10.086213134765625,0.0003055108245462179,-0.0005886508151888847,-0.0018462223233655095
1772563531977282000,10.096281982421875,-0.0011087509337812662,-0.00016853446140885353,0.0003558844327926636
1772563531987350000,10.10635009765625,0.0009970106184482574,0.0011254954151809216,-0.00025344686582684517
1772563531997418200,10.116418212890625,-0.0031387056224048138,-0.0006234790198504925,-0.0005588487256318331
1772563532007486200,10.126486328125,-0.00048646354116499424,0.0013075792230665684,0.001431864220649004
1772563532017554000,10.136553955078124,-0.001222311519086361,-0.00151372654363513,-0.0003773909993469715
1772563532027622000,10.146621826171875,-0.0014268425293266773,-0.0014479467645287514,-0.001559301745146513
1772563532037690000,10.156690185546875,-0.0006284697446972132,0.00104981055483222,-0.0004303576424717903
1772563532047758000,10.166758056640624,0.00008126278407871723,0.0007587270811200142,-0.00032862485386431217
1772563532057826000,10.176825927734376,-0.00156014459207654,-0.000517615582793951,0.0007409101817756891
1772563532067894000,10.18689404296875,0.002668422646820545,0.00020090537145733833,-0.001214116346091032
1772563532077962200,10.196962158203124,0.0004270623903721571,-0.000003552064299583435,-0.0006664060056209564
1772563532088031000,10.207031005859376,-0.00032421527430415154,-0.00039264000952243805,0.0004907376132905483
1772563532098099000,10.217098876953125,-0.0014434917829930782,-0.0009259851649403572,0.000792693579569459
1772563532108167200,10.227167236328125,-0.004179090727120638,-0.000163255725055933,0.0011631392408162355
1772563532118235100,10.237235107421874,0.0012890021316707134,0.0006680726073682308,0.0015245669055730104
1772563532128303000,10.24730322265625,-0.0014481949619948864,-0.00017348630353808403,-0.0024137157015502453
1772563532138371000,10.25737109375,-0.0010556355118751526,-0.00002780044451355934,0.00012452504597604275
1772563532148439300,10.267439208984374,0.0002852659672498703,0.00037114135921001434,-0.004367162473499775
1772563532158507000,10.277507080078125,-0.0006284757982939482,0.001003829762339592,-0.00004396331496536732
1772563532168575000,10.287574951171875,0.0007505090907216072,0.0007055560126900673,-0.0008892507757991552
1772563532178643000,10.297642822265624,0.0005215962883085012,0.0017517080996185541,-0.0003724023699760437
1772563532188711200,10.307711181640625,-0.000059771817177534103,-0.0024414388462901115,0.0015189743135124445
1772563532198779100,10.317779052734375,0.00035646907053887844,-0.0016817073337733746,0.0013077233452349901
1772563532208848000,10.327847900390625,-0.0002209041267633438,0.00015321047976613045,0.0027460965793579817
1772563532218916000,10.337916015625,0.0015735337510704994,0.0007225945591926575,0.002142624231055379
1772563532228984000,10.347984130859375,0.002536109648644924,-0.001010204665362835,0.00002192915417253971
1772563532239052000,10.358052001953125,-0.0006460563745349646,-0.0007452778518199921,0.0024783050175756216
1772563532249120000,10.3681201171875,-0.00012167985551059246,-0.001857680268585682,-0.0011411970481276512
1772563532259188200,10.378188232421875,-0.0025088912807404995,0.0019285664893686771,0.0028076760936528444
1772563532269256200,10.388256103515625,0.0003489467781037092,0.0023690531961619854,-0.0008895904757082462
1772563532279324200,10.39832421875,-0.0009866030886769295,0.00003989972174167633,-0.001611167099326849
1772563532289391900,10.408391845703125,-0.0016079186461865902,0.0022428666707128286,0.0019904919900000095
1772563532299460000,10.418460205078125,-0.0012556149158626795,-0.001213745679706335,0.0005938580725342035
1772563532309528000,10.428528076171874,0.0009390960913151503,-0.00027178553864359856,-0.0007821973413228989
1772563532319596000,10.438595947265625,-0.0009193536825478077,-0.0009955251589417458,-0.00169951852876693
1772563532329665300,10.448665283203125,-0.0014013857580721378,0.0005648210644721985,-0.0023405414540320635
1772563532339733200,10.458733154296874,-0.0008802448865026236,0.0000863601453602314,0.0012945919297635555
1772563532349801000,10.468801025390626,0.001244957558810711,0.0008453610353171825,-0.0014215658884495497
1772563532359869000,10.478868896484375,-0.001172069227322936,-0.0010055946186184883,0.0024459471460431814
1772563532369937200,10.488937255859375,-0.00007591210305690765,0.0009081526659429073,0.0013218268286436796
1772563532380005000,10.499005126953126,-0.0009570939000695944,0.0002774670720100403,-0.00013826275244355202
1772563532390073000,10.509072998046875,0.0006543849594891071,-0.0003912528045475483,0.0015706878621131182
1772563532400141000,10.51914111328125,-0.0013462018687278032,0.002084937412291765,0.0005907758604735136
1772563532410209300,10.529209228515626,0.0013015125878155231,0.0021144982893019915,-0.0011392136802896857
1772563532420277000,10.539277099609375,0.0018765578279271722,0.00023904722183942795,-0.0025246047880500555
1772563532430345000,10.549344970703125,-0.0011509237810969353,-0.0005841357633471489,-0.002665752312168479
1772563532440413000,10.559412841796876,0.0013141569215804338,0.0011504469439387321,-0.0009422239381819963
1772563532450482200,10.569482177734375,-0.0011647134087979794,0.0007467120885848999,-0.0010143956169486046
1772563532460550100,10.579550048828125,0.0004818420857191086,-0.0001422869972884655,0.001349185360595584
1772563532470618000,10.5896181640625,-0.0007527994457632303,0.0006180456839501858,0.002352930838242173
1772563532480686000,10.59968603515625,0.00010683364234864712,-0.0016524894163012505,0.0008440762758255005
1772563532490754000,10.609754150390625,0.0032118132803589106,0.000935837160795927,0.001520785503089428
1772563532500822000,10.619822021484374,0.0013761930167675018,-0.0011900821700692177,-0.00012418976984918118
1772563532510890000,10.629889892578126,-0.00026458059437572956,-0.0002939286641776562,0.0015421502757817507
1772563532520958200,10.639958251953125,0.0001449130941182375,-0.0001300964504480362,0.0025101385544985533
1772563532531026200,10.650026123046874,0.0006964537315070629,0.00083929393440485,-0.0009173494763672352
1772563532541094100,10.66009423828125,0.0005393063183873892,-0.0019629178568720818,-0.0007971106097102165
1772563532551162000,10.670162109375,-0.0007451365236192942,0.00040756165981292725,-0.001988875214010477
1772563532561230300,10.680230224609375,-0.0013320448342710733,0.0001587849110364914,-0.002208325546234846
1772563532571299300,10.69029931640625,0.0011995560489594936,-0.000496352557092905,-0.004601708613336086
1772563532581367600,10.700367431640625,0.0001321309246122837,0.001990049611777067,0.00025466899387538433
1772563532591435500,10.710435546875,-0.0006210112478584051,-0.00048748916015028954,0.003156981896609068
1772563532601503500,10.72050341796875,-0.000174615066498518,-0.001763832289725542,-0.0003524096682667732
1772563532611571200,10.7305712890625,0.00023657712154090405,0.0017653889954090118,-0.00033829500898718834
1772563532621639400,10.740639404296875,0.00013900292105972767,0.0010244706645607948,0.00029866956174373627
1772563532631707400,10.750707275390624,0.0012029358185827732,0.00005534617230296135,0.0002864191774278879
1772563532641775400,10.760775390625,0.0027474937960505486,-0.0013362588360905647,0.0009353321511298418
1772563532651843300,10.77084326171875,0.0005197594873607159,0.00003979634493589401,-0.0005379286594688892
1772563532661911600,10.78091162109375,-0.0006229619029909372,-0.0016849548555910587,0.0020726583898067474
1772563532671979500,10.7909794921875,-0.0012189771514385939,-0.0007427283562719822,-0.0008767927065491676
1772563532682047500,10.801047607421875,-0.0024118362925946712,-0.000017105136066675186,0.002155299996957183
1772563532692116500,10.811116455078125,0.002419670345261693,0.0010921014472842216,-0.001620263559743762
1772563532702184400,10.821184326171876,-0.0005774064920842648,0.0006519230082631111,0.001564904348924756
1772563532712252400,10.83125244140625,-0.0008605006150901318,0.0002697594463825226,-0.001573630841448903
1772563532722320400,10.8413203125,-0.00011642999015748501,-0.0005248277448117733,0.00133919483050704
1772563532732388600,10.851388671875,-0.0006016578990966082,0.003167911199852824,-0.0011617796262726188
1772563532742456300,10.861456298828125,0.0005675582215189934,0.001252999296411872,0.001125717768445611
1772563532752524300,10.871524169921875,-0.0013491190038621426,-0.0014269398525357246,-0.000021838583052158356
1772563532762592300,10.88159228515625,0.00006392388604581356,0.0004532099701464176,-0.0007218131795525551
1772563532772660500,10.891660400390625,-0.000443408265709877,-0.0010408232919871807,0.00044012395665049553
1772563532782728400,10.901728515625,0.0006669140420854092,-0.001604112796485424,-0.0005124255549162626
1772563532792796400,10.91179638671875,-0.00034348946064710617,-0.0002261931076645851,0.0009744174312800169
1772563532802864400,10.921864501953126,-0.0013545211404561996,0.00010878173634409904,0.00015184283256530762
1772563532812933400,10.931933349609375,0.0018021235009655356,0.0025469057727605104,0.00014332076534628868
1772563532823001300,10.94200146484375,-0.001187940128147602,0.0023776928428560495,0.0018904607277363539
1772563532833069300,10.9520693359375,-0.00095038628205657,0.00074757169932127,-0.0023231927771121264
1772563532843137500,10.962137451171875,-0.0003135434817522764,-0.0007065660320222378,-0.0002150151412934065
1772563532853205500,10.97220556640625,-0.0004967688582837582,0.0014263598714023829,0.0006632953882217407
1772563532863273500,10.9822734375,-0.0009966797661036253,-0.0012413416989147663,0.00037900079041719437
1772563532873341400,10.992341552734375,0.0011245280038565397,0.001059895846992731,-0.00028146314434707165
1772563532883409400,11.002409423828125,-0.0003126210067421198,0.0014287855010479689,0.0018114077392965555
1772563532893477400,11.012477294921876,-0.0026037385687232018,-0.0008514127694070339,0.002420206321403384
1772563532903545300,11.02254541015625,-0.0019426217768341303,-0.00006663892418146133,0.004161464050412178
1772563532913613300,11.03261328125,0.0011498406529426575,0.0005943574942648411,-0.0017448944272473454
1772563532923681500,11.042681640625,0.0017767344834282994,-0.0013130768202245235,-0.0004816714208573103
1772563532933749500,11.05274951171875,0.00198632525280118,0.001737041398882866,-0.00034691556356847286
1772563532943818200,11.062818359375,-0.0006492761895060539,-0.0008571706712245941,0.001274344976991415
1772563532953886500,11.072886474609374,0.00017497222870588303,-0.0014574471861124039,0.0029513374902307987
1772563532963954400,11.082954345703126,-0.0013977598864585161,0.0005919979885220528,-0.00030792225152254105
1772563532974022400,11.0930224609375,0.0007210508920252323,-0.0010815323330461979,-0.002336718374863267
1772563532984090400,11.10309033203125,0.0004184052813798189,-0.00031582359224557877,-0.0008035101927816868
1772563532994158600,11.11315869140625,-0.0005906664300709963,0.0011081686243414879,-0.002080229576677084
1772563533004226600,11.1232265625,0.0013703822623938322,0.0010865265503525734,-0.001810099696740508
1772563533014294300,11.133294189453125,-0.001482395688071847,0.00003164820373058319,0.0008059234824031591
1772563533024362200,11.1433623046875,0.00016875378787517548,0.0001442241482436657,0.0012589378748089075
1772563533034430500,11.153430419921875,0.0002188212238252163,-0.0006011947989463806,0.0013460235204547644
1772563533044498400,11.16349853515625,-0.0008043686393648386,-0.0008489461615681648,0.0037182671949267387
1772563533054566400,11.17356640625,0.0011714305728673935,-0.00006278092041611671,0.001315829809755087
1772563533064635400,11.183635498046876,-0.002304634777829051,0.001427752198651433,0.00011379807256162167
1772563533074703400,11.193703369140625,-0.0011312460992485285,0.0002969740889966488,0.00055535021238029
1772563533084771300,11.203771240234374,-0.00041017751209437847,0.0008229082450270653,0.0010463062208145857
1772563533094839300,11.21383935546875,-0.0017998151015490294,-0.0008069463074207306,-0.0010786300990730524
1772563533104907500,11.223907470703125,-0.0014509789180010557,0.0012993633281439543,0.002828741678968072
1772563533114975500,11.2339755859375,-0.00026880204677581787,0.0004069381393492222,0.002523809438571334
1772563533125043500,11.24404345703125,0.0007368687074631453,0.002113042399287224,0.00013067503459751606
1772563533135111400,11.254111328125,0.00022793863900005817,0.0010288693010807037,-0.00046187848784029484
1772563533145179400,11.264179443359374,-0.0001165284775197506,0.00040070153772830963,-0.0024767837021499872
1772563533155247400,11.274247314453126,0.00046404055319726467,0.0010939226485788822,-0.002520992187783122
1772563533165315300,11.2843154296875,-0.00009567709639668465,-0.0005128500051796436,0.002336629666388035
1772563533175383300,11.29438330078125,0.00013362104073166847,0.0009098108857870102,-0.001416563056409359
1772563533185452500,11.30445263671875,-0.0001680334098637104,0.0009604021906852722,-0.0006189774721860886
1772563533195520500,11.3145205078125,0.001577136106789112,0.0005209804512560368,0.003725969698280096
1772563533205588200,11.324588134765625,0.0015970401000231504,0.0009273872710764408,0.0019655560608953238
1772563533215656400,11.334656494140624,-0.0008256377186626196,-0.00004732981324195862,0.0038524058181792498
1772563533225724400,11.344724365234375,0.0007786690257489681,-0.0003437069244682789,0.0003387806937098503
1772563533235792400,11.35479248046875,0.0002407105639576912,0.000558838713914156,0.0008740762714296579
1772563533245860400,11.3648603515625,-0.0003647063858807087,-0.00017857225611805916,-0.003578397911041975
1772563533255928600,11.374928466796876,0.001422541099600494,-0.0004621990956366062,0.0004488341510295868
1772563533265996500,11.38499658203125,-0.0010933123994618654,-0.00028282031416893005,0.0024575369898229837
1772563533276064500,11.395064453125,-0.002274957252666354,-0.000553397461771965,-0.0005680799949914217
1772563533286132200,11.40513232421875,0.0006334015633910894,-0.00036655692383646965,0.003063047071918845
1772563533296200400,11.415200439453125,-0.000007088761776685715,-0.0019990745931863785,-0.0013189183082431555
1772563533306268400,11.425268310546874,-0.0007504166569560766,-0.0000102948397397995,-0.0009078942239284515
1772563533316337400,11.43533740234375,0.001678119646385312,0.0009812000207602978,0.0016636538784950972
1772563533326405600,11.445405517578125,-0.0006940215826034546,-0.00011706212535500526,-0.0017707868246361613
1772563533336473300,11.455473388671875,0.0006777725648134947,-0.0005972301587462425,-0.002442702418193221
1772563533346541300,11.465541259765626,0.0008973064832389355,0.00016805576160550117,-0.0003214858006685972
1772563533356609300,11.475609375,0.0015244808746501803,0.00013503246009349823,-0.00014944560825824738
1772563533366677500,11.485677490234375,-0.002200843533501029,0.0021194270811975002,0.0014415490441024303
1772563533376745500,11.495745361328124,0.001011993968859315,-0.001513923518359661,-0.0005486311856657267
1772563533386813400,11.5058134765625,-0.0009900261647999287,0.001967439893633127,0.0000896721612662077
1772563533396881400,11.51588134765625,0.00104036764241755,0.000010549090802669525,-0.0022584369871765375
1772563533406949600,11.52594970703125,-0.0005798647180199623,-0.0004113721661269665,-0.002399933058768511
1772563533417017300,11.536017333984375,0.0024713189341127872,0.0006192708387970924,-0.0012475834228098392
1772563533427085300,11.546085205078125,0.000954457325860858,-0.0005182446911931038,-0.0027386308647692204
1772563533437154600,11.556154541015625,0.00273451441898942,-0.0006412831135094166,0.0009120302274823189
1772563533447222500,11.566222412109376,-0.001281005796045065,0.00010886974632740021,-0.0009721156675368547
1772563533457290500,11.57629052734375,-0.0016229557804763317,-0.0005502626299858093,0.0014540241099894047
1772563533467358500,11.5863583984375,0.00023102760314941406,0.0012075293343514204,-0.0002543982118368149
1772563533477426400,11.596426513671876,0.0017972326604649425,-0.0005690655671060085,-0.0008333695586770773
1772563533487494400,11.606494384765625,0.00018283375538885593,0.0008852528408169746,0.0014718901365995407
