time,seconds_elapsed,z,y,x
1772562079443888400,0.055888427734375,-0.947845458984375,-0.46466064453125,-0.080078125
1772562079453955300,0.065955322265625,-1.0149993896484375,-0.432373046875,-0.106109619140625
1772562079464022300,0.076022216796875,-1.01861572265625,-0.4237213134765625,-0.0955810546875
1772562079474090200,0.08609033203125,-1.0124053955078125,-0.4152374267578125,-0.071624755859375
1772562079484157400,0.096157470703125,-1.00335693359375,-0.399871826171875,-0.0360870361328125
1772562079494224600,0.106224609375,-0.975341796875,-0.3809661865234375,0.0027313232421875
1772562079504291600,0.11629150390625,-0.956298828125,-0.3578948974609375,0.036865234375
1772562079514358500,0.126358642578125,-0.9303131103515625,-0.361785888671875,0.0378570556640625
1772562079524425500,0.136425537109375,-0.8915863037109375,-0.3695220947265625,0.0235443115234375
1772562079534492400,0.146492431640625,-0.846466064453125,-0.380584716796875,0.0119781494140625
1772562079544559400,0.156559326171875,-0.8036041259765625,-0.4191436767578125,-0.0149383544921875
1772562079554626600,0.16662646484375,-0.83099365234375,-0.4342041015625,-0.0492095947265625
1772562079564693500,0.176693603515625,-0.891815185546875,-0.4530181884765625,-0.12249755859375
1772562079574760400,0.186760498046875,-0.9557037353515625,-0.463226318359375,-0.22357177734375
1772562079584827400,0.196827392578125,-0.8767242431640625,-0.4390716552734375,-0.3002471923828125
1772562079594894300,0.206894287109375,-0.82122802734375,-0.3825225830078125,-0.2611083984375
1772562079604961300,0.216961181640625,-0.831390380859375,-0.3724517822265625,-0.1912994384765625
1772562079615028500,0.227028564453125,-0.8375701904296875,-0.3364715576171875,-0.1172637939453125
1772562079625095400,0.237095458984375,-0.85382080078125,-0.3730926513671875,-0.0696563720703125
1772562079635162400,0.247162353515625,-0.878662109375,-0.44000244140625,-0.0448455810546875
1772562079645229300,0.257229248046875,-0.8757781982421875,-0.50372314453125,-0.0555877685546875
1772562079655296500,0.267296630859375,-0.82611083984375,-0.4910430908203125,-0.058319091796875
1772562079665363500,0.277363525390625,-0.7359161376953125,-0.425537109375,0.0102691650390625
1772562079675431400,0.287431396484375,-0.7243194580078125,-0.2963104248046875,0.0715179443359375
1772562079685498400,0.297498291015625,-0.7411041259765625,-0.30902099609375,0.0452880859375
1772562079695565600,0.307565673828125,-0.697265625,-0.4483642578125,0.0198974609375
1772562079705632500,0.317632568359375,-0.592498779296875,-0.5166778564453125,0.03582763671875
1772562079715699500,0.327699462890625,-0.5730743408203125,-0.5368499755859375,0.0429534912109375
1772562079725766400,0.337766357421875,-0.6136627197265625,-0.648040771484375,0.040740966796875
1772562079735833300,0.347833251953125,-0.680755615234375,-0.7033843994140625,0.0115509033203125
1772562079745900300,0.357900390625,-0.824127197265625,-0.6763153076171875,-0.05908203125
1772562079755967500,0.367967529296875,-0.9488677978515625,-0.61737060546875,-0.1268463134765625
1772562079766034400,0.378034423828125,-1.009490966796875,-0.5596466064453125,-0.1564788818359375
1772562079776101400,0.388101318359375,-1.0119781494140625,-0.5267333984375,-0.1567230224609375
1772562079786168300,0.398168212890625,-0.9523468017578125,-0.5307769775390625,-0.137420654296875
1772562079796235500,0.408235595703125,-0.8968505859375,-0.5762786865234375,-0.1080474853515625
1772562079806302500,0.418302490234375,-0.8572998046875,-0.625091552734375,-0.0688323974609375
1772562079816369400,0.428369384765625,-0.821258544921875,-0.658966064453125,-0.0163726806640625
1772562079826436600,0.4384365234375,-0.825469970703125,-0.659881591796875,0.0236663818359375
1772562079836503600,0.448503662109375,-0.868621826171875,-0.610107421875,0.0414276123046875
1772562079846570500,0.458570556640625,-0.9023284912109375,-0.55694580078125,0.0557403564453125
1772562079856637400,0.468637451171875,-0.914703369140625,-0.5199432373046875,0.073150634765625
1772562079866704400,0.478704345703125,-0.9232177734375,-0.4853057861328125,0.0849761962890625
1772562079876772400,0.4887724609375,-0.930633544921875,-0.4860076904296875,0.097900390625
1772562079886839300,0.49883935546875,-0.934234619140625,-0.4859466552734375,0.1217498779296875
1772562079896906500,0.508906494140625,-0.91015625,-0.4751129150390625,0.13519287109375
1772562079906973400,0.518973388671875,-0.8780975341796875,-0.47198486328125,0.14410400390625
1772562079917040400,0.529040283203125,-0.835052490234375,-0.4665069580078125,0.149169921875
1772562079927107600,0.539107666015625,-0.795928955078125,-0.4648895263671875,0.1564178466796875
1772562079937174500,0.549174560546875,-0.74945068359375,-0.447509765625,0.17315673828125
1772562079947241500,0.559241455078125,-0.6884002685546875,-0.43255615234375,0.1974639892578125
1772562079957308400,0.569308349609375,-0.582061767578125,-0.46514892578125,0.234161376953125
1772562079967375600,0.579375732421875,-0.47686767578125,-0.571746826171875,0.284454345703125
1772562079977442600,0.589442626953125,-0.523223876953125,-0.6092529296875,0.260894775390625
1772562079987509500,0.599509521484375,-0.6516571044921875,-0.5532684326171875,0.1641845703125
1772562079997576400,0.609576416015625,-0.7859039306640625,-0.5001220703125,0.099609375
1772562080007643400,0.619643310546875,-0.9047393798828125,-0.4954833984375,0.0803375244140625
1772562080017710300,0.62971044921875,-0.9456329345703125,-0.5226898193359375,0.1003570556640625
1772562080027777500,0.639777587890625,-0.841827392578125,-0.526611328125,0.150238037109375
1772562080037844500,0.649844482421875,-0.6776123046875,-0.5066680908203125,0.2015380859375
1772562080047911400,0.659911376953125,-0.6049652099609375,-0.5560760498046875,0.272613525390625
1772562080057978400,0.669978271484375,-0.657806396484375,-0.545074462890625,0.296600341796875
1772562080068045300,0.68004541015625,-0.785003662109375,-0.4595947265625,0.273345947265625
1772562080078112300,0.6901123046875,-0.9401397705078125,-0.3807373046875,0.2653961181640625
1772562080088180500,0.700180419921875,-1.090179443359375,-0.3458709716796875,0.251556396484375
1772562080098247400,0.710247314453125,-1.1509552001953125,-0.334014892578125,0.20489501953125
1772562080108314600,0.720314697265625,-1.1486358642578125,-0.336639404296875,0.150115966796875
1772562080118381600,0.730381591796875,-1.0717926025390625,-0.3115386962890625,0.1168670654296875
1772562080128448500,0.740448486328125,-0.905792236328125,-0.3009033203125,0.1154022216796875
1772562080138515200,0.75051513671875,-1.0198516845703125,-0.3784942626953125,0.1302032470703125
1772562080148582100,0.76058203125,-1.120941162109375,-0.4208526611328125,0.131927490234375
1772562080158649300,0.7706494140625,-1.0002288818359375,-0.390777587890625,0.12164306640625
1772562080168716500,0.780716552734375,-0.8786468505859375,-0.3776702880859375,0.105499267578125
1772562080178783500,0.790783447265625,-0.7895355224609375,-0.390289306640625,0.0924224853515625
1772562080188850400,0.800850341796875,-0.7861328125,-0.4098968505859375,0.0693817138671875
1772562080198917400,0.81091748046875,-0.731719970703125,-0.3608245849609375,-0.003875732421875
1772562080208984300,0.820984375,-0.851654052734375,-0.4389190673828125,0.04833984375
1772562080219051300,0.83105126953125,-0.9912109375,-0.51416015625,0.136444091796875
1772562080229118500,0.841118408203125,-1.1184539794921875,-0.4792633056640625,0.170562744140625
1772562080239185400,0.851185302734375,-1.0680389404296875,-0.3932037353515625,0.1850738525390625
1772562080249252400,0.86125244140625,-0.8863677978515625,-0.3050994873046875,0.201568603515625
1772562080259319300,0.8713193359375,-0.7620086669921875,-0.2488861083984375,0.2424774169921875
1772562080269386200,0.88138623046875,-0.662109375,-0.239654541015625,0.3051910400390625
1772562080279453200,0.891453125,-0.651641845703125,-0.279937744140625,0.3508453369140625
1772562080289521200,0.901521240234375,-0.67730712890625,-0.3242340087890625,0.3247222900390625
1772562080299588400,0.91158837890625,-0.717864990234375,-0.365570068359375,0.2418060302734375
1772562080309655600,0.921655517578125,-0.842681884765625,-0.403961181640625,0.069793701171875
1772562080319722500,0.931722412109375,-0.94927978515625,-0.4039154052734375,-0.175994873046875
1772562080329789400,0.94178955078125,-0.7920379638671875,-0.32171630859375,-0.3316497802734375
1772562080339856400,0.9518564453125,-0.6335906982421875,-0.2709503173828125,-0.37445068359375
1772562080349923300,0.96192333984375,-0.4535064697265625,-0.264556884765625,-0.28656005859375
1772562080359990300,0.971990234375,-0.3689117431640625,-0.2392578125,-0.177520751953125
1772562080370057500,0.982057373046875,-0.3298492431640625,-0.1642913818359375,-0.084320068359375
1772562080380124400,0.99212451171875,-0.1667938232421875,0.006317138671875,-0.1371002197265625
1772562080390191400,1.00219140625,-0.15167236328125,0.0194091796875,-0.175079345703125
1772562080400258300,1.01225830078125,-0.242767333984375,-0.14349365234375,-0.1254730224609375
1772562080410325200,1.0223251953125,-0.255157470703125,-0.26934814453125,-0.1013031005859375
1772562080420392200,1.03239208984375,-0.310302734375,-0.3912506103515625,-0.130767822265625
1772562080430459100,1.042459228515625,-0.69305419921875,-0.5726318359375,-0.0774993896484375
1772562080440526300,1.0525263671875,-1.0975799560546875,-0.7290496826171875,-0.038543701171875
1772562080450593300,1.06259326171875,-0.91546630859375,-0.5468902587890625,-0.1558837890625
1772562080460660200,1.07266015625,-0.6622467041015625,-0.3113555908203125,-0.27117919921875
1772562080470727400,1.0827275390625,-0.517303466796875,-0.2248687744140625,-0.2274627685546875
1772562080480794400,1.09279443359375,-0.5892791748046875,-0.311798095703125,-0.2447052001953125
1772562080490861300,1.102861328125,-0.8424530029296875,-0.4083251953125,-0.361846923828125
1772562080500928500,1.112928466796875,-1.0357666015625,-0.2880859375,-0.36846923828125
1772562080510996200,1.122996337890625,-1.21820068359375,-0.21551513671875,-0.305206298828125
1772562080521063400,1.1330634765625,-1.30633544921875,-0.240692138671875,-0.16436767578125
1772562080531130400,1.14313037109375,-1.2462615966796875,-0.26715087890625,-0.0973358154296875
1772562080541197300,1.153197265625,-1.2035980224609375,-0.3504791259765625,-0.1457672119140625
1772562080551264300,1.16326416015625,-1.339569091796875,-0.3807830810546875,-0.1921844482421875
1772562080561331200,1.173331298828125,-1.4775543212890625,-0.39654541015625,-0.28369140625
1772562080571398100,1.183398193359375,-1.5403289794921875,-0.366180419921875,-0.3528900146484375
1772562080581465300,1.19346533203125,-1.940093994140625,-0.547119140625,-0.476715087890625
1772562080591532300,1.2035322265625,-2.1111907958984375,-0.5819549560546875,-0.52508544921875
1772562080601599200,1.21359912109375,-2.0584716796875,-0.7898101806640625,-0.640045166015625
1772562080611666400,1.22366650390625,-1.9072723388671875,-1.08062744140625,-0.7778472900390625
1772562080621733400,1.2337333984375,-2.171661376953125,-1.184234619140625,-0.876220703125
1772562080631800300,1.24380029296875,-3.0657501220703125,-1.00140380859375,-1.09619140625
1772562080641867500,1.253867431640625,-3.2605133056640625,-0.8382415771484375,-1.2099456787109375
1772562080651934500,1.2639345703125,-3.626739501953125,-0.868499755859375,-1.2160186767578125
1772562080662001400,1.27400146484375,-3.5642852783203125,-0.715789794921875,-0.9777069091796875
1772562080672068400,1.284068359375,-3.1585235595703125,-0.5345611572265625,-0.5296630859375
1772562080682135300,1.29413525390625,-2.611907958984375,-0.6186370849609375,-0.2105255126953125
1772562080692202200,1.3042021484375,-2.215545654296875,-0.7352294921875,-0.3253173828125
1772562080702269400,1.31426953125,-1.8962860107421875,-0.7912139892578125,-0.60650634765625
1772562080712336400,1.32433642578125,-1.5947418212890625,-0.73187255859375,-0.663177490234375
1772562080722403300,1.3344033203125,-1.3926849365234375,-0.542633056640625,-0.6190185546875
1772562080732470300,1.34447021484375,-1.340850830078125,-0.2571868896484375,-0.6931915283203125
1772562080742538200,1.354538330078125,-1.0609588623046875,-0.041412353515625,-0.68115234375
1772562080752605400,1.36460546875,-0.418487548828125,0.039276123046875,-0.394317626953125
1772562080762672400,1.37467236328125,0.133544921875,0.0849609375,-0.056976318359375
1772562080772739300,1.3847392578125,0.3349761962890625,0.11688232421875,0.071533203125
1772562080782806300,1.39480615234375,0.381866455078125,0.097137451171875,-0.140350341796875
1772562080792873500,1.40487353515625,0.2393341064453125,0.081146240234375,-0.5355987548828125
1772562080802940400,1.4149404296875,0.0032501220703125,0.0820465087890625,-0.7234954833984375
1772562080813007400,1.42500732421875,-0.1627960205078125,0.124969482421875,-0.7163848876953125
1772562080823074300,1.43507421875,-0.3903656005859375,0.226806640625,-0.624298095703125
1772562080833141200,1.445141357421875,-0.595489501953125,0.2063751220703125,-0.435760498046875
1772562080843208200,1.455208251953125,-0.572052001953125,0.0344085693359375,-0.07568359375
1772562080853275400,1.465275390625,-0.3989410400390625,-0.13031005859375,0.170379638671875
1772562080863342300,1.47534228515625,-0.333892822265625,-0.1898345947265625,0.227264404296875
1772562080873409300,1.4854091796875,-0.2702484130859375,-0.291259765625,0.213134765625
1772562080883476200,1.495476318359375,-0.079498291015625,-0.347747802734375,0.202178955078125
1772562080893543200,1.505543212890625,0.11090087890625,-0.4040374755859375,0.196533203125
1772562080903610000,1.515610107421875,0.2766876220703125,-0.4665679931640625,0.13421630859375
1772562080913677300,1.52567724609375,0.5105133056640625,-0.46771240234375,0.0854034423828125
1772562080923744500,1.53574462890625,0.735870361328125,-0.4319610595703125,0.11767578125
1772562080933811500,1.5458115234375,0.87347412109375,-0.3853302001953125,0.342498779296875
1772562080943878400,1.55587841796875,0.8875885009765625,-0.2928619384765625,0.4600372314453125
1772562080953945300,1.5659453125,0.7790679931640625,-0.1729583740234375,0.472076416015625
1772562080964013300,1.576013427734375,0.45208740234375,-0.1011810302734375,0.41473388671875
1772562080974080300,1.586080322265625,0.0131072998046875,-0.007720947265625,0.358978271484375
1772562080984147200,1.596147216796875,-0.165802001953125,0.1956634521484375,0.288604736328125
1772562080994214400,1.60621435546875,-0.283294677734375,0.2708282470703125,0.3993072509765625
1772562081004281300,1.61628125,-0.1181488037109375,0.2321014404296875,0.5690155029296875
1772562081014348300,1.626348388671875,0.1903076171875,0.167694091796875,0.7002410888671875
1772562081024415200,1.636415283203125,0.3989410400390625,0.1807403564453125,0.7961578369140625
1772562081034482200,1.646482177734375,0.321807861328125,0.2406158447265625,0.685455322265625
1772562081044549000,1.656549072265625,-0.42193603515625,0.4363555908203125,0.53802490234375
1772562081054616300,1.6666162109375,-1.3238677978515625,0.7118988037109375,0.314849853515625
1772562081064683500,1.67668359375,-1.8897857666015625,1.0566864013671875,-0.0947113037109375
1772562081074750500,1.68675048828125,-2.3892669677734375,1.16253662109375,-0.4442901611328125
1772562081084817400,1.6968173828125,-2.66729736328125,0.9565582275390625,-0.6876983642578125
1772562081094884400,1.70688427734375,-2.43994140625,0.61871337890625,-0.807037353515625
1772562081104951300,1.716951416015625,-1.927490234375,0.23974609375,-0.6749114990234375
1772562081115018200,1.727018310546875,-1.2587432861328125,-0.099853515625,-0.3664398193359375
1772562081125085400,1.73708544921875,-0.6904296875,-0.3062286376953125,-0.110870361328125
1772562081135152400,1.74715234375,-0.3609619140625,-0.438385009765625,0.0650787353515625
1772562081145219600,1.757219482421875,-0.1955718994140625,-0.64849853515625,0.0855560302734375
1772562081155286500,1.76728662109375,-0.0517578125,-0.9127960205078125,-0.109375
1772562081165353500,1.777353515625,0.025726318359375,-1.1451568603515625,-0.3662109375
1772562081175420400,1.78742041015625,-0.0194854736328125,-1.3110809326171875,-0.505462646484375
1772562081185488400,1.79748828125,-0.087127685546875,-1.378570556640625,-0.4452667236328125
1772562081195555300,1.807555419921875,-0.029754638671875,-1.399169921875,-0.33966064453125
1772562081205622500,1.81762255859375,-0.0440673828125,-1.3819427490234375,-0.266143798828125
1772562081215689500,1.827689453125,-0.35076904296875,-1.2874755859375,-0.2283477783203125
1772562081225756700,1.837756591796875,-1.013397216796875,-1.2290496826171875,-0.285308837890625
1772562081235823600,1.84782373046875,-2.0133056640625,-1.167572021484375,-0.4943695068359375
1772562081245890600,1.857890625,-2.91729736328125,-1.1065521240234375,-0.6937255859375
1772562081255957500,1.86795751953125,-3.5610504150390625,-1.2108306884765625,-0.894012451171875
1772562081266024700,1.878024658203125,-4.07818603515625,-1.423828125,-1.0868682861328125
1772562081276091600,1.888091552734375,-4.04241943359375,-1.538604736328125,-1.242706298828125
1772562081286158600,1.89815869140625,-3.8770294189453125,-1.5193328857421875,-1.3627471923828125
1772562081296225500,1.9082255859375,-4.2454986572265625,-1.530517578125,-1.1927032470703125
1772562081306292500,1.91829248046875,-4.4013824462890625,-1.4358673095703125,-0.9192047119140625
1772562081316359400,1.928359375,-4.311767578125,-1.0173797607421875,-0.8043365478515625
1772562081326426600,1.938426513671875,-4.130279541015625,-0.6126556396484375,-0.6860504150390625
1772562081336493600,1.94849365234375,-4.0232086181640625,-0.2194671630859375,-0.8845672607421875
1772562081346560500,1.958560546875,-3.7914886474609375,0.4351654052734375,-1.19366455078125
1772562081356627500,1.96862744140625,-3.31744384765625,0.9243316650390625,-1.3883056640625
1772562081366694400,1.9786943359375,-2.685333251953125,0.9690093994140625,-1.28424072265625
1772562081376761300,1.98876123046875,-1.4232940673828125,0.77117919921875,-0.7711181640625
1772562081386828500,1.99882861328125,-0.392669677734375,0.7169189453125,0.048675537109375
1772562081396895700,2.008895751953125,-0.368896484375,0.9992523193359375,0.4279022216796875
1772562081406962700,2.018962646484375,-0.5063934326171875,1.1736602783203125,0.0211334228515625
1772562081417030700,2.02903076171875,-0.26007080078125,0.87530517578125,-0.3186187744140625
1772562081427097600,2.03909765625,0.17333984375,0.6480865478515625,-0.2871856689453125
1772562081437164500,2.04916455078125,0.4387359619140625,0.545867919921875,-0.15191650390625
1772562081447231500,2.0592314453125,0.49981689453125,0.4904022216796875,-0.006011962890625
1772562081457298400,2.06929833984375,0.3783416748046875,0.549285888671875,0.0891876220703125
1772562081467365400,2.079365478515625,0.066864013671875,0.667724609375,0.1591033935546875
1772562081477432600,2.0894326171875,-0.278167724609375,0.69635009765625,0.217041015625
1772562081487499500,2.09949951171875,-0.3185882568359375,0.436859130859375,0.2145843505859375
1772562081497566500,2.10956640625,0.0013427734375,0.0523681640625,-0.075347900390625
1772562081507633400,2.11963330078125,0.2234649658203125,-0.3559417724609375,-0.2336273193359375
1772562081517700400,2.129700439453125,0.72357177734375,-0.429534912109375,-0.457550048828125
1772562081527767300,2.139767333984375,0.952880859375,-0.2490997314453125,-0.6214599609375
1772562081537834800,2.149834716796875,0.9579620361328125,-0.24530029296875,-0.453338623046875
1772562081547901700,2.159901611328125,0.85882568359375,-0.2477874755859375,-0.2495880126953125
1772562081557968600,2.16996875,0.645599365234375,-0.184722900390625,-0.207244873046875
1772562081568035600,2.18003564453125,0.34033203125,-0.1814117431640625,-0.348663330078125
1772562081578102500,2.1901025390625,-0.000396728515625,-0.246795654296875,-0.549774169921875
1772562081588169500,2.20016943359375,-0.2675933837890625,-0.359375,-0.711578369140625
1772562081598236700,2.210236572265625,-0.406646728515625,-0.4384613037109375,-0.8278961181640625
1772562081608303600,2.2203037109375,-0.49761962890625,-0.4193878173828125,-0.90380859375
1772562081618370600,2.23037060546875,-0.5347900390625,-0.440399169921875,-0.8468170166015625
1772562081628438500,2.2404384765625,-0.4204864501953125,-0.5894012451171875,-0.7467193603515625
1772562081638505500,2.25050537109375,-0.2484893798828125,-0.6467742919921875,-0.7007598876953125
1772562081648572400,2.260572509765625,-0.1610107421875,-0.55133056640625,-0.698028564453125
1772562081658639400,2.270639404296875,-0.206512451171875,-0.3519439697265625,-0.71527099609375
1772562081668706600,2.28070654296875,-0.417205810546875,-0.054412841796875,-0.695343017578125
1772562081678773800,2.290773681640625,-0.7895355224609375,0.1094207763671875,-0.5978546142578125
1772562081688840700,2.3008408203125,-0.8653564453125,0.14068603515625,-0.51971435546875
1772562081698907600,2.31090771484375,-0.6572265625,0.154632568359375,-0.42462158203125
1772562081708974600,2.320974609375,-0.345794677734375,0.05328369140625,-0.2508697509765625
1772562081719041500,2.33104150390625,-0.057586669921875,-0.108245849609375,-0.0722808837890625
1772562081729108500,2.3411083984375,0.1015472412109375,-0.2845458984375,-0.03643798828125
1772562081739175700,2.35117578125,0.195953369140625,-0.428863525390625,-0.0810089111328125
1772562081749242600,2.36124267578125,0.3204345703125,-0.4974822998046875,-0.0383148193359375
1772562081759309600,2.3713095703125,0.4337310791015625,-0.4756622314453125,0.0877838134765625
1772562081769376500,2.38137646484375,0.4651336669921875,-0.22808837890625,0.53448486328125
1772562081779443500,2.391443359375,0.3925628662109375,-0.1493682861328125,0.773956298828125
1772562081789510400,2.401510498046875,0.0516204833984375,-0.1634063720703125,0.6822357177734375
1772562081799577600,2.41157763671875,-0.4683837890625,-0.2165069580078125,0.3266754150390625
1772562081809644500,2.42164453125,-0.8225555419921875,-0.2557525634765625,0.145294189453125
1772562081819711500,2.43171142578125,-0.822357177734375,-0.4429779052734375,0.200469970703125
1772562081829778400,2.4417783203125,-0.8618927001953125,-0.6096343994140625,0.287567138671875
1772562081839846700,2.4518466796875,-1.262542724609375,-0.51251220703125,0.261749267578125
1772562081849913600,2.46191357421875,-1.898468017578125,-0.370147705078125,0.2073211669921875
1772562081859980500,2.47198046875,-2.6719207763671875,-0.3878173828125,0.11883544921875
1772562081870047500,2.482047607421875,-3.452850341796875,-0.531951904296875,-0.1019744873046875
1772562081880114400,2.492114501953125,-3.855316162109375,-0.836181640625,-0.395843505859375
1772562081890181600,2.502181640625,-3.6617279052734375,-1.15576171875,-0.5854644775390625
1772562081900248600,2.51224853515625,-3.28662109375,-1.1982421875,-0.801544189453125
1772562081910315500,2.5223154296875,-3.778289794921875,-1.0083465576171875,-0.8586578369140625
1772562081920382500,2.532382568359375,-4.6192779541015625,-1.030792236328125,-0.416259765625
1772562081930449400,2.542449462890625,-4.6824798583984375,-0.6623382568359375,0.0358734130859375
1772562081940516400,2.552516357421875,-4.7682952880859375,-0.0960235595703125,0.5267181396484375
1772562081950583600,2.56258349609375,-5.00689697265625,0.1760406494140625,0.7509002685546875
1772562081960650500,2.572650390625,-4.9490203857421875,0.3719482421875,0.4693756103515625
1772562081970717400,2.582717529296875,-4.597503662109375,0.3036956787109375,-0.021087646484375
1772562081980784600,2.59278466796875,-3.86871337890625,-0.3530426025390625,-0.3930816650390625
1772562081990851600,2.6028515625,-2.6342926025390625,-0.6461181640625,-1.023284912109375
1772562082000918500,2.61291845703125,-1.7946929931640625,-0.503570556640625,-1.112701416015625
1772562082010985700,2.62298583984375,-1.3327789306640625,0.008331298828125,-0.684051513671875
1772562082021052700,2.633052734375,-1.1105499267578125,0.82647705078125,-0.0031280517578125
1772562082031119600,2.64311962890625,-0.789581298828125,1.22705078125,0.91705322265625
1772562082041186600,2.6531865234375,-0.3514251708984375,1.056427001953125,1.3037109375
1772562082051253500,2.66325341796875,-0.04779052734375,0.7025146484375,0.681854248046875
1772562082061321500,2.673321533203125,0.070098876953125,0.2728118896484375,-0.3518218994140625
1772562082071388400,2.683388427734375,0.1975555419921875,-0.0653076171875,-1.2118377685546875
1772562082081455400,2.693455322265625,0.6230010986328125,-0.2823944091796875,-1.667755126953125
1772562082091522600,2.7035224609375,1.0534210205078125,-0.2460479736328125,-1.57208251953125
1772562082101589500,2.713589599609375,1.0343780517578125,0.084930419921875,-1.109588623046875
1772562082111656400,2.723656494140625,0.7244110107421875,0.1591339111328125,-0.4037628173828125
1772562082121723600,2.7337236328125,0.811187744140625,0.051300048828125,0.1262359619140625
1772562082131790600,2.74379052734375,1.180877685546875,0.0641937255859375,0.061309814453125
1772562082141857800,2.75385791015625,1.0336761474609375,-0.0100860595703125,-0.3062286376953125
1772562082151924700,2.7639248046875,0.75146484375,-0.12628173828125,-0.6559295654296875
1772562082161992000,2.773991943359375,0.5821533203125,-0.0585784912109375,-0.7060546875
1772562082172059000,2.784058837890625,0.497589111328125,-0.0258331298828125,-0.473541259765625
1772562082182125800,2.794125732421875,0.276580810546875,0.0779571533203125,-0.2274627685546875
1772562082192192800,2.80419287109375,-0.0528411865234375,0.1471405029296875,-0.1029510498046875
1772562082202259700,2.814259765625,-0.269287109375,0.1099090576171875,-0.152130126953125
1772562082212326700,2.82432666015625,-0.317779541015625,0.0521392822265625,-0.3104705810546875
1772562082222393900,2.834393798828125,-0.1831512451171875,0.00726318359375,-0.4287567138671875
1772562082232460800,2.844460693359375,-0.0753326416015625,-0.04742431640625,-0.479888916015625
1772562082242527700,2.85452783203125,-0.0125885009765625,-0.127288818359375,-0.496246337890625
1772562082252595000,2.864594970703125,0.04742431640625,-0.169158935546875,-0.5037841796875
1772562082262662000,2.874661865234375,0.105712890625,-0.1503753662109375,-0.5290985107421875
1772562082272729900,2.884729736328125,0.1564788818359375,-0.1191253662109375,-0.60498046875
1772562082282796800,2.894796875,0.00799560546875,-0.0325164794921875,-0.6734619140625
1772562082292863700,2.90486376953125,-0.3123931884765625,0.13214111328125,-0.6573486328125
1772562082302931000,2.914930908203125,-0.5417327880859375,0.295135498046875,-0.5319976806640625
1772562082312998000,2.924997802734375,-0.6124725341796875,0.417877197265625,-0.39361572265625
1772562082323064800,2.93506494140625,-0.547637939453125,0.4550933837890625,-0.3362884521484375
1772562082333131800,2.9451318359375,-0.4093017578125,0.4532318115234375,-0.372222900390625
1772562082343198700,2.95519873046875,-0.371124267578125,0.43951416015625,-0.4603118896484375
1772562082353265700,2.965265625,-0.4958648681640625,0.39892578125,-0.5206756591796875
1772562082363332900,2.975332763671875,-0.6495513916015625,0.4381561279296875,-0.4361572265625
1772562082373399800,2.98539990234375,-0.79400634765625,0.4459075927734375,-0.1325225830078125
1772562082383466800,2.995466796875,-0.8502349853515625,0.2869720458984375,0.2081298828125
1772562082393534000,3.005533935546875,-0.86407470703125,0.0250244140625,0.344635009765625
1772562082403601000,3.015600830078125,-0.8961639404296875,-0.287933349609375,0.2058258056640625
1772562082413667800,3.025667724609375,-0.986480712890625,-0.5436859130859375,-0.04248046875
1772562082423734800,3.03573486328125,-1.063995361328125,-0.8072967529296875,-0.1729583740234375
1772562082433802000,3.045802001953125,-0.941497802734375,-1.0137176513671875,-0.031341552734375
1772562082443869000,3.055868896484375,-0.7242584228515625,-1.1038818359375,0.287017822265625
1772562082453935900,3.065935791015625,-0.6884765625,-1.145538330078125,0.5232696533203125
1772562082464002800,3.0760029296875,-0.99017333984375,-1.0748443603515625,0.624420166015625
1772562082474070800,3.08607080078125,-1.5194854736328125,-0.9496307373046875,0.6782073974609375
1772562082484137700,3.0961376953125,-2.145721435546875,-0.8487396240234375,0.690643310546875
1772562082494204700,3.10620458984375,-2.7873077392578125,-0.6526031494140625,0.5621337890625
1772562082504272000,3.11627197265625,-3.4562225341796875,-0.55328369140625,0.4178619384765625
1772562082514338800,3.1263388671875,-3.904571533203125,-0.64324951171875,0.3455963134765625
1772562082524405800,3.13640576171875,-4.00836181640625,-0.749298095703125,0.32781982421875
1772562082534473000,3.146472900390625,-4.0267181396484375,-0.8078155517578125,0.128265380859375
1772562082544540000,3.156539794921875,-4.2913360595703125,-0.5219879150390625,-0.5401611328125
1772562082554606800,3.16660693359375,-5.255096435546875,-0.4645538330078125,-0.636138916015625
1772562082564673800,3.176673828125,-5.2269439697265625,-0.4429473876953125,-0.2385711669921875
1772562082574741000,3.186740966796875,-4.4080810546875,0.107330322265625,-0.18634033203125
1772562082584808000,3.196807861328125,-3.8893585205078125,0.2213287353515625,0.0722503662109375
1772562082594875000,3.206875,-3.384490966796875,0.2870330810546875,-0.1069183349609375
1772562082604941800,3.21694189453125,-2.79388427734375,0.339874267578125,-0.3888397216796875
1772562082615008800,3.2270087890625,-1.954833984375,-0.0745086669921875,-0.232147216796875
1772562082625075700,3.23707568359375,-0.876556396484375,-0.2468414306640625,0.0495147705078125
1772562082635143000,3.247142822265625,-0.32965087890625,-0.2303924560546875,0.1480712890625
1772562082645209900,3.2572099609375,-0.4046478271484375,-0.16033935546875,-0.2044219970703125
1772562082655276800,3.26727685546875,-0.3348236083984375,-0.23284912109375,-0.7674560546875
1772562082665343700,3.27734375,-0.0402069091796875,-0.4773101806640625,-1.1772003173828125
1772562082675410700,3.28741064453125,0.3437042236328125,-0.639373779296875,-1.228790283203125
1772562082685477600,3.2974775390625,0.7140655517578125,-0.5230255126953125,-0.9379730224609375
1772562082695545900,3.3075458984375,0.96173095703125,-0.1856231689453125,-0.595794677734375
1772562082705612800,3.31761279296875,0.8546142578125,0.299407958984375,-0.289764404296875
1772562082715680000,3.327679931640625,0.045928955078125,0.491241455078125,-0.1793365478515625
1772562082725747000,3.337746826171875,-0.72467041015625,0.48004150390625,-0.1812896728515625
1772562082735814000,3.34781396484375,-0.894805908203125,0.271575927734375,-0.28228759765625
1772562082745880800,3.357880859375,-0.232818603515625,-0.0802764892578125,-0.334136962890625
1772562082755947800,3.36794775390625,0.7996826171875,-0.3198699951171875,-0.4355926513671875
1772562082766014700,3.3780146484375,1.350677490234375,-0.3707733154296875,-0.43646240234375
1772562082776082000,3.38808203125,1.5493621826171875,-0.2683563232421875,-0.351531982421875
1772562082786148900,3.39814892578125,1.5508575439453125,-0.09173583984375,-0.459503173828125
1772562082796215800,3.4082158203125,1.1970672607421875,0.0936279296875,-0.5871734619140625
1772562082806282800,3.41828271484375,0.816009521484375,0.1956634521484375,-0.6309051513671875
1772562082816349700,3.428349609375,0.5098724365234375,0.2192840576171875,-0.69073486328125
1772562082826416600,3.438416748046875,0.202423095703125,0.2737274169921875,-0.7985687255859375
1772562082836483800,3.44848388671875,-0.1811676025390625,0.27044677734375,-0.9790802001953125
1772562082846551000,3.458551025390625,-0.44921875,0.281829833984375,-1.3486175537109375
1772562082856618000,3.468617919921875,-0.7570953369140625,0.4671630859375,-1.62615966796875
1772562082866685000,3.478684814453125,-1.0497283935546875,0.580291748046875,-1.6545867919921875
1772562082876752000,3.488751953125,-1.2388916015625,0.4911956787109375,-1.4811859130859375
1772562082886818800,3.49881884765625,-1.1953582763671875,0.3054962158203125,-1.3216705322265625
1772562082896885800,3.5088857421875,-1.02923583984375,0.3154754638671875,-1.1859588623046875
1772562082906953700,3.51895361328125,-1.04290771484375,0.3968353271484375,-0.9904632568359375
1772562082917020700,3.529020751953125,-1.17779541015625,0.347137451171875,-0.7879791259765625
1772562082927087900,3.539087890625,-1.1763916015625,0.110382080078125,-0.590362548828125
1772562082937154800,3.54915478515625,-0.9335784912109375,-0.157135009765625,-0.3163299560546875
1772562082947221800,3.5592216796875,-0.49041748046875,-0.281707763671875,0.0229339599609375
1772562082957288700,3.569288818359375,-0.0050811767578125,-0.3166351318359375,0.365264892578125
1772562082967355600,3.579355712890625,0.2332916259765625,-0.290740966796875,0.6524658203125
1772562082977422600,3.589422607421875,0.1910552978515625,-0.3563690185546875,0.9026641845703125
1772562082987490000,3.599489990234375,-0.0426025390625,-0.4693450927734375,1.1626739501953125
1772562082997557000,3.609556884765625,-0.281494140625,-0.4690399169921875,1.39886474609375
1772562083007624000,3.6196240234375,-0.4876708984375,-0.36199951171875,1.5719757080078125
1772562083017691000,3.62969091796875,-0.6088714599609375,-0.2096405029296875,1.65423583984375
1772562083027757800,3.6397578125,-0.625701904296875,-0.1634063720703125,1.5442657470703125
1772562083037824800,3.64982470703125,-0.50262451171875,-0.1715240478515625,1.2780609130859375
1772562083047892000,3.65989208984375,-0.3543853759765625,-0.1423797607421875,1.0556488037109375
1772562083057959000,3.669958984375,-0.3981475830078125,-0.104827880859375,0.9887237548828125
1772562083068025900,3.68002587890625,-0.5976715087890625,-0.0634002685546875,0.928802490234375
1772562083078092800,3.6900927734375,-0.9364166259765625,0.0020751953125,0.7119293212890625
1772562083088159700,3.70015966796875,-1.4001922607421875,0.00299072265625,0.3589324951171875
1772562083098226700,3.710226806640625,-1.858795166015625,-0.068817138671875,-0.1064300537109375
1772562083108294700,3.720294677734375,-2.39544677734375,-0.2723541259765625,-0.6022491455078125
1772562083118361600,3.730361572265625,-2.95404052734375,-0.619293212890625,-0.682769775390625
1772562083128429000,3.740428955078125,-3.167877197265625,-1.2801361083984375,-0.2723388671875
1772562083138496000,3.75049609375,-2.9048614501953125,-2.15899658203125,0.23846435546875
1772562083148562700,3.760562744140625,-2.384490966796875,-2.55029296875,0.30328369140625
1772562083158630000,3.7706298828125,-2.781524658203125,-2.61968994140625,0.21527099609375
1772562083168696800,3.78069677734375,-3.797882080078125,-2.7576904296875,0.2762908935546875
1772562083178763800,3.790763671875,-4.2611083984375,-1.90472412109375,-0.0528106689453125
1772562083188831000,3.8008310546875,-4.9517364501953125,-1.0506439208984375,-0.1627349853515625
1772562083198898000,3.81089794921875,-5.2091827392578125,-0.6126861572265625,-0.4833221435546875
1772562083208964900,3.82096484375,-4.980194091796875,-0.166778564453125,-1.131317138671875
1772562083219031800,3.83103173828125,-4.381988525390625,-0.0816497802734375,-1.3368072509765625
1772562083229098800,3.8410986328125,-3.1985626220703125,-0.3546295166015625,-1.1243438720703125
1772562083239165700,3.851165771484375,-1.7984771728515625,-0.623779296875,-0.7506103515625
1772562083249233000,3.86123291015625,-0.746246337890625,-0.7310028076171875,-0.5510406494140625
1772562083259299800,3.8712998046875,-0.007049560546875,-0.748443603515625,-0.5836639404296875
1772562083269366800,3.88136669921875,0.2359771728515625,-0.6174163818359375,-0.676361083984375
1772562083279433700,3.891433837890625,0.122406005859375,-0.3215179443359375,-0.86865234375
1772562083289500700,3.901500732421875,-0.2443389892578125,-0.0811614990234375,-0.9949493408203125
1772562083299567600,3.911567626953125,-0.4719085693359375,0.0364227294921875,-0.9186553955078125
1772562083309634600,3.921634521484375,-0.3887176513671875,0.1763153076171875,-0.7812042236328125
1772562083319701800,3.93170166015625,-0.28125,0.338531494140625,-0.695037841796875
1772562083329769700,3.941769775390625,-0.2693328857421875,0.4204254150390625,-0.6373138427734375
1772562083339837000,3.9518369140625,-0.289703369140625,0.429962158203125,-0.523712158203125
1772562083349904000,3.96190380859375,-0.334808349609375,0.37847900390625,-0.3217010498046875
1772562083359970800,3.971970703125,-0.1881103515625,0.23321533203125,-0.062286376953125
1772562083370037800,3.982037841796875,0.2198486328125,0.067291259765625,0.1303253173828125
1772562083380104700,3.992104736328125,0.6176910400390625,-0.050994873046875,0.11138916015625
1772562083390171600,4.002171630859375,0.8157806396484375,-0.0589447021484375,-0.00726318359375
1772562083400238800,4.01223876953125,1.1300506591796875,-0.095367431640625,-0.192962646484375
1772562083410305800,4.022305908203125,1.4147186279296875,-0.0901947021484375,-0.4679107666015625
1772562083420372700,4.032372802734375,1.38385009765625,0.0446319580078125,-0.6281890869140625
1772562083430439700,4.042439697265625,1.135528564453125,0.202239990234375,-0.7181854248046875
1772562083440506600,4.052506591796875,0.7010345458984375,0.35296630859375,-0.7613677978515625
1772562083450573600,4.062573486328125,0.0346527099609375,0.463287353515625,-0.72271728515625
1772562083460640800,4.072640869140625,-0.7190399169921875,0.4553375244140625,-0.485015869140625
1772562083470708000,4.0827080078125,-0.7025146484375,0.4420013427734375,-0.5606689453125
1772562083480775000,4.09277490234375,-0.641571044921875,0.46160888671875,-0.825286865234375
1772562083490841900,4.102841796875,-0.85552978515625,0.3403778076171875,-1.130035400390625
1772562083500908800,4.11290869140625,-1.26409912109375,0.2342071533203125,-1.4160614013671875
1772562083510975700,4.122975830078125,-1.82135009765625,0.304718017578125,-1.54803466796875
1772562083521043000,4.13304296875,-2.13275146484375,0.3155670166015625,-1.382080078125
1772562083531110700,4.143110595703125,-2.1323699951171875,0.1215972900390625,-1.0375518798828125
1772562083541177900,4.153177734375,-2.0406646728515625,-0.1862030029296875,-0.8647918701171875
1772562083551244800,4.163244873046875,-1.7901763916015625,-0.39031982421875,-0.895904541015625
1772562083561311700,4.173311767578125,-1.3473663330078125,-0.460235595703125,-0.7193603515625
1772562083571378700,4.183378662109375,-0.8578643798828125,-0.4876251220703125,-0.2289886474609375
1772562083581445600,4.193445556640625,-0.39898681640625,-0.4625091552734375,0.3755950927734375
1772562083591512600,4.2035126953125,-0.187652587890625,-0.3506927490234375,0.8763885498046875
1772562083601580000,4.213580078125,-0.2281951904296875,-0.276123046875,1.145111083984375
1772562083611647000,4.22364697265625,-0.270538330078125,-0.3270111083984375,1.199432373046875
1772562083621714000,4.2337138671875,-0.2105255126953125,-0.3696136474609375,1.203033447265625
1772562083631780900,4.24378076171875,-0.049072265625,-0.280975341796875,1.319793701171875
1772562083641847800,4.253847900390625,0.097869873046875,-0.13812255859375,1.4821014404296875
1772562083651914800,4.263914794921875,-0.01263427734375,-0.0012969970703125,1.5953826904296875
1772562083661981700,4.273981689453125,-0.264129638671875,0.1866607666015625,1.6151275634765625
1772562083672049000,4.284048828125,-0.4629974365234375,0.3556976318359375,1.5742645263671875
1772562083682115800,4.29411572265625,-0.777099609375,0.451568603515625,1.55517578125
1772562083692182800,4.304182861328125,-1.1110382080078125,0.5325164794921875,1.5533905029296875
1772562083702249700,4.314249755859375,-1.2591094970703125,0.64935302734375,1.5397186279296875
1772562083712316700,4.324316650390625,-1.30133056640625,0.5217742919921875,1.4209442138671875
1772562083722383600,4.334383544921875,-1.43603515625,0.1026458740234375,1.1923828125
1772562083732451600,4.34445166015625,-1.7141265869140625,-0.460601806640625,0.9698333740234375
1772562083742518800,4.354518798828125,-2.088775634765625,-1.076416015625,0.8630523681640625
1772562083752586000,4.3645859375,-2.5026092529296875,-1.4167938232421875,0.805267333984375
1772562083762653000,4.37465283203125,-2.964263916015625,-1.5245208740234375,0.5694580078125
1772562083772719900,4.384719970703125,-3.6209869384765625,-1.8772735595703125,0.33258056640625
1772562083782786800,4.394786865234375,-4.00592041015625,-2.417083740234375,0.327056884765625
1772562083792853800,4.404853759765625,-4.2955474853515625,-2.11834716796875,0.4525909423828125
1772562083802920700,4.414920654296875,-4.3974456787109375,-1.4333648681640625,0.564239501953125
1772562083812988000,4.42498779296875,-4.365814208984375,-1.125946044921875,0.478515625
1772562083823054800,4.435054931640625,-4.4464111328125,-0.73046875,-0.10546875
1772562083833121800,4.445121826171875,-4.3555755615234375,-0.30792236328125,-0.8769683837890625
1772562083843188700,4.455188720703125,-3.8762359619140625,-0.303619384765625,-1.17767333984375
1772562083853255700,4.465255615234375,-2.788787841796875,-0.43408203125,-1.12860107421875
1772562083863322600,4.475322509765625,-1.54376220703125,-0.5045318603515625,-0.8234100341796875
1772562083873389800,4.485389892578125,-0.4927215576171875,-0.4931182861328125,-0.44097900390625
1772562083883456800,4.495456787109375,0.194732666015625,-0.502685546875,-0.2744293212890625
1772562083893523700,4.505523681640625,0.395965576171875,-0.487152099609375,-0.450347900390625
1772562083903590700,4.515590576171875,0.252410888671875,-0.38690185546875,-0.7971649169921875
1772562083913657900,4.525657958984375,0.0039520263671875,-0.3407440185546875,-1.0260772705078125
1772562083923724800,4.535724853515625,-0.2292633056640625,-0.3065185546875,-1.218597412109375
1772562083933792800,4.545792724609375,-0.202362060546875,-0.1163330078125,-1.2705841064453125
1772562083943859700,4.555859619140625,0.03948974609375,0.0027618408203125,-1.091033935546875
1772562083953927000,4.565927001953125,0.158966064453125,0.12994384765625,-0.7653350830078125
1772562083963993900,4.575993896484375,0.05010986328125,0.348876953125,-0.45526123046875
1772562083974060800,4.586060791015625,-0.2781829833984375,0.5533905029296875,-0.224578857421875
1772562083984127700,4.596127685546875,-0.6551055908203125,0.49517822265625,-0.0053863525390625
1772562083994194700,4.606194580078125,-0.7263336181640625,0.23321533203125,0.131134033203125
1772562084004261600,4.61626171875,-0.380828857421875,-0.0220184326171875,0.0941314697265625
1772562084014328800,4.626328857421875,0.153167724609375,-0.24737548828125,-0.040313720703125
1772562084024395800,4.636395751953125,0.5462493896484375,-0.4230804443359375,-0.13592529296875
1772562084034462700,4.646462646484375,0.697235107421875,-0.4713592529296875,-0.1296234130859375
1772562084044528600,4.656528564453125,0.6457977294921875,-0.3434906005859375,-0.0330963134765625
1772562084054595600,4.666595703125,0.3925933837890625,-0.2054443359375,0.0692901611328125
1772562084064662800,4.676662841796875,0.099761962890625,-0.1162567138671875,0.08355712890625
1772562084074729700,4.686729736328125,-0.198272705078125,-0.09490966796875,-0.0614471435546875
1772562084084797000,4.696796875,-0.4439849853515625,-0.0941162109375,-0.2677764892578125
1772562084094864000,4.70686376953125,-0.5227813720703125,-0.120025634765625,-0.3381195068359375
1772562084104930800,4.716930908203125,-0.5315093994140625,-0.1766204833984375,-0.2291107177734375
1772562084114997800,4.726997802734375,-0.507293701171875,-0.21697998046875,-0.1318511962890625
1772562084125065000,4.73706494140625,-0.4287109375,-0.23321533203125,-0.16217041015625
1772562084135132000,4.7471318359375,-0.387786865234375,-0.22344970703125,-0.2020721435546875
1772562084145197800,4.75719775390625,-0.517974853515625,-0.1922454833984375,-0.18548583984375
1772562084155264800,4.7672646484375,-0.6876373291015625,-0.1041259765625,-0.19036865234375
1772562084165332000,4.77733203125,-0.8159637451171875,0.0315093994140625,-0.1968841552734375
1772562084175399000,4.78739892578125,-0.9347381591796875,0.187530517578125,-0.2052154541015625
1772562084185467000,4.797466796875,-1.03472900390625,0.27215576171875,-0.28240966796875
1772562084195534000,4.8075341796875,-0.958984375,0.1642608642578125,-0.3879547119140625
1772562084205601000,4.81760107421875,-0.8274688720703125,0.027313232421875,-0.4030609130859375
1772562084215668000,4.82766796875,-0.6677703857421875,-0.035888671875,-0.2713470458984375
1772562084225735000,4.83773486328125,-0.4632720947265625,-0.13226318359375,-0.0338897705078125
1772562084235801900,4.8478017578125,-0.263275146484375,-0.19873046875,0.15313720703125
1772562084245868800,4.857868896484375,-0.110748291015625,-0.252777099609375,0.2667083740234375
1772562084255936000,4.86793603515625,0.0295867919921875,-0.31341552734375,0.3354034423828125
1772562084266003000,4.8780029296875,0.144744873046875,-0.314605712890625,0.37744140625
1772562084276070000,4.88806982421875,0.243804931640625,-0.3139190673828125,0.3976898193359375
1772562084286136800,4.89813671875,0.339569091796875,-0.322479248046875,0.401092529296875
1772562084296203800,4.908203857421875,0.3162689208984375,-0.283477783203125,0.447174072265625
1772562084306270700,4.918270751953125,0.063018798828125,-0.222015380859375,0.5485992431640625
1772562084316338000,4.928337890625,-0.244415283203125,-0.213897705078125,0.6226043701171875
1772562084326404900,4.93840478515625,-0.6331024169921875,-0.2637176513671875,0.635589599609375
1772562084336471800,4.948471923828125,-1.1007232666015625,-0.416534423828125,0.591644287109375
1772562084346539000,4.9585390625,-1.410736083984375,-0.684783935546875,0.5478057861328125
1772562084356606000,4.96860595703125,-1.5725555419921875,-0.9190673828125,0.49908447265625
1772562084366674000,4.978673828125,-1.931060791015625,-1.1552886962890625,0.5420989990234375
1772562084376740900,4.988740966796875,-2.42236328125,-1.3715362548828125,0.728912353515625
1772562084386807800,4.998807861328125,-2.775909423828125,-1.534515380859375,0.7834625244140625
1772562084396875000,5.008875,-3.100677490234375,-1.86077880859375,0.6433868408203125
1772562084406942000,5.01894189453125,-3.412689208984375,-2.3617401123046875,0.563507080078125
1772562084417009000,5.0290087890625,-3.7071533203125,-2.1732330322265625,0.6389923095703125
1772562084427076900,5.039076904296875,-4.007720947265625,-1.67529296875,0.9720306396484375
1772562084437143800,5.049143798828125,-4.76019287109375,-1.2028961181640625,0.996490478515625
1772562084447211000,5.0592109375,-5.7972259521484375,-0.67486572265625,0.454864501953125
1772562084457278000,5.06927783203125,-5.8611297607421875,-0.419525146484375,-0.232574462890625
1772562084467345000,5.079344970703125,-5.1415557861328125,-0.6426544189453125,-0.61895751953125
1772562084477412000,5.089412109375,-3.806976318359375,-0.8399810791015625,-0.8390655517578125
1772562084487479000,5.09947900390625,-2.485870361328125,-0.82305908203125,-0.4564361572265625
1772562084497546000,5.1095458984375,-1.869842529296875,-0.685333251953125,0.098419189453125
1772562084507613000,5.119613037109375,-1.4042816162109375,-0.461181640625,0.0182037353515625
1772562084517679900,5.129679931640625,-0.6288604736328125,-0.16339111328125,-0.0644989013671875
1772562084527746800,5.139746826171875,0.27435302734375,0.0322113037109375,0.1901702880859375
1772562084537814000,5.14981396484375,0.8796539306640625,0.2747039794921875,0.5385589599609375
1772562084547881700,5.1598818359375,1.1237945556640625,0.5985565185546875,0.6834564208984375
1772562084557949000,5.169948974609375,0.9971771240234375,0.8822479248046875,0.5938568115234375
1772562084568016000,5.180015869140625,0.753997802734375,1.0087890625,0.4141387939453125
1772562084578082800,5.190082763671875,0.524658203125,1.0553436279296875,0.2242889404296875
1772562084588150000,5.20014990234375,0.3357086181640625,0.951263427734375,0.161865234375
1772562084598217000,5.210217041015625,0.3752899169921875,0.6363067626953125,0.2212066650390625
1772562084608284000,5.220283935546875,0.6192779541015625,0.3985137939453125,0.2326507568359375
1772562084618351000,5.23035107421875,0.9619598388671875,0.273956298828125,0.121337890625
1772562084628418000,5.24041796875,1.330047607421875,-0.01544189453125,-0.120758056640625
1772562084638485000,5.250485107421875,1.5285186767578125,-0.2897186279296875,-0.3485565185546875
1772562084648552000,5.260552001953125,1.6092529296875,-0.2685394287109375,-0.48663330078125
1772562084658619000,5.270618896484375,1.553863525390625,-0.116851806640625,-0.4235382080078125
1772562084668685800,5.280685791015625,1.1443328857421875,-0.0081939697265625,-0.1395721435546875
1772562084678753000,5.2907529296875,0.5277557373046875,0.04302978515625,0.20989990234375
1772562084688820000,5.300820068359375,0.202117919921875,0.2220611572265625,0.2348175048828125
1772562084698887000,5.310886962890625,-0.1828155517578125,0.3030548095703125,0.1802520751953125
1772562084708953900,5.320953857421875,-0.4717559814453125,0.2094573974609375,0.134857177734375
1772562084719020800,5.331020751953125,-0.58050537109375,0.1419219970703125,0.0380706787109375
1772562084729087700,5.341087646484375,-0.630340576171875,0.0523223876953125,-0.108306884765625
1772562084739154700,5.35115478515625,-0.6330108642578125,-0.0442047119140625,-0.2759857177734375
1772562084749223000,5.361222900390625,-0.6106109619140625,-0.0933837890625,-0.2788238525390625
1772562084759289900,5.371289794921875,-0.6824493408203125,-0.07733154296875,-0.1232147216796875
1772562084769357000,5.381357177734375,-0.76788330078125,-0.0497589111328125,0.026947021484375
1772562084779424000,5.391424072265625,-0.7315826416015625,-0.0493927001953125,0.076812744140625
1772562084789491000,5.401490966796875,-0.8047637939453125,0.0311126708984375,0.0181732177734375
1772562084799558000,5.411557861328125,-0.907318115234375,0.089599609375,-0.139923095703125
1772562084809624800,5.421624755859375,-0.9886016845703125,0.0612030029296875,-0.37725830078125
1772562084819691800,5.43169189453125,-1.1563873291015625,-0.0032501220703125,-0.5526885986328125
1772562084829759000,5.441759033203125,-1.205902099609375,-0.0711212158203125,-0.590850830078125
1772562084839826000,5.451825927734375,-1.074249267578125,-0.0568389892578125,-0.5284576416015625
1772562084849892900,5.461892822265625,-0.9316253662109375,-0.0205841064453125,-0.4378814697265625
1772562084859959800,5.471959716796875,-0.7311248779296875,-0.01202392578125,-0.2940521240234375
1772562084870026800,5.48202685546875,-0.45965576171875,-0.0904388427734375,-0.1904754638671875
1772562084880093700,5.49209375,-0.3210906982421875,-0.23785400390625,-0.22491455078125
1772562084890161000,5.502160888671875,-0.3512420654296875,-0.38134765625,-0.343231201171875
1772562084900228000,5.51222802734375,-0.44573974609375,-0.5049896240234375,-0.4525146484375
1772562084910295000,5.522294921875,-0.4539794921875,-0.558135986328125,-0.474273681640625
1772562084920362000,5.532362060546875,-0.4609222412109375,-0.593109130859375,-0.33514404296875
1772562084930429000,5.542428955078125,-0.4123382568359375,-0.6535186767578125,-0.11151123046875
1772562084940496000,5.552495849609375,-0.4417572021484375,-0.7434234619140625,0.1516265869140625
1772562084950563800,5.562563720703125,-0.6908416748046875,-0.8762664794921875,0.38427734375
1772562084960630800,5.572630859375,-1.0590667724609375,-0.987152099609375,0.4462890625
1772562084970698000,5.582697998046875,-1.624237060546875,-1.0849151611328125,0.373382568359375
1772562084980765000,5.592764892578125,-2.337249755859375,-1.2099456787109375,0.343963623046875
1772562084990831900,5.602831787109375,-3.035369873046875,-1.345245361328125,0.508392333984375
1772562085000898800,5.61289892578125,-3.2097015380859375,-1.3955230712890625,0.6784515380859375
1772562085010965800,5.6229658203125,-3.26531982421875,-1.2804718017578125,0.5778961181640625
1772562085021032700,5.63303271484375,-3.682220458984375,-1.1121673583984375,0.1815185546875
1772562085031100000,5.643099853515625,-4.317230224609375,-0.7052764892578125,-0.0342559814453125
1772562085041167000,5.6531669921875,-4.9125518798828125,0.08428955078125,0.1545562744140625
1772562085051234000,5.663234130859375,-5.6304473876953125,0.7237091064453125,0.3831939697265625
1772562085061301000,5.673301025390625,-5.7831573486328125,0.963653564453125,-0.0354156494140625
1772562085071368000,5.683367919921875,-5.41461181640625,0.7754669189453125,-0.7458953857421875
1772562085081435000,5.693434814453125,-4.908843994140625,0.368743896484375,-1.27001953125
1772562085091501800,5.703501708984375,-3.80108642578125,0.044281005859375,-1.4680633544921875
1772562085101569000,5.713569091796875,-2.544036865234375,-0.172943115234375,-1.2484588623046875
1772562085111636000,5.723635986328125,-1.5618438720703125,-0.1737060546875,-0.75042724609375
1772562085121703000,5.733702880859375,-0.774993896484375,-0.11474609375,-0.29949951171875
1772562085131769900,5.743769775390625,-0.052490234375,-0.2118377685546875,-0.20068359375
1772562085141836800,5.7538369140625,0.5532073974609375,-0.356658935546875,-0.31451416015625
1772562085151904800,5.76390478515625,0.8928680419921875,-0.3827362060546875,-0.317657470703125
1772562085161971700,5.7739716796875,0.9766387939453125,-0.2367401123046875,-0.115875244140625
1772562085172039000,5.784038818359375,0.87939453125,-0.082763671875,0.1321868896484375
1772562085182106000,5.794106201171875,0.6322021484375,0.1373138427734375,0.277923583984375
1772562085192173000,5.804173095703125,0.337799072265625,0.3669586181640625,0.3271331787109375
1772562085202240000,5.814239990234375,0.084014892578125,0.486419677734375,0.4322509765625
1772562085212307000,5.824306884765625,-0.1178436279296875,0.5528564453125,0.5478057861328125
1772562085222374000,5.834373779296875,-0.2747955322265625,0.525665283203125,0.5928955078125
1772562085232440800,5.84444091796875,-0.091827392578125,0.346954345703125,0.6143646240234375
1772562085242508000,5.854508056640625,0.4708099365234375,0.1239013671875,0.5909881591796875
1772562085252575000,5.864574951171875,1.0086669921875,0.0038299560546875,0.510528564453125
1772562085262642000,5.874641845703125,1.341461181640625,-0.0385589599609375,0.3683624267578125
1772562085272708900,5.884708984375,1.4621124267578125,-0.1048736572265625,0.137054443359375
1772562085282775800,5.89477587890625,1.4461212158203125,-0.061737060546875,-0.108551025390625
1772562085292842800,5.9048427734375,1.242462158203125,0.1341705322265625,-0.2346954345703125
1772562085302910000,5.914909912109375,0.81298828125,0.378753662109375,-0.2575225830078125
1772562085312977000,5.924976806640625,0.2586517333984375,0.6098175048828125,-0.1692047119140625
1772562085323043800,5.9350439453125,-0.1291351318359375,0.6899566650390625,-0.0532073974609375
1772562085333110800,5.94511083984375,-0.178558349609375,0.6812744140625,-0.011077880859375
1772562085343179000,5.955178955078125,0.02490234375,0.5860595703125,-0.1414642333984375
1772562085353246000,5.965245849609375,0.2670135498046875,0.454864501953125,-0.363128662109375
1772562085363313000,5.97531298828125,0.3289794921875,0.377716064453125,-0.488189697265625
1772562085373379800,5.9853798828125,0.208709716796875,0.3876953125,-0.4517974853515625
1772562085383447000,5.995447021484375,-0.019195556640625,0.371612548828125,-0.3988800048828125
1772562085393514000,6.005513916015625,-0.3444671630859375,0.3139801025390625,-0.501678466796875
1772562085403581000,6.015580810546875,-0.662811279296875,0.204376220703125,-0.75335693359375
1772562085413648000,6.02564794921875,-0.9399261474609375,0.0445709228515625,-1.056304931640625
1772562085423714800,6.03571484375,-1.295440673828125,-0.1328582763671875,-1.2795257568359375
1772562085433781800,6.04578173828125,-1.16943359375,-0.4241790771484375,-1.312347412109375
1772562085443849000,6.055848876953125,-0.7596588134765625,-0.679473876953125,-0.8040924072265625
1772562085453916000,6.065916015625,-0.4665985107421875,-0.80462646484375,-0.1620941162109375
1772562085463982800,6.07598291015625,-0.1700592041015625,-0.9256134033203125,0.253662109375
1772562085474049800,6.0860498046875,-0.1992645263671875,-0.9849853515625,0.4849853515625
1772562085484117000,6.096116943359375,-0.4657135009765625,-0.993377685546875,0.51226806640625
1772562085494184000,6.106183837890625,-0.8397369384765625,-0.92596435546875,0.5096588134765625
1772562085504251000,6.1162509765625,-1.2307281494140625,-0.82781982421875,0.5634002685546875
1772562085514318000,6.126318115234375,-1.599334716796875,-0.7275238037109375,0.5335540771484375
1772562085524386000,6.136385986328125,-1.75543212890625,-0.6999359130859375,0.339691162109375
1772562085534453000,6.146452880859375,-1.687835693359375,-0.7405242919921875,0.1026763916015625
1772562085544520000,6.15652001953125,-1.5552978515625,-0.8980560302734375,-0.134521484375
1772562085554587000,6.1665869140625,-1.5595855712890625,-0.98382568359375,-0.2196197509765625
1772562085564653800,6.17665380859375,-1.90765380859375,-0.89605712890625,-0.1735687255859375
1772562085574720800,6.186720703125,-2.3657684326171875,-0.7751312255859375,0.0107574462890625
1772562085584788000,6.1967880859375,-2.755401611328125,-0.703094482421875,0.2883148193359375
1772562085594855000,6.20685498046875,-3.0802154541015625,-0.7669677734375,0.5728302001953125
1772562085604921900,6.216921875,-3.1625823974609375,-1.0706634521484375,0.566558837890625
1772562085614988800,6.22698876953125,-3.314483642578125,-1.4528045654296875,0.1185455322265625
1772562085625056000,6.237055908203125,-4.0724639892578125,-1.664947509765625,-0.242919921875
1772562085635123000,6.247123046875,-4.7708587646484375,-1.59033203125,-0.3166656494140625
1772562085645190000,6.25718994140625,-5.2330169677734375,-1.087615966796875,-0.30389404296875
1772562085655257000,6.267257080078125,-5.7590484619140625,-0.588043212890625,-0.22479248046875
1772562085665324000,6.277323974609375,-5.9422760009765625,-0.3760223388671875,-0.3950042724609375
1772562085675391000,6.287390869140625,-5.43463134765625,-0.164337158203125,-1.006500244140625
1772562085685458000,6.2974580078125,-4.479736328125,-0.018951416015625,-1.5157623291015625
1772562085695524900,6.30752490234375,-3.3193359375,0.00360107421875,-1.5998077392578125
1772562085705591800,6.317591796875,-1.9140167236328125,-0.057281494140625,-1.4815826416015625
1772562085715659000,6.327658935546875,-0.5506439208984375,-0.240570068359375,-0.9839935302734375
1772562085725726700,6.337726806640625,0.1558685302734375,-0.3635101318359375,-0.1186676025390625
1772562085735794000,6.3477939453125,0.325531005859375,-0.1658782958984375,0.256927490234375
1772562085745860900,6.35786083984375,0.3155364990234375,0.2511138916015625,0.0055694580078125
1772562085755927800,6.367927734375,0.23699951171875,0.43109130859375,-0.271636962890625
1772562085765995000,6.3779951171875,0.1863861083984375,0.524078369140625,-0.4190216064453125
1772562085776062000,6.38806201171875,0.2344970703125,0.6609954833984375,-0.4052734375
1772562085786129000,6.39812890625,0.3235626220703125,0.7057647705078125,-0.2091217041015625
1772562085796196000,6.408196044921875,0.44561767578125,0.707489013671875,-0.0522308349609375
1772562085806263000,6.418262939453125,0.5594482421875,0.638275146484375,-0.039459228515625
1772562085816330000,6.428330078125,0.609771728515625,0.4896087646484375,-0.028289794921875
1772562085826397000,6.43839697265625,0.70263671875,0.54486083984375,-0.14044189453125
1772562085836463900,6.4484638671875,0.7021636962890625,0.5432281494140625,-0.18365478515625
1772562085846530800,6.45853076171875,0.794403076171875,0.35455322265625,-0.17291259765625
1772562085856598000,6.468597900390625,0.9852142333984375,0.2702789306640625,-0.2067108154296875
1772562085866665000,6.4786650390625,1.1600494384765625,0.28466796875,-0.3351898193359375
1772562085876732000,6.48873193359375,1.1809234619140625,0.2721099853515625,-0.420806884765625
1772562085886798800,6.498798828125,1.122894287109375,0.218597412109375,-0.385955810546875
1772562085896865800,6.50886572265625,0.8999176025390625,0.2178955078125,-0.419342041015625
1772562085906932700,6.5189326171875,0.5146026611328125,0.239166259765625,-0.490509033203125
1772562085917001000,6.5290009765625,-0.2657318115234375,0.1388092041015625,-0.4354400634765625
1772562085927068000,6.53906787109375,-0.6410369873046875,0.0477447509765625,-0.42431640625
1772562085937135000,6.549135009765625,-0.4157562255859375,-0.0202178955078125,-0.562530517578125
1772562085947202000,6.5592021484375,-0.2238616943359375,-0.1535186767578125,-0.49530029296875
1772562085957269000,6.56926904296875,-0.07196044921875,-0.19720458984375,-0.3924560546875
1772562085967336000,6.5793359375,-0.1195068359375,-0.137115478515625,-0.3678131103515625
1772562085977403000,6.58940283203125,-0.3814849853515625,-0.06329345703125,-0.454986572265625
1772562085987469800,6.5994697265625,-0.734344482421875,-0.0301513671875,-0.6282806396484375
1772562085997537000,6.609537109375,-0.9439697265625,-0.0267791748046875,-0.6928253173828125
1772562086007604000,6.61960400390625,-0.8746185302734375,-0.0336456298828125,-0.5204315185546875
1772562086017671000,6.6296708984375,-0.663818359375,-0.0067291259765625,-0.2402191162109375
1772562086027737900,6.63973779296875,-0.49639892578125,0.0386962890625,0.0284271240234375
1772562086037804800,6.6498046875,-0.51434326171875,0.0475006103515625,0.2567138671875
1772562086047871700,6.659871826171875,-0.6863250732421875,0.0474700927734375,0.41400146484375
1772562086057938700,6.669938720703125,-0.8615264892578125,-0.020172119140625,0.4993743896484375
1772562086068006000,6.680005859375,-0.95916748046875,-0.212005615234375,0.4453125
1772562086078073000,6.690072998046875,-0.8710784912109375,-0.4369964599609375,0.2521209716796875
1772562086088140000,6.70014013671875,-0.6405029296875,-0.6068267822265625,0.08843994140625
1772562086098208000,6.7102080078125,-0.4080810546875,-0.693572998046875,0.0139923095703125
1772562086108275000,6.72027490234375,-0.2943878173828125,-0.6855010986328125,0.0718841552734375
1772562086118342000,6.730341796875,-0.36444091796875,-0.60235595703125,0.276519775390625
1772562086128408800,6.740408935546875,-0.52313232421875,-0.5351104736328125,0.470245361328125
1772562086138475800,6.750475830078125,-0.8055877685546875,-0.500579833984375,0.4428863525390625
1772562086148543500,6.76054345703125,-1.150848388671875,-0.459930419921875,0.303802490234375
1772562086158611000,6.77061083984375,-1.42449951171875,-0.5804595947265625,0.1150054931640625
1772562086168678000,6.780677978515625,-1.675811767578125,-0.7933502197265625,-0.069732666015625
1772562086178744800,6.790744873046875,-1.9765167236328125,-0.944305419921875,-0.1552581787109375
1772562086188811800,6.800811767578125,-2.4309844970703125,-1.014312744140625,-0.0348663330078125
1772562086198878700,6.810878662109375,-2.78448486328125,-1.19879150390625,0.15972900390625
1772562086208945700,6.820945556640625,-2.6501617431640625,-1.5645599365234375,0.2847137451171875
1772562086219012900,6.831012939453125,-2.3529815673828125,-1.9940185546875,0.2026519775390625
1772562086229079800,6.841079833984375,-2.675537109375,-2.24371337890625,-0.1093902587890625
1772562086239146800,6.851146728515625,-3.6887054443359375,-2.35662841796875,-0.1558074951171875
1772562086249213700,6.861213623046875,-4.094940185546875,-2.154998779296875,0.163482666015625
1772562086259280600,6.87128076171875,-3.8585968017578125,-1.8199462890625,0.5688934326171875
1772562086269347600,6.88134765625,-4.052398681640625,-1.5098419189453125,0.728515625
1772562086279414500,6.89141455078125,-4.5975799560546875,-0.99127197265625,0.347442626953125
1772562086289482500,6.901482421875,-4.8726806640625,-0.3475189208984375,-0.4717559814453125
1772562086299549700,6.9115498046875,-4.8672332763671875,0.315216064453125,-1.2147979736328125
1772562086309617000,6.921616943359375,-4.1181488037109375,0.580474853515625,-1.4588470458984375
1772562086319683800,6.931683837890625,-2.8785858154296875,0.2658538818359375,-0.9951019287109375
1772562086329750800,6.941750732421875,-1.6411590576171875,-0.1531982421875,-0.3081207275390625
1772562086339817700,6.951817626953125,-0.4722137451171875,-0.0984344482421875,-0.281158447265625
1772562086349884700,6.961884765625,0.245025634765625,0.298187255859375,-0.42645263671875
1772562086359951600,6.97195166015625,0.5520172119140625,0.3702545166015625,-0.1489410400390625
1772562086370018800,6.982018798828125,0.622772216796875,0.2818756103515625,0.1891632080078125
1772562086380085800,6.992085693359375,0.5826568603515625,0.3296966552734375,0.158843994140625
1772562086390152700,7.002152587890625,0.3635406494140625,0.4276580810546875,-0.022186279296875
1772562086400219600,7.0122197265625,-0.0531463623046875,0.4386749267578125,-0.248809814453125
1772562086410286600,7.02228662109375,-0.34429931640625,0.3979034423828125,-0.5309295654296875
1772562086420353500,7.032353515625,-0.3665771484375,0.4034423828125,-0.7143402099609375
1772562086430420700,7.042420654296875,-0.252838134765625,0.4344635009765625,-0.6909942626953125
1772562086440487700,7.05248779296875,0.0662384033203125,0.34832763671875,-0.5477142333984375
1772562086450554600,7.0625546875,0.6397857666015625,0.2006988525390625,-0.4060516357421875
1772562086460621600,7.07262158203125,1.15582275390625,0.0826416015625,-0.3145599365234375
1772562086470689800,7.082689697265625,1.400787353515625,-0.091583251953125,-0.3099365234375
1772562086480756700,7.0927568359375,1.3533935546875,-0.1089630126953125,-0.462158203125
1772562086490823700,7.10282373046875,0.8133544921875,0.0544281005859375,-0.523223876953125
1772562086500890600,7.112890625,0.050445556640625,0.084136962890625,-0.4115753173828125
1772562086510957800,7.122957763671875,-0.2837066650390625,0.1378173828125,-0.48321533203125
1772562086521024800,7.133024658203125,-0.4011383056640625,0.1881561279296875,-0.5654754638671875
1772562086531091700,7.143091796875,-0.292449951171875,0.0504608154296875,-0.5274200439453125
1772562086541158700,7.15315869140625,-0.075225830078125,-0.0498046875,-0.499114990234375
1772562086551225600,7.1632255859375,0.03082275390625,-0.040374755859375,-0.4876708984375
1772562086561292500,7.17329248046875,-0.045074462890625,-0.0428466796875,-0.5372314453125
1772562086571359700,7.18335986328125,-0.2433929443359375,-0.0035400390625,-0.625946044921875
1772562086581426700,7.1934267578125,-0.3889007568359375,-0.0129547119140625,-0.6480255126953125
1772562086591493600,7.20349365234375,-0.3585357666015625,-0.1053619384765625,-0.590118408203125
1772562086601560600,7.213560546875,-0.1971893310546875,-0.172149658203125,-0.485137939453125
1772562086611627800,7.223627685546875,-0.0896453857421875,-0.247161865234375,-0.4394378662109375
1772562086621694700,7.23369482421875,-0.1915130615234375,-0.17364501953125,-0.4087066650390625
1772562086631761700,7.24376171875,-0.3382110595703125,0.0078887939453125,-0.289154052734375
1772562086641828900,7.253828857421875,-0.5159759521484375,0.1733245849609375,-0.0538330078125
1772562086651895800,7.263895751953125,-0.7710418701171875,0.2332611083984375,0.181304931640625
1772562086661963800,7.2739638671875,-0.8979644775390625,0.1954193115234375,0.3385467529296875
1772562086672030700,7.28403076171875,-0.831329345703125,0.079833984375,0.39349365234375
1772562086682097700,7.29409765625,-0.64056396484375,-0.061553955078125,0.4597015380859375
1772562086692164600,7.30416455078125,-0.4172515869140625,-0.1727752685546875,0.5335693359375
1772562086702231600,7.3142314453125,-0.2487640380859375,-0.2332763671875,0.60797119140625
1772562086712298800,7.324298828125,-0.202880859375,-0.29083251953125,0.6587982177734375
1772562086722365700,7.33436572265625,-0.3122711181640625,-0.27374267578125,0.7324371337890625
1772562086732432600,7.3444326171875,-0.51837158203125,-0.193511962890625,0.8862762451171875
1772562086742499600,7.35449951171875,-0.8566436767578125,-0.11419677734375,1.032745361328125
1772562086752566800,7.36456689453125,-1.2637176513671875,-0.0799407958984375,1.0944061279296875
1772562086762633700,7.3746337890625,-1.5923309326171875,-0.089874267578125,1.1497650146484375
1772562086772700700,7.38470068359375,-1.78729248046875,-0.24072265625,1.2010040283203125
1772562086782767900,7.394767822265625,-1.9859466552734375,-0.5913543701171875,1.1108856201171875
1772562086792834800,7.404834716796875,-2.336456298828125,-0.9454345703125,0.9036407470703125
1772562086802901800,7.41490185546875,-2.9322967529296875,-1.1636505126953125,0.7510986328125
1772562086812968700,7.42496875,-3.493621826171875,-1.382080078125,0.782012939453125
1772562086823035600,7.43503564453125,-3.8831787109375,-1.68194580078125,0.8783721923828125
1772562086833102600,7.4451025390625,-4.2217559814453125,-1.8639373779296875,0.556732177734375
1772562086843170600,7.455170654296875,-4.879730224609375,-1.5823211669921875,-0.2707366943359375
1772562086853237500,7.465237548828125,-5.860870361328125,-1.101806640625,-0.2425537109375
1772562086863304700,7.4753046875,-6.1321563720703125,-0.376495361328125,0.2161102294921875
1772562086873371600,7.48537158203125,-6.18994140625,0.1742706298828125,0.300384521484375
1772562086883438600,7.4954384765625,-6.4845733642578125,0.6200408935546875,-0.103363037109375
1772562086893505800,7.505505859375,-6.137481689453125,0.9056854248046875,-0.478179931640625
1772562086903572700,7.51557275390625,-5.0143280029296875,0.797454833984375,-0.6802978515625
1772562086913639700,7.5256396484375,-3.5794219970703125,0.72613525390625,-0.9180145263671875
1772562086923707000,7.535706787109375,-1.9327850341796875,0.4635772705078125,-0.9718475341796875
1772562086933773800,7.54577392578125,-0.4676361083984375,-0.0116119384765625,-0.8043975830078125
1772562086943840800,7.5558408203125,0.085418701171875,-0.235809326171875,-0.6527252197265625
1772562086953907700,7.56590771484375,0.2943572998046875,-0.2157135009765625,-0.8302001953125
1772562086963974700,7.575974609375,0.549285888671875,0.04119873046875,-0.964996337890625
1772562086974041600,7.58604150390625,0.5446929931640625,0.0111846923828125,-0.7666168212890625
1772562086984108800,7.59610888671875,0.55609130859375,0.0080718994140625,-0.5031890869140625
1772562086994175700,7.60617578125,0.4785919189453125,0.163421630859375,-0.3875579833984375
1772562087004242700,7.61624267578125,0.234710693359375,0.2902069091796875,-0.4611968994140625
1772562087014309600,7.6263095703125,-0.009857177734375,0.4296417236328125,-0.6028289794921875
1772562087024377900,7.6363779296875,0.0468902587890625,0.482391357421875,-0.6346588134765625
1772562087034444800,7.64644482421875,0.3725433349609375,0.4899749755859375,-0.445343017578125
1772562087044511700,7.65651171875,0.532958984375,0.5030517578125,-0.216766357421875
1772562087054578700,7.66657861328125,0.4891510009765625,0.3828277587890625,-0.10797119140625
1772562087064646000,7.67664599609375,0.61688232421875,0.1851043701171875,-0.04571533203125
1772562087074712800,7.686712890625,0.89093017578125,0.0106353759765625,-0.0334625244140625
1772562087084779800,7.69677978515625,1.2050018310546875,0.029144287109375,0.0142822265625
1772562087094846700,7.7068466796875,1.44537353515625,-0.0100860595703125,0.0438079833984375
1772562087104913700,7.71691357421875,1.5566558837890625,-0.007476806640625,0.04827880859375
1772562087114980600,7.726980712890625,1.4018096923828125,0.1129302978515625,-0.0016021728515625
1772562087125047800,7.7370478515625,1.0487060546875,0.2748260498046875,-0.059844970703125
1772562087135114800,7.74711474609375,0.650970458984375,0.356231689453125,-0.0655517578125
1772562087145181200,7.75718115234375,0.2474212646484375,0.3198699951171875,0.0677032470703125
1772562087155248400,7.767248291015625,0.317901611328125,0.370025634765625,0.046966552734375
1772562087165315300,7.7773154296875,0.4505615234375,0.472259521484375,-0.0186309814453125
1772562087175382300,7.78738232421875,0.4741973876953125,0.3631439208984375,0.0020599365234375
1772562087185449500,7.797449462890625,0.49725341796875,0.304656982421875,-0.0638885498046875
1772562087195516400,7.807516357421875,0.565582275390625,0.3355712890625,-0.139556884765625
1772562087205583400,7.817583251953125,0.55224609375,0.411865234375,-0.179534912109375
1772562087215651300,7.8276513671875,0.392303466796875,0.542999267578125,-0.2492828369140625
1772562087225718300,7.83771826171875,0.1508331298828125,0.655029296875,-0.3207244873046875
1772562087235785200,7.84778515625,-0.0225372314453125,0.592010498046875,-0.4088287353515625
1772562087245852200,7.85785205078125,-0.233367919921875,0.4937896728515625,-0.522979736328125
1772562087255919000,7.867919189453125,-0.4862213134765625,0.4965362548828125,-0.6143951416015625
1772562087265986300,7.877986328125,-0.753265380859375,0.44879150390625,-0.620635986328125
1772562087276053200,7.88805322265625,-0.9184417724609375,0.24700927734375,-0.5662078857421875
1772562087286120200,7.8981201171875,-0.9908447265625,0.0153656005859375,-0.594482421875
1772562087296187400,7.9081875,-1.0526275634765625,-0.14306640625,-0.5835113525390625
1772562087306254300,7.91825439453125,-1.06585693359375,-0.2474212646484375,-0.4158477783203125
1772562087316321300,7.9283212890625,-1.0758209228515625,-0.30010986328125,-0.1341705322265625
1772562087326388500,7.938388427734375,-1.0835418701171875,-0.3800506591796875,0.1732177734375
1772562087336455400,7.948455322265625,-1.0880889892578125,-0.53924560546875,0.4243316650390625
1772562087346522400,7.9585224609375,-1.1501922607421875,-0.743072509765625,0.607391357421875
1772562087356589300,7.96858935546875,-1.2877044677734375,-0.9483489990234375,0.7176513671875
1772562087366656300,7.97865625,-1.5333099365234375,-1.097381591796875,0.8012542724609375
1772562087376723200,7.98872314453125,-1.806671142578125,-1.1512908935546875,0.9184722900390625
1772562087386791200,7.998791259765625,-1.912384033203125,-1.2878570556640625,0.80133056640625
1772562087396858000,8.008858154296876,-1.776519775390625,-1.400177001953125,0.4651947021484375
1772562087406925300,8.01892529296875,-1.6531524658203125,-1.438385009765625,0.2592315673828125
1772562087416992300,8.0289921875,-1.6596832275390625,-1.480804443359375,0.32196044921875
1772562087427059200,8.03905908203125,-1.9505767822265625,-1.5247344970703125,0.4630584716796875
1772562087437126400,8.04912646484375,-2.637054443359375,-1.444000244140625,0.524017333984375
1772562087447193300,8.059193359375,-3.313690185546875,-1.2423858642578125,0.4331817626953125
1772562087457260300,8.06926025390625,-3.8544464111328125,-1.2540283203125,0.0096588134765625
1772562087467327200,8.0793271484375,-5.2465667724609375,-1.00054931640625,-0.419342041015625
1772562087477394400,8.08939453125,-6.9152679443359375,-0.17437744140625,-0.6131134033203125
1772562087487461400,8.09946142578125,-7.50799560546875,0.5928802490234375,-0.4584808349609375
1772562087497528300,8.1095283203125,-6.9400634765625,1.0690155029296875,-0.6580657958984375
1772562087507595300,8.11959521484375,-6.156890869140625,1.2842254638671875,-1.4008331298828125
1772562087517662200,8.129662109375,-5.2838287353515625,1.443145751953125,-1.9511566162109375
1772562087527729200,8.139729248046875,-4.192718505859375,1.2936553955078125,-1.5449981689453125
1772562087537796400,8.14979638671875,-3.0742645263671875,1.077117919921875,-0.8968505859375
1772562087547863300,8.15986328125,-1.9221343994140625,0.9715728759765625,-0.7860107421875
1772562087557930200,8.16993017578125,-0.8717041015625,0.8326263427734375,-0.7455902099609375
1772562087567997200,8.1799970703125,-0.3827667236328125,0.66448974609375,-0.4199371337890625
1772562087578065400,8.1900654296875,-0.0040740966796875,0.65283203125,-0.0731048583984375
1772562087588132400,8.20013232421875,0.4612884521484375,0.6183929443359375,0.139129638671875
1772562087598199300,8.21019921875,0.8365325927734375,0.48797607421875,0.317626953125
1772562087608266200,8.220266357421876,1.0677947998046875,0.4650115966796875,0.3861083984375
1772562087618333400,8.23033349609375,1.0391387939453125,0.5581817626953125,0.25811767578125
1772562087628400400,8.240400390625,0.444976806640625,0.7108917236328125,0.007965087890625
1772562087638467300,8.25046728515625,-0.472076416015625,0.6353607177734375,-0.2793121337890625
1772562087648534300,8.2605341796875,-1.500244140625,0.2104339599609375,-0.610870361328125
1772562087658601200,8.270601318359375,-1.6924285888671875,-0.1810150146484375,-0.595977783203125
1772562087668668200,8.280668212890625,-0.630615234375,-0.3818511962890625,-0.29736328125
1772562087678735400,8.2907353515625,0.5416717529296875,-0.4807281494140625,-0.0153656005859375
1772562087688802300,8.30080224609375,1.1095428466796875,-0.583526611328125,0.1231536865234375
1772562087698869200,8.310869140625,1.54315185546875,-0.566131591796875,-0.062255859375
1772562087708936200,8.320936279296875,1.5501251220703125,-0.4736785888671875,-0.24560546875
1772562087719003100,8.331003173828124,1.231353759765625,-0.36981201171875,-0.2359771728515625
1772562087729070000,8.341070068359375,0.8404693603515625,-0.175048828125,-0.2623748779296875
1772562087739137300,8.35113720703125,0.4469451904296875,0.076446533203125,-0.2221832275390625
1772562087749204500,8.36120458984375,0.2293243408203125,0.2171783447265625,-0.139617919921875
1772562087759271400,8.371271484375,0.3957977294921875,0.2322235107421875,-0.1735382080078125
1772562087769339400,8.38133935546875,0.741790771484375,0.274658203125,-0.371795654296875
1772562087779406300,8.39140625,0.992950439453125,0.2253570556640625,-0.52593994140625
1772562087789473300,8.401473388671874,1.1938018798828125,0.1038360595703125,-0.6410675048828125
1772562087799540200,8.411540283203125,1.2215423583984375,0.06903076171875,-0.8125457763671875
1772562087809607200,8.421607177734375,1.11676025390625,0.072784423828125,-0.9326171875
1772562087819674400,8.43167431640625,1.0001220703125,0.064422607421875,-0.873504638671875
1772562087829741300,8.4417412109375,0.543609619140625,0.188201904296875,-0.744598388671875
1772562087839808300,8.451808349609376,0.1584930419921875,0.2190704345703125,-0.66729736328125
1772562087849875200,8.461875244140625,0.68255615234375,0.1097869873046875,-0.66009521484375
1772562087859942100,8.471942138671874,0.9739990234375,0.31414794921875,-0.562957763671875
1772562087870009000,8.482009033203125,0.5853424072265625,0.3953094482421875,-0.2480316162109375
1772562087880076300,8.492076171875,0.175689697265625,0.27703857421875,0.0814666748046875
1772562087890143500,8.5021435546875,-0.167755126953125,0.1944732666015625,0.2068328857421875
1772562087900210400,8.51221044921875,-0.5504302978515625,0.114990234375,0.2471466064453125
1772562087910277400,8.52227734375,-0.994964599609375,0.0145721435546875,0.3354644775390625
1772562087920344300,8.53234423828125,-1.50543212890625,-0.11212158203125,0.4128265380859375
1772562087930411300,8.542411376953124,-1.878509521484375,-0.239471435546875,0.5008087158203125
1772562087940478200,8.552478271484375,-1.8896484375,-0.4509429931640625,0.6097869873046875
1772562087950546200,8.562546142578125,-1.7182464599609375,-0.65411376953125,0.66217041015625
1772562087960613400,8.57261328125,-1.7493438720703125,-0.669647216796875,0.7461395263671875
1772562087970680300,8.582680419921875,-2.165863037109375,-0.629791259765625,0.824493408203125
1772562087980747300,8.592747314453124,-2.6909027099609375,-0.6172027587890625,0.801910400390625
1772562087990814200,8.602814208984375,-3.1698760986328125,-0.62640380859375,0.6086883544921875
1772562088000881200,8.612881103515624,-3.530731201171875,-0.6458892822265625,0.345184326171875
1772562088010948000,8.622947998046875,-3.6959228515625,-0.6670379638671875,0.1359100341796875
1772562088021015300,8.633015380859375,-3.7861175537109375,-0.7421722412109375,0.109222412109375
1772562088031082500,8.64308251953125,-3.9358673095703125,-0.65087890625,0.355224609375
1772562088041148200,8.653148193359375,-4.1144256591796875,-0.476104736328125,0.4854278564453125
1772562088051215000,8.663215087890626,-4.7460174560546875,-0.1330413818359375,0.1773834228515625
1772562088061282300,8.6732822265625,-5.945892333984375,0.3009490966796875,-0.23883056640625
1772562088071349500,8.683349609375,-6.483123779296875,0.6561431884765625,-0.20123291015625
1772562088081416400,8.69341650390625,-5.82769775390625,1.1076812744140625,0.0403289794921875
1772562088091483400,8.7034833984375,-5.4813995361328125,1.210968017578125,0.2086181640625
1772562088101550300,8.71355029296875,-5.535400390625,1.429046630859375,-0.2292633056640625
1772562088111617300,8.7236171875,-4.9213714599609375,1.5035552978515625,-0.8759307861328125
1772562088121684200,8.733684326171876,-3.8038787841796875,1.4089508056640625,-1.271728515625
1772562088131751400,8.74375146484375,-2.6418914794921875,1.390655517578125,-1.573638916015625
1772562088141818400,8.753818359375,-1.5595703125,1.3277435302734375,-1.2440948486328125
1772562088151886000,8.763885986328125,-0.77069091796875,1.043243408203125,-0.389007568359375
1772562088161953000,8.773953125,-0.1409149169921875,0.973663330078125,-0.196044921875
1772562088172020000,8.78402001953125,0.2955474853515625,1.0701446533203125,-0.43609619140625
1772562088182087000,8.7940869140625,0.423980712890625,1.028167724609375,-0.3074493408203125
1772562088192153900,8.80415380859375,0.497314453125,0.96331787109375,-0.17962646484375
1772562088202221000,8.814220947265625,0.5363311767578125,0.890869140625,-0.2597503662109375
1772562088212288300,8.824288330078126,0.4161224365234375,0.7336883544921875,-0.3849334716796875
1772562088222355200,8.834355224609375,0.1739501953125,0.64013671875,-0.4881591796875
1772562088232422100,8.844422119140624,0.0422210693359375,0.5622100830078125,-0.4705352783203125
1772562088242489000,8.854489013671875,-0.0036468505859375,0.479583740234375,-0.385406494140625
1772562088252556000,8.86455615234375,-0.0855560302734375,0.46368408203125,-0.3331451416015625
1772562088262623000,8.874623046875,-0.2149658203125,0.3968353271484375,-0.2525787353515625
1772562088272690200,8.884690185546875,-0.0516204833984375,0.1953125,-0.1872100830078125
1772562088282757000,8.894757080078126,0.4223785400390625,0.020660400390625,-0.25787353515625
1772562088292824000,8.904823974609375,0.8660736083984375,-0.1256866455078125,-0.4377899169921875
1772562088302891000,8.91489111328125,1.0084075927734375,-0.2867889404296875,-0.5446624755859375
1772562088312958000,8.9249580078125,0.9362335205078125,-0.3406982421875,-0.5573883056640625
1772562088323025000,8.93502490234375,0.8271942138671875,-0.2326812744140625,-0.46038818359375
1772562088333092900,8.9450927734375,0.658477783203125,-0.077301025390625,-0.2794342041015625
1772562088343160000,8.95516015625,0.4554901123046875,0.0710601806640625,-0.117950439453125
1772562088353227300,8.965227294921876,0.26666259765625,0.152069091796875,-0.046112060546875
1772562088363294200,8.975294189453125,0.042816162109375,0.231353759765625,-0.00958251953125
1772562088373361200,8.985361083984374,-0.0498046875,0.322113037109375,0.0160675048828125
1772562088383428000,8.995427978515625,0.0519561767578125,0.3354339599609375,-0.002838134765625
1772562088393495000,9.0054951171875,0.27880859375,0.2469635009765625,-0.0978851318359375
1772562088403562000,9.01556201171875,0.4301605224609375,0.149932861328125,-0.24749755859375
1772562088413629000,9.02562890625,0.494873046875,0.1206207275390625,-0.3424224853515625
1772562088423696100,9.035696044921876,0.4604339599609375,0.1060028076171875,-0.4233551025390625
1772562088433764000,9.04576416015625,0.2944793701171875,0.10455322265625,-0.5089111328125
1772562088443831000,9.0558310546875,0.0706329345703125,0.07879638671875,-0.635498046875
1772562088453898000,9.06589794921875,-0.139801025390625,0.017303466796875,-0.755706787109375
1772562088463965000,9.07596484375,-0.27655029296875,-0.06915283203125,-0.7646026611328125
1772562088474031900,9.086031982421876,-0.3570556640625,-0.1370391845703125,-0.61767578125
1772562088484099000,9.09609912109375,-0.1211090087890625,-0.23406982421875,-0.3988494873046875
1772562088494166000,9.106166015625,0.24505615234375,-0.3266448974609375,0.0955047607421875
1772562088504233200,9.116233154296875,0.199249267578125,-0.3191375732421875,0.65020751953125
1772562088514300200,9.126300048828124,-0.0282135009765625,-0.3201446533203125,0.943328857421875
1772562088524367000,9.1363671875,-0.37646484375,-0.344329833984375,1.129974365234375
1772562088534434000,9.14643408203125,-0.7792510986328125,-0.60858154296875,1.11895751953125
1772562088544501000,9.1565009765625,-1.0414886474609375,-0.88861083984375,0.834564208984375
1772562088554569000,9.16656884765625,-1.2841949462890625,-1.0420074462890625,0.5537261962890625
1772562088564636000,9.176635986328124,-1.5719757080078125,-1.134918212890625,0.46112060546875
1772562088574703000,9.186703125,-1.684722900390625,-1.2317047119140625,0.34429931640625
1772562088584770000,9.19677001953125,-1.6117401123046875,-1.3747100830078125,0.127197265625
1772562088594837000,9.2068369140625,-1.612518310546875,-1.5194549560546875,-0.1302642822265625
1772562088604904000,9.216904052734375,-2.119659423828125,-1.4791412353515625,-0.3208160400390625
1772562088614971000,9.226970947265626,-3.023712158203125,-1.338775634765625,-0.4944000244140625
1772562088625038000,9.2370380859375,-4.124603271484375,-1.2239837646484375,-0.704986572265625
1772562088635105000,9.24710498046875,-4.87664794921875,-1.1198272705078125,-0.89776611328125
1772562088645172200,9.257172119140625,-4.8857879638671875,-1.136383056640625,-0.932769775390625
1772562088655239200,9.2672392578125,-4.487091064453125,-1.34210205078125,-0.9271087646484375
1772562088665306000,9.27730615234375,-4.0651092529296875,-1.3683319091796875,-1.1592254638671875
1772562088675373000,9.287373046875,-4.8473358154296875,-1.218841552734375,-1.209197998046875
1772562088685440000,9.29743994140625,-5.7785491943359375,-1.0705108642578125,-1.0108489990234375
1772562088695507000,9.3075068359375,-5.599212646484375,-0.5466461181640625,-0.851654052734375
1772562088705574100,9.31757421875,-5.5545654296875,-0.2185516357421875,-0.5948486328125
1772562088715641000,9.32764111328125,-5.4351654052734375,0.2620849609375,-1.1450042724609375
1772562088725708000,9.3377080078125,-5.0485687255859375,0.7279205322265625,-2.1207275390625
1772562088735775000,9.34777490234375,-4.3634490966796875,0.9948272705078125,-2.62176513671875
1772562088745842000,9.357842041015624,-3.1504364013671875,1.04095458984375,-1.949981689453125
1772562088755910000,9.367909912109376,-1.4768829345703125,0.7832794189453125,-0.8224945068359375
1772562088765977000,9.37797705078125,-0.0383758544921875,0.6248931884765625,-0.3647918701171875
1772562088776044000,9.3880439453125,0.5047149658203125,0.72265625,-0.2075042724609375
1772562088786111200,9.398111328125,0.3453216552734375,0.822509765625,-0.0881195068359375
1772562088796178200,9.40817822265625,0.2990570068359375,0.8432159423828125,-0.0296783447265625
1772562088806245000,9.4182451171875,0.5297393798828125,0.799774169921875,0.096771240234375
1772562088816312000,9.42831201171875,0.7809295654296875,0.773895263671875,0.2765655517578125
1772562088826379000,9.43837890625,0.949371337890625,0.69500732421875,0.3861846923828125
1772562088836446000,9.448446044921875,1.1024932861328125,0.5744476318359375,0.3717041015625
1772562088846513200,9.45851318359375,1.1727752685546875,0.57818603515625,0.257568359375
1772562088856580000,9.468580078125,1.0229339599609375,0.66583251953125,0.1009368896484375
1772562088866647000,9.47864697265625,0.75616455078125,0.65960693359375,-0.004180908203125
1772562088876714000,9.4887138671875,0.53167724609375,0.490203857421875,-0.0940093994140625
1772562088886781000,9.498781005859374,0.509124755859375,0.268035888671875,-0.218780517578125
1772562088896848000,9.508847900390625,0.8032989501953125,0.128753662109375,-0.2610931396484375
1772562088906915000,9.5189150390625,1.1995697021484375,0.0110015869140625,-0.24566650390625
1772562088916982000,9.52898193359375,1.3766632080078125,-0.094207763671875,-0.26519775390625
1772562088927050200,9.53905029296875,1.343780517578125,-0.1280670166015625,-0.3129119873046875
1772562088937117200,9.5491171875,1.15887451171875,-0.0677032470703125,-0.3482666015625
1772562088947184000,9.55918408203125,0.8552093505859375,0.0262298583984375,-0.3690185546875
1772562088957251000,9.5692509765625,0.5518341064453125,0.103363037109375,-0.363189697265625
1772562088967318000,9.579318115234376,0.314300537109375,0.1869049072265625,-0.3508453369140625
1772562088977385000,9.589385009765625,0.21600341796875,0.2792205810546875,-0.3272247314453125
1772562088987452000,9.599451904296876,0.2167205810546875,0.3694000244140625,-0.3017425537109375
1772562088997519000,9.60951904296875,0.221923828125,0.436737060546875,-0.32501220703125
1772562089007586000,9.6195859375,0.0748443603515625,0.4807891845703125,-0.4490966796875
1772562089017653000,9.629653076171875,-0.220977783203125,0.613739013671875,-0.6010894775390625
1772562089027720000,9.639719970703124,-0.5936737060546875,0.7490386962890625,-0.679718017578125
1772562089037787000,9.649786865234375,-0.8834686279296875,0.7461090087890625,-0.679443359375
1772562089047853800,9.659853759765625,-1.006866455078125,0.61102294921875,-0.724151611328125
1772562089057921000,9.669921142578126,-0.9921417236328125,0.5085296630859375,-0.7685546875
1772562089067988000,9.679988037109375,-0.8258056640625,0.431671142578125,-0.66864013671875
1772562089078055200,9.69005517578125,-0.58197021484375,0.3213348388671875,-0.4412078857421875
1772562089088122000,9.7001220703125,-0.2974395751953125,0.2187347412109375,-0.2024688720703125
1772562089098190000,9.710190185546875,-0.0452423095703125,0.1223297119140625,0.003265380859375
1772562089108257000,9.720257080078126,0.1389312744140625,0.0090179443359375,0.246246337890625
1772562089118324000,9.730323974609375,0.11981201171875,-0.152008056640625,0.4343719482421875
1772562089128391000,9.740390869140626,-0.021728515625,-0.23480224609375,0.507476806640625
1772562089138458000,9.7504580078125,-0.268341064453125,-0.266204833984375,0.5318603515625
1772562089148525000,9.760525146484374,-0.5555572509765625,-0.3622589111328125,0.54302978515625
1772562089158592000,9.770592041015625,-0.870574951171875,-0.4940338134765625,0.5373382568359375
1772562089168659000,9.780658935546874,-1.0914306640625,-0.6313934326171875,0.5077972412109375
1772562089178726000,9.790725830078125,-1.2327423095703125,-0.79248046875,0.417724609375
1772562089188792800,9.800792724609375,-1.330902099609375,-0.89910888671875,0.369110107421875
1772562089198860000,9.810860107421876,-1.4604949951171875,-0.881439208984375,0.4605865478515625
1772562089208927200,9.82092724609375,-1.84466552734375,-0.813629150390625,0.640625
1772562089218994200,9.830994140625,-2.537017822265625,-0.8031005859375,0.6870269775390625
1772562089229061000,9.84106103515625,-3.3399658203125,-0.8433837890625,0.4459686279296875
1772562089239128000,9.851128173828124,-3.863922119140625,-0.9462738037109375,0.0352020263671875
1772562089249195000,9.861195068359375,-3.92138671875,-1.0682220458984375,-0.238311767578125
1772562089259263000,9.871262939453125,-3.939361572265625,-1.2140655517578125,-0.10479736328125
1772562089269330000,9.881329833984376,-4.042877197265625,-1.453216552734375,0.2316436767578125
1772562089279397000,9.891397216796875,-3.96588134765625,-1.3575286865234375,0.008331298828125
1772562089289464000,9.901464111328124,-5.0587310791015625,-1.0986785888671875,-0.3378143310546875
1772562089299531000,9.911531005859375,-5.5899810791015625,-0.7757415771484375,-0.1905364990234375
1772562089309598000,9.921597900390625,-5.1814727783203125,-0.249267578125,0.0215911865234375
1772562089319665000,9.931664794921875,-5.5591278076171875,0.2332611083984375,0.2467041015625
1772562089329731800,9.94173193359375,-6.3142852783203125,0.9066314697265625,0.167083740234375
1772562089339799000,9.951799072265626,-6.468841552734375,1.207611083984375,-0.2527313232421875
1772562089349866200,9.9618662109375,-5.7824554443359375,1.10601806640625,-0.8384552001953125
1772562089359933200,9.97193310546875,-4.529998779296875,0.9993896484375,-1.078887939453125
1772562089370000100,9.982000244140625,-3.05517578125,0.86962890625,-0.8047637939453125
1772562089380067000,9.992067138671874,-1.7964019775390625,0.7825775146484375,-0.3989105224609375
1772562089390134000,10.002134033203125,-0.906219482421875,0.7696380615234375,-0.3077392578125
1772562089400201000,10.012200927734375,-0.2342681884765625,0.681304931640625,-0.5126190185546875
1772562089410268200,10.02226806640625,0.25006103515625,0.3700408935546875,-0.6902618408203125
1772562089420335000,10.032335205078125,0.5187225341796875,0.1056671142578125,-0.7905120849609375
1772562089430402000,10.042402099609374,0.6833953857421875,0.0564422607421875,-0.7702178955078125
1772562089440470000,10.052469970703125,0.6593780517578125,0.1670379638671875,-0.606842041015625
1772562089450537000,10.062536865234375,0.576629638671875,0.2939300537109375,-0.46148681640625
1772562089460604000,10.07260400390625,0.3923797607421875,0.462738037109375,-0.46343994140625
1772562089470670800,10.0826708984375,0.1810760498046875,0.6597900390625,-0.449737548828125
1772562089480738000,10.092738037109376,0.0419921875,0.7395782470703125,-0.3295440673828125
1772562089490805200,10.10280517578125,-0.0267791748046875,0.8172760009765625,-0.188323974609375
1772562089500872200,10.1128720703125,-0.0634918212890625,0.8545074462890625,-0.0556793212890625
1772562089510939100,10.122939208984375,0.07635498046875,0.7151641845703125,0.0523681640625
1772562089521006000,10.133006103515624,0.325592041015625,0.56982421875,-0.0122222900390625
1772562089531073000,10.143072998046875,0.555633544921875,0.520477294921875,-0.1275634765625
1772562089541140000,10.153139892578125,0.74072265625,0.4376068115234375,-0.1290740966796875
1772562089551207200,10.163207275390626,0.8305816650390625,0.2923736572265625,-0.11724853515625
1772562089561274000,10.173274169921875,0.899627685546875,0.1786041259765625,-0.1743316650390625
1772562089571341000,10.183341064453124,0.958160400390625,0.128143310546875,-0.2538604736328125
1772562089581408000,10.193407958984375,0.964874267578125,0.1016082763671875,-0.3083343505859375
1772562089591475000,10.203474853515624,0.9197845458984375,0.0875091552734375,-0.313232421875
1772562089601542000,10.2135419921875,0.870635986328125,0.071044921875,-0.242095947265625
1772562089611609900,10.22360986328125,0.8307342529296875,0.065185546875,-0.113128662109375
1772562089621676800,10.2336767578125,0.791656494140625,0.0776214599609375,0.0079498291015625
1772562089631744300,10.243744140625,0.7582550048828125,0.1052703857421875,0.081512451171875
1772562089641811200,10.253811279296874,0.6761932373046875,0.1619110107421875,0.133575439453125
1772562089651878100,10.263878173828125,0.56768798828125,0.21881103515625,0.192108154296875
1772562089661945000,10.273945068359374,0.44342041015625,0.2556610107421875,0.2464752197265625
1772562089672012000,10.284011962890625,0.322601318359375,0.2819061279296875,0.273101806640625
1772562089682079000,10.294078857421875,0.206573486328125,0.277435302734375,0.27056884765625
1772562089692146200,10.304146240234376,0.11767578125,0.266082763671875,0.26190185546875
1772562089702213000,10.314213134765625,0.0716094970703125,0.261871337890625,0.2794647216796875
1772562089712280000,10.324280029296874,0.0322265625,0.24755859375,0.3277587890625
1772562089722347000,10.334346923828125,-0.024383544921875,0.2086334228515625,0.393585205078125
1772562089732414000,10.3444140625,-0.11163330078125,0.1097259521484375,0.38018798828125
1772562089742481000,10.35448095703125,-0.316192626953125,-0.0316619873046875,0.2621307373046875
1772562089752548000,10.364548095703125,-0.5491485595703125,-0.1492156982421875,0.1413421630859375
1772562089762615000,10.374614990234376,-0.6699676513671875,-0.2755889892578125,0.0137786865234375
1772562089772683300,10.384683349609375,-0.693817138671875,-0.404632568359375,-0.0814208984375
1772562089782750200,10.394750244140624,-0.711212158203125,-0.4614410400390625,-0.0612335205078125
1772562089792817200,10.404817138671875,-0.824127197265625,-0.47802734375,0.008453369140625
1772562089802884000,10.414884033203125,-1.090423583984375,-0.4998321533203125,0.0495758056640625
1772562089812951000,10.424950927734375,-1.4271087646484375,-0.5377044677734375,0.0375823974609375
1772562089823018000,10.43501806640625,-1.84625244140625,-0.61785888671875,-0.0425262451171875
1772562089833085200,10.445085205078126,-2.24993896484375,-0.699371337890625,-0.2034912109375
1772562089843152100,10.455152099609375,-2.5437774658203125,-0.7759552001953125,-0.3768310546875
1772562089853219000,10.465218994140624,-2.6200103759765625,-0.7989044189453125,-0.3860931396484375
1772562089863286000,10.4752861328125,-2.515838623046875,-0.8475494384765625,-0.3208465576171875
1772562089873353000,10.48535302734375,-2.4024810791015625,-0.81744384765625,-0.3634796142578125
1772562089883420000,10.495419921875,-2.4478607177734375,-0.710723876953125,-0.521881103515625
1772562089893487000,10.505487060546875,-2.576812744140625,-0.565826416015625,-0.637847900390625
1772562089903554000,10.515553955078126,-2.6866455078125,-0.3258056640625,-0.524383544921875
1772562089913621000,10.52562109375,-2.8685150146484375,-0.16058349609375,-0.178955078125
1772562089923688000,10.53568798828125,-3.0315093994140625,0.0123443603515625,0.0927276611328125
1772562089933755000,10.5457548828125,-3.0141143798828125,0.2394561767578125,0.075592041015625
1772562089943823000,10.555822998046875,-2.97161865234375,0.380279541015625,-0.0498504638671875
1772562089953890000,10.56589013671875,-2.8745880126953125,0.416107177734375,-0.128387451171875
1772562089963957000,10.57595703125,-2.573699951171875,0.33331298828125,-0.19891357421875
1772562089974024000,10.58602392578125,-2.19927978515625,0.2093658447265625,-0.2542724609375
1772562089984091100,10.596091064453125,-1.8623199462890625,0.0756378173828125,-0.25421142578125
1772562089994158000,10.606157958984374,-1.556976318359375,-0.0804595947265625,-0.2658233642578125
1772562090004225000,10.61622509765625,-1.2542724609375,-0.18389892578125,-0.3131866455078125
1772562090014292000,10.6262919921875,-0.9525299072265625,-0.230438232421875,-0.365875244140625
1772562090024359000,10.63635888671875,-0.7099456787109375,-0.3083038330078125,-0.387664794921875
1772562090034425900,10.64642578125,-0.5420684814453125,-0.4051666259765625,-0.4088287353515625
1772562090044493000,10.6564931640625,-0.377777099609375,-0.4347381591796875,-0.3887786865234375
1772562090054560000,10.66656005859375,-0.294769287109375,-0.41021728515625,-0.3673248291015625
1772562090064627000,10.676626953125,-0.41619873046875,-0.4314117431640625,-0.519561767578125
1772562090074694100,10.686694091796875,-0.7596893310546875,-0.5723114013671875,-0.9710845947265625
1772562090084761000,10.696760986328124,-2.4293975830078125,-1.0023040771484375,-2.2549285888671875
1772562090094828000,10.706828125,-0.8428802490234375,-0.8922271728515625,-1.451507568359375
1772562090104895200,10.716895263671875,0.0443267822265625,-0.3555755615234375,-0.4763641357421875
1772562090114963000,10.726962890625,-0.302001953125,-0.163177490234375,-0.192474365234375
1772562090125030100,10.737030029296875,-0.6258392333984375,-0.0655059814453125,0.0511322021484375
1772562090135097000,10.74709716796875,-0.606109619140625,-0.1381988525390625,0.2603759765625
1772562090145164000,10.7571640625,-0.599884033203125,-0.358917236328125,0.4210662841796875
1772562090155231700,10.767231689453125,-0.5058746337890625,-0.382965087890625,0.44134521484375
1772562090165298700,10.777298583984376,-0.4028778076171875,-0.30841064453125,0.028472900390625
1772562090175365600,10.78736572265625,-0.3199310302734375,-0.1665802001953125,-0.217864990234375
1772562090185432600,10.7974326171875,-0.231414794921875,0.0113372802734375,-0.2270355224609375
1772562090195499800,10.807499755859375,-0.1943359375,0.2020416259765625,-0.1783905029296875
1772562090205566700,10.817566650390624,-0.1937103271484375,0.3889923095703125,-0.0782318115234375
1772562090215633700,10.827633544921875,-0.4158477783203125,0.4002685546875,0.1605377197265625
1772562090225700600,10.83770068359375,-0.7655792236328125,0.1837158203125,0.2568206787109375
1772562090235767600,10.847767578125,-1.055511474609375,-0.1837921142578125,0.185943603515625
1772562090245834500,10.85783447265625,-1.1562042236328125,-0.4167327880859375,0.1782379150390625
1772562090255901700,10.867901611328126,-1.213714599609375,-0.3993377685546875,0.173736572265625
1772562090265968600,10.87796875,-1.22271728515625,-0.258087158203125,0.1998291015625
1772562090276036900,10.888036865234374,-1.1386566162109375,-0.1065673828125,0.1466827392578125
1772562090286103800,10.898103759765625,-1.0747222900390625,0.032501220703125,0.1171112060546875
1772562090296170800,10.908170654296875,-1.0773162841796875,0.1070098876953125,0.1617584228515625
1772562090306237700,10.91823779296875,-0.9845123291015625,0.1805572509765625,0.1972198486328125
1772562090316304600,10.9283046875,-0.410400390625,0.333831787109375,0.27301025390625
1772562090326371600,10.93837158203125,-0.4717254638671875,0.298126220703125,0.293792724609375
1772562090336438500,10.9484384765625,-1.0091094970703125,0.1410980224609375,0.1289825439453125
1772562090346505700,10.958505615234374,-1.186431884765625,0.0346527099609375,-0.0589447021484375
1772562090356572700,10.96857275390625,-1.2118988037109375,0.0590362548828125,-0.033966064453125
1772562090366639600,10.9786396484375,-1.2059783935546875,0.135162353515625,-0.002349853515625
1772562090376706600,10.98870654296875,-1.2464141845703125,0.1275634765625,-0.014312744140625
1772562090386773500,10.9987734375,-1.23779296875,0.0876007080078125,0.0276947021484375
1772562090396840400,11.00884033203125,-1.2367401123046875,0.036956787109375,0.119659423828125
1772562090406907600,11.01890771484375,-1.2241973876953125,-0.0101776123046875,0.2047882080078125
1772562090416974600,11.028974609375,-1.2172698974609375,-0.061737060546875,0.248138427734375
1772562090427041800,11.039041748046875,-1.20745849609375,-0.1011199951171875,0.2361602783203125
1772562090437109800,11.04910986328125,-1.18017578125,-0.125946044921875,0.204376220703125
1772562090447176700,11.0591767578125,-1.150421142578125,-0.154693603515625,0.1480255126953125
1772562090457243600,11.06924365234375,-1.118988037109375,-0.164215087890625,0.102752685546875
1772562090467310600,11.079310546875,-1.08233642578125,-0.155975341796875,0.081024169921875
1772562090477377500,11.08937744140625,-1.0422210693359375,-0.14434814453125,0.069183349609375
1772562090487444700,11.09944482421875,-1.0185546875,-0.13922119140625,0.05517578125
1772562090497511700,11.10951171875,-1.01629638671875,-0.133087158203125,0.0423431396484375
1772562090507578600,11.11957861328125,-1.006866455078125,-0.1287994384765625,0.048187255859375
1772562090517645600,11.1296455078125,-0.9721527099609375,-0.1192474365234375,0.0807647705078125
1772562090527712500,11.13971240234375,-0.9410552978515625,-0.10223388671875,0.1152801513671875
1772562090537779500,11.149779541015626,-0.922637939453125,-0.089813232421875,0.138763427734375
1772562090547846700,11.1598466796875,-0.9057159423828125,-0.1077423095703125,0.136932373046875
1772562090557913900,11.169913818359374,-0.8839111328125,-0.1179351806640625,0.121917724609375
1772562090567980800,11.179980712890625,-0.8714447021484375,-0.1142578125,0.09814453125
1772562090578047700,11.1900478515625,-0.8740081787109375,-0.13763427734375,0.065673828125
1772562090588114700,11.20011474609375,-0.787109375,-0.113922119140625,0.06170654296875
1772562090598182700,11.2101826171875,-0.708160400390625,-0.0972137451171875,0.064300537109375
1772562090608249600,11.22024951171875,-0.6644287109375,-0.1703033447265625,0.0451812744140625
1772562090618316500,11.230316650390625,-0.62701416015625,-0.2667083740234375,0.0159912109375
1772562090628383700,11.2403837890625,-0.5928955078125,-0.27996826171875,-0.00872802734375
1772562090638450700,11.25045068359375,-0.6202545166015625,-0.258331298828125,-0.0381622314453125
