time,seconds_elapsed,z,y,x
1772561156145548800,0.055548828125,-0.9392547607421875,-0.3190155029296875,0.069732666015625
1772561156155615700,0.06561572265625,-0.9587249755859375,-0.317535400390625,0.04632568359375
1772561156165682700,0.0756826171875,-0.96844482421875,-0.31219482421875,0.0333404541015625
1772561156175750000,0.08575,-0.961639404296875,-0.307037353515625,0.03546142578125
1772561156185815800,0.09581591796875,-0.9449920654296875,-0.302581787109375,0.0420989990234375
1772561156195882800,0.1058828125,-0.951751708984375,-0.2984619140625,0.0427398681640625
1772561156205949700,0.11594970703125,-0.979644775390625,-0.292938232421875,0.042205810546875
1772561156216016000,0.126015869140625,-0.996856689453125,-0.285125732421875,0.046356201171875
1772561156226082800,0.136082763671875,-0.9961700439453125,-0.275238037109375,0.0569000244140625
1772561156236149800,0.146149658203125,-0.9849700927734375,-0.271881103515625,0.07806396484375
1772561156246216700,0.156216796875,-0.9668121337890625,-0.2717742919921875,0.0970916748046875
1772561156256283000,0.166282958984375,-0.9618072509765625,-0.270660400390625,0.10382080078125
1772561156266349800,0.176349853515625,-0.9643402099609375,-0.2714385986328125,0.1004791259765625
1772561156276416800,0.186416748046875,-0.96575927734375,-0.2716522216796875,0.0965728759765625
1772561156286482700,0.196482666015625,-0.967926025390625,-0.2733001708984375,0.0923919677734375
1772561156296550000,0.2065498046875,-0.9781951904296875,-0.274017333984375,0.086181640625
1772561156306616800,0.216616943359375,-0.9890899658203125,-0.272216796875,0.0867462158203125
1772561156316682800,0.226682861328125,-0.9925994873046875,-0.2683258056640625,0.0870361328125
1772561156326749700,0.236749755859375,-0.9931640625,-0.266021728515625,0.08953857421875
1772561156336817000,0.24681689453125,-0.988189697265625,-0.26300048828125,0.096099853515625
1772561156346883800,0.2568837890625,-0.97393798828125,-0.2632904052734375,0.0963134765625
1772561156356949800,0.26694970703125,-0.95904541015625,-0.265380859375,0.0985870361328125
1772561156367016700,0.2770166015625,-0.95062255859375,-0.2685394287109375,0.094573974609375
1772561156377084000,0.287083984375,-0.9508819580078125,-0.271759033203125,0.0898590087890625
1772561156387149800,0.29714990234375,-0.958648681640625,-0.276519775390625,0.0801544189453125
1772561156397216800,0.307216796875,-0.96893310546875,-0.2749176025390625,0.068115234375
1772561156407283700,0.31728369140625,-0.9667816162109375,-0.27447509765625,0.066162109375
1772561156417350000,0.327349853515625,-0.958587646484375,-0.27691650390625,0.0709228515625
1772561156427416800,0.337416748046875,-0.9451141357421875,-0.2787017822265625,0.0723724365234375
1772561156437483800,0.34748388671875,-0.936553955078125,-0.2788238525390625,0.0723419189453125
1772561156447550700,0.35755078125,-0.939697265625,-0.2784576416015625,0.0697021484375
1772561156457617000,0.367616943359375,-0.9447784423828125,-0.2793121337890625,0.0664215087890625
1772561156467683800,0.377683837890625,-0.942474365234375,-0.2799224853515625,0.0637054443359375
1772561156477750800,0.387750732421875,-0.936676025390625,-0.2835540771484375,0.059051513671875
1772561156487816700,0.397816650390625,-0.937103271484375,-0.2816925048828125,0.0591583251953125
1772561156497884000,0.4078837890625,-0.944427490234375,-0.276702880859375,0.06463623046875
1772561156507950800,0.417950927734375,-0.9529571533203125,-0.272918701171875,0.0706787109375
1772561156518016800,0.428016845703125,-0.964385986328125,-0.269378662109375,0.0759124755859375
1772561156528083700,0.438083740234375,-0.97607421875,-0.26861572265625,0.07574462890625
1772561156538151000,0.44815087890625,-0.9764556884765625,-0.2659759521484375,0.0827484130859375
1772561156548217900,0.4582177734375,-0.973114013671875,-0.2699737548828125,0.086822509765625
1772561156558283800,0.46828369140625,-0.9734954833984375,-0.2725067138671875,0.08599853515625
1772561156568350700,0.478350830078125,-0.99200439453125,-0.2678680419921875,0.0883026123046875
1772561156578417700,0.488417724609375,-1.01385498046875,-0.26226806640625,0.090911865234375
1772561156588483800,0.49848388671875,-1.0108489990234375,-0.25946044921875,0.09375
1772561156598550800,0.50855078125,-0.9907073974609375,-0.2649688720703125,0.0969696044921875
1772561156608617700,0.51861767578125,-0.983642578125,-0.2653350830078125,0.104095458984375
1772561156618684700,0.5286845703125,-0.9864654541015625,-0.2666473388671875,0.108856201171875
1772561156628750800,0.538750732421875,-0.9813232421875,-0.27276611328125,0.112548828125
1772561156638817800,0.54881787109375,-0.978851318359375,-0.268585205078125,0.116058349609375
1772561156648884700,0.558884765625,-1.002716064453125,-0.2511444091796875,0.1217041015625
1772561156658951000,0.568950927734375,-1.0584716796875,-0.22833251953125,0.1202392578125
1772561156669017900,0.579017822265625,-1.1114501953125,-0.2032012939453125,0.094635009765625
1772561156679084800,0.589084716796875,-1.114501953125,-0.1873626708984375,0.067474365234375
1772561156689150700,0.599150634765625,-1.0592498779296875,-0.2021942138671875,0.0382537841796875
1772561156699218000,0.609218017578125,-0.984588623046875,-0.263885498046875,0.012420654296875
1772561156709284900,0.619284912109375,-0.9078826904296875,-0.3864593505859375,-0.018310546875
1772561156719351800,0.629351806640625,-0.849884033203125,-0.4907989501953125,-0.0457611083984375
1772561156729417700,0.639417724609375,-0.8277587890625,-0.50067138671875,-0.046630859375
1772561156739484700,0.649484619140625,-0.828704833984375,-0.4636077880859375,-0.0136566162109375
1772561156749551900,0.6595517578125,-0.826629638671875,-0.45391845703125,0.030670166015625
1772561156759617800,0.66961767578125,-0.80914306640625,-0.463348388671875,0.0728302001953125
1772561156769684700,0.679684814453125,-0.8061981201171875,-0.4718017578125,0.1118927001953125
1772561156779751700,0.689751708984375,-0.843994140625,-0.4730377197265625,0.144287109375
1772561156789817900,0.69981787109375,-0.864288330078125,-0.4776153564453125,0.1680450439453125
1772561156799884800,0.709884765625,-0.8345794677734375,-0.4811859130859375,0.183441162109375
1772561156809951700,0.71995166015625,-0.7824859619140625,-0.497467041015625,0.1938629150390625
1772561156820018700,0.730018798828125,-0.7240753173828125,-0.5237579345703125,0.202789306640625
1772561156830084900,0.7400849609375,-0.669403076171875,-0.5462646484375,0.2165374755859375
1772561156840151800,0.75015185546875,-0.6466522216796875,-0.558868408203125,0.2241363525390625
1772561156850218800,0.76021875,-0.6626129150390625,-0.5623626708984375,0.2321319580078125
1772561156860285000,0.770284912109375,-0.6599578857421875,-0.562347412109375,0.2299957275390625
1772561156870352000,0.780351806640625,-0.6191864013671875,-0.581634521484375,0.2185516357421875
1772561156880418800,0.790418701171875,-0.5615692138671875,-0.619903564453125,0.2280731201171875
1772561156890484700,0.800484619140625,-0.4559326171875,-0.6622772216796875,0.2844696044921875
1772561156900551700,0.8105517578125,-0.4520111083984375,-0.660552978515625,0.322967529296875
1772561156910619000,0.820618896484375,-0.51953125,-0.6111297607421875,0.298675537109375
1772561156920685800,0.830685791015625,-0.5235748291015625,-0.627777099609375,0.25201416015625
1772561156930751700,0.840751708984375,-0.483062744140625,-0.6540374755859375,0.2357025146484375
1772561156940818700,0.850818603515625,-0.4893035888671875,-0.6205291748046875,0.253021240234375
1772561156950886000,0.860885986328125,-0.5263519287109375,-0.591217041015625,0.3029327392578125
1772561156960951800,0.870951904296875,-0.594268798828125,-0.4890594482421875,0.3568572998046875
1772561156971018800,0.881018798828125,-0.71563720703125,-0.3947601318359375,0.40631103515625
1772561156981085700,0.891085693359375,-0.8213653564453125,-0.3828582763671875,0.4400634765625
1772561156991152600,0.901152587890625,-0.8798675537109375,-0.436370849609375,0.4204254150390625
1772561157001218800,0.91121875,-0.9040985107421875,-0.4568939208984375,0.335052490234375
1772561157011285800,0.92128564453125,-0.8907318115234375,-0.4318695068359375,0.2204742431640625
1772561157021352700,0.931352783203125,-0.833343505859375,-0.3898162841796875,0.1194915771484375
1772561157031419000,0.9414189453125,-0.7745361328125,-0.32122802734375,0.05511474609375
1772561157041485800,0.95148583984375,-0.7556610107421875,-0.2945556640625,0.0264892578125
1772561157051552800,0.961552734375,-0.8003387451171875,-0.336761474609375,-0.028564453125
1772561157061618700,0.97161865234375,-1.1459197998046875,-0.3693084716796875,-0.1096954345703125
1772561157071686000,0.981685791015625,-1.508087158203125,-0.3415679931640625,-0.1334686279296875
1772561157081752800,0.9917529296875,-1.5172119140625,-0.2706146240234375,-0.1607818603515625
1772561157091819800,1.00181982421875,-1.3501739501953125,-0.2026824951171875,-0.136474609375
1772561157101885700,1.0118857421875,-1.118011474609375,-0.1632232666015625,-0.0643310546875
1772561157111953000,1.021952880859375,-0.9605560302734375,-0.1786651611328125,0.0181427001953125
1772561157122019800,1.032019775390625,-0.9690704345703125,-0.2313995361328125,0.114501953125
1772561157132085800,1.042085693359375,-1.02264404296875,-0.2523040771484375,0.205810546875
1772561157142152700,1.052152587890625,-1.0016937255859375,-0.257232666015625,0.258880615234375
1772561157152219600,1.0622197265625,-0.9328460693359375,-0.281097412109375,0.2529144287109375
1772561157162285800,1.072285888671875,-0.863372802734375,-0.311431884765625,0.2033843994140625
1772561157172352800,1.082352783203125,-0.79913330078125,-0.3289031982421875,0.1342010498046875
1772561157182419700,1.092419677734375,-0.7567291259765625,-0.3503875732421875,0.067474365234375
1772561157192486700,1.102486572265625,-0.74676513671875,-0.353302001953125,0.016357421875
1772561157202552800,1.112552734375,-0.7396087646484375,-0.31591796875,-0.018218994140625
1772561157212619800,1.122619873046875,-0.7234649658203125,-0.195465087890625,-0.0452880859375
1772561157222686700,1.132686767578125,-0.7638397216796875,-0.2363433837890625,-0.0293426513671875
1772561157232753000,1.1427529296875,-0.8170318603515625,-0.3140716552734375,0.015533447265625
1772561157242819800,1.15281982421875,-0.8918609619140625,-0.393402099609375,0.0402374267578125
1772561157252886800,1.16288671875,-0.920867919921875,-0.4154510498046875,0.0452728271484375
1772561157262952700,1.17295263671875,-0.89776611328125,-0.3664398193359375,0.0206146240234375
1772561157273020000,1.18302001953125,-0.8306121826171875,-0.2991943359375,-0.02777099609375
1772561157283086800,1.1930869140625,-0.7640533447265625,-0.2596588134765625,-0.0618896484375
1772561157293153800,1.20315380859375,-0.7778472900390625,-0.226776123046875,-0.0537872314453125
1772561157303219500,1.213219482421875,-0.8282623291015625,-0.21044921875,-0.0154571533203125
1772561157313286700,1.22328662109375,-0.88970947265625,-0.2185516357421875,0.013702392578125
1772561157323353600,1.233353515625,-0.901153564453125,-0.2175750732421875,0.0364990234375
1772561157333419500,1.24341943359375,-0.822113037109375,-0.2174072265625,0.025421142578125
1772561157343486500,1.253486572265625,-0.750213623046875,-0.2182159423828125,0.0217132568359375
1772561157353553400,1.263553466796875,-0.725555419921875,-0.2279815673828125,0.0325775146484375
1772561157363620600,1.27362060546875,-0.75323486328125,-0.2227325439453125,0.0464935302734375
1772561157373686500,1.2836865234375,-0.801727294921875,-0.1946563720703125,0.0558319091796875
1772561157383753500,1.29375341796875,-0.836883544921875,-0.16180419921875,0.0628204345703125
1772561157393820400,1.3038203125,-0.8359222412109375,-0.131622314453125,0.07452392578125
1772561157403886600,1.313886474609375,-0.8269195556640625,-0.1127777099609375,0.0960693359375
1772561157413953500,1.32395361328125,-0.851348876953125,-0.1069488525390625,0.1002044677734375
1772561157424020500,1.3340205078125,-0.8934783935546875,-0.1043548583984375,0.0838165283203125
1772561157434086700,1.344086669921875,-0.916259765625,-0.0963592529296875,0.0559234619140625
1772561157444153600,1.354153564453125,-0.918792724609375,-0.094635009765625,0.0242156982421875
1772561157454220500,1.364220458984375,-0.937713623046875,-0.089752197265625,-0.0030059814453125
1772561157464287500,1.37428759765625,-0.98077392578125,-0.0788726806640625,-0.0159454345703125
1772561157474353700,1.384353759765625,-1.0236663818359375,-0.0597076416015625,-0.0052642822265625
1772561157484420600,1.394420654296875,-1.0452728271484375,-0.055908203125,0.01068115234375
1772561157494487600,1.404487548828125,-1.0308074951171875,-0.08038330078125,0.011810302734375
1772561157504553500,1.414553466796875,-0.999053955078125,-0.1096954345703125,0.0114288330078125
1772561157514620400,1.424620361328125,-0.9571380615234375,-0.1301727294921875,0.0113525390625
1772561157524687600,1.4346875,-0.9057159423828125,-0.14923095703125,0.02557373046875
1772561157534753500,1.44475341796875,-0.861297607421875,-0.1687164306640625,0.05859375
1772561157544820500,1.454820556640625,-0.86724853515625,-0.19964599609375,0.097198486328125
1772561157554887400,1.464887451171875,-0.9540557861328125,-0.2389373779296875,0.1137847900390625
1772561157564954600,1.47495458984375,-1.099365234375,-0.2705841064453125,0.1031646728515625
1772561157575020500,1.4850205078125,-1.2434234619140625,-0.28179931640625,0.072265625
1772561157585087500,1.49508740234375,-1.3489227294921875,-0.28338623046875,0.0225067138671875
1772561157595154400,1.505154541015625,-1.379302978515625,-0.3072052001953125,-0.0126800537109375
1772561157605220600,1.515220703125,-1.4068145751953125,-0.358642578125,0.0032501220703125
1772561157615287600,1.52528759765625,-1.4720916748046875,-0.4400482177734375,0.0479888916015625
1772561157625354500,1.5353544921875,-1.5334014892578125,-0.5419769287109375,0.06085205078125
1772561157635421400,1.54542138671875,-1.6180877685546875,-0.6322784423828125,0.0184173583984375
1772561157645487600,1.555487548828125,-1.684722900390625,-0.6639862060546875,0.01593017578125
1772561157655554600,1.565554443359375,-1.752777099609375,-0.6534423828125,0.11370849609375
1772561157665621500,1.57562158203125,-1.8936004638671875,-0.6455841064453125,0.2461090087890625
1772561157675687400,1.5856875,-2.0677032470703125,-0.6318359375,0.327484130859375
1772561157685754600,1.595754638671875,-2.1362152099609375,-0.6214141845703125,0.34954833984375
1772561157695821600,1.605821533203125,-2.1754913330078125,-0.6242523193359375,0.333038330078125
1772561157705887500,1.615887451171875,-2.2407073974609375,-0.5876922607421875,0.33319091796875
1772561157715954400,1.625954345703125,-2.214385986328125,-0.5159759521484375,0.3521881103515625
1772561157726021600,1.636021728515625,-2.1025848388671875,-0.459014892578125,0.395050048828125
1772561157736088600,1.646088623046875,-2.11322021484375,-0.4287261962890625,0.3986053466796875
1772561157746154500,1.656154541015625,-2.239990234375,-0.3642578125,0.361602783203125
1772561157756221400,1.666221435546875,-2.35272216796875,-0.275634765625,0.3066253662109375
1772561157766288600,1.67628857421875,-2.4061431884765625,-0.217132568359375,0.2611236572265625
1772561157776354600,1.6863544921875,-2.337127685546875,-0.1652069091796875,0.2489166259765625
1772561157786421500,1.69642138671875,-2.1066436767578125,-0.1536712646484375,0.2284393310546875
1772561157796488400,1.706488525390625,-1.8410797119140625,-0.1911163330078125,0.1671905517578125
1772561157806554600,1.7165546875,-1.5794219970703125,-0.24298095703125,0.11163330078125
1772561157816621600,1.72662158203125,-1.3516387939453125,-0.2948150634765625,0.0872650146484375
1772561157826688500,1.7366884765625,-1.1805572509765625,-0.321685791015625,0.06683349609375
1772561157836755500,1.74675537109375,-1.0643768310546875,-0.3190155029296875,0.0410308837890625
1772561157846821600,1.756821533203125,-0.963165283203125,-0.33001708984375,0.0091552734375
1772561157856888600,1.766888671875,-0.87103271484375,-0.3909149169921875,-0.0433807373046875
1772561157866955500,1.77695556640625,-0.7691192626953125,-0.4311676025390625,-0.095001220703125
1772561157877021400,1.787021484375,-0.650146484375,-0.3992919921875,-0.101226806640625
1772561157887088600,1.797088623046875,-0.5199127197265625,-0.267486572265625,-0.030120849609375
1772561157897155600,1.807155517578125,-0.433624267578125,-0.1113128662109375,0.093841552734375
1772561157907222500,1.817222412109375,-0.4088134765625,-0.0275421142578125,0.1880035400390625
1772561157917288400,1.827288330078125,-0.3180694580078125,0.0077056884765625,0.165863037109375
1772561157927355600,1.837355712890625,-0.078125,0.0201568603515625,0.0805511474609375
1772561157937422600,1.847422607421875,0.1156768798828125,-0.042236328125,0.1015777587890625
1772561157947488500,1.857488525390625,0.3763580322265625,0.03155517578125,-0.043060302734375
1772561157957555500,1.867555419921875,0.67950439453125,0.0747528076171875,-0.2212677001953125
1772561157967622400,1.877622314453125,0.84075927734375,0.0030517578125,-0.18798828125
1772561157977688600,1.8876884765625,0.917816162109375,-0.1240386962890625,-0.091217041015625
1772561157987755500,1.897755615234375,0.911102294921875,-0.2596893310546875,0.022247314453125
1772561157997822500,1.907822509765625,0.738433837890625,-0.306610107421875,0.020904541015625
1772561158007889400,1.917889404296875,0.31536865234375,-0.231536865234375,0.035308837890625
1772561158017955600,1.92795556640625,0.08599853515625,-0.111114501953125,0.1007843017578125
1772561158028022500,1.9380224609375,-0.04461669921875,-0.0516510009765625,0.1817474365234375
1772561158038089500,1.94808935546875,-0.1197967529296875,-0.0774383544921875,0.1612548828125
1772561158048155600,1.95815576171875,-0.1314544677734375,-0.1380157470703125,0.072265625
1772561158058222600,1.96822265625,-0.0732574462890625,-0.17218017578125,-0.0262451171875
1772561158068289500,1.97828955078125,-0.025634765625,-0.184295654296875,-0.1024932861328125
1772561158078355500,1.98835546875,-0.0802459716796875,-0.177032470703125,-0.1414642333984375
1772561158088422700,1.998422607421875,-0.1527862548828125,-0.14996337890625,-0.1254730224609375
1772561158098489600,2.008489501953125,-0.150970458984375,-0.1177520751953125,-0.03692626953125
1772561158108556500,2.018556640625,-0.123870849609375,-0.088043212890625,0.0251617431640625
1772561158118622500,2.02862255859375,-0.0847015380859375,-0.0907135009765625,0.0274658203125
1772561158128689400,2.038689453125,-0.2176055908203125,-0.124267578125,-0.026824951171875
1772561158138756600,2.048756591796875,-0.3329925537109375,-0.1011810302734375,-0.123809814453125
1772561158148822500,2.058822509765625,-0.2435302734375,-0.0917205810546875,-0.1476287841796875
1772561158158889500,2.068889404296875,-0.0620269775390625,-0.10052490234375,-0.1218109130859375
1772561158168956400,2.078956298828125,0.1278228759765625,-0.1058349609375,-0.0950469970703125
1772561158179023600,2.089023681640625,0.288238525390625,-0.1252899169921875,-0.0091094970703125
1772561158189089500,2.099089599609375,0.326263427734375,-0.0935211181640625,0.1282196044921875
1772561158199156500,2.109156494140625,0.2316131591796875,-0.0320892333984375,0.2491607666015625
1772561158209223400,2.119223388671875,-0.0185394287109375,0.01483154296875,0.339019775390625
1772561158219289600,2.12928955078125,-0.37445068359375,0.012542724609375,0.3492279052734375
1772561158229356500,2.1393564453125,-0.710662841796875,-0.0197906494140625,0.2925262451171875
1772561158239423500,2.149423583984375,-0.907623291015625,-0.1068267822265625,0.262115478515625
1772561158249489700,2.15948974609375,-0.83099365234375,-0.3017578125,0.2594146728515625
1772561158259556600,2.169556640625,-0.5607452392578125,-0.609832763671875,0.230438232421875
1772561158269623600,2.17962353515625,-0.2865447998046875,-0.96795654296875,0.112091064453125
1772561158279690500,2.1896904296875,-0.088775634765625,-1.2816162109375,-0.0572967529296875
1772561158289756400,2.19975634765625,0.01202392578125,-1.48492431640625,-0.2388153076171875
1772561158299824400,2.209824462890625,-0.2238006591796875,-1.624481201171875,-0.317962646484375
1772561158309891600,2.2198916015625,-0.9105072021484375,-1.646514892578125,-0.22991943359375
1772561158319957500,2.22995751953125,-1.7475433349609375,-1.6568450927734375,0.05126953125
1772561158330024400,2.2400244140625,-2.4397430419921875,-1.5513916015625,0.25079345703125
1772561158340091400,2.25009130859375,-2.8144989013671875,-1.4354400634765625,0.39105224609375
1772561158350158300,2.260158447265625,-2.7564697265625,-1.46063232421875,0.482940673828125
1772561158360224500,2.270224609375,-2.4929046630859375,-1.413818359375,0.3789215087890625
1772561158370291500,2.28029150390625,-2.5671539306640625,-1.3215789794921875,0.3858642578125
1772561158380358400,2.2903583984375,-3.0645294189453125,-1.2027740478515625,0.438262939453125
1772561158390424600,2.300424560546875,-3.3199310302734375,-0.9884490966796875,0.217803955078125
1772561158400491500,2.310491455078125,-3.4488677978515625,-0.941986083984375,0.062408447265625
1772561158410558500,2.320558349609375,-3.4232940673828125,-0.8295440673828125,-0.185943603515625
1772561158420624400,2.330624267578125,-3.2348175048828125,-0.6462860107421875,-0.38433837890625
1772561158430691600,2.340691650390625,-2.8545074462890625,-0.6440277099609375,-0.15069580078125
1772561158440758500,2.350758544921875,-2.409271240234375,-0.7037506103515625,0.1277008056640625
1772561158450825500,2.360825439453125,-2.0885162353515625,-0.6483612060546875,0.01220703125
1772561158460891400,2.370891357421875,-1.86260986328125,-0.623443603515625,-0.3622589111328125
1772561158470958600,2.38095849609375,-1.5712432861328125,-0.701995849609375,-0.6155242919921875
1772561158481025500,2.391025634765625,-1.28253173828125,-0.7267608642578125,-0.6309051513671875
1772561158491091500,2.401091552734375,-1.097991943359375,-0.58209228515625,-0.4690399169921875
1772561158501158400,2.411158447265625,-1.0058135986328125,-0.398162841796875,-0.1910552978515625
1772561158511225300,2.421225341796875,-0.9151763916015625,-0.3163299560546875,0.1023712158203125
1772561158521292500,2.43129248046875,-0.746490478515625,-0.309844970703125,0.25006103515625
1772561158531358500,2.4413583984375,-0.605133056640625,-0.29827880859375,0.2939605712890625
1772561158541425400,2.45142529296875,-0.5122222900390625,-0.253173828125,0.2713623046875
1772561158551492400,2.461492431640625,-0.4405059814453125,-0.247955322265625,0.1637115478515625
1772561158561558500,2.47155859375,-0.24725341796875,-0.2292938232421875,0.002227783203125
1772561158571625500,2.48162548828125,0.1473388671875,-0.19677734375,-0.08056640625
1772561158581692400,2.4916923828125,0.6326446533203125,-0.14361572265625,-0.1046905517578125
1772561158591758600,2.501758544921875,1.0268402099609375,-0.0964813232421875,0.003631591796875
1772561158601825500,2.511825439453125,1.1149749755859375,-0.0821075439453125,0.1362762451171875
1772561158611892500,2.521892578125,0.827667236328125,-0.0247955322265625,0.2384185791015625
1772561158621959400,2.53195947265625,0.33074951171875,0.0499420166015625,0.4376068115234375
1772561158632025600,2.542025634765625,-0.143524169921875,0.128265380859375,0.5117645263671875
1772561158642092500,2.552092529296875,-0.420379638671875,0.175628662109375,0.473785400390625
1772561158652159500,2.562159423828125,-0.4510345458984375,0.203094482421875,0.3618621826171875
1772561158662225400,2.572225341796875,-0.2671051025390625,0.1580657958984375,0.2344207763671875
1772561158672292400,2.582292236328125,0.0026397705078125,0.0576171875,0.0933380126953125
1772561158682359600,2.592359619140625,0.177001953125,-0.064727783203125,-0.0595855712890625
1772561158692426500,2.602426513671875,0.2261810302734375,-0.1272735595703125,-0.1749267578125
1772561158702492400,2.612492431640625,0.1649322509765625,-0.11444091796875,-0.2035064697265625
1772561158712559400,2.622559326171875,0.0354766845703125,-0.0866546630859375,-0.19061279296875
1772561158722626600,2.63262646484375,-0.116302490234375,-0.076080322265625,-0.1700897216796875
1772561158732692500,2.6426923828125,-0.291412353515625,-0.071197509765625,-0.13690185546875
1772561158742759400,2.652759521484375,-0.4662017822265625,-0.0637359619140625,-0.0760345458984375
1772561158752826400,2.662826416015625,-0.5721588134765625,-0.056365966796875,-0.011016845703125
1772561158762893300,2.672893310546875,-0.5881195068359375,-0.0500640869140625,0.0273284912109375
1772561158772959500,2.68295947265625,-0.4747467041015625,-0.0665435791015625,0.012603759765625
1772561158783026400,2.6930263671875,-0.2814483642578125,-0.1143341064453125,-0.027435302734375
1772561158793093400,2.70309326171875,-0.1129150390625,-0.1947479248046875,-0.116790771484375
1772561158803159600,2.71315966796875,-0.0142364501953125,-0.268707275390625,-0.1738739013671875
1772561158813226500,2.7232265625,0.0087738037109375,-0.3032684326171875,-0.1195068359375
1772561158823293400,2.73329345703125,-0.078399658203125,-0.2882537841796875,0.0096588134765625
1772561158833359400,2.743359375,-0.279510498046875,-0.24359130859375,0.150909423828125
1772561158843426600,2.753426513671875,-0.560699462890625,-0.197662353515625,0.265167236328125
1772561158853493500,2.763493408203125,-0.82989501953125,-0.1878814697265625,0.3044281005859375
1772561158863560400,2.773560546875,-1.019989013671875,-0.2267913818359375,0.231231689453125
1772561158873626400,2.78362646484375,-1.1265869140625,-0.3073272705078125,0.1144561767578125
1772561158883693600,2.793693603515625,-1.19390869140625,-0.4296112060546875,0.00518798828125
1772561158893760500,2.803760498046875,-1.2302703857421875,-0.5743255615234375,-0.08587646484375
1772561158903826400,2.813826416015625,-1.1923828125,-0.75390625,-0.176666259765625
1772561158913893400,2.823893310546875,-1.046417236328125,-1.010498046875,-0.2891845703125
1772561158923960300,2.833960205078125,-0.9278717041015625,-1.30999755859375,-0.324981689453125
1772561158934027500,2.844027587890625,-0.6775054931640625,-1.4366302490234375,-0.4273223876953125
1772561158944093400,2.854093505859375,-0.678131103515625,-1.642486572265625,-0.369384765625
1772561158954160400,2.864160400390625,-1.1992034912109375,-1.897735595703125,-0.1354827880859375
1772561158964227300,2.874227294921875,-1.6837310791015625,-1.9256134033203125,0.22314453125
1772561158974293500,2.88429345703125,-2.1616363525390625,-1.7032470703125,0.5670013427734375
1772561158984360400,2.8943603515625,-2.7842559814453125,-1.346405029296875,0.771484375
1772561158994427400,2.904427490234375,-3.34149169921875,-1.22802734375,0.9969635009765625
1772561159004493600,2.91449365234375,-3.6643524169921875,-1.11993408203125,0.8884429931640625
1772561159014560500,2.924560546875,-3.7025146484375,-0.970489501953125,0.6512298583984375
1772561159024627500,2.93462744140625,-3.5680694580078125,-0.9150390625,0.6091156005859375
1772561159034694400,2.9446943359375,-3.255462646484375,-0.8614044189453125,0.52947998046875
1772561159044760600,2.954760498046875,-2.83935546875,-0.859710693359375,0.403564453125
1772561159054827500,2.96482763671875,-2.4699249267578125,-0.902740478515625,0.39459228515625
1772561159064894500,2.97489453125,-2.27142333984375,-0.75885009765625,0.4364166259765625
1772561159074960400,2.98496044921875,-2.2066192626953125,-0.5001678466796875,0.4514007568359375
1772561159085027600,2.995027587890625,-2.135498046875,-0.288818359375,0.385101318359375
1772561159095094500,3.005094482421875,-2.0316314697265625,-0.132781982421875,0.234527587890625
1772561159105161500,3.015161376953125,-1.795654296875,-0.1038055419921875,0.0169525146484375
1772561159115227400,3.025227294921875,-1.35272216796875,-0.1722869873046875,-0.3193206787109375
1772561159125294300,3.03529443359375,-0.72625732421875,-0.2972259521484375,-0.52655029296875
1772561159135361500,3.045361572265625,-0.1678466796875,-0.402618408203125,-0.5663604736328125
1772561159145427500,3.055427490234375,0.173004150390625,-0.403594970703125,-0.57672119140625
1772561159155494400,3.065494384765625,0.2701873779296875,-0.35211181640625,-0.5244293212890625
1772561159165561300,3.075561279296875,0.1730194091796875,-0.2578582763671875,-0.441497802734375
1772561159175627500,3.08562744140625,-0.04876708984375,-0.15545654296875,-0.3205718994140625
1772561159185694500,3.095694580078125,-0.31842041015625,-0.0296630859375,-0.199493408203125
1772561159195761400,3.105761474609375,-0.604736328125,0.118011474609375,-0.1019744873046875
1772561159205828400,3.115828369140625,-0.7383575439453125,0.2624969482421875,-0.002105712890625
1772561159215894500,3.12589453125,-0.633026123046875,0.32623291015625,0.056732177734375
1772561159225961500,3.13596142578125,-0.2616424560546875,0.2565155029296875,0.020965576171875
1772561159236028400,3.1460283203125,0.2942047119140625,0.165496826171875,-0.1124267578125
1772561159246094600,3.156094482421875,0.8481903076171875,0.097900390625,-0.2357940673828125
1772561159256161500,3.16616162109375,1.1601715087890625,0.049713134765625,-0.23590087890625
1772561159266228500,3.176228515625,1.1472320556640625,0.016357421875,-0.136444091796875
1772561159276295400,3.18629541015625,0.9097442626953125,0.020904541015625,-0.0783538818359375
1772561159286361300,3.196361328125,0.512664794921875,0.0123291015625,0.0415802001953125
1772561159296428000,3.206427978515625,0.1290740966796875,0.06036376953125,0.17156982421875
1772561159306495000,3.216494873046875,-0.1286163330078125,0.1277618408203125,0.272705078125
1772561159316560600,3.226560546875,-0.2116546630859375,0.1595916748046875,0.3282623291015625
1772561159326628000,3.236628173828125,-0.1401214599609375,0.156494140625,0.3207244873046875
1772561159336695000,3.246695068359375,0.0149993896484375,0.08837890625,0.267120361328125
1772561159346762000,3.256761962890625,0.159759521484375,-0.0239105224609375,0.1410675048828125
1772561159356827600,3.26682763671875,0.216278076171875,-0.1172637939453125,-0.0033111572265625
1772561159366894800,3.276894775390625,0.1926116943359375,-0.17279052734375,-0.1267242431640625
1772561159376962000,3.286962158203125,0.1417999267578125,-0.1871490478515625,-0.1966552734375
1772561159387027700,3.29702783203125,0.027099609375,-0.16064453125,-0.1505889892578125
1772561159397095000,3.307094970703125,-0.2242584228515625,-0.0919647216796875,-0.056884765625
1772561159407161900,3.317161865234375,-0.5274658203125,0.0046539306640625,0.083343505859375
1772561159417227800,3.327227783203125,-0.79376220703125,0.0569915771484375,0.2195587158203125
1772561159427295000,3.337294921875,-0.9484405517578125,0.0598602294921875,0.2777099609375
1772561159437362000,3.34736181640625,-0.930145263671875,0.01580810546875,0.24725341796875
1772561159447428900,3.357428955078125,-0.73480224609375,-0.07879638671875,0.164031982421875
1772561159457494800,3.367494873046875,-0.481475830078125,-0.1856689453125,0.04833984375
1772561159467562000,3.37756201171875,-0.2207489013671875,-0.2868194580078125,-0.03009033203125
1772561159477629000,3.38762890625,0.0255889892578125,-0.3488311767578125,-0.0061798095703125
1772561159487694800,3.39769482421875,0.151458740234375,-0.371917724609375,0.092437744140625
1772561159497762000,3.407761962890625,0.0897064208984375,-0.4027252197265625,0.21343994140625
1772561159507829000,3.4178291015625,-0.17333984375,-0.4290771484375,0.2735443115234375
1772561159517896000,3.42789599609375,-0.53472900390625,-0.4335174560546875,0.313079833984375
1772561159527961900,3.4379619140625,-0.8744049072265625,-0.4205169677734375,0.3658447265625
1772561159538029000,3.448029052734375,-1.190399169921875,-0.4388885498046875,0.3817138671875
1772561159548096000,3.458095947265625,-1.448760986328125,-0.5540008544921875,0.3108062744140625
1772561159558161700,3.46816162109375,-1.5720672607421875,-0.749053955078125,0.167694091796875
1772561159568228900,3.478228759765625,-1.5419158935546875,-1.0402374267578125,0.0663909912109375
1772561159578296000,3.488296142578125,-1.307952880859375,-1.3755950927734375,0.0740814208984375
1772561159588363000,3.498363037109375,-0.9197540283203125,-1.652862548828125,0.1212615966796875
1772561159598429000,3.508428955078125,-0.61376953125,-1.8349609375,0.0882415771484375
1772561159608495900,3.518495849609375,-1.05987548828125,-2.002685546875,0.0809478759765625
1772561159618562800,3.528562744140625,-2.1367034912109375,-2.0312347412109375,0.226409912109375
1772561159628629000,3.53862890625,-3.0440216064453125,-1.8840484619140625,0.440155029296875
1772561159638696000,3.548696044921875,-3.6657562255859375,-1.56890869140625,0.4118804931640625
1772561159648763000,3.558762939453125,-4.0003662109375,-1.24609375,0.40911865234375
1772561159658828800,3.568828857421875,-4.0752716064453125,-1.104400634765625,0.6106109619140625
1772561159668896000,3.57889599609375,-4.0631561279296875,-0.9337615966796875,0.5035247802734375
1772561159678963000,3.588962890625,-4.0360260009765625,-0.712310791015625,0.2353057861328125
1772561159689030000,3.59902978515625,-3.94757080078125,-0.591339111328125,0.1221160888671875
1772561159699096000,3.609095947265625,-3.7201690673828125,-0.5659027099609375,0.0388641357421875
1772561159709163000,3.6191630859375,-3.31121826171875,-0.6017608642578125,-0.0310516357421875
1772561159719230000,3.62922998046875,-2.89678955078125,-0.5488128662109375,-0.03240966796875
1772561159729296000,3.6392958984375,-2.596710205078125,-0.3562774658203125,0.0390625
1772561159739363000,3.649363037109375,-2.349700927734375,-0.1919403076171875,0.1273193359375
1772561159749430000,3.659429931640625,-2.0444183349609375,-0.1139678955078125,0.099365234375
1772561159759497000,3.6694970703125,-1.5974273681640625,-0.0771484375,-0.0048675537109375
1772561159769563000,3.67956298828125,-1.0960693359375,-0.0616912841796875,-0.0318450927734375
1772561159779629800,3.6896298828125,-0.7694091796875,-0.0902557373046875,-0.05999755859375
1772561159789697000,3.699697021484375,-0.6096954345703125,-0.1058502197265625,-0.222900390625
1772561159799763000,3.709762939453125,-0.4757232666015625,-0.0943450927734375,-0.3634796142578125
1772561159809830000,3.719829833984375,-0.224700927734375,-0.091033935546875,-0.3969268798828125
1772561159819896800,3.729896728515625,0.06488037109375,-0.116668701171875,-0.34942626953125
1772561159829963000,3.739962890625,0.2153167724609375,-0.1394805908203125,-0.314971923828125
1772561159840030000,3.750030029296875,0.11566162109375,-0.1274566650390625,-0.330841064453125
1772561159850097000,3.760096923828125,-0.09539794921875,-0.0705108642578125,-0.3237152099609375
1772561159860163800,3.770163818359375,-0.243377685546875,-0.0101470947265625,-0.248260498046875
1772561159870230000,3.78022998046875,-0.2774200439453125,0.0490875244140625,-0.1929168701171875
1772561159880297000,3.790296875,-0.1528472900390625,0.1332244873046875,-0.1618804931640625
1772561159890364000,3.800364013671875,0.078857421875,0.2051239013671875,-0.165252685546875
1772561159900430000,3.81043017578125,0.2920379638671875,0.1890869140625,-0.262847900390625
1772561159910497000,3.8204970703125,0.4313812255859375,0.130401611328125,-0.3621826171875
1772561159920564000,3.83056396484375,0.603607177734375,0.087188720703125,-0.388641357421875
1772561159930631000,3.840630859375,0.7881622314453125,0.07275390625,-0.37005615234375
1772561159940696800,3.85069677734375,0.9000701904296875,0.10345458984375,-0.309844970703125
1772561159950764000,3.860763916015625,0.9452362060546875,0.163116455078125,-0.2097930908203125
1772561159960831000,3.8708310546875,0.88775634765625,0.213104248046875,-0.0863800048828125
1772561159970897000,3.88089697265625,0.733184814453125,0.2690887451171875,0.04388427734375
1772561159980963800,3.8909638671875,0.53192138671875,0.3280029296875,0.1129608154296875
1772561159991031000,3.901031005859375,0.3264923095703125,0.3320465087890625,0.1649017333984375
1772561160001097000,3.911096923828125,0.1291961669921875,0.2922210693359375,0.173004150390625
1772561160011164000,3.921163818359375,-0.022705078125,0.222381591796875,0.133514404296875
1772561160021230800,3.93123095703125,-0.1495513916015625,0.100494384765625,0.0698089599609375
1772561160031298000,3.941298095703125,-0.237548828125,-0.01153564453125,-0.0225067138671875
1772561160041364000,3.951364013671875,-0.184661865234375,-0.1070556640625,-0.1184844970703125
1772561160051431000,3.961430908203125,-0.0091400146484375,-0.1907196044921875,-0.2156219482421875
1772561160061497900,3.971497802734375,0.0835723876953125,-0.2440948486328125,-0.305389404296875
1772561160071564000,3.98156396484375,-0.0364532470703125,-0.25360107421875,-0.34552001953125
1772561160081631000,3.991630859375,-0.3101348876953125,-0.2722320556640625,-0.2947998046875
1772561160091698000,4.001697998046875,-0.6429290771484375,-0.3132171630859375,-0.1887664794921875
1772561160101764900,4.011764892578125,-0.905731201171875,-0.336090087890625,-0.0667572021484375
1772561160111831000,4.0218310546875,-1.008636474609375,-0.347198486328125,0.0627593994140625
1772561160121898000,4.03189794921875,-0.956329345703125,-0.3816070556640625,0.12286376953125
1772561160131965000,4.04196484375,-0.8310394287109375,-0.42596435546875,0.1379241943359375
1772561160142030800,4.05203076171875,-0.6651153564453125,-0.4982757568359375,0.16314697265625
1772561160152098000,4.06209814453125,-0.4769134521484375,-0.5666351318359375,0.1982879638671875
1772561160162165000,4.0721650390625,-0.299560546875,-0.656036376953125,0.21630859375
1772561160172232000,4.08223193359375,-0.2148895263671875,-0.764068603515625,0.1823272705078125
1772561160182297900,4.0922978515625,-0.3730010986328125,-0.8572540283203125,0.1592559814453125
1772561160192365000,4.102364990234375,-0.73480224609375,-0.91229248046875,0.149749755859375
1772561160202432000,4.112431884765625,-1.0642852783203125,-0.936767578125,0.197845458984375
1772561160212498000,4.122497802734375,-1.3361968994140625,-0.9445037841796875,0.2417755126953125
1772561160222564900,4.13256494140625,-1.6032562255859375,-0.9869232177734375,0.2449188232421875
1772561160232631800,4.1426318359375,-1.8985748291015625,-1.075714111328125,0.233612060546875
1772561160242698000,4.152697998046875,-1.992584228515625,-1.2310791015625,0.22259521484375
1772561160252765000,4.162764892578125,-1.675384521484375,-1.5159149169921875,0.26568603515625
1772561160262831900,4.172831787109375,-1.0830841064453125,-1.84027099609375,0.3121337890625
1772561160272898800,4.18289892578125,-0.764617919921875,-2.0574493408203125,0.2663421630859375
1772561160282965000,4.192965087890625,-1.27398681640625,-2.1655731201171875,0.4280242919921875
1772561160293032000,4.203031982421875,-2.095855712890625,-1.9873199462890625,0.7105560302734375
1772561160303097900,4.213097900390625,-2.926239013671875,-1.482147216796875,0.756683349609375
1772561160313164000,4.2231640625,-3.789947509765625,-1.015289306640625,0.923431396484375
1772561160323231000,4.23323095703125,-4.5176544189453125,-0.638702392578125,1.0016937255859375
1772561160333298000,4.2432978515625,-4.853363037109375,-0.4322967529296875,0.73553466796875
1772561160343364900,4.25336474609375,-4.6608428955078125,-0.397552490234375,0.185638427734375
1772561160353431000,4.26343115234375,-4.053863525390625,-0.4800872802734375,-0.2601165771484375
1772561160363498000,4.273498046875,-3.3483734130859375,-0.6145477294921875,-0.51580810546875
1772561160373565000,4.28356494140625,-2.762237548828125,-0.713409423828125,-0.6699676513671875
1772561160383631000,4.293631103515625,-2.38043212890625,-0.6386260986328125,-0.719573974609375
1772561160393698000,4.303697998046875,-2.2482147216796875,-0.2257537841796875,-0.68255615234375
1772561160403765000,4.313764892578125,-2.0622406005859375,0.2190704345703125,-0.3547210693359375
1772561160413832000,4.32383203125,-1.601531982421875,0.4623870849609375,0.092681884765625
1772561160423897900,4.33389794921875,-1.05328369140625,0.4459381103515625,0.29425048828125
1772561160433965000,4.343965087890625,-0.74090576171875,0.2796173095703125,0.069366455078125
1772561160444032000,4.354031982421875,-0.6250152587890625,0.102691650390625,-0.38751220703125
1772561160454098000,4.364097900390625,-0.4855194091796875,-0.0788421630859375,-0.6681060791015625
1772561160464164900,4.374164794921875,-0.299957275390625,-0.2232818603515625,-0.729583740234375
1772561160474232000,4.384232177734375,-0.111053466796875,-0.2681121826171875,-0.654632568359375
1772561160484298000,4.394298095703125,0.00823974609375,-0.27154541015625,-0.515045166015625
1772561160494365000,4.404364990234375,0.0261077880859375,-0.2522430419921875,-0.4197998046875
1772561160504431900,4.414431884765625,-0.0697479248046875,-0.1806640625,-0.35791015625
1772561160514499000,4.4244990234375,-0.169403076171875,-0.054931640625,-0.2570343017578125
1772561160524565000,4.43456494140625,-0.16748046875,0.1058349609375,-0.11907958984375
1772561160534632000,4.4446318359375,-0.06927490234375,0.21282958984375,0.0128021240234375
1772561160544699000,4.454698974609375,0.09149169921875,0.22576904296875,0.0481109619140625
1772561160554765000,4.46476513671875,0.3734130859375,0.2276153564453125,0.0190887451171875
1772561160564832000,4.47483203125,0.6775665283203125,0.2126617431640625,0.011077880859375
1772561160574899000,4.48489892578125,0.8420562744140625,0.1668548583984375,0.019775390625
1772561160584966000,4.4949658203125,0.8909149169921875,0.092254638671875,0.037078857421875
1772561160595032000,4.505031982421875,0.8201446533203125,0.0306854248046875,0.063232421875
1772561160605099000,4.51509912109375,0.6517333984375,0.01318359375,0.143890380859375
1772561160615166000,4.525166015625,0.426239013671875,0.012451171875,0.2662353515625
1772561160625232000,4.53523193359375,0.19879150390625,0.041473388671875,0.3590240478515625
1772561160635299000,4.545299072265625,0.0626678466796875,0.05352783203125,0.42919921875
1772561160645366000,4.555365966796875,0.091278076171875,0.0107574462890625,0.471649169921875
1772561160655433000,4.565432861328125,0.26239013671875,-0.118988037109375,0.4561309814453125
1772561160665499000,4.575498779296875,0.4176788330078125,-0.2640838623046875,0.4109954833984375
1772561160675566000,4.585566162109375,0.51666259765625,-0.3893280029296875,0.3431396484375
1772561160685633000,4.595633056640625,0.5238037109375,-0.4510955810546875,0.220123291015625
1772561160695699000,4.605698974609375,0.4358367919921875,-0.44976806640625,0.1047210693359375
1772561160705766000,4.615765869140625,0.1905517578125,-0.40252685546875,0.0211639404296875
1772561160715832800,4.625832763671875,-0.2567901611328125,-0.346099853515625,-0.0393218994140625
1772561160725899000,4.63589892578125,-0.7830810546875,-0.3254241943359375,-0.083526611328125
1772561160735966000,4.645966064453125,-1.2119598388671875,-0.30438232421875,-0.1066436767578125
1772561160746033000,4.656032958984375,-1.40582275390625,-0.277923583984375,-0.1167755126953125
1772561160756099800,4.666099853515625,-1.330596923828125,-0.30401611328125,-0.0874481201171875
1772561160766166000,4.676166015625,-1.02496337890625,-0.382537841796875,-0.1085357666015625
1772561160776233000,4.68623291015625,-0.66082763671875,-0.467193603515625,-0.1526947021484375
1772561160786300000,4.6962998046875,-0.2864837646484375,-0.54022216796875,-0.186065673828125
1772561160796366000,4.706365966796875,0.027557373046875,-0.599578857421875,-0.2086181640625
1772561160806433000,4.71643310546875,0.0646209716796875,-0.61480712890625,-0.131103515625
1772561160816500000,4.7265,-0.1940765380859375,-0.5047607421875,-0.025604248046875
1772561160826567000,4.73656689453125,-0.568359375,-0.3723297119140625,0.0913848876953125
1772561160836633000,4.746633056640625,-0.920806884765625,-0.29620361328125,0.187042236328125
1772561160846700000,4.756699951171875,-1.234466552734375,-0.274993896484375,0.1691436767578125
1772561160856767000,4.76676708984375,-1.4290618896484375,-0.2960662841796875,0.0699005126953125
1772561160866833000,4.7768330078125,-1.442779541015625,-0.3813018798828125,-0.01123046875
1772561160876899800,4.78689990234375,-1.3249359130859375,-0.54071044921875,-0.0586700439453125
1772561160886967000,4.796967041015625,-1.16156005859375,-0.7420196533203125,-0.09075927734375
1772561160897033000,4.807032958984375,-1.0030670166015625,-0.997406005859375,-0.139617919921875
1772561160907100000,4.817099853515625,-0.8439178466796875,-1.1798095703125,-0.28057861328125
1772561160917166800,4.827166748046875,-0.791412353515625,-1.2348175048828125,-0.4788818359375
1772561160927234000,4.837234130859375,-1.1371307373046875,-1.2523040771484375,-0.4202117919921875
1772561160937300000,4.847300048828125,-1.68658447265625,-1.1944122314453125,-0.1862030029296875
1772561160947366000,4.857365966796875,-2.3771820068359375,-0.99359130859375,-0.0615386962890625
1772561160957433000,4.86743310546875,-3.0407257080078125,-0.6587982177734375,-0.05938720703125
1772561160967498800,4.877498779296875,-3.378936767578125,-0.5427093505859375,0.119781494140625
1772561160977566000,4.88756591796875,-3.378204345703125,-0.6043243408203125,0.0966033935546875
1772561160987633000,4.8976328125,-3.21221923828125,-0.6922149658203125,-0.1849517822265625
1772561160997700000,4.9077001953125,-2.9738311767578125,-0.8311920166015625,-0.3227996826171875
1772561161007766000,4.91776611328125,-2.5606689453125,-0.9688568115234375,-0.3404083251953125
1772561161017833000,4.9278330078125,-2.1030120849609375,-1.0317230224609375,-0.4001617431640625
1772561161027900000,4.93789990234375,-1.7155303955078125,-1.048583984375,-0.3562469482421875
1772561161037966000,4.947966064453125,-1.482269287109375,-0.94989013671875,-0.1607513427734375
1772561161048033000,4.958032958984375,-1.57366943359375,-0.7990875244140625,0.028717041015625
1772561161058100000,4.968099853515625,-1.852294921875,-0.6461334228515625,0.02825927734375
1772561161068166000,4.978165771484375,-1.982025146484375,-0.556243896484375,-0.0546722412109375
1772561161078233000,4.988233154296875,-1.83251953125,-0.5267181396484375,-0.116546630859375
1772561161088300000,4.998300048828125,-1.55035400390625,-0.521636962890625,-0.1606292724609375
1772561161098367000,5.008366943359375,-1.266815185546875,-0.4860382080078125,-0.2059326171875
1772561161108433000,5.018432861328125,-0.9912261962890625,-0.453460693359375,-0.2283782958984375
1772561161118500000,5.0285,-0.6871490478515625,-0.4510040283203125,-0.2160797119140625
1772561161128567000,5.038567138671875,-0.371246337890625,-0.4358673095703125,-0.160858154296875
1772561161138633000,5.048633056640625,-0.0666046142578125,-0.3953857421875,-0.07916259765625
1772561161148700000,5.058699951171875,0.1720123291015625,-0.3535919189453125,-0.0228424072265625
1772561161158767000,5.06876708984375,0.1732940673828125,-0.311004638671875,0.0209808349609375
1772561161168834000,5.078833984375,-0.152130126953125,-0.236053466796875,0.0544586181640625
1772561161178900000,5.08889990234375,-0.5939483642578125,-0.1407318115234375,0.0728302001953125
1772561161188967000,5.098966796875,-0.91497802734375,-0.1273651123046875,0.0767974853515625
1772561161199033900,5.109033935546875,-0.9862213134765625,-0.1785430908203125,0.0012664794921875
1772561161209100000,5.11910009765625,-0.675079345703125,-0.2060394287109375,-0.0867462158203125
1772561161219167000,5.1291669921875,-0.112884521484375,-0.1956939697265625,-0.128082275390625
1772561161229234000,5.13923388671875,0.431182861328125,-0.1348419189453125,-0.114044189453125
1772561161239300000,5.149300048828125,0.83966064453125,-0.109619140625,-0.023345947265625
1772561161249367000,5.159366943359375,0.9624176025390625,-0.1354827880859375,0.0916748046875
1772561161259434000,5.16943408203125,0.802154541015625,-0.1325225830078125,0.1652984619140625
1772561161269501000,5.1795009765625,0.4749755859375,-0.1604156494140625,0.217742919921875
1772561161279567000,5.189567138671875,0.1025543212890625,-0.1681365966796875,0.28704833984375
1772561161289634000,5.199634033203125,-0.235107421875,-0.13372802734375,0.317779541015625
1772561161299701000,5.209700927734375,-0.472320556640625,-0.0856475830078125,0.2553863525390625
1772561161309767400,5.219767333984375,-0.4333953857421875,-0.0877227783203125,0.1387176513671875
1772561161319834400,5.22983447265625,-0.1362152099609375,-0.2007598876953125,0.0284423828125
1772561161329902300,5.23990234375,0.1822509765625,-0.3311004638671875,-0.11761474609375
1772561161339968500,5.249968505859375,0.4009552001953125,-0.428070068359375,-0.2816314697265625
1772561161350035500,5.260035400390625,0.453582763671875,-0.48834228515625,-0.351959228515625
1772561161360102400,5.270102294921875,0.246856689453125,-0.472991943359375,-0.34814453125
1772561161370168300,5.280168212890625,-0.1315460205078125,-0.388153076171875,-0.2881927490234375
1772561161380235500,5.290235595703125,-0.5278472900390625,-0.284820556640625,-0.1483001708984375
1772561161390302500,5.300302490234375,-0.866119384765625,-0.1977081298828125,-0.00262451171875
1772561161400369400,5.310369384765625,-1.087066650390625,-0.164794921875,0.05706787109375
1772561161410435300,5.320435302734375,-1.167144775390625,-0.1905517578125,0.0057373046875
1772561161420502500,5.33050244140625,-1.00164794921875,-0.2610015869140625,-0.113922119140625
1772561161430569500,5.340569580078125,-0.671173095703125,-0.375701904296875,-0.22662353515625
1772561161440635400,5.350635498046875,-0.352813720703125,-0.4931488037109375,-0.32843017578125
1772561161450702300,5.360702392578125,-0.1114501953125,-0.538330078125,-0.340545654296875
1772561161460769500,5.37076953125,-0.07965087890625,-0.51837158203125,-0.22625732421875
1772561161470835500,5.38083544921875,-0.3194732666015625,-0.415252685546875,-0.0990447998046875
1772561161480902400,5.39090234375,-0.75079345703125,-0.2975616455078125,0.0069427490234375
1772561161490969300,5.40096923828125,-1.158172607421875,-0.2259368896484375,0.0579986572265625
1772561161501036300,5.411036376953125,-1.4720306396484375,-0.227264404296875,0.033447265625
1772561161511102500,5.4211025390625,-1.71575927734375,-0.311431884765625,-0.0558013916015625
1772561161521169400,5.43116943359375,-1.858306884765625,-0.45428466796875,-0.2056884765625
1772561161531236400,5.441236328125,-1.826629638671875,-0.672210693359375,-0.35064697265625
1772561161541302500,5.451302490234375,-1.5563812255859375,-0.921875,-0.4078216552734375
1772561161551369500,5.461369384765625,-0.9788360595703125,-1.1301422119140625,-0.45269775390625
1772561161561436400,5.4714365234375,-0.540496826171875,-1.3350982666015625,-0.387359619140625
1772561161571503600,5.481503662109375,-0.9902496337890625,-1.44183349609375,-0.0532379150390625
1772561161581569500,5.491569580078125,-1.7873077392578125,-1.2351531982421875,0.318878173828125
1772561161591636500,5.501636474609375,-2.50146484375,-0.92071533203125,0.470977783203125
1772561161601703400,5.511703369140625,-3.0460205078125,-0.6351165771484375,0.3952484130859375
1772561161611769300,5.521769287109375,-3.14752197265625,-0.6316070556640625,0.440093994140625
1772561161621836500,5.53183642578125,-2.86346435546875,-0.7392120361328125,0.3562774658203125
1772561161631903500,5.541903564453125,-2.5855560302734375,-0.8130950927734375,0.1734771728515625
1772561161641969400,5.551969482421875,-2.3802947998046875,-0.832611083984375,0.103546142578125
1772561161652036400,5.562036376953125,-2.247039794921875,-0.822418212890625,0.100616455078125
1772561161662103300,5.572103271484375,-2.2053680419921875,-0.6624908447265625,-0.16668701171875
1772561161672170800,5.582170654296875,-2.1535186767578125,-0.5042572021484375,-0.3229827880859375
1772561161682236400,5.592236328125,-1.957366943359375,-0.3476104736328125,-0.1748046875
1772561161692303400,5.602303466796875,-1.787750244140625,-0.1902923583984375,0.08502197265625
1772561161702370300,5.612370361328125,-1.7991943359375,-0.045745849609375,0.256683349609375
1772561161712436500,5.6224365234375,-1.804107666015625,0.0532989501953125,0.2799072265625
1772561161722503400,5.63250341796875,-1.6593475341796875,0.0629119873046875,0.171539306640625
1772561161732570400,5.6425703125,-1.467803955078125,-0.013763427734375,-0.061676025390625
1772561161742637600,5.652637451171875,-1.239715576171875,-0.1974639892578125,-0.349945068359375
1772561161752703500,5.662703369140625,-1.0028839111328125,-0.4426727294921875,-0.546051025390625
1772561161762770400,5.6727705078125,-0.78076171875,-0.5986175537109375,-0.6045379638671875
1772561161772837600,5.682837646484375,-0.582763671875,-0.6377105712890625,-0.5310821533203125
1772561161782903600,5.692903564453125,-0.3916473388671875,-0.5908203125,-0.3792266845703125
1772561161792970500,5.702970458984375,-0.231109619140625,-0.4897613525390625,-0.2002105712890625
1772561161803037400,5.713037353515625,-0.19354248046875,-0.3515167236328125,-0.0088043212890625
1772561161813104600,5.723104736328125,-0.2950592041015625,-0.2097625732421875,0.1231842041015625
1772561161823170300,5.73317041015625,-0.503692626953125,-0.130035400390625,0.16241455078125
1772561161833237500,5.743237548828125,-0.64105224609375,-0.1279296875,0.119873046875
1772561161843304700,5.7533046875,-0.5657958984375,-0.176849365234375,0.0499725341796875
1772561161853370400,5.763370361328125,-0.2752532958984375,-0.2017974853515625,-0.01458740234375
1772561161863437300,5.773437255859375,0.1346893310546875,-0.1889801025390625,-0.0777740478515625
1772561161873504500,5.78350439453125,0.54022216796875,-0.1575164794921875,-0.0844268798828125
1772561161883571700,5.79357177734375,0.806060791015625,-0.140869140625,-0.0044708251953125
1772561161893637400,5.803637451171875,0.8345184326171875,-0.134124755859375,0.113372802734375
1772561161903704300,5.813704345703125,0.638031005859375,-0.1404571533203125,0.234161376953125
1772561161913771500,5.823771484375,0.248443603515625,-0.1159515380859375,0.306365966796875
1772561161923837400,5.83383740234375,-0.1886444091796875,-0.0412139892578125,0.347686767578125
1772561161933904400,5.843904296875,-0.5240020751953125,0.0516510009765625,0.3490142822265625
1772561161943971600,5.8539716796875,-0.6373291015625,0.0632476806640625,0.281951904296875
1772561161954037500,5.86403759765625,-0.55181884765625,0.018096923828125,0.1638031005859375
1772561161964104400,5.8741044921875,-0.300384521484375,-0.0593414306640625,0.0277099609375
1772561161974171600,5.884171630859375,-0.0420379638671875,-0.1761016845703125,-0.0779876708984375
1772561161984238600,5.894238525390625,0.104095458984375,-0.25762939453125,-0.1739044189453125
1772561161994304500,5.904304443359375,0.136871337890625,-0.2990570068359375,-0.22833251953125
1772561162004371500,5.914371337890625,0.0714874267578125,-0.3083343505859375,-0.2440643310546875
1772561162014438700,5.924438720703125,-0.0933685302734375,-0.289154052734375,-0.2193450927734375
1772561162024505600,5.934505615234375,-0.342529296875,-0.2451629638671875,-0.1621551513671875
1772561162034571500,5.944571533203125,-0.6496124267578125,-0.2073516845703125,-0.0417938232421875
1772561162044638700,5.954638671875,-1.0013275146484375,-0.148773193359375,0.0570220947265625
1772561162054705700,5.96470556640625,-1.265777587890625,-0.115478515625,0.099517822265625
1772561162064771300,5.974771240234375,-1.2818145751953125,-0.1508331298828125,0.0888519287109375
1772561162074838500,5.984838623046875,-0.9871368408203125,-0.2400054931640625,0.009033203125
1772561162084905700,5.99490576171875,-0.5400543212890625,-0.301055908203125,-0.041229248046875
1772561162094971400,6.004971435546875,-0.113922119140625,-0.3459625244140625,-0.058380126953125
1772561162105038300,6.015038330078125,0.1865692138671875,-0.41717529296875,0.001220703125
1772561162115105500,6.02510546875,0.31353759765625,-0.485565185546875,0.118804931640625
1772561162125172700,6.0351728515625,0.2606201171875,-0.483306884765625,0.2333526611328125
1772561162135238400,6.04523828125,-0.0082244873046875,-0.4346923828125,0.3580322265625
1772561162145305600,6.0553056640625,-0.349884033203125,-0.42144775390625,0.436767578125
1772561162155372500,6.06537255859375,-0.6946868896484375,-0.4684906005859375,0.4237060546875
1772561162165438500,6.0754384765625,-0.9951019287109375,-0.5606231689453125,0.360504150390625
1772561162175505700,6.085505615234375,-1.2015533447265625,-0.7229766845703125,0.3057708740234375
1772561162185572600,6.095572509765625,-1.2423095703125,-0.9014129638671875,0.2576751708984375
1772561162195639600,6.1056396484375,-1.046783447265625,-1.12017822265625,0.2217559814453125
1772561162205705500,6.11570556640625,-0.5723114013671875,-1.3450927734375,-0.113525390625
1772561162215772700,6.125772705078125,-0.1790618896484375,-1.5999298095703125,-0.582122802734375
1772561162225839600,6.135839599609375,-0.528961181640625,-1.9969940185546875,-0.632843017578125
1772561162235905500,6.145905517578125,-1.2443695068359375,-1.9713287353515625,-0.3993072509765625
1772561162245972700,6.15597265625,-1.972320556640625,-1.59759521484375,0.1244659423828125
1772561162256039700,6.166039794921875,-2.631195068359375,-1.113616943359375,0.431884765625
1772561162266106600,6.176106689453125,-3.113525390625,-0.851165771484375,0.6418304443359375
1772561162276172500,6.186172607421875,-3.3957366943359375,-0.7356414794921875,0.5147857666015625
1772561162286239700,6.19623974609375,-3.5915374755859375,-0.72430419921875,0.0264739990234375
1772561162296306700,6.206306640625,-3.7183074951171875,-0.7494659423828125,-0.411407470703125
1772561162306371800,6.216371826171875,-3.67132568359375,-0.7634429931640625,-0.6508331298828125
1772561162316439000,6.22643896484375,-3.2880859375,-0.7289886474609375,-0.7414398193359375
1772561162326506000,6.236506103515625,-2.7530059814453125,-0.6650543212890625,-0.7633209228515625
1772561162336573000,6.246572998046875,-2.387115478515625,-0.4945068359375,-0.69427490234375
1772561162346638800,6.256638916015625,-2.2044525146484375,-0.2399749755859375,-0.3824920654296875
1772561162356705800,6.266705810546875,-1.8986053466796875,-0.0467529296875,0.0193939208984375
1772561162366773000,6.27677294921875,-1.5468902587890625,-0.0152130126953125,0.257720947265625
1772561162376839000,6.2868388671875,-1.32366943359375,-0.0480804443359375,0.17315673828125
1772561162386905900,6.29690576171875,-1.148040771484375,-0.1013031005859375,-0.0464935302734375
1772561162396972800,6.306972900390625,-0.924346923828125,-0.2139892578125,-0.144561767578125
1772561162407040000,6.3170400390625,-0.6824798583984375,-0.3148345947265625,-0.1712188720703125
1772561162417106000,6.32710595703125,-0.467742919921875,-0.3665771484375,-0.18194580078125
1772561162427172900,6.3371728515625,-0.3486785888671875,-0.376922607421875,-0.1894683837890625
1772561162437239800,6.34723974609375,-0.3063507080078125,-0.368896484375,-0.2147064208984375
1772561162447306000,6.357305908203125,-0.317474365234375,-0.3460540771484375,-0.19940185546875
1772561162457373000,6.367373046875,-0.4071044921875,-0.29376220703125,-0.1744842529296875
1772561162467439900,6.37743994140625,-0.5709991455078125,-0.2569427490234375,-0.1538543701171875
1772561162477506800,6.3875068359375,-0.751373291015625,-0.2642059326171875,-0.1238555908203125
1772561162487573000,6.397572998046875,-0.860198974609375,-0.275054931640625,-0.0994873046875
1772561162497640000,6.407639892578125,-0.85693359375,-0.23583984375,-0.0431060791015625
1772561162507707000,6.417706787109375,-0.6739044189453125,-0.1504364013671875,0.0331573486328125
1772561162517772800,6.427772705078125,-0.3026885986328125,-0.0235137939453125,0.10870361328125
1772561162527840000,6.437840087890625,0.182525634765625,0.087890625,0.2331695556640625
1772561162537907000,6.447906982421875,0.5486602783203125,0.120391845703125,0.3935089111328125
1772561162547974000,6.457973876953125,0.59979248046875,0.1214599609375,0.49566650390625
1772561162558039800,6.468039794921875,0.365875244140625,0.0946807861328125,0.5091705322265625
1772561162568107000,6.47810693359375,0.001708984375,0.0328216552734375,0.4501495361328125
1772561162578174000,6.488174072265625,-0.32330322265625,-0.0577392578125,0.3525848388671875
1772561162588240000,6.498239990234375,-0.5247650146484375,-0.1317901611328125,0.225921630859375
1772561162598306800,6.508306884765625,-0.5116119384765625,-0.1578826904296875,0.0810546875
1772561162608373800,6.518373779296875,-0.24066162109375,-0.1702117919921875,-0.02215576171875
1772561162618441000,6.52844091796875,0.110260009765625,-0.1868133544921875,-0.0546875
1772561162628507000,6.5385068359375,0.3291778564453125,-0.1858673095703125,-0.0832366943359375
1772561162638573800,6.54857373046875,0.3744354248046875,-0.1687469482421875,-0.12579345703125
1772561162648640800,6.558640869140625,0.1954498291015625,-0.143798828125,-0.125946044921875
1772561162658707000,6.56870703125,-0.111053466796875,-0.11212158203125,-0.1162109375
1772561162668774000,6.57877392578125,-0.38934326171875,-0.10821533203125,-0.1194000244140625
1772561162678840800,6.5888408203125,-0.6108856201171875,-0.147369384765625,-0.1230010986328125
1772561162688907000,6.598906982421875,-0.756072998046875,-0.1909637451171875,-0.15484619140625
1772561162698974000,6.608973876953125,-0.771087646484375,-0.1996002197265625,-0.226898193359375
1772561162709041000,6.619041015625,-0.60223388671875,-0.2310943603515625,-0.264617919921875
1772561162719107800,6.62910791015625,-0.318084716796875,-0.2889556884765625,-0.2655792236328125
1772561162729174000,6.639174072265625,-0.01422119140625,-0.3334503173828125,-0.288818359375
1772561162739241000,6.649240966796875,0.2523956298828125,-0.393035888671875,-0.2657928466796875
1772561162749308000,6.659307861328125,0.41656494140625,-0.4338226318359375,-0.19915771484375
1772561162759373800,6.669373779296875,0.3972930908203125,-0.45709228515625,-0.1038970947265625
1772561162769440800,6.679440673828125,0.1683197021484375,-0.473480224609375,0.0124664306640625
1772561162779508000,6.689508056640625,-0.1514129638671875,-0.464080810546875,0.117584228515625
1772561162789575000,6.699574951171875,-0.4680633544921875,-0.4556884765625,0.238006591796875
1772561162799640800,6.709640869140625,-0.8553466796875,-0.455474853515625,0.330657958984375
1772561162809707800,6.719707763671875,-1.22808837890625,-0.488433837890625,0.33050537109375
1772561162819775000,6.72977490234375,-1.472900390625,-0.57672119140625,0.2203521728515625
1772561162829842200,6.73984228515625,-1.5255584716796875,-0.7398681640625,-0.0144805908203125
1772561162839907800,6.749907958984375,-1.488311767578125,-0.9929962158203125,-0.226470947265625
1772561162849974800,6.759974853515625,-1.3372344970703125,-1.17572021484375,-0.4603729248046875
1772561162860042000,6.7700419921875,-1.141998291015625,-1.3542938232421875,-0.448760986328125
1772561162870108000,6.78010791015625,-1.1788177490234375,-1.5146636962890625,-0.1792144775390625
1772561162880174800,6.7901748046875,-1.4370269775390625,-1.505035400390625,0.0445556640625
1772561162890241800,6.80024169921875,-1.773345947265625,-1.4564208984375,0.3074493408203125
1772561162900309000,6.81030908203125,-2.174652099609375,-1.3865814208984375,0.4177093505859375
1772561162910375000,6.820375,-2.71258544921875,-1.307464599609375,0.51019287109375
1772561162920441900,6.83044189453125,-3.178955078125,-1.1797332763671875,0.52056884765625
1772561162930509000,6.840509033203125,-3.3372039794921875,-1.1159210205078125,0.3441162109375
1772561162940575000,6.850574951171875,-3.077911376953125,-1.1571044921875,0.0797119140625
1772561162950642000,6.860641845703125,-2.677978515625,-1.2349395751953125,-0.0061187744140625
1772561162960709000,6.870709228515625,-2.276275634765625,-1.1983642578125,-0.05499267578125
1772561162970774800,6.88077490234375,-1.917083740234375,-1.1199188232421875,-0.0059051513671875
1772561162980842000,6.890842041015625,-1.6402435302734375,-1.027801513671875,0.1077728271484375
1772561162990909000,6.900908935546875,-1.6120758056640625,-0.8506927490234375,0.18438720703125
1772561163000976100,6.91097607421875,-1.80462646484375,-0.7253875732421875,0.1914825439453125
1772561163011041800,6.921041748046875,-2.0160064697265625,-0.72393798828125,0.096282958984375
1772561163021109000,6.93110888671875,-2.2047271728515625,-0.7426605224609375,-0.1327667236328125
1772561163031176200,6.94117626953125,-2.257080078125,-0.6688385009765625,-0.4094085693359375
1772561163041241900,6.951241943359375,-2.0680084228515625,-0.564788818359375,-0.5390472412109375
1772561163051308800,6.961308837890625,-1.685272216796875,-0.4602508544921875,-0.5365753173828125
1772561163061376000,6.9713759765625,-1.218109130859375,-0.3889312744140625,-0.4605560302734375
1772561163071443200,6.981443115234375,-0.8146820068359375,-0.3610687255859375,-0.340667724609375
1772561163081508900,6.9915087890625,-0.556488037109375,-0.3222198486328125,-0.25262451171875
1772561163091575800,7.001575927734375,-0.3532867431640625,-0.2595977783203125,-0.239410400390625
1772561163101643000,7.01164306640625,-0.1098480224609375,-0.2286224365234375,-0.18792724609375
1772561163111709000,7.021708984375,0.059844970703125,-0.2173309326171875,-0.1022186279296875
1772561163121775900,7.03177587890625,0.0436859130859375,-0.1740875244140625,-0.067840576171875
1772561163131843000,7.041843017578125,-0.1686248779296875,-0.083648681640625,-0.029205322265625
1772561163141910000,7.051909912109375,-0.41986083984375,-0.0376129150390625,-0.0203704833984375
1772561163151976000,7.061975830078125,-0.5424041748046875,-0.0573272705078125,-0.0525970458984375
1772561163162043100,7.072043212890625,-0.4286041259765625,-0.1107940673828125,-0.095550537109375
1772561163172110000,7.082110107421875,-0.0706329345703125,-0.1137847900390625,-0.1307220458984375
1772561163182176000,7.092176025390625,0.3664093017578125,-0.0787200927734375,-0.134246826171875
1772561163192243000,7.102242919921875,0.7520751953125,-0.04852294921875,-0.0529022216796875
1772561163202310100,7.11231005859375,0.93743896484375,-0.0301666259765625,0.0472869873046875
1772561163212377000,7.122377197265625,0.8811798095703125,0.0127410888671875,0.0885772705078125
1772561163222442800,7.13244287109375,0.739898681640625,0.0075531005859375,0.2106781005859375
1772561163232510200,7.14251025390625,0.538116455078125,-0.04791259765625,0.3331451416015625
1772561163242577200,7.1525771484375,0.21331787109375,-0.0836944580078125,0.37261962890625
1772561163252644000,7.16264404296875,-0.173492431640625,-0.0743408203125,0.3300933837890625
1772561163262710000,7.1727099609375,-0.458221435546875,-0.0284576416015625,0.23614501953125
1772561163272777000,7.18277685546875,-0.4820556640625,-0.0244293212890625,0.131103515625
1772561163282844200,7.19284423828125,-0.2128753662109375,-0.1583404541015625,0.015655517578125
1772561163292909800,7.202909912109375,0.1237945556640625,-0.336181640625,-0.1199798583984375
1772561163302976500,7.2129765625,0.3588104248046875,-0.491302490234375,-0.263214111328125
1772561163313043700,7.223043701171875,0.38714599609375,-0.6030731201171875,-0.33575439453125
1772561163323110700,7.233110595703125,0.2188568115234375,-0.630706787109375,-0.3824462890625
1772561163333176600,7.243176513671875,-0.07000732421875,-0.5742034912109375,-0.3704376220703125
1772561163343243500,7.253243408203125,-0.3741302490234375,-0.4692840576171875,-0.262420654296875
1772561163353310500,7.263310546875,-0.642608642578125,-0.3501129150390625,-0.098358154296875
1772561163363376600,7.273376708984375,-0.8354339599609375,-0.26251220703125,0.0082244873046875
1772561163373443600,7.283443603515625,-0.9236602783203125,-0.2251434326171875,0.029296875
1772561163383510500,7.293510498046875,-0.8721771240234375,-0.2386932373046875,-0.0139007568359375
1772561163393577500,7.303577392578125,-0.680908203125,-0.2861480712890625,-0.11871337890625
1772561163403643600,7.3136435546875,-0.4133453369140625,-0.3722076416015625,-0.2372283935546875
1772561163413710600,7.323710693359375,-0.1951751708984375,-0.4617462158203125,-0.2784576416015625
1772561163423777500,7.333777587890625,-0.137176513671875,-0.4967193603515625,-0.249603271484375
1772561163433843700,7.34384375,-0.22088623046875,-0.48199462890625,-0.1599884033203125
1772561163443910700,7.35391064453125,-0.37420654296875,-0.4840087890625,-0.0677642822265625
1772561163453977600,7.3639775390625,-0.56976318359375,-0.50787353515625,-0.023712158203125
1772561163464044500,7.37404443359375,-0.8014068603515625,-0.4872589111328125,0.020751953125
1772561163474110700,7.38411083984375,-0.9759979248046875,-0.4701690673828125,0.0718231201171875
1772561163484177700,7.394177734375,-1.0678558349609375,-0.5624542236328125,0.0859832763671875
1772561163494244600,7.40424462890625,-1.1444549560546875,-0.7842254638671875,0.0254058837890625
1772561163504310500,7.414310546875,-1.1362152099609375,-1.0314483642578125,-0.220306396484375
1772561163514377500,7.42437744140625,-0.942962646484375,-1.2284088134765625,-0.5504302978515625
1772561163524444700,7.434444580078125,-0.91693115234375,-1.379180908203125,-0.6833953857421875
1772561163534511600,7.44451171875,-1.2665863037109375,-1.4082489013671875,-0.4291534423828125
1772561163544577500,7.45457763671875,-1.7120361328125,-1.270111083984375,0.0110321044921875
1772561163554644500,7.46464453125,-2.12054443359375,-1.0702056884765625,0.333831787109375
1772561163564711700,7.474711669921875,-2.489013671875,-0.8427734375,0.4135284423828125
1772561163574777600,7.484777587890625,-2.7039642333984375,-0.7919769287109375,0.396575927734375
1772561163584844500,7.494844482421875,-2.6432037353515625,-0.9593048095703125,0.2018585205078125
1772561163594911500,7.504911376953125,-2.4454345703125,-1.1349334716796875,-0.1139984130859375
1772561163604978700,7.514978759765625,-2.224945068359375,-1.189910888671875,-0.3577880859375
1772561163615044600,7.525044677734375,-2.0878143310546875,-1.25067138671875,-0.271026611328125
1772561163625111600,7.535111572265625,-1.9568328857421875,-1.162200927734375,-0.216796875
1772561163635178500,7.545178466796875,-1.899017333984375,-0.987579345703125,-0.1753997802734375
1772561163645244700,7.55524462890625,-1.838775634765625,-0.765411376953125,-0.052276611328125
1772561163655311600,7.5653115234375,-1.8995361328125,-0.5239105224609375,0.13812255859375
1772561163665378600,7.575378662109375,-2.1375885009765625,-0.334716796875,0.2982940673828125
1772561163675445500,7.585445556640625,-2.29229736328125,-0.2215423583984375,0.314605712890625
1772561163685511700,7.59551171875,-2.214752197265625,-0.198944091796875,0.173828125
1772561163695578600,7.60557861328125,-1.9385528564453125,-0.274169921875,0.027374267578125
1772561163705645600,7.6156455078125,-1.6360321044921875,-0.3739013671875,-0.089111328125
1772561163715711500,7.62571142578125,-1.3862152099609375,-0.4355621337890625,-0.1355438232421875
1772561163725778700,7.63577880859375,-1.1392364501953125,-0.4271697998046875,-0.1644287109375
1772561163735845600,7.645845703125,-0.8118743896484375,-0.4000701904296875,-0.1997528076171875
1772561163745912600,7.65591259765625,-0.48297119140625,-0.3784332275390625,-0.1356048583984375
1772561163755978500,7.665978515625,-0.2819061279296875,-0.3303985595703125,-0.0503997802734375
1772561163766045700,7.676045654296875,-0.2183074951171875,-0.2361907958984375,0.015838623046875
1772561163776112600,7.686112548828125,-0.266357421875,-0.1407928466796875,0.077880859375
1772561163786178600,7.696178466796875,-0.4512481689453125,-0.0846710205078125,0.08245849609375
1772561163796245500,7.70624560546875,-0.5806884765625,-0.079742431640625,0.079498291015625
1772561163806312400,7.7163125,-0.4654693603515625,-0.1280517578125,0.1282501220703125
1772561163816379600,7.726379638671875,-0.1669921875,-0.1581268310546875,0.136566162109375
1772561163826445600,7.736445556640625,0.205474853515625,-0.1690826416015625,0.073455810546875
1772561163836512500,7.746512451171875,0.529144287109375,-0.1654815673828125,0.02691650390625
1772561163846579500,7.756579345703125,0.7516937255859375,-0.18194580078125,0.0113983154296875
1772561163856645600,7.766645751953125,0.8277587890625,-0.23748779296875,0.0537109375
1772561163866712600,7.776712646484375,0.72979736328125,-0.249176025390625,0.120758056640625
1772561163876779500,7.786779541015625,0.4692230224609375,-0.1999359130859375,0.200439453125
1772561163886846500,7.796846435546875,0.1251068115234375,-0.1296234130859375,0.2684478759765625
1772561163896912600,7.80691259765625,-0.20281982421875,-0.134979248046875,0.3143463134765625
1772561163906979600,7.8169794921875,-0.4434356689453125,-0.202972412109375,0.3017730712890625
1772561163917046500,7.827046630859375,-0.4786529541015625,-0.249176025390625,0.225433349609375
1772561163927113500,7.837113525390625,-0.2788238525390625,-0.3005523681640625,0.11883544921875
1772561163937179600,7.8471796875,-0.05072021484375,-0.386932373046875,0.0100860595703125
1772561163947246600,7.85724658203125,0.0100250244140625,-0.4611968994140625,-0.1478118896484375
1772561163957313500,7.8673134765625,-0.124786376953125,-0.51043701171875,-0.2847900390625
1772561163967379500,7.87737939453125,-0.39971923828125,-0.502227783203125,-0.3426971435546875
1772561163977446700,7.88744677734375,-0.737274169921875,-0.4285430908203125,-0.32861328125
1772561163987513600,7.897513671875,-1.0079498291015625,-0.3251953125,-0.245330810546875
1772561163997580500,7.90758056640625,-1.1634979248046875,-0.291595458984375,-0.112457275390625
1772561164007646500,7.917646484375,-1.216094970703125,-0.309173583984375,-0.010498046875
1772561164017713700,7.927713623046875,-1.147247314453125,-0.298065185546875,0.020538330078125
1772561164027780600,7.937780517578125,-0.94439697265625,-0.2776336669921875,0.02984619140625
1772561164037846500,7.947846435546875,-0.596649169921875,-0.29931640625,0.004150390625
1772561164047913500,7.95791357421875,-0.2756805419921875,-0.3633575439453125,-0.0556640625
1772561164057980400,7.96798046875,-0.0655364990234375,-0.4076995849609375,-0.152557373046875
1772561164068048000,7.9780478515625,0.057342529296875,-0.4306182861328125,-0.209808349609375
1772561164078113500,7.988113525390625,0.0692291259765625,-0.443878173828125,-0.1663665771484375
1772561164088180500,7.998180419921875,-0.0780487060546875,-0.40447998046875,-0.1000518798828125
1772561164098247400,8.008247314453126,-0.2966461181640625,-0.344024658203125,-0.046417236328125
1772561164108313600,8.018313720703125,-0.5342864990234375,-0.312530517578125,0.0535736083984375
1772561164118380500,8.028380615234376,-0.8003692626953125,-0.2942352294921875,0.1660919189453125
1772561164128447500,8.038447509765625,-1.0598602294921875,-0.308135986328125,0.22418212890625
1772561164138514700,8.0485146484375,-1.285888671875,-0.4483642578125,0.198333740234375
1772561164148580600,8.05858056640625,-1.302947998046875,-0.726806640625,0.113739013671875
1772561164158647600,8.0686474609375,-0.901153564453125,-1.0945892333984375,0.001007080078125
1772561164168714800,8.07871484375,-0.0441741943359375,-1.3012847900390625,-0.4945220947265625
1772561164178780700,8.08878076171875,0.4752349853515625,-1.4259033203125,-0.954376220703125
1772561164188847600,8.09884765625,-0.2105255126953125,-1.5814208984375,-0.6464691162109375
1772561164198914600,8.10891455078125,-1.2948760986328125,-1.3787384033203125,-0.005462646484375
1772561164208981800,8.118981689453125,-2.3701324462890625,-1.0926361083984375,0.6116790771484375
1772561164219047400,8.12904736328125,-3.158355712890625,-0.8769073486328125,0.8270111083984375
1772561164229114600,8.139114501953125,-3.387420654296875,-0.9403839111328125,0.850616455078125
1772561164239181800,8.149181884765625,-3.0382537841796875,-1.1012725830078125,0.5206146240234375
1772561164249247500,8.15924755859375,-2.484039306640625,-1.2144927978515625,0.039520263671875
1772561164259314400,8.169314453125,-2.0607452392578125,-1.2279815673828125,-0.24072265625
1772561164269382000,8.1793818359375,-1.8921661376953125,-1.2593231201171875,-0.1837310791015625
1772561164279448800,8.18944873046875,-1.923828125,-1.17474365234375,-0.1618804931640625
1772561164289514500,8.199514404296876,-2.0495758056640625,-1.0244598388671875,-0.177703857421875
1772561164299581400,8.20958154296875,-2.08294677734375,-0.742645263671875,-0.2672882080078125
1772561164309649200,8.219649169921874,-2.1892852783203125,-0.4698638916015625,-0.222503662109375
1772561164319715300,8.22971533203125,-2.2883148193359375,-0.241302490234375,-0.082275390625
1772561164329782300,8.2397822265625,-2.2385406494140625,-0.0494384765625,0.0570831298828125
1772561164339849200,8.24984912109375,-1.9994354248046875,0.0331268310546875,0.147918701171875
1772561164349916200,8.259916259765625,-1.6214447021484375,0.0175018310546875,0.1234283447265625
1772561164359982300,8.269982421875,-1.1996002197265625,-0.0831451416015625,-0.017425537109375
1772561164370049300,8.28004931640625,-0.842376708984375,-0.223541259765625,-0.2423553466796875
1772561164380116200,8.2901162109375,-0.542510986328125,-0.4584197998046875,-0.457611083984375
1772561164390183200,8.30018310546875,-0.2888946533203125,-0.6889801025390625,-0.5676727294921875
1772561164400249300,8.310249267578126,-0.1543731689453125,-0.757476806640625,-0.5362396240234375
1772561164410316300,8.32031640625,-0.2545623779296875,-0.621185302734375,-0.4067230224609375
1772561164420383200,8.33038330078125,-0.46905517578125,-0.357635498046875,-0.180419921875
1772561164430449200,8.34044921875,-0.633392333984375,-0.1428985595703125,0.09576416015625
1772561164440516400,8.350516357421874,-0.846923828125,-0.0351409912109375,0.3118133544921875
1772561164450583300,8.360583251953125,-1.0306396484375,0.0093231201171875,0.3650054931640625
1772561164460650200,8.370650146484374,-0.9254150390625,-0.0472259521484375,0.2781982421875
1772561164470716200,8.380716064453125,-0.5012054443359375,-0.1442718505859375,0.141693115234375
1772561164480783000,8.390783203125,0.0302581787109375,-0.189971923828125,-0.0060272216796875
1772561164490850300,8.400850341796875,0.515777587890625,-0.2196502685546875,-0.0478973388671875
1772561164500916200,8.410916259765624,0.8003692626953125,-0.242462158203125,0.0301971435546875
1772561164510983200,8.420983154296875,0.7368316650390625,-0.24237060546875,0.155242919921875
1772561164521050000,8.431050048828125,0.360137939453125,-0.20513916015625,0.25738525390625
1772561164531117300,8.441117431640626,-0.1296234130859375,-0.184173583984375,0.34320068359375
1772561164541183200,8.451183349609375,-0.5169219970703125,-0.161865234375,0.3545989990234375
1772561164551250200,8.461250244140626,-0.6405792236328125,-0.1434783935546875,0.2717437744140625
1772561164561317000,8.471317138671875,-0.457733154296875,-0.1968994140625,0.14013671875
1772561164571383300,8.48138330078125,-0.0543212890625,-0.2714080810546875,-0.0218963623046875
1772561164581450200,8.4914501953125,0.3101806640625,-0.34002685546875,-0.1811676025390625
1772561164591517200,8.50151708984375,0.4870147705078125,-0.3946990966796875,-0.31219482421875
1772561164601584000,8.511584228515625,0.40289306640625,-0.393157958984375,-0.3671722412109375
1772561164611650300,8.521650390625,0.0932159423828125,-0.329071044921875,-0.3029632568359375
1772561164621717200,8.53171728515625,-0.25030517578125,-0.23828125,-0.1966552734375
1772561164631784200,8.5417841796875,-0.52880859375,-0.1697540283203125,-0.07025146484375
1772561164641850000,8.55185009765625,-0.7447509765625,-0.1518402099609375,0.0395050048828125
1772561164651917300,8.561917236328124,-0.85308837890625,-0.1626434326171875,0.06231689453125
1772561164661984300,8.571984375,-0.7824249267578125,-0.1929473876953125,0.00048828125
1772561164672051200,8.58205126953125,-0.53948974609375,-0.2554779052734375,-0.118133544921875
1772561164682117000,8.5921171875,-0.262237548828125,-0.3016510009765625,-0.23724365234375
1772561164692184300,8.602184326171875,0.001220703125,-0.348419189453125,-0.304107666015625
1772561164702251300,8.612251220703126,0.1731719970703125,-0.3864898681640625,-0.2982177734375
1772561164712317200,8.622317138671875,0.0990142822265625,-0.3931884765625,-0.1945037841796875
1772561164722384100,8.632384033203126,-0.1833953857421875,-0.3560638427734375,-0.0499267578125
1772561164732451300,8.642451416015625,-0.484588623046875,-0.3091583251953125,0.08905029296875
1772561164742518300,8.652518310546874,-0.709228515625,-0.289031982421875,0.2610321044921875
1772561164752584200,8.662584228515625,-0.8999786376953125,-0.2853851318359375,0.37237548828125
1772561164762651100,8.672651123046874,-1.0589599609375,-0.3230133056640625,0.3574676513671875
1772561164772718000,8.682718017578125,-1.190765380859375,-0.456695556640625,0.3330841064453125
1772561164782785300,8.692785400390624,-1.28662109375,-0.5942230224609375,0.337860107421875
1772561164792851200,8.702851318359375,-1.240509033203125,-0.6943206787109375,0.3623199462890625
1772561164802918100,8.712918212890624,-1.089691162109375,-0.8336181640625,0.3984527587890625
1772561164812985000,8.722985107421875,-0.839385986328125,-0.924835205078125,0.236083984375
1772561164823051300,8.73305126953125,-0.6211395263671875,-1.07220458984375,0.037384033203125
1772561164833118200,8.7431181640625,-0.742431640625,-1.1904449462890625,-0.0186004638671875
1772561164843185200,8.75318505859375,-1.259490966796875,-1.2225494384765625,0.2538299560546875
1772561164853252000,8.763252197265626,-1.8832550048828125,-1.1769866943359375,0.5759735107421875
1772561164863318300,8.773318359375,-2.4250030517578125,-1.0735931396484375,0.7636260986328125
1772561164873385200,8.78338525390625,-2.759429931640625,-1.0048370361328125,0.8419647216796875
1772561164883452200,8.7934521484375,-2.79827880859375,-1.01727294921875,0.7528228759765625
1772561164893518300,8.803518310546876,-2.657623291015625,-1.0666961669921875,0.5319976806640625
1772561164903585300,8.813585205078125,-2.511077880859375,-1.101959228515625,0.324737548828125
1772561164913652200,8.82365234375,-2.545501708984375,-1.173065185546875,0.281463623046875
1772561164923719200,8.83371923828125,-2.8259429931640625,-1.1378173828125,0.2706451416015625
1772561164933785000,8.84378515625,-3.0343475341796875,-0.9754638671875,0.14862060546875
1772561164943851300,8.853851318359375,-2.9589996337890625,-0.7608795166015625,0.093414306640625
1772561164953918200,8.863918212890624,-2.6323394775390625,-0.577606201171875,0.2664947509765625
1772561164963985200,8.873985107421875,-2.3152618408203125,-0.4352264404296875,0.5435638427734375
1772561164974051300,8.88405126953125,-2.100921630859375,-0.2827301025390625,0.632659912109375
1772561164984118300,8.8941181640625,-1.8452301025390625,-0.16510009765625,0.528411865234375
1772561164994185200,8.904185302734374,-1.4503631591796875,-0.2174224853515625,0.3711090087890625
1772561165004252200,8.914252197265625,-1.019134521484375,-0.336517333984375,0.1042327880859375
1772561165014318300,8.924318359375,-0.669769287109375,-0.4410858154296875,-0.12396240234375
1772561165024385300,8.93438525390625,-0.41796875,-0.5160980224609375,-0.2022857666015625
1772561165034452200,8.9444521484375,-0.3220977783203125,-0.515838623046875,-0.1235809326171875
1772561165044519200,8.954519287109376,-0.36663818359375,-0.431671142578125,-0.0120697021484375
1772561165054585300,8.96458544921875,-0.4884185791015625,-0.3174285888671875,0.0397186279296875
1772561165064652300,8.97465234375,-0.5772247314453125,-0.2266387939453125,0.051971435546875
1772561165074719200,8.98471923828125,-0.603607177734375,-0.174896240234375,0.106414794921875
1772561165084785200,8.99478515625,-0.7073516845703125,-0.1294708251953125,0.1989898681640625
1772561165094852000,9.00485205078125,-0.928466796875,-0.055694580078125,0.2529754638671875
1772561165104919300,9.014919189453124,-1.033538818359375,0.0131683349609375,0.2277984619140625
1772561165114986200,9.024986328125,-0.8135986328125,0.0240020751953125,0.165679931640625
1772561165125052200,9.03505224609375,-0.3014373779296875,0.01214599609375,0.0619049072265625
1772561165135119000,9.045119140625,0.3189849853515625,-0.0233917236328125,-0.0353240966796875
1772561165145186300,9.055186279296874,0.76708984375,-0.096923828125,-0.0208892822265625
1772561165155252200,9.065252197265625,0.8516387939453125,-0.1273651123046875,0.045196533203125
1772561165165319200,9.075319091796874,0.8153076171875,-0.164642333984375,0.073394775390625
1772561165175386000,9.08538623046875,0.636871337890625,-0.19873046875,0.13153076171875
1772561165185453000,9.095453125,0.3636932373046875,-0.2229156494140625,0.14532470703125
1772561165195519200,9.105519287109376,0.0800323486328125,-0.1913909912109375,0.17291259765625
1772561165205586200,9.115586181640625,-0.0589599609375,-0.1968994140625,0.1803741455078125
1772561165215653000,9.125653076171876,-0.142669677734375,-0.25115966796875,0.119354248046875
1772561165225719300,9.13571923828125,-0.1529388427734375,-0.2807159423828125,0.0074462890625
1772561165235786200,9.1457861328125,-0.0789794921875,-0.34197998046875,-0.0713958740234375
1772561165245853200,9.155853271484375,0.045562744140625,-0.438690185546875,-0.1457061767578125
1772561165255920000,9.165920166015624,0.1126251220703125,-0.5077056884765625,-0.2467041015625
1772561165265986300,9.175986328125,0.0703277587890625,-0.5056915283203125,-0.3014678955078125
1772561165276053200,9.18605322265625,-0.0417022705078125,-0.426849365234375,-0.2891082763671875
1772561165286120200,9.1961201171875,-0.162109375,-0.342864990234375,-0.229644775390625
1772561165296188200,9.206188232421875,-0.295562744140625,-0.2842559814453125,-0.1545562744140625
1772561165306253800,9.21625390625,-0.4116363525390625,-0.2235260009765625,-0.106414794921875
1772561165316321000,9.226321044921875,-0.4524688720703125,-0.1773834228515625,-0.0550537109375
1772561165326388000,9.236387939453126,-0.434600830078125,-0.1822052001953125,-0.0318756103515625
1772561165336454000,9.246453857421875,-0.4332275390625,-0.2291412353515625,-0.0782928466796875
1772561165346520800,9.256520751953126,-0.469390869140625,-0.2611846923828125,-0.159454345703125
1772561165356587800,9.266587890625,-0.5307769775390625,-0.260040283203125,-0.193511962890625
1772561165366655000,9.276655029296874,-0.5651092529296875,-0.2643585205078125,-0.1915130615234375
1772561165376721000,9.286720947265625,-0.5174102783203125,-0.3129425048828125,-0.206329345703125
1772561165386787800,9.296787841796874,-0.4748992919921875,-0.3777618408203125,-0.235626220703125
1772561165396854800,9.306854736328125,-0.4586334228515625,-0.424072265625,-0.2568817138671875
1772561165406921000,9.3169208984375,-0.4626922607421875,-0.4454498291015625,-0.221405029296875
1772561165416988000,9.32698779296875,-0.585479736328125,-0.423431396484375,-0.1066131591796875
1772561165427054800,9.337054931640624,-0.856292724609375,-0.3872528076171875,0.0358123779296875
1772561165437121800,9.347121826171875,-1.06549072265625,-0.3868255615234375,0.1605072021484375
1772561165447188000,9.35718798828125,-1.1041107177734375,-0.5247955322265625,0.2441558837890625
1772561165457255000,9.3672548828125,-0.951568603515625,-0.7445220947265625,0.1331787109375
1772561165467321900,9.37732177734375,-0.72265625,-0.841461181640625,-0.353973388671875
1772561165477388000,9.387387939453125,-0.66680908203125,-0.97723388671875,-0.5742340087890625
1772561165487455000,9.397455078125,-0.9612274169921875,-1.2505035400390625,-0.30645751953125
1772561165497522000,9.40752197265625,-1.3317718505859375,-1.3593902587890625,-0.0410308837890625
1772561165507588900,9.4175888671875,-1.6916961669921875,-1.42205810546875,0.338348388671875
1772561165517654800,9.42765478515625,-1.9628143310546875,-1.42205810546875,0.6285400390625
1772561165527722000,9.437721923828125,-2.0162811279296875,-1.4207000732421875,0.7187652587890625
1772561165537789000,9.447788818359374,-2.0022430419921875,-1.535919189453125,0.7045440673828125
1772561165547854800,9.457854736328125,-2.12994384765625,-1.580352783203125,0.4864349365234375
1772561165557921800,9.467921875,-2.448486328125,-1.540557861328125,0.278350830078125
1772561165567989000,9.477989013671875,-2.800262451171875,-1.519317626953125,0.2514190673828125
1772561165578056000,9.488055908203124,-2.9387664794921875,-1.4896392822265625,0.1744537353515625
1772561165588121900,9.498121826171875,-2.7891082763671875,-1.4117279052734375,0.0167388916015625
1772561165598188800,9.508188720703124,-2.4155731201171875,-1.2888336181640625,-0.0499420166015625
1772561165608255700,9.518255859375,-2.0895843505859375,-1.0853424072265625,0.0664215087890625
1772561165618323000,9.528322998046875,-1.915771484375,-0.8413238525390625,0.2393341064453125
1772561165628388900,9.538388916015625,-1.8825836181640625,-0.5733489990234375,0.3123626708984375
1772561165638455800,9.548455810546875,-1.793121337890625,-0.39569091796875,0.379913330078125
1772561165648522800,9.558522705078126,-1.5994110107421875,-0.3362579345703125,0.44268798828125
1772561165658589000,9.5685888671875,-1.4264068603515625,-0.3192138671875,0.381439208984375
1772561165668655900,9.57865576171875,-1.3648681640625,-0.324493408203125,0.23065185546875
1772561165678722800,9.588722900390625,-1.31024169921875,-0.3367462158203125,0.05712890625
1772561165688789800,9.598789794921874,-1.1253814697265625,-0.3846588134765625,-0.0880889892578125
1772561165698856000,9.60885595703125,-0.8238677978515625,-0.4900665283203125,-0.167999267578125
1772561165708923000,9.6189228515625,-0.5032196044921875,-0.576690673828125,-0.19525146484375
1772561165718989800,9.62898974609375,-0.219635009765625,-0.6100616455078125,-0.18231201171875
1772561165729056000,9.639055908203124,-0.0620880126953125,-0.5522003173828125,-0.1202850341796875
1772561165739123000,9.649123046875,-0.0704345703125,-0.3846588134765625,-0.014617919921875
1772561165749190000,9.65918994140625,-0.19482421875,-0.1664886474609375,0.144317626953125
1772561165759256800,9.6692568359375,-0.344940185546875,0.00006103515625,0.2636871337890625
1772561165769322800,9.67932275390625,-0.3934173583984375,0.069488525390625,0.2939910888671875
1772561165779390000,9.689389892578125,-0.262542724609375,0.0984344482421875,0.273681640625
1772561165789457000,9.699456787109375,0.0369415283203125,0.1241912841796875,0.236968994140625
1772561165799522800,9.709522705078125,0.3611297607421875,0.1251678466796875,0.19537353515625
1772561165809589800,9.71958984375,0.59747314453125,0.0803680419921875,0.14691162109375
1772561165819657000,9.729656982421876,0.7219085693359375,-0.01531982421875,0.1063995361328125
1772561165829724000,9.739723876953125,0.7113037109375,-0.1180267333984375,0.0864105224609375
1772561165839789800,9.749789794921876,0.55859375,-0.2027435302734375,0.0660858154296875
1772561165849856800,9.759856689453125,0.362030029296875,-0.2663116455078125,0.0225830078125
1772561165859923700,9.769923828125,0.2311248779296875,-0.3254852294921875,0.003997802734375
1772561165869991000,9.779990966796875,0.16644287109375,-0.3686981201171875,-0.00775146484375
1772561165880056800,9.790056884765624,0.1076507568359375,-0.387847900390625,-0.034027099609375
1772561165890123800,9.800123779296875,0.051666259765625,-0.379119873046875,-0.102874755859375
1772561165900190700,9.810190673828124,-0.006805419921875,-0.3760528564453125,-0.2027740478515625
1772561165910257000,9.8202568359375,-0.146240234375,-0.3684844970703125,-0.25360107421875
1772561165920323800,9.83032373046875,-0.3391876220703125,-0.3270111083984375,-0.29315185546875
1772561165930390800,9.840390869140625,-0.500213623046875,-0.2727508544921875,-0.3026275634765625
1772561165940457700,9.850457763671875,-0.61175537109375,-0.2532196044921875,-0.264984130859375
1772561165950524000,9.86052392578125,-0.67987060546875,-0.2574310302734375,-0.2082977294921875
1772561165960590800,9.8705908203125,-0.7349853515625,-0.24871826171875,-0.1238861083984375
1772561165970657800,9.88065771484375,-0.7730712890625,-0.1976165771484375,-0.0344085693359375
1772561165980724000,9.890723876953125,-0.73089599609375,-0.1564483642578125,0.044342041015625
1772561165990791000,9.900791015625,-0.632904052734375,-0.1547393798828125,0.095184326171875
1772561166000857900,9.91085791015625,-0.5220489501953125,-0.150909423828125,0.0925445556640625
1772561166010924800,9.9209248046875,-0.4368438720703125,-0.1483612060546875,0.058074951171875
1772561166020991000,9.930990966796875,-0.3827056884765625,-0.16204833984375,0.03363037109375
1772561166031058000,9.941057861328124,-0.41021728515625,-0.2150726318359375,0.07421875
1772561166041124900,9.951124755859375,-0.4803466796875,-0.25262451171875,0.10601806640625
1772561166051190800,9.961190673828124,-0.559234619140625,-0.2779541015625,0.133056640625
1772561166061257700,9.9712578125,-0.641143798828125,-0.3339385986328125,0.222198486328125
1772561166071325000,9.981324951171874,-0.7186737060546875,-0.4147796630859375,0.3558197021484375
1772561166081391900,9.991391845703125,-0.766693115234375,-0.4962921142578125,0.4553070068359375
1772561166091457800,10.001457763671874,-0.7530364990234375,-0.6212921142578125,0.511566162109375
1772561166101524700,10.011524658203125,-0.6097259521484375,-0.7536468505859375,0.351715087890625
1772561166111592000,10.021592041015625,-0.527496337890625,-0.831207275390625,-0.074462890625
1772561166121659000,10.031658935546876,-0.942840576171875,-1.036102294921875,-0.2166290283203125
1772561166131724800,10.041724853515625,-1.3073272705078125,-1.1248931884765625,-0.1072998046875
1772561166141791700,10.051791748046876,-1.6385955810546875,-1.058685302734375,0.17498779296875
1772561166151858700,10.061858642578125,-1.912872314453125,-0.7979888916015625,0.3326416015625
1772561166161924900,10.0719248046875,-2.081512451171875,-0.6013946533203125,0.506439208984375
1772561166171991800,10.08199169921875,-2.1496734619140625,-0.558685302734375,0.663055419921875
1772561166182058800,10.092058837890624,-2.080352783203125,-0.592071533203125,0.67474365234375
1772561166192125700,10.102125732421875,-1.9459686279296875,-0.655670166015625,0.576568603515625
1772561166202192000,10.11219189453125,-1.7667694091796875,-0.7287139892578125,0.459320068359375
1772561166212258800,10.1222587890625,-1.5943450927734375,-0.832916259765625,0.3798675537109375
1772561166222325800,10.13232568359375,-1.491485595703125,-0.9238433837890625,0.347381591796875
1772561166232392000,10.142391845703125,-1.5514678955078125,-0.9330902099609375,0.3181304931640625
1772561166242459000,10.152458984375,-1.720977783203125,-0.815185546875,0.224273681640625
1772561166252525800,10.16252587890625,-1.7597503662109375,-0.7124176025390625,0.4588165283203125
1772561166262592800,10.1725927734375,-2.044830322265625,-0.61138916015625,0.523040771484375
1772561166272659000,10.182658935546876,-2.0845794677734375,-0.55023193359375,0.4850311279296875
1772561166282726000,10.192725830078125,-1.878021240234375,-0.472808837890625,0.3730926513671875
1772561166292792800,10.202792724609376,-1.643096923828125,-0.408721923828125,0.2899932861328125
1772561166302859300,10.212859375,-1.478851318359375,-0.4112548828125,0.25030517578125
1772561166312926200,10.22292626953125,-1.36285400390625,-0.444793701171875,0.2278900146484375
1772561166322993200,10.2329931640625,-1.2508392333984375,-0.4498748779296875,0.2178192138671875
1772561166333060400,10.243060302734374,-1.1453704833984375,-0.4189300537109375,0.22808837890625
1772561166343126300,10.253126220703125,-1.0667877197265625,-0.356903076171875,0.2453155517578125
1772561166353193200,10.263193115234374,-1.0404510498046875,-0.3124542236328125,0.279693603515625
1772561166363260200,10.27326025390625,-1.01678466796875,-0.291748046875,0.2977294921875
1772561166373327400,10.283327392578125,-0.938690185546875,-0.2918853759765625,0.2635498046875
1772561166383393300,10.293393310546875,-0.8446197509765625,-0.3060760498046875,0.205078125
1772561166393460200,10.303460205078125,-0.7852935791015625,-0.306488037109375,0.1466217041015625
1772561166403527200,10.313527099609376,-0.7712860107421875,-0.286834716796875,0.1009063720703125
1772561166413593300,10.32359326171875,-0.7606201171875,-0.261810302734375,0.0739593505859375
1772561166423660300,10.333660400390626,-0.7271881103515625,-0.2395477294921875,0.040802001953125
1772561166433727200,10.343727294921875,-0.6470489501953125,-0.2118072509765625,-0.0010986328125
1772561166443794200,10.353794189453126,-0.5504608154296875,-0.197296142578125,-0.01544189453125
1772561166453860400,10.3638603515625,-0.4692230224609375,-0.2063140869140625,0.012939453125
1772561166463927300,10.37392724609375,-0.4111785888671875,-0.2180938720703125,0.055999755859375
1772561166473994200,10.383994140625,-0.352752685546875,-0.2160186767578125,0.0940399169921875
1772561166484060200,10.39406005859375,-0.30023193359375,-0.213348388671875,0.1283416748046875
1772561166494127400,10.40412744140625,-0.2740936279296875,-0.2206268310546875,0.1709136962890625
1772561166504194300,10.4141943359375,-0.2772979736328125,-0.2339630126953125,0.2221832275390625
1772561166514261200,10.42426123046875,-0.285980224609375,-0.2538299560546875,0.2608184814453125
1772561166524327200,10.4343271484375,-0.3170318603515625,-0.2973480224609375,0.312103271484375
1772561166534394400,10.444394287109375,-0.3722686767578125,-0.403717041015625,0.353759765625
1772561166544461300,10.45446142578125,-0.4388427734375,-0.5031890869140625,0.2480316162109375
1772561166554528300,10.4645283203125,-0.502655029296875,-0.54058837890625,0.0520172119140625
1772561166564594200,10.47459423828125,-0.55706787109375,-0.5496673583984375,-0.0832366943359375
1772561166574661400,10.484661376953126,-0.624969482421875,-0.5500335693359375,-0.12664794921875
1772561166584728300,10.494728271484375,-0.6844482421875,-0.49859619140625,-0.075469970703125
1772561166594794200,10.504794189453126,-0.761749267578125,-0.417510986328125,0.0337677001953125
1772561166604861200,10.514861083984375,-1.2319793701171875,-0.3658447265625,0.07513427734375
1772561166614928100,10.52492822265625,-1.4163665771484375,-0.4741363525390625,-0.0538177490234375
1772561166624995600,10.53499560546875,-1.141387939453125,-0.6103515625,-0.072723388671875
1772561166635061200,10.545061279296876,-0.962738037109375,-0.58331298828125,0.07208251953125
1772561166645128200,10.555128173828125,-0.9059295654296875,-0.4972381591796875,0.2150726318359375
1772561166655195100,10.565195068359374,-0.8955078125,-0.44720458984375,0.287078857421875
1772561166665261300,10.57526123046875,-0.79534912109375,-0.4046783447265625,0.267669677734375
1772561166675328300,10.585328369140624,-0.68109130859375,-0.4318695068359375,0.2320098876953125
1772561166685395200,10.595395263671875,-0.619384765625,-0.5519866943359375,0.230377197265625
1772561166695462400,10.60546240234375,-0.574554443359375,-0.6882781982421875,0.2285919189453125
1772561166705528300,10.6155283203125,-0.570526123046875,-0.7659149169921875,0.21905517578125
1772561166715595300,10.62559521484375,-0.6234283447265625,-0.772216796875,0.2367095947265625
1772561166725662500,10.635662353515626,-0.6995391845703125,-0.74114990234375,0.254486083984375
1772561166735729400,10.6457294921875,-0.7772216796875,-0.6993865966796875,0.2500152587890625
1772561166745795300,10.65579541015625,-0.84649658203125,-0.6750335693359375,0.2305450439453125
1772561166755862300,10.6658623046875,-0.88995361328125,-0.6822662353515625,0.208984375
1772561166765929500,10.675929443359376,-0.91180419921875,-0.6907501220703125,0.199676513671875
1772561166775995100,10.6859951171875,-0.935821533203125,-0.69171142578125,0.19775390625
1772561166786062300,10.696062255859376,-0.95623779296875,-0.68450927734375,0.185882568359375
1772561166796129500,10.706129638671875,-0.95489501953125,-0.6589202880859375,0.16412353515625
1772561166806196500,10.716196533203124,-0.885498046875,-0.6535491943359375,0.17138671875
1772561166816262100,10.72626220703125,-0.813690185546875,-0.6518402099609375,0.1636505126953125
1772561166826329300,10.736329345703124,-0.7226715087890625,-0.65496826171875,0.152374267578125
1772561166836396500,10.746396484375,-0.6492919921875,-0.6534423828125,0.15423583984375
1772561166846462200,10.756462158203124,-0.6168975830078125,-0.656005859375,0.143157958984375
1772561166856529200,10.766529052734375,-0.591094970703125,-0.650634765625,0.102447509765625
1772561166866596400,10.776596435546875,-0.5482635498046875,-0.6251068115234375,0.0584259033203125
1772561166876663600,10.78666357421875,-0.5177001953125,-0.60333251953125,0.0320892333984375
1772561166886729200,10.796729248046875,-0.51470947265625,-0.596466064453125,0.02740478515625
1772561166896796400,10.80679638671875,-0.5284576416015625,-0.57977294921875,0.0287322998046875
1772561166906863400,10.81686328125,-0.5544891357421875,-0.5579376220703125,0.0255889892578125
1772561166916930600,10.8269306640625,-0.5890045166015625,-0.5371856689453125,0.020355224609375
1772561166926996500,10.83699658203125,-0.64300537109375,-0.5135040283203125,0.0226593017578125
1772561166937063400,10.8470634765625,-0.6915740966796875,-0.48358154296875,0.0311279296875
1772561166947130400,10.85713037109375,-0.71673583984375,-0.454132080078125,0.0556182861328125
1772561166957196300,10.8671962890625,-0.7579498291015625,-0.44561767578125,0.093017578125
1772561166967263500,10.877263427734375,-0.8046875,-0.44610595703125,0.1203155517578125
1772561166977330400,10.887330322265624,-0.8351593017578125,-0.457000732421875,0.124847412109375
1772561166987397400,10.8973974609375,-0.8532867431640625,-0.47589111328125,0.1224212646484375
1772561166997463600,10.907463623046874,-0.85748291015625,-0.511810302734375,0.1256866455078125
1772561167007530500,10.917530517578125,-0.839935302734375,-0.56982421875,0.1317291259765625
1772561167017597400,10.927597412109375,-0.815399169921875,-0.65093994140625,0.13787841796875
1772561167027663400,10.937663330078125,-0.8045806884765625,-0.767852783203125,0.1282196044921875
1772561167037730600,10.94773046875,-0.7840118408203125,-0.84539794921875,0.1062469482421875
1772561167047797500,10.957797607421876,-0.7129364013671875,-0.79339599609375,0.076416015625
1772561167057864400,10.967864501953125,-0.6507568359375,-0.703125,0.032196044921875
1772561167067930400,10.977930419921876,-0.7009735107421875,-0.677215576171875,-0.0046844482421875
1772561167077997600,10.98799755859375,-0.8265533447265625,-0.6849365234375,-0.0032501220703125
1772561167088064500,10.998064453125,-0.91607666015625,-0.6673431396484375,0.0198211669921875
1772561167098130400,11.00813037109375,-0.95989990234375,-0.633148193359375,0.0423736572265625
1772561167108197400,11.018197265625,-1.0040435791015625,-0.6368865966796875,0.0280609130859375
1772561167118264300,11.028264404296875,-1.0435943603515625,-0.668853759765625,-0.0102691650390625
1772561167128331500,11.03833154296875,-1.0597991943359375,-0.688751220703125,-0.0461883544921875
1772561167138397400,11.0483974609375,-1.059417724609375,-0.6912384033203125,-0.05377197265625
1772561167148464400,11.05846435546875,-1.062530517578125,-0.6999053955078125,-0.049041748046875
1772561167158531300,11.06853125,-1.057769775390625,-0.7140960693359375,-0.0486602783203125
1772561167168598500,11.0785986328125,-1.036468505859375,-0.7279510498046875,-0.04986572265625
1772561167178664400,11.08866455078125,-1.0022430419921875,-0.73919677734375,-0.041534423828125
1772561167188731400,11.0987314453125,-0.9551239013671875,-0.73809814453125,-0.020477294921875
1772561167198798300,11.10879833984375,-0.90594482421875,-0.7213897705078125,0.0143585205078125
1772561167208864500,11.118864501953125,-0.86407470703125,-0.69012451171875,0.0534515380859375
1772561167218931500,11.128931396484376,-0.830596923828125,-0.6480865478515625,0.0818939208984375
1772561167228998400,11.138998291015625,-0.79522705078125,-0.60595703125,0.1027374267578125
1772561167239065300,11.1490654296875,-0.758544921875,-0.5610504150390625,0.1202392578125
1772561167249131500,11.159131591796875,-0.7126922607421875,-0.52203369140625,0.1212310791015625
1772561167259198500,11.169198486328124,-0.6511688232421875,-0.4953460693359375,0.102996826171875
1772561167269265400,11.179265380859375,-0.582733154296875,-0.4944915771484375,0.0889434814453125
1772561167279331300,11.189331298828124,-0.5074920654296875,-0.4925994873046875,0.0970458984375
1772561167289398500,11.1993984375,-0.4897918701171875,-0.4704132080078125,0.1204833984375
1772561167299465500,11.209465576171874,-0.5287322998046875,-0.4662933349609375,0.11859130859375
1772561167309532000,11.219531982421875,-0.5740966796875,-0.4575958251953125,0.0603790283203125
