time,seconds_elapsed,z,y,x
1772561524993742800,0.058742919921875,-0.6213727593421936,-0.7364040017127991,0.08252204209566116
1772561525003809000,0.06880908203125,-0.7473253607749939,-0.8717988133430481,-0.04957527667284012
1772561525013875000,0.078875,-0.9427246451377869,-1.0236570835113525,-0.13771498203277588
1772561525023942000,0.08894189453125,-1.127689242362976,-1.3398027420043945,-0.2320564091205597
1772561525034008000,0.099008056640625,-1.301274299621582,-1.7855368852615356,-0.34854066371917725
1772561525044075000,0.109074951171875,-1.4742854833602905,-2.166415214538574,-0.39736148715019226
1772561525054141000,0.119140869140625,-1.6350748538970947,-1.6235178709030151,-0.4208811819553375
1772561525064206800,0.129206787109375,-1.584525465965271,-1.3801493644714355,-0.2480958253145218
1772561525074273800,0.139273681640625,-1.639615535736084,-1.1343907117843628,-0.015970710664987564
1772561525084340000,0.149340087890625,-1.9682304859161377,-1.2302643060684204,0.07801570743322372
1772561525094407000,0.159406982421875,-2.3459312915802,-1.473719835281372,0.19795489311218262
1772561525104472800,0.169472900390625,-1.9386837482452393,-1.5496768951416016,0.3041281998157501
1772561525114539800,0.179539794921875,-0.4300437867641449,-1.3389915227890015,-0.017541177570819855
1772561525124606000,0.18960595703125,0.8208245635032654,0.3869280219078064,-0.08383364975452423
1772561525134672000,0.199671875,1.6119924783706665,1.6365015506744385,-0.282846599817276
1772561525144738800,0.20973876953125,2.0099377632141113,1.7524052858352661,-0.6687788963317871
1772561525154805000,0.219804931640625,2.0800459384918213,1.4971071481704712,-0.9221118092536926
1772561525164872000,0.229871826171875,1.8497382402420044,1.238576054573059,-0.9951907992362976
1772561525174937900,0.239937744140625,1.4045506715774536,0.9992060661315918,-0.9243177175521851
1772561525185004000,0.250004150390625,0.8699487447738647,0.8867748379707336,-0.7673629522323608
1772561525195071000,0.260071044921875,0.3792421221733093,0.9015008211135864,-0.523249089717865
1772561525205137000,0.270136962890625,0.0097450390458107,1.0155922174453735,-0.1821383833885193
1772561525215204000,0.2802041015625,-0.2589748501777649,0.9719824194908142,0.11319659650325775
1772561525225269800,0.290269775390625,-0.42320185899734497,0.6541586518287659,0.31011897325515747
1772561525235336000,0.3003359375,-0.4789591431617737,0.23777234554290771,0.4436544179916382
1772561525245403000,0.31040283203125,-0.4698697626590729,-0.14601446688175201,0.5613967776298523
1772561525255468800,0.32046875,-0.4545115828514099,-0.5710733532905579,0.5273370742797852
1772561525265535700,0.33053564453125,-0.4483274519443512,-0.8259093761444092,0.28638434410095215
1772561525275602000,0.340601806640625,-0.3756335377693176,-0.9229714870452881,0.1574314385652542
1772561525285668900,0.3506689453125,-0.21991398930549622,-0.9754019379615784,0.10017107427120209
1772561525295734800,0.36073486328125,-0.07873635739088058,-1.0469703674316406,0.06399495899677277
1772561525305801000,0.370801025390625,0.045458294451236725,-0.9794379472732544,0.03099040687084198
1772561525315868000,0.380867919921875,0.17920038104057312,-0.736487865447998,-0.03171665221452713
1772561525325933800,0.390933837890625,0.30266451835632324,-0.474038690328598,-0.13575249910354614
1772561525336001000,0.4010009765625,0.4750642478466034,-0.11123038083314896,-0.2860967218875885
1772561525346067000,0.41106689453125,0.5799933671951294,0.11470900475978851,-0.39261358976364136
1772561525356132900,0.4211328125,0.6270670890808105,0.01743997633457184,-0.48690706491470337
1772561525366200000,0.431199951171875,0.6524022817611694,-0.34097862243652344,-0.5806047916412354
1772561525376266000,0.441265869140625,0.6699256300926208,-0.7388194799423218,-0.6415799856185913
1772561525386333000,0.4513330078125,0.6754649877548218,-0.9278905987739563,-0.6254686713218689
1772561525396399000,0.461399169921875,0.6433334350585938,-0.9295278787612915,-0.5238634943962097
1772561525406464800,0.47146484375,0.5921658277511597,-0.8038341403007507,-0.32534241676330566
1772561525416531700,0.48153173828125,0.55172199010849,-0.5326945185661316,-0.005648298189043999
1772561525426598000,0.491597900390625,0.5445935130119324,0.5646317005157471,0.2964803874492645
1772561525436664800,0.501664794921875,0.5817995071411133,0.9060816764831543,0.36160561442375183
1772561525446730800,0.511730712890625,0.6424490213394165,1.1689194440841675,0.32453519105911255
1772561525456798000,0.5217978515625,0.7036635875701904,1.4800219535827637,0.22853676974773407
1772561525466863900,0.53186376953125,0.7789080142974854,1.5931862592697144,0.05741961672902107
1772561525476929800,0.5419296875,0.8247423768043518,1.562048077583313,-0.09872551262378693
1772561525486997000,0.5519970703125,0.835553765296936,1.605911374092102,-0.15198341012001038
1772561525497063000,0.56206298828125,0.8040666580200195,1.6817928552627563,-0.0760798528790474
1772561525507129900,0.5721298828125,0.7293468713760376,1.7664164304733276,0.02545875497162342
1772561525517196000,0.582196044921875,0.6340904235839844,1.8014500141143799,0.08286958187818527
1772561525527262000,0.592261962890625,0.541322648525238,1.7148163318634033,0.09671828895807266
1772561525537329000,0.602328857421875,0.4709528684616089,1.553901195526123,0.09256695210933685
1772561525547395000,0.61239501953125,0.45352861285209656,1.4548369646072388,0.14110039174556732
1772561525557462000,0.6224619140625,0.4666217863559723,1.4189902544021606,0.21692778170108795
1772561525567528000,0.63252783203125,0.46322810649871826,1.3712142705917358,0.3108830451965332
1772561525577593900,0.64259375,0.45869407057762146,1.2769819498062134,0.39087241888046265
1772561525587660800,0.652660888671875,0.4645482301712036,1.0697531700134277,0.3940841853618622
1772561525597726700,0.662726806640625,0.4599497616291046,0.6991221308708191,0.2984766960144043
1772561525607794000,0.6727939453125,0.4254562258720398,0.20977799594402313,0.12255441397428513
1772561525617859800,0.68285986328125,0.344149649143219,-0.22643260657787323,-0.04984398931264877
1772561525627926800,0.6929267578125,0.21684736013412476,-0.5428457260131836,-0.186420738697052
1772561525637993000,0.702992919921875,0.09236907958984375,-0.7419756054878235,-0.34607911109924316
1772561525648059000,0.713058837890625,0.0032320122700184584,-0.8204333782196045,-0.5587477087974548
1772561525658125800,0.723125732421875,-0.03852182626724243,-0.7347165942192078,-0.790810227394104
1772561525668192000,0.73319189453125,-0.0430087186396122,-0.5012367367744446,-0.9350784420967102
1772561525678259000,0.743259033203125,-0.05491944029927254,-0.20203858613967896,-0.9530489444732666
1772561525688324900,0.753324951171875,-0.09628525376319885,-0.08663369715213776,-0.8808287978172302
1772561525698391000,0.76339111328125,-0.10617570579051971,-0.14649756252765656,-0.6900615096092224
1772561525708458000,0.7734580078125,-0.026337331160902977,-0.29780691862106323,-0.47221386432647705
1772561525718524000,0.78352392578125,-0.005354018881917,-0.661704421043396,-0.19228368997573853
1772561525728590800,0.7935908203125,-0.03978363052010536,-1.1940032243728638,0.1563001275062561
1772561525738657000,0.803656982421875,-0.11306796222925186,-1.8365159034729004,0.5003418922424316
1772561525748724000,0.813723876953125,-0.2309083193540573,-2.6080169677734375,0.7281473875045776
1772561525758790100,0.8237900390625,-0.3690105378627777,-3.362661838531494,0.8367542624473572
1772561525768856000,0.83385595703125,-0.39144366979599,-3.863933563232422,0.8361049890518188
1772561525778923000,0.843923095703125,-0.2802788019180298,-4.341310024261475,0.7866085767745972
1772561525788989200,0.8539892578125,-0.2681414484977722,-4.641704559326172,0.874566376209259
1772561525799056100,0.86405615234375,-0.39950504899024963,-4.5143656730651855,1.058609962463379
1772561525809122000,0.8741220703125,-0.6850404143333435,-2.9832334518432617,0.9899933934211731
1772561525819188000,0.88418798828125,-0.6770583391189575,-2.0150272846221924,0.9445816874504089
1772561525829255200,0.894255126953125,-0.5013222098350525,-1.700932264328003,0.8762289881706238
1772561525839320800,0.90432080078125,-0.38990914821624756,-1.5908368825912476,0.6630560159683228
1772561525849387800,0.9143876953125,-0.5263234376907349,-0.5106843113899231,0.09372249990701675
1772561525859454000,0.924453857421875,-0.45568549633026123,0.8054805397987366,-0.09644345194101334
1772561525869520000,0.934519775390625,-0.26972922682762146,1.6678853034973145,-0.16835013031959534
1772561525879586800,0.9445869140625,-0.1660132110118866,1.798073172569275,-0.3329225778579712
1772561525889653000,0.954653076171875,-0.1873304843902588,1.7905800342559814,-0.48104146122932434
1772561525899720000,0.964719970703125,-0.1839780956506729,2.90278959274292,-0.42674973607063293
1772561525909786000,0.9747861328125,-0.15262070298194885,3.49702787399292,-0.42773696780204773
1772561525919852000,0.98485205078125,-0.3472977876663208,3.6251063346862793,-0.5615171194076538
1772561525929919000,0.9949189453125,-0.6741893291473389,3.1481523513793945,-0.7791602611541748
1772561525939985200,1.004985107421875,-0.7875528931617737,2.6347594261169434,-0.8116939663887024
1772561525950052000,1.015052001953125,-0.6739174127578735,1.9989287853240967,-0.5842647552490234
1772561525960118000,1.025117919921875,-0.5487408638000488,1.2378873825073242,-0.17216084897518158
1772561525970185000,1.03518505859375,-0.4626379609107971,0.8225364685058594,0.4430679678916931
1772561525980251100,1.045251220703125,-0.401343435049057,0.7878719568252563,1.0228708982467651
1772561525990317000,1.055317138671875,-0.3817412257194519,0.689720094203949,1.290678858757019
1772561526000384000,1.065384033203125,-0.28469324111938477,0.5016314387321472,1.3290507793426514
1772561526010450000,1.075449951171875,-0.09373634308576584,0.3637409210205078,1.2898354530334473
1772561526020516900,1.085516845703125,0.03526344895362854,0.22197553515434265,1.290505290031433
1772561526030582800,1.095582763671875,0.11840813606977463,0.18418501317501068,1.3671214580535889
1772561526040649000,1.10564892578125,0.1845591962337494,0.23148807883262634,1.4333428144454956
1772561526050716000,1.1157158203125,0.21927669644355774,0.2526625990867615,1.4206513166427612
1772561526060782000,1.125781982421875,0.2534399926662445,0.1322893351316452,1.3172715902328491
1772561526070849000,1.13584912109375,0.32140278816223145,0.02267788164317608,1.1823519468307495
1772561526080915000,1.1459150390625,0.40509316325187683,-0.04434403032064438,1.125921368598938
1772561526090981000,1.155981201171875,0.4864735007286072,0.08492660522460938,1.1690342426300049
1772561526101048000,1.166048095703125,0.5099117159843445,0.3500935733318329,1.1978051662445068
1772561526111114000,1.176114013671875,0.493735134601593,0.5435977578163147,1.1329963207244873
1772561526121181000,1.186180908203125,0.4770938456058502,0.6015012860298157,0.9787865281105042
1772561526131247000,1.1962470703125,0.4682321846485138,0.5956609845161438,0.768534243106842
1772561526141314000,1.20631396484375,0.43782901763916016,0.5587189197540283,0.534079909324646
1772561526151380000,1.2163798828125,0.3078121542930603,0.47181013226509094,0.2741157114505768
1772561526161446100,1.226446044921875,0.15835635364055634,0.42257121205329895,-0.018371284008026123
1772561526171513000,1.23651318359375,0.005140966270118952,0.5534616112709045,-0.29714006185531616
1772561526181578800,1.246578857421875,-0.11442618072032928,0.8827641010284424,-0.5040674209594727
1772561526191646200,1.256646240234375,-0.15420101583003998,1.195922613143921,-0.6481476426124573
1772561526201711900,1.2667119140625,0.061958443373441696,1.503085970878601,-0.666035532951355
1772561526211778000,1.276778076171875,0.2806042432785034,1.3763141632080078,-0.6687586307525635
1772561526221845000,1.286844970703125,0.37808871269226074,1.0588574409484863,-0.6555259227752686
1772561526231911000,1.296910888671875,0.2515949606895447,0.7633447647094727,-0.6031076908111572
1772561526241977900,1.306977783203125,0.00863423477858305,0.46329575777053833,-0.5746590495109558
1772561526252044000,1.3170439453125,-0.15812252461910248,0.10097641497850418,-0.6935026049613953
1772561526262110000,1.32710986328125,-0.11641795933246613,-0.39602217078208923,-1.0164239406585693
1772561526272177000,1.337177001953125,0.04149977117776871,-0.7685038447380066,-1.300541639328003
1772561526282243000,1.3472431640625,0.10660260915756226,-0.9409627318382263,-1.5005767345428467
1772561526292310000,1.35731005859375,0.000767523015383631,-0.9573858976364136,-1.6471821069717407
1772561526302376000,1.3673759765625,-0.18658852577209473,-0.6863741278648376,-1.7046451568603516
1772561526312443100,1.377443115234375,-0.35702231526374817,-0.3452817499637604,-1.6584553718566895
1772561526322509000,1.387509033203125,-0.41623422503471375,-0.18193385004997253,-1.5755399465560913
1772561526332575000,1.397574951171875,-0.3819074034690857,-0.32332107424736023,-1.49089777469635
1772561526342642200,1.40764208984375,-0.2915967106819153,-0.48141351342201233,-1.3782074451446533
1772561526352708000,1.4177080078125,-0.12442874163389206,-0.5673627853393555,-1.2497894763946533
1772561526362775000,1.427775146484375,0.015025555156171322,-0.920448362827301,-1.0246856212615967
1772561526372841000,1.437841064453125,-0.012634302489459515,-1.556822657585144,-0.8165521025657654
1772561526382907000,1.447906982421875,0.0158253014087677,-1.8225537538528442,-0.4852351248264313
1772561526392973800,1.457973876953125,0.0012490225490182638,-2.004427433013916,-0.22092385590076447
1772561526403040000,1.4680400390625,-0.111582450568676,-2.4775400161743164,-0.11338435113430023
1772561526413107000,1.47810693359375,-0.3278290033340454,-3.0261147022247314,-0.07280496507883072
1772561526423172900,1.4881728515625,-0.6331266164779663,-3.239199638366699,0.016625314950942993
1772561526433239000,1.498239013671875,-1.0148580074310303,-3.0479345321655273,0.18123716115951538
1772561526443306000,1.508305908203125,-1.3982112407684326,-2.687155246734619,0.3667375147342682
1772561526453372000,1.518371826171875,-1.6923218965530396,-2.436094284057617,0.5031110644340515
1772561526463439000,1.528439208984375,-1.8020305633544922,-2.3457260131835938,0.5375031232833862
1772561526473505000,1.538505126953125,-1.705475091934204,-2.276108503341675,0.469751238822937
1772561526483572000,1.548572021484375,-1.3872368335723877,-1.9222885370254517,0.19987396895885468
1772561526493638100,1.55863818359375,-0.9006509780883789,-0.8834741115570068,-0.2520114779472351
1772561526503704000,1.5687041015625,-0.5532211065292358,-0.07243505120277405,-0.42169904708862305
1772561526513771000,1.57877099609375,-0.28386661410331726,0.5079889297485352,-0.5493478178977966
1772561526523837200,1.588837158203125,0.0026903252582997084,1.0312299728393555,-0.7285593748092651
1772561526533904100,1.598904052734375,0.2804287374019623,1.383381724357605,-0.9489511251449585
1772561526543970000,1.608969970703125,0.5162055492401123,1.4846601486206055,-1.2825136184692383
1772561526554036000,1.619035888671875,0.7189661264419556,1.4072694778442383,-1.738372802734375
1772561526564103000,1.62910302734375,0.9491466283798218,1.2225861549377441,-2.2038986682891846
1772561526574168800,1.6391689453125,1.0694091320037842,1.0257412195205688,-2.652008056640625
1772561526584236000,1.649236083984375,0.9813250303268433,1.256685495376587,-2.794693946838379
1772561526594302000,1.659302001953125,0.9998785257339478,1.6572043895721436,-2.2594358921051025
1772561526604368000,1.669367919921875,1.1626815795898438,2.0571517944335938,-1.152590274810791
1772561526614435000,1.67943505859375,0.9369913935661316,2.3603675365448,0.057077668607234955
1772561526624501000,1.6895009765625,0.51607346534729,3.010509967803955,0.8652980327606201
1772561526634568000,1.69956787109375,0.0753440260887146,2.6108896732330322,1.1223359107971191
1772561526644633900,1.7096337890625,-0.21250134706497192,1.049871563911438,1.3477115631103516
1772561526654700800,1.71970068359375,-0.5088863968849182,-0.21693657338619232,1.6462128162384033
1772561526664766700,1.7297666015625,-0.8330365419387817,-0.6494094133377075,2.0421464443206787
1772561526674833000,1.7398330078125,-0.7919452786445618,-0.4834921061992645,2.3649301528930664
1772561526684899800,1.74989990234375,-0.10131676495075226,-0.02725239284336567,2.4163835048675537
1772561526694965800,1.7599658203125,0.7365400791168213,0.5471448302268982,2.397426128387451
1772561526705032700,1.77003271484375,1.3936764001846313,1.424776315689087,2.405669689178467
1772561526715099000,1.780098876953125,1.7338308095932007,2.155576705932617,2.38088059425354
1772561526725164800,1.790164794921875,1.8295713663101196,2.3212380409240723,2.3753998279571533
1772561526735232000,1.80023193359375,1.6889700889587402,1.8348675966262817,2.2773306369781494
1772561526745297700,1.810297607421875,1.3326433897018433,1.1930769681930542,2.102052688598633
1772561526755364900,1.82036474609375,0.9462584257125854,0.6514792442321777,2.029453754425049
1772561526765430800,1.8304306640625,0.3994469940662384,0.15337836742401123,2.1040186882019043
1772561526775497700,1.840497802734375,-0.23744717240333557,-0.32129812240600586,2.4502291679382324
1772561526785563600,1.850563720703125,-0.6328592300415039,-0.9497761726379395,2.6389198303222656
1772561526795629800,1.8606298828125,-0.3112756013870239,-2.1815850734710693,2.3031530380249023
1772561526805696800,1.87069677734375,0.35829636454582214,-2.930898427963257,1.9553682804107666
1772561526815762700,1.8807626953125,0.7850522398948669,-2.7218375205993652,1.7917119264602661
1772561526825829600,1.89082958984375,1.1020469665527344,-2.1183412075042725,1.5164835453033447
1772561526835895800,1.900895751953125,1.3170257806777954,-1.5439397096633911,0.9154443144798279
1772561526845961700,1.910961669921875,1.2131832838058472,-1.1260854005813599,-0.0414518341422081
1772561526856028700,1.921028564453125,0.9757553339004517,-0.9462693333625793,-1.0202460289001465
1772561526866094800,1.9310947265625,0.6221306920051575,-1.1650829315185547,-1.6914995908737183
1772561526876161800,1.941161865234375,0.2346189022064209,-1.315691351890564,-1.7512733936309814
1772561526886228000,1.95122802734375,0.14773885905742645,-1.1936352252960205,-1.117016077041626
1772561526896294000,1.9612939453125,0.3199990391731262,-0.907588005065918,-0.042450785636901855
1772561526906360800,1.97136083984375,0.40043821930885315,-0.4892629086971283,1.0645240545272827
1772561526916427000,1.981427001953125,0.280301958322525,-0.11572340130805969,1.8449506759643555
1772561526926494000,1.991493896484375,-0.048772331327199936,-0.12729297578334808,2.0106241703033447
1772561526936559600,2.0015595703125,-0.467838317155838,-0.43822529911994934,1.6442852020263672
1772561526946626600,2.01162646484375,-0.8472746014595032,-0.5791464447975159,1.0405516624450684
1772561526956692700,2.021692626953125,-1.307403802871704,-0.5792231559753418,0.248863086104393
1772561526966758700,2.031758544921875,-1.6883107423782349,-0.46528592705726624,-0.6204240918159485
1772561526976825600,2.04182568359375,-1.7906520366668701,0.005245361942797899,-1.405053734779358
1772561526986891800,2.051891845703125,-1.6609182357788086,0.6689186692237854,-2.0282695293426514
1772561526996958700,2.061958740234375,-1.249856948852539,1.584990382194519,-2.179427146911621
1772561527007024600,2.072024658203125,-0.9050793051719666,2.1350677013397217,-1.9111669063568115
1772561527017090800,2.0820908203125,-0.8245487809181213,2.0164525508880615,-1.4665844440460205
1772561527027157800,2.09215771484375,-0.8671793341636658,1.3835132122039795,-1.0986160039901733
1772561527037224000,2.102223876953125,-0.9884564876556396,0.22542352974414825,-1.180604100227356
1772561527047291000,2.112290771484375,-1.1429083347320557,-1.0295757055282593,-1.6845721006393433
1772561527057356800,2.122356689453125,-1.1600322723388672,-2.0230960845947266,-2.3455471992492676
1772561527067423700,2.132423828125,-1.1069282293319702,-2.689544200897217,-2.9925200939178467
1772561527077490000,2.142489990234375,-1.060316801071167,-2.9977316856384277,-3.458130359649658
1772561527087555800,2.152555908203125,-1.0467360019683838,-2.7615785598754883,-3.5337016582489014
1772561527097622800,2.162622802734375,-1.0568523406982422,-2.0815486907958984,-3.196202039718628
1772561527107688700,2.172688720703125,-1.100656509399414,-1.2793514728546143,-2.6396520137786865
1772561527117756000,2.182755859375,-1.155071496963501,-0.7646699547767639,-2.153580904006958
1772561527127821600,2.192821533203125,-1.2105635404586792,-0.49431413412094116,-1.9369282722473145
1772561527137887700,2.2028876953125,-1.2046151161193848,-0.4293782711029053,-1.9934782981872559
1772561527147954700,2.21295458984375,-1.1170461177825928,-0.5097982883453369,-2.221853256225586
1772561527158020600,2.2230205078125,-1.0202069282531738,-0.753819465637207,-2.4780659675598145
1772561527168087800,2.233087890625,-0.9846063256263733,-0.87278151512146,-2.6372015476226807
1772561527178153700,2.24315380859375,-1.0217134952545166,-0.6976038813591003,-2.590130567550659
1772561527188220700,2.253220703125,-0.9917430877685547,-0.24494397640228271,-2.136073350906372
1772561527198286800,2.263286865234375,-0.7140829563140869,0.15412618219852448,-1.3699638843536377
1772561527208352800,2.273352783203125,-0.3011830151081085,0.41129887104034424,-0.5530586838722229
1772561527218419700,2.283419677734375,0.02353195659816265,0.36989521980285645,0.05526245757937431
1772561527228486000,2.29348583984375,0.058450259268283844,0.017245832830667496,0.3787915110588074
1772561527238552800,2.303552734375,-0.12106384336948395,-0.5163456797599792,0.5889596939086914
1772561527248618800,2.31361865234375,-0.42837852239608765,-0.97678142786026,0.8779890537261963
1772561527258685000,2.323684814453125,-0.7969461679458618,-0.7988764047622681,1.410010576248169
1772561527268752000,2.333751953125,-1.0085049867630005,0.3622865676879883,2.2401838302612305
1772561527278817800,2.34381787109375,-1.0087801218032837,1.9407477378845215,2.80810809135437
1772561527288885000,2.353885009765625,-1.126899003982544,2.623634099960327,2.4949002265930176
1772561527298950700,2.36395068359375,-1.7037842273712158,2.341874361038208,1.2958483695983887
1772561527309017900,2.374017822265625,-2.4385533332824707,2.7559120655059814,0.1756538450717926
1772561527319083800,2.384083740234375,-2.4102330207824707,4.9072794914245605,-0.04641037434339523
1772561527329149700,2.394149658203125,-1.4019577503204346,6.855273246765137,-0.12128115445375443
1772561527339216600,2.404216552734375,0.15922348201274872,8.13636302947998,-0.35300174355506897
1772561527349282800,2.41428271484375,1.820479154586792,8.48824405670166,-0.46412399411201477
1772561527359349800,2.424349853515625,2.9493536949157715,7.58274507522583,-0.06763417273759842
1772561527369415700,2.434415771484375,3.565657615661621,5.524128437042236,0.986410915851593
1772561527379481900,2.44448193359375,3.7306628227233887,2.933420419692993,2.40631365776062
1772561527389548800,2.454548828125,3.5117249488830566,-0.1793316751718521,3.131483316421509
1772561527399614700,2.46461474609375,3.233170747756958,-2.239034652709961,3.3638579845428467
1772561527409682000,2.474681884765625,2.834683656692505,-2.6784286499023438,3.7445015907287598
1772561527419747800,2.484747802734375,2.3899834156036377,-2.5615320205688477,3.881723165512085
1772561527429814800,2.494814697265625,1.8152319192886353,-2.4030661582946777,3.505730628967285
1772561527439881000,2.504880859375,1.2329785823822021,-2.3041205406188965,2.694319725036621
1772561527449947000,2.51494677734375,0.8106574416160583,-2.212651491165161,1.5882877111434937
1772561527460013800,2.525013916015625,0.49570536613464355,-1.8993958234786987,0.31213393807411194
1772561527470080000,2.535080078125,0.2844410538673401,-1.4387555122375488,-0.9911901950836182
1772561527480147000,2.54514697265625,0.011845474131405354,-0.852371335029602,-2.018695116043091
1772561527490212600,2.555212646484375,-0.29894009232521057,-0.10177110135555267,-2.542104482650757
1772561527500278800,2.56527880859375,-0.4901127219200134,0.6101147532463074,-2.398872137069702
1772561527510345700,2.575345703125,-0.4655940532684326,1.2169793844223022,-1.6099551916122437
1772561527520411600,2.58541162109375,-0.27944841980934143,1.3434380292892456,-0.7570091485977173
1772561527530478600,2.595478515625,-0.06622003018856049,0.7058090567588806,-0.3527418076992035
1772561527540544800,2.605544677734375,-0.004686897154897451,-0.2810223400592804,-0.4282972812652588
1772561527550611700,2.61561181640625,-0.13397164642810822,-1.2182401418685913,-0.8679681420326233
1772561527560678000,2.625677978515625,-0.3797265589237213,-1.6776673793792725,-1.432946801185608
1772561527570743800,2.635743896484375,-0.5753421187400818,-1.6235263347625732,-1.8559625148773193
1772561527580810800,2.645810791015625,-0.6401565670967102,-1.186058521270752,-2.0435290336608887
1772561527590877000,2.655876953125,-0.5414904356002808,-0.5321893095970154,-1.9344184398651123
1772561527600943900,2.66594384765625,-0.3235173523426056,-0.15559278428554535,-1.7180789709091187
1772561527611009800,2.676009765625,-0.20979396998882294,-0.4756922423839569,-1.6856669187545776
1772561527621076000,2.686075927734375,-0.3511633574962616,-1.1989082098007202,-1.8129633665084839
1772561527631143000,2.696142822265625,-0.7180124521255493,-1.8994317054748535,-1.9638093709945679
1772561527641209000,2.706208984375,-1.0440247058868408,-2.179272413253784,-2.1168487071990967
1772561527651276300,2.7162763671875,-1.056934118270874,-2.0615575313568115,-2.3199524879455566
1772561527661342200,2.72634228515625,-0.7122363448143005,-1.7918500900268555,-2.4833199977874756
1772561527671409200,2.7364091796875,-0.4063384532928467,-1.6139379739761353,-2.5669612884521484
1772561527681475000,2.74647509765625,-0.4021431803703308,-1.5671567916870117,-2.4665117263793945
1772561527691541200,2.756541259765625,-0.5501997470855713,-1.736575722694397,-2.1561567783355713
1772561527701608200,2.766608154296875,-0.7435601353645325,-2.089893341064453,-1.6204205751419067
1772561527711674000,2.776674072265625,-0.9689333438873291,-2.6215903759002686,-0.9086441993713379
1772561527721741300,2.7867412109375,-1.1687597036361694,-3.175150156021118,-0.24009382724761963
1772561527731807200,2.79680712890625,-1.3464300632476807,-3.5328049659729004,0.06902274489402771
1772561527741874200,2.806874267578125,-1.3806593418121338,-3.504687786102295,0.030357107520103455
1772561527751940400,2.8169404296875,-1.3157235383987427,-2.9970366954803467,-0.18783754110336304
1772561527762006300,2.82700634765625,-1.3133535385131836,-2.1533615589141846,-0.5052754282951355
1772561527772073200,2.8370732421875,-1.4124314785003662,-1.2443125247955322,-0.8129740953445435
1772561527782139400,2.847139404296875,-1.5308438539505005,-0.5235758423805237,-1.0763133764266968
1772561527792206300,2.857206298828125,-1.6222515106201172,0.06190597638487816,-1.1432548761367798
1772561527802272300,2.867272216796875,-1.6255592107772827,0.6404926180839539,-1.0326913595199585
1772561527812338400,2.87733837890625,-1.5820220708847046,1.268643856048584,-0.7836554050445557
1772561527822405400,2.8874052734375,-1.4419565200805664,1.7492496967315674,-0.5180484652519226
1772561527832471000,2.897470947265625,-1.2438831329345703,1.9418481588363647,-0.3536355793476105
1772561527842538200,2.907538330078125,-0.8743016719818115,1.8508274555206299,-0.13974830508232117
1772561527852604200,2.917604248046875,-0.5157818794250488,1.6333441734313965,0.30290794372558594
1772561527862671000,2.927671142578125,-0.2937626540660858,1.4763063192367554,0.8712009191513062
1772561527872737300,2.9377373046875,-0.03238962963223457,1.6331055164337158,1.5445109605789185
1772561527882803200,2.94780322265625,0.4591255187988281,2.119779348373413,2.218327045440674
1772561527892870100,2.9578701171875,1.0126619338989258,2.4205944538116455,2.486506223678589
1772561527902936300,2.967936279296875,1.462446689605713,2.2348461151123047,2.193483591079712
1772561527913003300,2.978003173828125,1.7355117797851562,2.0041143894195557,1.9229037761688232
1772561527923069200,2.988069091796875,1.8026330471038818,2.074530839920044,2.1053407192230225
1772561527933136100,2.99813623046875,1.738224983215332,2.158499002456665,2.47772216796875
1772561527943202300,3.008202392578125,2.1278772354125977,2.4463748931884766,2.9231717586517334
1772561527953268200,3.018268310546875,2.9871723651885986,2.8409557342529297,3.442856788635254
1772561527963335200,3.028335205078125,3.556490421295166,2.7535016536712646,3.789670467376709
1772561527973401300,3.0384013671875,3.5900838375091553,2.1136088371276855,4.091732025146484
1772561527983468300,3.04846826171875,3.381540298461914,1.271306037902832,4.458558082580566
1772561527993534200,3.0585341796875,2.895707607269287,0.4638981521129608,4.7052226066589355
1772561528003600400,3.068600341796875,1.689292550086975,-0.4282168447971344,4.086736679077148
1772561528013667300,3.078667236328125,0.7599244713783264,-0.7203903794288635,2.655203104019165
1772561528023733200,3.088733154296875,0.7545478343963623,-0.04791053384542465,1.0256121158599854
1772561528033800200,3.09880029296875,0.8217010498046875,0.9277254939079285,-0.692410945892334
1772561528043866000,3.1088662109375,0.9175831079483032,1.5744062662124634,-2.133784532546997
1772561528053933000,3.11893310546875,1.0371856689453125,1.6664091348648071,-3.0208516120910645
1772561528063999200,3.128999267578125,1.0529448986053467,1.402368426322937,-3.2773733139038086
1772561528074065200,3.139065185546875,0.7938262820243835,1.122563123703003,-2.774763584136963
1772561528084132000,3.149132080078125,0.3239296078681946,0.851172924041748,-1.8167693614959717
1772561528094198300,3.1591982421875,-0.022547919303178787,0.20765279233455658,-0.9698279500007629
1772561528104265200,3.16926513671875,-0.08903320133686066,0.057791661471128464,-0.30119046568870544
1772561528114331100,3.1793310546875,0.162246435880661,0.134437695145607,0.1488312929868698
1772561528124397300,3.189397216796875,0.43652138113975525,0.29470860958099365,0.240888774394989
1772561528134464300,3.19946435546875,0.48605698347091675,0.21096283197402954,-0.19809789955615997
1772561528144530200,3.2095302734375,0.22933678328990936,-0.09693320095539093,-1.054427981376648
1772561528154597400,3.219597412109375,-0.2435348927974701,-0.42225751280784607,-2.0057790279388428
1772561528164663300,3.229663330078125,-0.6700981855392456,-0.5358972549438477,-2.742156982421875
1772561528174730200,3.239730224609375,-0.7945799231529236,-0.30759698152542114,-3.011289119720459
1772561528184796400,3.24979638671875,-0.7088141441345215,0.017581922933459282,-2.816772937774658
1772561528194862000,3.259862060546875,-0.47318458557128906,0.26500874757766724,-2.1875743865966797
1772561528204929300,3.26992919921875,-0.23458720743656158,0.20585861802101135,-1.4742494821548462
1772561528214995200,3.2799951171875,-0.0798194631934166,-0.03530765697360039,-0.9454615712165833
1772561528225062100,3.290062255859375,0.0006460828590206802,-0.5190346240997314,-0.774895191192627
1772561528235128000,3.300128173828125,-0.08644834160804749,-1.060910940170288,-0.9462629556655884
1772561528245195300,3.3101953125,-0.3811308443546295,-1.5134861469268799,-1.343709111213684
1772561528255261200,3.32026123046875,-0.7622225284576416,-1.8351110219955444,-1.815546989440918
1772561528265327000,3.3303271484375,-1.0415306091308594,-1.791123867034912,-2.2004711627960205
1772561528275394300,3.340394287109375,-1.154245376586914,-1.3277597427368164,-2.4080851078033447
1772561528285460200,3.350460205078125,-1.1642727851867676,-0.5731636881828308,-2.51216983795166
1772561528295527200,3.360527099609375,-1.1818517446517944,0.1963234394788742,-2.5530200004577637
1772561528305593300,3.37059326171875,-1.211609125137329,0.7656769156455994,-2.495948076248169
1772561528315660300,3.380660400390625,-1.206316351890564,1.0441160202026367,-2.3506457805633545
1772561528325726200,3.390726318359375,-1.2055959701538086,0.9456160664558411,-2.1725645065307617
1772561528335792400,3.40079248046875,-1.217659592628479,0.5251897573471069,-1.9779678583145142
1772561528345859300,3.410859375,-1.261017918586731,-0.07034926116466522,-1.8148926496505737
1772561528355925200,3.42092529296875,-1.3110281229019165,-0.6716889142990112,-1.6712539196014404
1772561528365992200,3.4309921875,-1.3152564764022827,-1.2107795476913452,-1.4944453239440918
1772561528376058400,3.441058349609375,-1.3086296319961548,-1.7472991943359375,-1.3334652185440063
1772561528386124000,3.4511240234375,-1.2421475648880005,-2.241633653640747,-1.1663625240325928
1772561528396191200,3.461191162109375,-1.03072988986969,-2.5013785362243652,-0.9359509348869324
1772561528406257200,3.471257080078125,-0.7974316477775574,-2.3746910095214844,-0.5920345783233643
1772561528416324000,3.481323974609375,-0.6817426085472107,-1.998219609260559,-0.16678819060325623
1772561528426390300,3.491390380859375,-0.6192025542259216,-1.3835904598236084,0.34151071310043335
1772561528436457200,3.501457275390625,-0.4851909279823303,-0.7129255533218384,0.8876848220825195
1772561528446523100,3.511523193359375,-0.3867117464542389,-0.30302193760871887,1.291852355003357
1772561528456589300,3.52158935546875,-0.5090730786323547,-0.15766818821430206,1.5036261081695557
1772561528466656300,3.53165625,-0.7423287034034729,0.026443058624863625,1.616661548614502
1772561528476722200,3.54172216796875,-0.8511343002319336,0.5472726821899414,1.8235992193222046
1772561528486789000,3.5517890625,-0.5603538751602173,1.662917971611023,2.342230796813965
1772561528496855300,3.561855224609375,-0.050926562398672104,2.717512369155884,2.95894193649292
1772561528506922200,3.571922119140625,0.3797031044960022,2.8966524600982666,3.3661985397338867
1772561528516988200,3.58198828125,0.5281575918197632,2.4355247020721436,3.5144758224487305
1772561528527054300,3.592054443359375,0.6534491777420044,2.4001505374908447,4.013793468475342
1772561528537121300,3.602121337890625,0.7861561179161072,2.5162086486816406,4.77252721786499
1772561528547187500,3.6121875,1.192859411239624,2.256476402282715,5.3257317543029785
1772561528557254400,3.62225439453125,2.0725436210632324,1.8163560628890991,5.681413173675537
1772561528567320300,3.6323203125,2.788681983947754,1.4292290210723877,6.054135322570801
1772561528577386200,3.64238623046875,2.90457820892334,0.7757508754730225,6.103085041046143
1772561528587453200,3.652453125,2.592212677001953,-0.2354559302330017,5.624118328094482
1772561528597519000,3.66251904296875,2.164698839187622,-0.9795907735824585,4.986958026885986
1772561528607586000,3.6725859375,1.583876371383667,-1.6382414102554321,3.940113067626953
1772561528617652200,3.68265234375,1.1712793111801147,-2.031134605407715,2.583217144012451
1772561528627719200,3.69271923828125,0.981866717338562,-1.744045615196228,1.401777982711792
1772561528637785000,3.70278515625,0.7410722374916077,-0.8969491720199585,0.38409918546676636
1772561528647851000,3.71285107421875,0.4977509379386902,-0.21571604907512665,-0.5765858292579651
1772561528657918000,3.72291796875,0.35433146357536316,0.16941966116428375,-1.3495675325393677
1772561528667984100,3.732984130859375,0.263193815946579,0.4065171480178833,-1.855745792388916
1772561528678051000,3.743051025390625,0.07389526069164276,0.35694828629493713,-2.147339105606079
1772561528688117000,3.753116943359375,-0.13298015296459198,0.07399939000606537,-2.1082816123962402
1772561528698184000,3.763183837890625,-0.28289589285850525,-0.10672245174646378,-1.664544939994812
1772561528708250000,3.77325,-0.33128419518470764,0.41450557112693787,-0.8753901124000549
1772561528718316000,3.78331591796875,-0.20914682745933533,1.0025163888931274,-0.13031619787216187
1772561528728383000,3.793383056640625,-0.004295945167541504,1.0823071002960205,0.13752803206443787
1772561528738449200,3.80344921875,0.08326452970504761,0.6042028069496155,-0.2194812297821045
1772561528748516000,3.81351611328125,-0.1446051150560379,-0.08003278076648712,-0.9759358763694763
1772561528758581800,3.823581787109375,-0.5093029141426086,-0.4480339586734772,-1.734493613243103
1772561528768649200,3.833649169921875,-0.6903811097145081,-0.3568987250328064,-2.1861307621002197
1772561528778715000,3.84371484375,-0.6855261325836182,0.06547301262617111,-2.269313097000122
1772561528788780800,3.85378076171875,-0.5415405035018921,0.46208053827285767,-2.0346896648406982
1772561528798848000,3.863847900390625,-0.2886757552623749,0.612228512763977,-1.585795521736145
1772561528808914000,3.873913818359375,0.02286776527762413,0.5901229381561279,-1.1074459552764893
1772561528818980900,3.88398095703125,0.2934172451496124,0.481438547372818,-0.8179470300674438
1772561528829047000,3.894047119140625,0.4628525972366333,0.3135842978954315,-0.7741894721984863
1772561528839114000,3.904114013671875,0.38928091526031494,-0.1565065234899521,-0.9121156334877014
1772561528849180000,3.914179931640625,0.18174636363983154,-0.8966327905654907,-1.1616109609603882
1772561528859246000,3.92424609375,0.02791924960911274,-1.6203721761703491,-1.4504011869430542
1772561528869313000,3.93431298828125,0.05061124637722969,-2.118018627166748,-1.74368155002594
1772561528879379000,3.94437890625,0.1362859308719635,-2.340549945831299,-2.0348973274230957
1772561528889446100,3.954446044921875,0.12377174198627472,-2.2119994163513184,-2.2949225902557373
1772561528899512000,3.964511962890625,0.013027917593717575,-1.6503784656524658,-2.4254403114318848
1772561528909578000,3.974577880859375,-0.1361578404903412,-0.8304625749588013,-2.4145421981811523
1772561528919645200,3.984645263671875,-0.2940947413444519,-0.03159734234213829,-2.3039278984069824
1772561528929711000,3.994711181640625,-0.4370044767856598,0.49609071016311646,-2.1937098503112793
1772561528939778000,4.004778076171875,-0.5955858826637268,0.6869490742683411,-2.150193691253662
1772561528949844000,4.014843994140625,-0.8215721249580383,0.5750558376312256,-2.176002264022827
1772561528959911200,4.0249111328125,-0.9483431577682495,0.32383692264556885,-2.249685049057007
1772561528969976800,4.034976806640625,-0.9895398616790771,0.08390608429908752,-2.2366256713867188
1772561528980043000,4.04504296875,-1.024816632270813,-0.19481422007083893,-2.1292941570281982
1772561528990110000,4.05510986328125,-1.0042455196380615,-0.5924566388130188,-1.9245219230651855
1772561529000175900,4.06517578125,-1.0300228595733643,-0.9189045429229736,-1.5549215078353882
1772561529010242800,4.075242919921875,-1.0788004398345947,-1.0425186157226562,-0.9869267344474792
1772561529020309000,4.08530908203125,-1.0940572023391724,-1.1077014207839966,-0.34706422686576843
1772561529030376000,4.0953759765625,-0.989254355430603,-1.109533667564392,0.18533310294151306
1772561529040442000,4.105442138671875,-0.8142473697662354,-1.0044325590133667,0.5324180722236633
1772561529050508000,4.115508056640625,-0.6838496923446655,-0.6217610239982605,0.7321706414222717
1772561529060575000,4.125574951171875,-0.5744885802268982,-0.08165411651134491,0.9350219964981079
1772561529070641200,4.13564111328125,-0.4389435350894928,0.123544842004776,1.3209060430526733
1772561529080708000,4.1457080078125,-0.3804546594619751,0.007903995923697948,1.9605594873428345
1772561529090774000,4.15577392578125,-0.380237877368927,0.1534835696220398,2.912890672683716
1772561529100841000,4.165841064453125,-0.31889063119888306,0.5455772876739502,3.7362194061279297
1772561529110907100,4.1759072265625,-0.21221213042736053,1.0385327339172363,3.961522340774536
1772561529120972800,4.185972900390625,-0.2056564837694168,1.0019416809082031,3.5111794471740723
1772561529131040000,4.1960400390625,-0.14098508656024933,1.1906111240386963,3.3793885707855225
1772561529141106000,4.20610595703125,-0.011715245433151722,1.476561188697815,3.7584989070892334
1772561529151172900,4.2161728515625,-0.08400728553533554,1.3176060914993286,3.981062650680542
1772561529161238800,4.22623876953125,0.3085426688194275,1.2153788805007935,4.173829555511475
1772561529171306000,4.236305908203125,1.0546554327011108,1.071753978729248,4.548453330993652
1772561529181372000,4.246371826171875,1.233445405960083,0.6685562133789062,4.607602596282959
1772561529191438000,4.25643798828125,0.8682656288146973,0.4864708483219147,4.018704414367676
1772561529201505000,4.266505126953125,0.7189142107963562,0.7689829468727112,2.913843870162964
1772561529211571000,4.276571044921875,1.0941786766052246,0.8392821550369263,1.3917986154556274
1772561529221638000,4.286637939453125,1.2380726337432861,0.40175649523735046,-0.08747445791959763
1772561529231704000,4.2967041015625,0.9434450268745422,-0.04615231603384018,-0.9837048649787903
1772561529241771000,4.30677099609375,0.577861487865448,-0.5707721710205078,-1.4688385725021362
1772561529251837000,4.3168369140625,0.4217435121536255,-1.4253933429718018,-1.760197401046753
1772561529261903000,4.326903076171875,0.4500278830528259,-2.457897186279297,-1.9101048707962036
1772561529271970000,4.336969970703125,0.3395439684391022,-3.2131357192993164,-1.9845061302185059
1772561529282036000,4.347035888671875,-0.09205562621355057,-3.0684096813201904,-1.9975465536117554
1772561529292103200,4.357103271484375,-0.571892261505127,-2.256096839904785,-2.0118508338928223
1772561529302169000,4.367169189453125,-0.8878259658813477,-1.087592363357544,-2.044912576675415
1772561529312236000,4.377236083984375,-0.8801347613334656,0.36067163944244385,-1.8123871088027954
1772561529322302200,4.38730224609375,-0.6158469319343567,1.534308910369873,-1.4234704971313477
1772561529332368000,4.397367919921875,-0.33989205956459045,2.017832040786743,-1.2227054834365845
1772561529342434800,4.407434814453125,-0.17607462406158447,1.6902401447296143,-1.4018802642822266
1772561529352501000,4.4175009765625,-0.264427125453949,0.7766510248184204,-1.940794825553894
1772561529362568000,4.42756787109375,-0.5165949463844299,-0.2237260341644287,-2.55397891998291
1772561529372633900,4.4376337890625,-0.7227227687835693,-0.6921294927597046,-2.8842599391937256
1772561529382700800,4.44770068359375,-0.7017783522605896,-0.5430928468704224,-2.8511316776275635
1772561529392767000,4.45776708984375,-0.4249795079231262,-0.13153965771198273,-2.509446620941162
1772561529402833000,4.4678330078125,-0.056652359664440155,0.5033976435661316,-1.929652452468872
1772561529412900000,4.477900146484375,0.30995678901672363,0.8845018148422241,-1.4040440320968628
1772561529422966000,4.487966064453125,0.5413734912872314,0.4910152554512024,-1.1592329740524292
1772561529433033000,4.498032958984375,0.5206530690193176,-0.5995774269104004,-1.2407203912734985
1772561529443099100,4.50809912109375,0.25166580080986023,-1.981426477432251,-1.504733681678772
1772561529453166000,4.518166015625,-0.1489838808774948,-3.0884642601013184,-1.7245112657546997
1772561529463232000,4.52823193359375,-0.44008177518844604,-3.5288703441619873,-1.7532439231872559
1772561529473298200,4.538298095703125,-0.6295393109321594,-3.1981005668640137,-1.7137870788574219
1772561529483365000,4.548365234375,-0.8910255432128906,-2.3671834468841553,-1.7236119508743286
1772561529493431000,4.55843115234375,-1.2759521007537842,-1.3082616329193115,-1.7495695352554321
1772561529503498000,4.568498046875,-1.7219722270965576,-0.41324830055236816,-1.7646960020065308
1772561529513564200,4.578564208984375,-2.1609599590301514,-0.028965339064598083,-1.633611798286438
1772561529523631000,4.588631103515625,-2.6052122116088867,-0.5117602348327637,-1.4588391780853271
1772561529533696800,4.59869677734375,-2.909787654876709,-1.3748528957366943,-1.290732979774475
1772561529543763000,4.608762939453125,-2.887796640396118,-2.1145312786102295,-1.2776837348937988
1772561529553830000,4.618829833984375,-2.6397061347961426,-2.37609601020813,-1.5183205604553223
1772561529563896000,4.62889599609375,-2.3669300079345703,-2.0981976985931396,-1.9098560810089111
1772561529573963000,4.638962890625,-2.2984182834625244,-1.522745966911316,-2.2174620628356934
1772561529584029000,4.64902880859375,-2.256823778152466,-0.6601731181144714,-2.2463624477386475
1772561529594095900,4.659095947265625,-1.9895986318588257,0.30338171124458313,-2.010761260986328
1772561529604162000,4.669162109375,-1.5731260776519775,1.0941804647445679,-1.50630521774292
1772561529614228000,4.67922802734375,-1.1825792789459229,1.5300853252410889,-0.8780441880226135
1772561529624295000,4.689294921875,-0.8939880132675171,1.4683372974395752,-0.2997022867202759
1772561529634361000,4.699361083984375,-0.7152417302131653,1.2263736724853516,0.2836514115333557
1772561529644428000,4.709427978515625,-0.36072516441345215,1.1570942401885986,1.0118403434753418
1772561529654494000,4.719493896484375,0.12655554711818695,1.2407177686691284,1.7320877313613892
1772561529664561200,4.72956103515625,0.5787203311920166,1.4369101524353027,2.3945324420928955
1772561529674627000,4.739626953125,1.0030585527420044,1.8166476488113403,3.0657873153686523
1772561529684693000,4.74969287109375,1.2715712785720825,2.3557937145233154,3.6378650665283203
1772561529694760200,4.75976025390625,1.3491520881652832,2.77665376663208,4.0115580558776855
1772561529704825900,4.769825927734375,1.2474627494812012,2.4081153869628906,3.886489152908325
1772561529714893000,4.77989306640625,0.995229959487915,1.4877147674560547,3.350064516067505
1772561529724959000,4.789958984375,0.8716848492622375,1.2921055555343628,3.1484014987945557
1772561529735026000,4.80002587890625,1.0220698118209839,2.328861951828003,3.678618907928467
1772561529745091800,4.810091796875,1.0412440299987793,3.237802743911743,4.040778636932373
1772561529755158000,4.820157958984375,1.4445478916168213,3.9902169704437256,4.0200066566467285
1772561529765225000,4.830224853515625,2.219052791595459,4.767314434051514,4.250115394592285
1772561529775291000,4.840290771484375,2.949453115463257,5.191461563110352,4.9227294921875
1772561529785358000,4.850358154296875,3.4046401977539062,4.680903911590576,5.874032020568848
1772561529795424000,4.860424072265625,3.5417301654815674,3.4483530521392822,6.9665703773498535
1772561529805490000,4.870489990234375,3.1993906497955322,1.8815014362335205,7.713134765625
1772561529815557000,4.88055712890625,2.5917322635650635,0.5964287519454956,7.672313213348389
1772561529825623000,4.890623046875,1.811387062072754,0.4008083939552307,6.8407745361328125
1772561529835690000,4.90068994140625,1.512198567390442,1.3478037118911743,5.406660079956055
1772561529845756200,4.910756103515625,1.482394814491272,2.6196603775024414,3.7109363079071045
1772561529855823000,4.920822998046875,1.1924623250961304,3.3093769550323486,2.000309705734253
1772561529865889000,4.930888916015625,0.9945039749145508,2.8740553855895996,0.5791685581207275
1772561529875955200,4.940955078125,0.9733771085739136,1.7887063026428223,-0.35482680797576904
1772561529886022100,4.951022216796875,0.8845008015632629,0.5045771598815918,-0.806800901889801
1772561529896087800,4.961087890625,0.5607980489730835,-0.5605764985084534,-1.0357710123062134
1772561529906155000,4.971155029296875,0.009388442151248455,-1.1505420207977295,-1.2410022020339966
1772561529916221000,4.981220947265625,-0.6773717999458313,-1.2108067274093628,-1.4696260690689087
1772561529926288000,4.991287841796875,-1.29940664768219,-0.7624726295471191,-1.7307963371276855
1772561529936354000,5.00135400390625,-1.6004652976989746,0.10100304335355759,-1.8282281160354614
1772561529946421000,5.0114208984375,-1.5027201175689697,0.7993230223655701,-1.7811447381973267
1772561529956487000,5.02148681640625,-1.2960821390151978,1.0205824375152588,-1.7732529640197754
1772561529966553000,5.031552978515625,-1.2046998739242554,0.9319742918014526,-1.9302066564559937
1772561529976620000,5.0416201171875,-1.226993441581726,0.5328436493873596,-2.365288734436035
1772561529986686000,5.05168603515625,-1.3371005058288574,0.02839941717684269,-2.971855878829956
1772561529996753000,5.0617529296875,-1.5388388633728027,-0.4391355514526367,-3.5688984394073486
1772561530006819000,5.071819091796875,-1.6630785465240479,-0.7007181644439697,-3.902435302734375
1772561530016886000,5.081885986328125,-1.5163943767547607,-0.7140411734580994,-3.776850461959839
1772561530026952000,5.091951904296875,-1.2978342771530151,-0.5966029167175293,-3.333282470703125
1772561530037018000,5.10201806640625,-1.057255744934082,-0.421967476606369,-2.788524866104126
1772561530047085000,5.1120849609375,-0.8597964644432068,-0.5230408310890198,-2.4676191806793213
1772561530057151000,5.12215087890625,-0.7492223381996155,-0.9417107701301575,-2.4626803398132324
1772561530067218200,5.13221826171875,-0.7822495102882385,-1.7625492811203003,-2.7561378479003906
1772561530077284000,5.1422841796875,-0.9586184024810791,-2.8918819427490234,-3.2550182342529297
1772561530087351000,5.15235107421875,-1.0909322500228882,-3.930727005004883,-3.7854831218719482
1772561530097417000,5.1624169921875,-1.0885956287384033,-4.366158485412598,-4.131137847900391
1772561530107483000,5.17248291015625,-0.859172523021698,-3.8707709312438965,-4.135815143585205
1772561530117549800,5.1825498046875,-0.6065450310707092,-2.78159499168396,-3.7773687839508057
1772561530127616000,5.192615966796875,-0.5936351418495178,-1.7347980737686157,-3.1528992652893066
1772561530137683000,5.202682861328125,-1.026231288909912,-1.252930760383606,-2.589975357055664
1772561530147748900,5.212748779296875,-1.5626835823059082,-1.1195029020309448,-2.2236368656158447
1772561530157815800,5.22281591796875,-1.8585084676742554,-0.92433100938797,-2.1178576946258545
1772561530167882000,5.232882080078125,-1.717625379562378,-0.9140229821205139,-2.4034790992736816
1772561530177948000,5.242947998046875,-1.3018990755081177,-1.0484212636947632,-2.8472180366516113
1772561530188015000,5.25301513671875,-1.0195395946502686,-1.2012048959732056,-3.2002463340759277
1772561530198081000,5.2630810546875,-1.0634952783584595,-1.432105541229248,-3.307629108428955
1772561530208148000,5.27314794921875,-1.3366022109985352,-1.5788179636001587,-3.1730220317840576
1772561530218214100,5.283214111328125,-1.4477100372314453,-1.4950193166732788,-2.805656671524048
1772561530228281000,5.293281005859375,-1.255245566368103,-1.210206151008606,-2.2538046836853027
1772561530238347000,5.303346923828125,-0.9559859037399292,-0.7553867101669312,-1.568989634513855
1772561530248413200,5.3134130859375,-0.7073419690132141,-0.2136467695236206,-0.8950842022895813
1772561530258480000,5.323480224609375,-0.49293380975723267,0.4378708302974701,-0.3102111220359802
1772561530268546000,5.333546142578125,-0.25672420859336853,0.7994710803031921,0.11273480206727982
1772561530278613000,5.343613037109375,0.008625445887446404,0.743360698223114,0.49561402201652527
1772561530288679000,5.353678955078125,0.17846748232841492,0.6224465370178223,1.089730143547058
1772561530298746000,5.36374609375,0.2526610195636749,0.7365147471427917,1.9959721565246582
1772561530308811800,5.373811767578125,0.477925568819046,1.081985592842102,3.0254836082458496
1772561530318878000,5.3838779296875,0.9395602941513062,1.1991181373596191,3.9153242111206055
1772561530328945000,5.39394482421875,1.4672291278839111,0.7392657995223999,4.491222858428955
1772561530339011000,5.404010986328125,1.7094883918762207,-0.1861317902803421,4.759141445159912
1772561530349078000,5.414078125,1.5840545892715454,-0.8136364817619324,4.956439018249512
1772561530359144000,5.42414404296875,1.3757458925247192,-0.9728125333786011,4.896318435668945
1772561530369211000,5.4342109375,1.369267463684082,-0.7124184966087341,4.635150909423828
1772561530379277000,5.444277099609375,1.7337617874145508,0.3145805895328522,4.704221725463867
1772561530389343000,5.454343017578125,2.1801226139068604,1.2325596809387207,5.0715651512146
1772561530399410000,5.464409912109375,2.4172751903533936,1.552865743637085,5.5261077880859375
1772561530409476000,5.47447607421875,2.4474689960479736,1.1679601669311523,5.849774360656738
1772561530419543000,5.48454296875,1.9764032363891602,0.7223097085952759,5.97458028793335
1772561530429609000,5.49460888671875,1.1468572616577148,0.20559149980545044,5.7650580406188965
1772561530439676200,5.50467626953125,0.4422197639942169,-0.18950814008712769,5.4684648513793945
1772561530449742000,5.5147421875,0.028836175799369812,-0.3154740631580353,5.048019886016846
1772561530459808000,5.52480810546875,-0.42708128690719604,-0.5666629076004028,4.257726192474365
1772561530469875200,5.534875244140625,-0.8908771872520447,-0.8357430696487427,3.216500997543335
1772561530479940900,5.54494091796875,-1.0626798868179321,-1.0454005002975464,2.0421767234802246
1772561530490007800,5.5550078125,-0.9243507385253906,-1.2992916107177734,0.8898212313652039
1772561530500074000,5.565073974609375,-0.7736871838569641,-1.4927353858947754,-0.006104497704654932
1772561530510141000,5.575140869140625,-0.8092046976089478,-1.615831732749939,-0.5461416244506836
1772561530520206800,5.585206787109375,-1.0446598529815674,-1.3876640796661377,-0.7998756170272827
1772561530530273800,5.595273681640625,-1.4774192571640015,-0.6244353652000427,-0.7629296183586121
1772561530540340000,5.605340087890625,-1.8498018980026245,0.5159546732902527,-0.49861380457878113
1772561530550406000,5.615406005859375,-1.9247386455535889,1.341192364692688,-0.35143953561782837
1772561530560473000,5.62547314453125,-1.770445466041565,1.6443605422973633,-0.47003674507141113
1772561530570539000,5.6355390625,-1.4596458673477173,1.4086276292800903,-0.8403556942939758
1772561530580606000,5.64560595703125,-1.1668230295181274,0.8713240027427673,-1.31523859500885
1772561530590672100,5.655672119140625,-0.989854097366333,0.23770949244499207,-1.8576093912124634
1772561530600739000,5.665739013671875,-0.9975610375404358,-0.24738635122776031,-2.5002498626708984
1772561530610805000,5.675804931640625,-1.1170051097869873,-0.3752564489841461,-3.127197504043579
1772561530620871200,5.68587109375,-1.1338459253311157,-0.020002203062176704,-3.575896739959717
1772561530630938000,5.695938232421875,-0.864861011505127,0.5150404572486877,-3.8068792819976807
1772561530641004000,5.706004150390625,-0.41132521629333496,0.819433867931366,-3.87261962890625
1772561530651070700,5.71607080078125,0.1048065721988678,0.6553876996040344,-3.702359199523926
1772561530661137000,5.726136962890625,0.4828811585903168,-0.30117103457450867,-3.4058585166931152
1772561530671203800,5.736203857421875,0.4235589802265167,-1.896714210510254,-3.170231819152832
1772561530681269800,5.746269775390625,0.08429490774869919,-3.272825241088867,-2.896470069885254
1772561530691336000,5.7563359375,-0.2597285211086273,-3.97773814201355,-2.7175731658935547
1772561530701403000,5.76640283203125,-0.40986767411231995,-4.326982498168945,-2.9536004066467285
1772561530711469000,5.776468994140625,-0.3022051453590393,-4.700523853302002,-3.7264461517333984
1772561530721536000,5.786535888671875,-0.1701541543006897,-4.661037921905518,-4.692372798919678
1772561530731602000,5.796601806640625,-0.2729652225971222,-3.4903998374938965,-5.23517370223999
1772561530741668900,5.8066689453125,-0.5959046483039856,-1.5882648229599,-5.1397905349731445
1772561530751735000,5.816735107421875,-1.0427247285842896,0.3782828450202942,-4.562414646148682
1772561530761801000,5.826801025390625,-1.3339276313781738,1.6342586278915405,-3.832266092300415
1772561530771868000,5.836867919921875,-1.292820930480957,1.9031956195831299,-3.0553810596466064
1772561530781934000,5.84693408203125,-1.1461976766586304,1.2518614530563354,-2.3415403366088867
1772561530792001000,5.8570009765625,-1.0044844150543213,0.09937266260385513,-1.6469203233718872
1772561530802066700,5.867066650390625,-0.8597069978713989,-1.1704825162887573,-0.9582314491271973
1772561530812134000,5.8771337890625,-0.6074308156967163,-2.224813222885132,-0.2894115746021271
1772561530822199800,5.88719970703125,-0.27378761768341064,-2.8827831745147705,0.2751447558403015
1772561530832265700,5.897265625,-0.08002399653196335,-2.902787208557129,0.654826283454895
1772561530842333000,5.9073330078125,0.009843309409916401,-2.211179256439209,0.8528232574462891
1772561530852398800,5.91739892578125,0.18421804904937744,-1.2459617853164673,0.7999768257141113
1772561530862465800,5.9274658203125,0.5770787596702576,-0.30745208263397217,0.5472492575645447
1772561530872532000,5.937531982421875,1.0425783395767212,0.3993151783943176,0.19766460359096527
1772561530882599000,5.947598876953125,1.3416755199432373,0.8164200186729431,-0.0031180288642644882
1772561530892664800,5.957664794921875,1.242169976234436,1.1012001037597656,0.18747881054878235
1772561530902731000,5.96773095703125,0.8503446578979492,1.3402811288833618,0.8541567325592041
1772561530912798000,5.9777978515625,0.23264841735363007,1.6134295463562012,2.006765604019165
1772561530922863900,5.98786376953125,-0.2600094676017761,2.1922872066497803,3.344646453857422
1772561530932931000,5.99793115234375,-0.3747120797634125,2.825824022293091,4.050230503082275
1772561530942997000,6.0079970703125,-0.26407507061958313,3.009293556213379,3.806617498397827
1772561530953064000,6.01806396484375,-0.20694385468959808,2.3486673831939697,2.937396287918091
1772561530963130000,6.028130126953125,-0.11654605716466904,2.067945957183838,2.297875165939331
1772561530973197000,6.038197021484375,-0.1295745074748993,2.53816819190979,2.051337957382202
1772561530983263000,6.048262939453125,-0.10683803260326385,4.132819175720215,2.3493525981903076
1772561530993329000,6.058328857421875,0.793118417263031,6.039314270019531,3.0359714031219482
1772561531003395800,6.068395751953125,2.1799774169921875,6.729406356811523,3.499227285385132
1772561531013461800,6.078461669921875,3.183908700942993,5.810306072235107,3.6171133518218994
1772561531023528700,6.08852880859375,3.210390567779541,4.339442729949951,3.8297665119171143
1772561531033595000,6.098594970703125,2.6737992763519287,3.325303554534912,4.316758155822754
1772561531043661800,6.108661865234375,2.1717023849487305,1.9486559629440308,4.043003559112549
1772561531053727700,6.118727783203125,2.1258063316345215,0.9649543166160583,3.563408374786377
1772561531063794000,6.1287939453125,2.2337305545806885,0.5061438679695129,3.181612968444824
1772561531073860900,6.13886083984375,2.2647719383239746,0.4341849982738495,2.8773608207702637
1772561531083927000,6.148927001953125,2.527550220489502,0.11636708676815033,2.5530011653900146
1772561531093994000,6.158993896484375,2.8049986362457275,-0.47256675362586975,2.3177828788757324
1772561531104060000,6.169059814453125,2.6299781799316406,-1.0218253135681152,2.151413679122925
1772561531114126800,6.179126953125,1.8291103839874268,-0.9970324039459229,1.8406096696853638
1772561531124193000,6.189193115234375,0.8373191356658936,-0.40100786089897156,1.1653037071228027
1772561531134259000,6.199259033203125,0.18527930974960327,0.325991690158844,0.1003044992685318
1772561531144326000,6.209325927734375,0.023443540558218956,1.393707036972046,-0.9672489166259766
1772561531154392000,6.21939208984375,0.13317935168743134,2.386524200439453,-1.8258129358291626
1772561531164459000,6.229458984375,0.21880371868610382,2.832122325897217,-2.4286258220672607
1772561531174525000,6.23952490234375,0.2001591920852661,2.4730265140533447,-2.8212332725524902
1772561531184592100,6.249592041015625,0.09673799574375153,1.6991654634475708,-3.126217842102051
1772561531194657800,6.25965771484375,0.00019441076437942684,0.9044145345687866,-3.4232053756713867
1772561531204723700,6.2697236328125,-0.29191601276397705,0.08071215450763702,-3.5747363567352295
1772561531214791000,6.279791015625,-0.668861985206604,-0.6248952746391296,-3.4474422931671143
1772561531224856800,6.28985693359375,-0.8044573068618774,-1.0498641729354858,-3.167457342147827
1772561531234923800,6.299923828125,-0.7089294791221619,-1.4247623682022095,-2.984814405441284
1772561531244990000,6.309989990234375,-0.4510563910007477,-1.8139368295669556,-2.9429426193237305
1772561531255057000,6.320056884765625,-0.06658808141946793,-2.1869256496429443,-2.981029748916626
1772561531265122800,6.330122802734375,0.3308436870574951,-2.525507926940918,-3.1166746616363525
1772561531275189800,6.340189697265625,0.45678699016571045,-2.6993660926818848,-3.3099911212921143
1772561531285256000,6.350255859375,0.3037708103656769,-2.636991262435913,-3.4628348350524902
1772561531295321900,6.36032177734375,0.1767026036977768,-2.4050116539001465,-3.52873158454895
1772561531305388800,6.370388916015625,0.08095743507146835,-2.1036860942840576,-3.5714714527130127
1772561531315455000,6.380455078125,-0.06715426594018936,-1.4262876510620117,-3.500088930130005
1772561531325522000,6.39052197265625,-0.16423660516738892,-0.34189102053642273,-3.2213919162750244
1772561531335588000,6.400588134765625,-0.25876978039741516,0.9123534560203552,-2.8516035079956055
1772561531345655000,6.410655029296875,-0.3583296537399292,1.9760295152664185,-2.512211799621582
1772561531355721000,6.420720947265625,-0.3401429355144501,2.5455076694488525,-2.2135047912597656
1772561531365787000,6.430786865234375,-0.28342610597610474,2.4596667289733887,-1.913724422454834
1772561531375854000,6.44085400390625,-0.42088252305984497,1.781191349029541,-1.5489879846572876
1772561531385919700,6.450919677734375,-0.6228148341178894,0.5511864423751831,-1.2960257530212402
1772561531395986700,6.460986572265625,-0.840267539024353,-0.6270910501480103,-1.2951892614364624
1772561531406052900,6.471052978515625,-1.0265116691589355,-1.314050316810608,-1.479843020439148
1772561531416119800,6.481119873046875,-1.0618503093719482,-1.4535187482833862,-1.671440601348877
1772561531426185700,6.491185791015625,-1.0711475610733032,-1.0544029474258423,-1.6906169652938843
1772561531436252000,6.501251953125,-1.022140622138977,-0.17910343408584595,-1.377277135848999
1772561531446318800,6.51131884765625,-0.7179133892059326,0.675585925579071,-0.8379005193710327
1772561531456385000,6.521385009765625,-0.17153021693229675,1.1361570358276367,-0.1723848134279251
1772561531466452000,6.531451904296875,0.4334971010684967,1.123458981513977,0.5873185992240906
1772561531476518000,6.541517822265625,0.8092760443687439,0.6093760132789612,1.1810245513916016
1772561531486584800,6.551584716796875,0.8468878865242004,-0.2629016637802124,1.6117162704467773
1772561531496651000,6.561651123046875,0.6413589715957642,-0.9658132195472717,2.1170785427093506
1772561531506718000,6.571718017578125,0.3475838005542755,-1.1336967945098877,2.7012503147125244
1772561531516783900,6.581783935546875,0.22366158664226532,-0.2394770383834839,3.4880213737487793
1772561531526850000,6.59185009765625,0.3735823631286621,1.064343810081482,3.974721670150757
1772561531536917000,6.6019169921875,0.6141603589057922,1.9457392692565918,3.714226007461548
1772561531546983000,6.61198291015625,0.6963489651679993,2.2360942363739014,2.985797166824341
1772561531557050000,6.622050048828125,0.34939953684806824,2.0010337829589844,2.297316789627075
1772561531567116000,6.632115966796875,-0.22416917979717255,1.6524314880371094,2.0604751110076904
1772561531577183000,6.642182861328125,-0.8619043827056885,0.8458210229873657,1.6971081495285034
1772561531587249000,6.652248779296875,-0.77541583776474,0.4941394031047821,1.17857825756073
1772561531597314800,6.662314697265625,-0.22168178856372833,0.5525017976760864,0.785509467124939
1772561531607381800,6.6723818359375,0.26873692870140076,0.9262452721595764,0.5480151772499084
1772561531617448000,6.682447998046875,0.6953076720237732,1.2841949462890625,0.3284391462802887
1772561531627515000,6.692514892578125,1.1121551990509033,1.2461010217666626,0.11534550040960312
1772561531637580800,6.702580810546875,1.382036805152893,0.4990212619304657,-0.17665892839431763
1772561531647647500,6.7126474609375,1.3961411714553833,-0.7029927372932434,-0.31233420968055725
1772561531657713400,6.72271337890625,1.1650376319885254,-1.6108894348144531,-0.047274306416511536
1772561531667779300,6.732779296875,0.7469682097434998,-2.095196008682251,0.30836448073387146
1772561531677846500,6.742846435546875,0.36079415678977966,-2.3179919719696045,0.3362467288970947
1772561531687912400,6.752912353515625,-0.02033909410238266,-2.3427224159240723,-0.10881942510604858
1772561531697979400,6.7629794921875,-0.37900403141975403,-1.8532218933105469,-0.7486380338668823
1772561531708045600,6.773045654296875,-0.5474042296409607,-1.0775517225265503,-1.269586443901062
1772561531718112500,6.783112548828125,-0.4475812315940857,-0.2592872381210327,-1.3514248132705688
1772561531728178400,6.793178466796875,-0.2699739634990692,0.4008169174194336,-0.8252017498016357
1772561531738245400,6.803245361328125,-0.1473284661769867,1.0276768207550049,0.12657073140144348
1772561531748311600,6.8133115234375,-0.05264776572585106,1.4657793045043945,0.9239253997802734
1772561531758377500,6.82337744140625,0.0950375646352768,1.4392443895339966,1.0397790670394897
1772561531768444400,6.8334443359375,0.2224264144897461,0.8130886554718018,0.3551921844482422
1772561531778510600,6.843510498046875,0.22148577868938446,0.014066550880670547,-0.7655932903289795
1772561531788577500,6.85357763671875,0.20430439710617065,-0.39507433772087097,-1.6807667016983032
1772561531798643700,6.863643798828125,0.20997826755046844,-0.2658122479915619,-2.0413334369659424
1772561531808710700,6.873710693359375,0.31305351853370667,0.2557747960090637,-1.9121925830841064
1772561531818776600,6.883776611328125,0.6086300611495972,0.7726176381111145,-1.4950623512268066
1772561531828843500,6.893843505859375,1.0264898538589478,0.998455822467804,-1.0320372581481934
1772561531838909400,6.903909423828125,1.3079808950424194,0.9314456582069397,-0.7038617730140686
1772561531848975400,6.913975341796875,1.3361284732818604,0.6949939727783203,-0.5869537591934204
1772561531859042300,6.924042236328125,1.0801382064819336,0.41637590527534485,-0.7239851355552673
1772561531869108500,6.9341083984375,0.7279300689697266,0.09212619811296463,-1.1354011297225952
1772561531879175400,6.944175537109375,0.45381730794906616,-0.13353781402111053,-1.776759386062622
1772561531889241300,6.954241455078125,0.26331764459609985,-0.18978510797023773,-2.5355706214904785
1772561531899308500,6.96430859375,0.15587161481380463,-0.1304112672805786,-3.226004123687744
1772561531909374500,6.97437451171875,0.060442306101322174,-0.1654110699892044,-3.7056362628936768
1772561531919440400,6.9844404296875,-0.0852469876408577,-0.32396236062049866,-3.868295192718506
1772561531929507600,6.994507568359375,-0.2897508442401886,-0.5189869999885559,-3.677790641784668
1772561531939573500,7.004573486328125,-0.5343227982521057,-0.6771246790885925,-3.2389214038848877
1772561531949640400,7.014640380859375,-0.7141641974449158,-0.8054858446121216,-2.721008539199829
1772561531959706600,7.02470654296875,-0.7482798099517822,-0.8383551239967346,-2.1705257892608643
1772561531969773600,7.034773681640625,-0.6626821160316467,-0.8133205771446228,-1.592890739440918
1772561531979839500,7.044839599609375,-0.5618087649345398,-0.8661180138587952,-1.1054147481918335
1772561531989906400,7.054906494140625,-0.4421771466732025,-1.0220588445663452,-0.7691728472709656
1772561531999972600,7.06497265625,-0.4059333801269531,-1.188244104385376,-0.5420137047767639
1772561532010038300,7.075038330078125,-0.48076343536376953,-1.2915284633636475,-0.44297316670417786
1772561532020105700,7.085105712890625,-0.6023367047309875,-1.3010039329528809,-0.4261859357357025
1772561532030171400,7.09517138671875,-0.5932177901268005,-1.0091114044189453,-0.2462470531463623
1772561532040238300,7.10523828125,-0.3754383325576782,-0.5766105651855469,0.18677493929862976
1772561532050304500,7.115304443359375,-0.08839617669582367,-0.18040865659713745,0.7659645676612854
1772561532060371500,7.125371337890625,0.13171061873435974,0.143473282456398,1.5481735467910767
1772561532070437400,7.135437255859375,0.21647638082504272,0.30144399404525757,2.517310857772827
1772561532080503600,7.145503662109375,0.22339899837970734,0.5546754598617554,3.6223762035369873
1772561532090570500,7.155570556640625,0.2461645007133484,0.8777259588241577,4.663329601287842
1772561532100636400,7.165636474609375,0.2592259645462036,1.1910545825958252,5.4664530754089355
1772561532110703400,7.175703369140625,0.2928004562854767,1.192504644393921,5.934772491455078
1772561532120769500,7.18576953125,0.283515065908432,0.7154039144515991,5.8261847496032715
1772561532130836500,7.19583642578125,-0.06257256865501404,-0.5473275184631348,4.8303985595703125
1772561532140902400,7.20590234375,-0.6119949221611023,-0.9970845580101013,3.7979226112365723
1772561532150969600,7.215969482421875,-0.9736067056655884,0.42136216163635254,3.3446755409240723
1772561532161035500,7.226035400390625,-1.1481717824935913,2.0459675788879395,3.1095757484436035
1772561532171101700,7.236101806640625,-0.6223647594451904,2.4662392139434814,2.793748140335083
1772561532181168600,7.246168701171875,0.15748895704746246,2.3088717460632324,2.962088108062744
1772561532191234600,7.256234619140625,0.6192501783370972,1.8460795879364014,3.8415865898132324
1772561532201301500,7.266301513671875,0.32009652256965637,0.649670422077179,4.713632583618164
1772561532211367700,7.27636767578125,-0.31382185220718384,-0.34009525179862976,5.324254512786865
1772561532221434600,7.2864345703125,-0.6641942262649536,-0.2884666919708252,5.279472827911377
1772561532231500300,7.296500244140625,-0.13428562879562378,-0.11404933780431747,3.8000926971435547
1772561532241566500,7.30656640625,0.49450162053108215,-0.1507873833179474,1.5236506462097168
1772561532251633400,7.31663330078125,0.6208507418632507,0.006683202926069498,-0.29126593470573425
1772561532261699300,7.32669921875,0.6022195219993591,0.3058680295944214,-1.0719023942947388
1772561532271766500,7.3367666015625,0.6407583951950073,0.2149980515241623,-1.0914185047149658
1772561532281832400,7.34683251953125,0.6877539157867432,-0.4843765199184418,-0.8196357488632202
1772561532291899400,7.3568994140625,0.7588410973548889,-1.4242223501205444,-0.48640984296798706
1772561532301965600,7.366965576171875,0.7826727032661438,-2.0927820205688477,-0.2620086967945099
1772561532312032500,7.377032470703125,0.78968346118927,-2.1787755489349365,-0.1474139541387558
1772561532322098400,7.387098388671875,0.9144093990325928,-1.6581170558929443,-0.06968400627374649
1772561532332164600,7.39716455078125,1.1160293817520142,-0.632488489151001,-0.046727292239665985
1772561532342231600,7.4072314453125,1.2546894550323486,0.47540515661239624,-0.21978029608726501
1772561532352297500,7.41729736328125,1.164929747581482,1.2572823762893677,-0.6544960737228394
1772561532362364400,7.427364501953125,0.8365774750709534,1.482923984527588,-1.272273302078247
1772561532372430600,7.4374306640625,0.4095744788646698,1.2466256618499756,-1.9899879693984985
1772561532382497500,7.44749755859375,-0.01865064911544323,0.7366703152656555,-2.725236654281616
1772561532392563500,7.4575634765625,-0.2471916824579239,0.17259973287582397,-3.348741054534912
1772561532402629400,7.46762939453125,-0.28190386295318604,-0.3517273962497711,-3.85775089263916
1772561532412696600,7.477696533203125,-0.2394631803035736,-0.6067405343055725,-4.12329626083374
1772561532422762500,7.487762451171875,-0.14370177686214447,-0.5210123062133789,-4.02409553527832
1772561532432829400,7.497829345703125,-0.06445861607789993,-0.24821007251739502,-3.5996809005737305
1772561532442895400,7.507895263671875,0.03235527500510216,-0.10720554739236832,-3.059227466583252
1772561532452962300,7.51796240234375,0.03068174608051777,-0.3212669789791107,-2.64621901512146
1772561532463028500,7.528028564453125,-0.1514020413160324,-0.8345880508422852,-2.518421173095703
1772561532473095400,7.538095458984375,-0.45915400981903076,-1.4110324382781982,-2.5837976932525635
1772561532483161300,7.548161376953125,-0.743209183216095,-1.7451918125152588,-2.739820718765259
1772561532493227500,7.5582275390625,-0.9044401049613953,-1.7764836549758911,-2.9659500122070312
1772561532503294500,7.56829443359375,-1.0345640182495117,-1.463425874710083,-3.2643589973449707
1772561532513360400,7.5783603515625,-1.167544960975647,-0.8896971344947815,-3.569401741027832
1772561532523427600,7.588427490234375,-1.3323853015899658,-0.2790750563144684,-3.8155932426452637
1772561532533493500,7.598493408203125,-1.4365754127502441,0.11058776080608368,-3.87546706199646
1772561532543560400,7.608560546875,-1.448933482170105,0.23094479739665985,-3.605536699295044
1772561532553626600,7.618626708984375,-1.501210331916809,0.09209556877613068,-2.998858690261841
1772561532563693600,7.628693603515625,-1.6148875951766968,-0.027583690360188484,-2.1829943656921387
1772561532573759500,7.638759521484375,-1.6171190738677979,-0.1534915566444397,-1.3938007354736328
1772561532583825700,7.64882568359375,-1.370935082435608,-0.26359009742736816,-0.723644495010376
1772561532593892600,7.658892578125,-0.9692832827568054,-0.4597305655479431,-0.21409417688846588
1772561532603958500,7.66895849609375,-0.7322896718978882,-0.8367987871170044,0.15105928480625153
1772561532614025500,7.679025390625,-0.7668071389198303,-1.3015326261520386,0.4145428538322449
1772561532624091400,7.68909130859375,-0.8802703619003296,-1.7065086364746094,0.5440537333488464
1772561532634158300,7.699158447265625,-0.8534547090530396,-1.9344959259033203,0.5480402112007141
1772561532644224500,7.709224609375,-0.6373381018638611,-1.4811221361160278,0.662513256072998
1772561532654291700,7.719291748046875,-0.3556728959083557,-0.43332400918006897,0.9454432129859924
1772561532664357600,7.729357666015625,-0.1726950705051422,0.8202075362205505,1.2875840663909912
1772561532674423800,7.739423828125,-0.011361044831573963,1.9368598461151123,1.6280896663665771
1772561532684490800,7.74949072265625,0.14943982660770416,3.011359453201294,2.0783917903900146
1772561532694556700,7.759556640625,0.30960047245025635,3.8795547485351562,2.5629091262817383
1772561532704623600,7.76962353515625,0.5337595343589783,4.314389705657959,3.0039587020874023
1772561532714689800,7.779689697265625,0.5969403386116028,3.965306282043457,3.1785428524017334
1772561532724756700,7.7897568359375,0.4450445771217346,3.3067657947540283,3.3528897762298584
1772561532734822700,7.79982275390625,0.5695846676826477,3.410792827606201,4.145120143890381
1772561532744888800,7.809888916015625,0.46358656883239746,3.445899248123169,4.807715892791748
1772561532754955800,7.819955810546875,0.74716717004776,3.107997179031372,4.983656406402588
1772561532765021700,7.830021728515625,1.5201398134231567,2.6152496337890625,4.956860542297363
1772561532775089000,7.8400888671875,2.092339038848877,1.895052433013916,4.949409008026123
1772561532785154800,7.85015478515625,2.234454870223999,1.2855693101882935,5.276790618896484
1772561532795221800,7.8602216796875,2.0743207931518555,0.5770230889320374,5.681272506713867
1772561532805288000,7.870287841796875,1.6338543891906738,0.07418474555015564,5.925856113433838
1772561532815355000,7.88035498046875,1.0746512413024902,0.14934182167053223,5.577358245849609
1772561532825420800,7.8904208984375,1.0631089210510254,0.6125949621200562,4.296667098999023
1772561532835486700,7.90048681640625,1.4490514993667603,0.9643833637237549,2.6396195888519287
1772561532845553700,7.9105537109375,1.4278076887130737,1.1404305696487427,1.3030428886413574
1772561532855619600,7.92061962890625,1.2006795406341553,0.9610277414321899,0.5180705785751343
1772561532865686500,7.9306865234375,1.2164603471755981,0.3897048830986023,0.16035504639148712
1772561532875752700,7.940752685546875,1.3933131694793701,-0.2989206612110138,0.036312200129032135
1772561532885819600,7.950819580078125,1.3710325956344604,-0.7716559767723083,0.014325941912829876
1772561532895885800,7.9608857421875,1.140868067741394,-0.951224148273468,0.04576961696147919
1772561532905952800,7.970952880859375,0.7798076272010803,-0.8514458537101746,0.020258666947484016
1772561532916018700,7.981018798828125,0.40434908866882324,-0.5043691396713257,-0.12334936857223511
1772561532926084900,7.9910849609375,0.20426338911056519,0.1467798501253128,-0.2535792589187622
1772561532936151800,8.00115185546875,0.18048162758350372,0.922987163066864,-0.28894710540771484
1772561532946217700,8.0112177734375,0.30929020047187805,1.5102357864379883,-0.2516317069530487
1772561532956284700,8.02128466796875,0.5290334820747375,1.7145953178405762,-0.28151315450668335
1772561532966350800,8.031350830078125,0.5933112502098083,1.4241104125976562,-0.5666450262069702
1772561532976417800,8.041417724609374,0.24112553894519806,0.8747485280036926,-1.0402882099151611
1772561532986483700,8.051483642578125,-0.3283405900001526,0.3769832253456116,-1.6292369365692139
1772561532996551000,8.061551025390624,-0.7895854711532593,0.05276574194431305,-2.32646107673645
1772561533006616800,8.071616943359375,-0.965499997138977,-0.07253918051719666,-2.977170705795288
1772561533016682800,8.081682861328124,-0.9024981260299683,-0.06963393837213516,-3.3634328842163086
1772561533026750000,8.09175,-0.7076697945594788,-0.1398649513721466,-3.4207992553710938
1772561533036815600,8.101815673828124,-0.4936501979827881,-0.3482373356819153,-3.212695837020874
1772561533046882600,8.111882568359375,-0.35216763615608215,-0.7659187316894531,-2.9002392292022705
1772561533056948700,8.12194873046875,-0.3547210693359375,-1.4258660078048706,-2.6699166297912598
1772561533067015700,8.132015625,-0.6008003354072571,-2.354321002960205,-2.691617012023926
1772561533077081600,8.14208154296875,-0.9439238905906677,-3.2572617530822754,-2.9272139072418213
1772561533087148500,8.1521484375,-1.101202130317688,-3.855513095855713,-3.3486146926879883
1772561533097214700,8.162214599609374,-1.0584847927093506,-3.9613149166107178,-3.8912551403045654
1772561533107280600,8.17228076171875,-0.9842801094055176,-3.7429842948913574,-4.4961838722229
1772561533117347800,8.182347900390624,-1.0189552307128906,-3.3045008182525635,-4.997183799743652
1772561533127413800,8.192413818359375,-1.1749438047409058,-2.5792715549468994,-5.094624042510986
1772561533137480700,8.202480712890624,-1.3988261222839355,-1.7985669374465942,-4.7869157791137695
1772561533147547000,8.212546875,-1.615102767944336,-1.245908260345459,-4.222147464752197
1772561533157613800,8.22261376953125,-1.7864711284637451,-0.9402271509170532,-3.6651556491851807
1772561533167679700,8.2326796875,-1.9176222085952759,-0.5186777710914612,-3.1419639587402344
1772561533177746000,8.242745849609374,-2.0724411010742188,-0.02460414543747902,-2.7051773071289062
1772561533187812900,8.252812744140625,-2.2453300952911377,0.46279188990592957,-2.2838377952575684
1772561533197878800,8.262878662109374,-2.2900383472442627,0.8606675863265991,-1.8149319887161255
1772561533207945700,8.27294580078125,-2.1110000610351562,0.9524475932121277,-1.263010025024414
1772561533218012000,8.283011962890624,-2.0538790225982666,0.6059871315956116,-0.7426629662513733
1772561533228078800,8.293078857421875,-2.315683364868164,0.1527266949415207,-0.3130772113800049
1772561533238144500,8.30314453125,-2.5258023738861084,-0.03744031488895416,0.09733694046735764
1772561533248211700,8.313211669921875,-2.5014936923980713,0.07251947373151779,0.5214645266532898
1772561533258277600,8.323277587890624,-2.3416452407836914,0.3826901316642761,0.9696627855300903
1772561533268344600,8.333344482421875,-1.969239592552185,0.6671820282936096,1.463996410369873
1772561533278410800,8.34341064453125,-1.495625615119934,0.9636693596839905,2.025221347808838
1772561533288476700,8.3534765625,-0.9644720554351807,1.0720129013061523,2.7203269004821777
1772561533298543600,8.363543701171874,-0.27613890171051025,1.025115966796875,3.5948486328125
1772561533308609800,8.37360986328125,0.37402740120887756,1.028854250907898,4.373206615447998
1772561533318676700,8.3836767578125,0.6858369708061218,0.7212098240852356,4.524055004119873
1772561533328742700,8.39374267578125,0.7510047554969788,0.21836163103580475,3.9089481830596924
1772561533338809900,8.403809814453124,0.9064230918884277,0.33713436126708984,3.04345703125
1772561533348875800,8.413875732421875,1.4216949939727783,1.2546426057815552,2.75165057182312
1772561533358941700,8.423941650390624,1.870101809501648,2.0595860481262207,2.927946090698242
1772561533369009000,8.4340087890625,2.2746222019195557,2.445890188217163,3.0148415565490723
1772561533379074800,8.44407470703125,2.6882238388061523,2.0654094219207764,2.895730972290039
1772561533389141800,8.454141845703125,2.8691890239715576,1.7299225330352783,3.2867748737335205
1772561533399208000,8.4642080078125,2.825045585632324,1.5901463031768799,4.04414701461792
1772561533409275000,8.47427490234375,2.6135761737823486,1.2138136625289917,4.621476650238037
1772561533419340800,8.4843408203125,2.355891227722168,0.758904218673706,4.891812801361084
1772561533429407700,8.49440771484375,1.9293078184127808,0.3115195333957672,4.358767032623291
1772561533439473700,8.5044736328125,1.364505410194397,-0.19770589470863342,2.9949402809143066
1772561533449539600,8.51453955078125,0.8356895446777344,-0.7568562626838684,1.3648008108139038
1772561533459606500,8.5246064453125,0.5093148946762085,-1.0651980638504028,-0.1223546713590622
1772561533469672700,8.534672607421875,0.351468026638031,-1.1935243606567383,-1.3622527122497559
1772561533479739600,8.54473974609375,0.13000273704528809,-1.3754528760910034,-2.360102891921997
1772561533489805800,8.554805908203125,-0.24282382428646088,-1.565491795539856,-3.1421146392822266
1772561533499872800,8.564872802734374,-0.7615319490432739,-1.4925789833068848,-3.608488082885742
1772561533509938700,8.574938720703125,-1.1711037158966064,-0.9481726884841919,-3.5210626125335693
1772561533520005600,8.585005615234374,-1.3191622495651245,-0.28220292925834656,-3.093719720840454
1772561533530071800,8.59507177734375,-1.2696963548660278,0.1834598332643509,-2.5554182529449463
1772561533540137700,8.6051376953125,-1.075839877128601,0.652661919593811,-1.8481298685073853
1772561533550204700,8.61520458984375,-0.650934636592865,1.0421152114868164,-0.9789178371429443
1772561533560270800,8.625270751953124,-0.1278810054063797,1.094774603843689,-0.25861796736717224
1772561533570337800,8.635337890625,0.15092693269252777,0.5713918805122375,-0.09197013825178146
1772561533580403700,8.64540380859375,-0.0052046156488358974,-0.3878462612628937,-0.6831516623497009
1772561533590471000,8.655470947265625,-0.36895325779914856,-1.2070080041885376,-1.779760479927063
1772561533600536800,8.665536865234374,-0.5931935906410217,-1.6258974075317383,-3.010854959487915
1772561533610603800,8.675603759765625,-0.5819323658943176,-1.3911632299423218,-3.9405605792999268
1772561533620670000,8.685669921875,-0.2031714916229248,-0.5467320680618286,-4.241705894470215
1772561533630737000,8.69573681640625,0.5411615371704102,0.41571998596191406,-3.7862040996551514
1772561533640802600,8.705802490234374,1.340962529182434,0.9206955432891846,-2.7489092350006104
1772561533650868700,8.71586865234375,1.8722509145736694,0.768699586391449,-1.613468885421753
1772561533660935700,8.725935791015624,2.110471248626709,0.34217944741249084,-0.6514331698417664
1772561533671001600,8.736001708984375,2.128319025039673,-0.27019527554512024,-0.09909356385469437
1772561533681068500,8.746068603515624,1.8916925191879272,-1.0062165260314941,-0.12161165475845337
1772561533691134700,8.756134765625,1.6177103519439697,-1.505190134048462,-0.6156213879585266
1772561533701201700,8.76620166015625,1.540890097618103,-1.54674232006073,-1.3767879009246826
1772561533711267600,8.776267578125,1.6313350200653076,-1.1625488996505737,-2.099407911300659
1772561533721334800,8.786334716796874,1.7134288549423218,-0.6458104252815247,-2.4859020709991455
1772561533731400700,8.796400634765625,1.6211318969726562,-0.17231424152851105,-2.306685447692871
1772561533741467000,8.806466796875,1.3098983764648438,0.2625479996204376,-1.5283225774765015
1772561533751533800,8.816533935546875,0.9331015944480896,0.3731490671634674,-0.5288465023040771
1772561533761599700,8.826599853515624,0.6427395343780518,0.19596152007579803,0.2875524163246155
1772561533771666700,8.836666748046875,0.48271793127059937,-0.13112473487854004,0.792608916759491
1772561533781732900,8.84673291015625,0.2520335614681244,-0.4691016972064972,0.9146040678024292
1772561533791799800,8.8567998046875,-0.06510975956916809,-0.6699751615524292,0.7414751648902893
1772561533801865700,8.86686572265625,-0.3978986442089081,-0.687109112739563,0.3802248239517212
1772561533811933000,8.876932861328125,-0.6206979155540466,-0.6168823838233948,-0.018976887688040733
1772561533821998800,8.886998779296874,-0.7633706331253052,-0.40764927864074707,-0.3133086562156677
1772561533832064500,8.897064453125,-0.899590253829956,0.018821891397237778,-0.3741711974143982
1772561533842132000,8.907132080078124,-1.0129085779190063,0.41803744435310364,-0.2795637249946594
1772561533852197600,8.91719775390625,-1.0420341491699219,0.6433432698249817,-0.01890311762690544
1772561533862264600,8.9272646484375,-1.0074807405471802,0.6672369241714478,0.3025508224964142
1772561533872330800,8.937330810546875,-0.9600961804389954,0.5104424953460693,0.5931504368782043
1772561533882397700,8.947397705078124,-0.9129153490066528,0.2633171081542969,0.9387105107307434
1772561533892463600,8.957463623046875,-0.7623026967048645,0.08431994169950485,1.4533333778381348
1772561533902530600,8.967530517578124,-0.6790711879730225,-0.005781989078968763,2.0235650539398193
1772561533912596700,8.9775966796875,-0.7785239815711975,0.29413920640945435,2.4757635593414307
1772561533922662700,8.98766259765625,-0.8275916576385498,0.8982719779014587,2.511190176010132
1772561533932729600,8.9977294921875,-0.8974735736846924,1.0062918663024902,1.7687338590621948
1772561533942795800,9.007795654296874,-0.9293148517608643,1.4797662496566772,1.1526576280593872
1772561533952862700,9.01786279296875,-0.7180913090705872,2.4743423461914062,1.2658944129943848
1772561533962929000,9.027928955078124,-0.3141166567802429,3.5753138065338135,2.101846694946289
1772561533972995800,9.037995849609375,0.5712829232215881,4.314136505126953,3.143705368041992
1772561533983061800,9.048061767578124,1.5390026569366455,3.9133384227752686,4.1580729484558105
1772561533993128700,9.058128662109375,2.0254600048065186,2.7917709350585938,5.167463302612305
1772561534003195000,9.06819482421875,1.92174232006073,1.555301547050476,6.101789951324463
1772561534013260800,9.0782607421875,1.6411495208740234,0.8750947713851929,6.5645365715026855
1772561534023327700,9.08832763671875,1.5974617004394531,0.9298224449157715,6.115015029907227
1772561534033394000,9.098393798828125,1.3981115818023682,0.8116814494132996,4.495003700256348
1772561534043460900,9.1084609375,1.1681369543075562,0.5794686675071716,2.597059726715088
1772561534053526500,9.118526611328125,0.9860665202140808,0.26944613456726074,1.2019442319869995
1772561534063593700,9.12859375,0.7548791170120239,-0.1993115097284317,0.3891538679599762
1772561534073659600,9.13865966796875,0.494703471660614,-0.7726325392723083,-0.047578971832990646
1772561534083726600,9.1487265625,0.24279293417930603,-1.5340569019317627,-0.4429081976413727
1772561534093792800,9.158792724609375,-0.24850834906101227,-1.9474927186965942,-0.8133315443992615
1772561534103858700,9.168858642578124,-0.8145296573638916,-1.7203562259674072,-1.2146244049072266
1772561534113925600,9.178925537109375,-1.1623116731643677,-0.7389124035835266,-1.5730592012405396
1772561534123991800,9.18899169921875,-1.0433820486068726,0.7087012529373169,-1.639838457107544
1772561534134058800,9.199058837890625,-0.6237820982933044,1.972378134727478,-1.2975780963897705
1772561534144124700,9.209124755859374,-0.11834368854761124,2.4895031452178955,-0.9482192993164062
1772561534154191600,9.219191650390625,0.18800053000450134,2.0392441749572754,-0.883898913860321
1772561534164257800,9.2292578125,0.1641700267791748,0.7798838019371033,-1.1822943687438965
1772561534174324700,9.23932470703125,-0.0742606520652771,-0.3564840853214264,-1.63162100315094
1772561534184390700,9.249390625,-0.29328885674476624,-0.8909469246864319,-2.081092357635498
1772561534194457900,9.259457763671875,-0.43229976296424866,-0.870606541633606,-2.45837140083313
1772561534204523800,9.269523681640624,-0.47361814975738525,-0.4693049192428589,-2.673797845840454
1772561534214590000,9.27958984375,-0.3764897584915161,0.07118602842092514,-2.6917684078216553
1772561534224657000,9.289656982421874,-0.23179754614830017,0.44648879766464233,-2.504237651824951
1772561534234722800,9.299722900390625,-0.11370526254177094,0.23019245266914368,-2.2959017753601074
1772561534244789800,9.309789794921874,-0.07952145487070084,-0.6952011585235596,-2.196693181991577
1772561534254855700,9.319855712890625,-0.16772401332855225,-2.0320730209350586,-2.348736524581909
1772561534264923000,9.3299228515625,-0.389913946390152,-3.2615928649902344,-2.784119129180908
1772561534274988500,9.339988525390625,-0.5916832685470581,-3.836155891418457,-3.3258767127990723
1772561534285055700,9.3500556640625,-0.7025509476661682,-3.445945978164673,-3.807605266571045
1772561534295121700,9.36012158203125,-0.8731125593185425,-2.435997486114502,-4.176607608795166
1772561534305187600,9.3701875,-1.1355061531066895,-1.313006043434143,-4.301746845245361
1772561534315254800,9.3802548828125,-1.4550068378448486,-0.451896607875824,-4.155063152313232
1772561534325320700,9.39032080078125,-1.7474640607833862,0.06136402487754822,-3.7566850185394287
1772561534335387600,9.4003876953125,-1.7486448287963867,0.23424126207828522,-3.093423843383789
1772561534345453800,9.410453857421874,-1.601396083831787,0.09425193071365356,-2.1851425170898438
1772561534355520800,9.420520751953125,-1.6701422929763794,-0.6783359050750732,-1.4163521528244019
1772561534365586700,9.430586669921874,-1.7687863111495972,-1.5796358585357666,-1.1277203559875488
1772561534375653600,9.440653564453125,-1.8736131191253662,-1.997936725616455,-1.2982218265533447
1772561534385719800,9.4507197265625,-1.9227919578552246,-2.1736838817596436,-1.6723178625106812
1772561534395785700,9.46078564453125,-1.8591673374176025,-2.130774974822998,-2.001056671142578
1772561534405852700,9.470852783203124,-1.8717340230941772,-1.680768370628357,-2.0487215518951416
1772561534415918800,9.4809189453125,-1.9619086980819702,-0.6357223987579346,-1.7201721668243408
1772561534425985800,9.49098583984375,-1.8605135679244995,0.533035397529602,-1.1191647052764893
1772561534436052000,9.501052001953125,-1.439868688583374,1.2541182041168213,-0.32922983169555664
1772561534446119000,9.511118896484374,-0.9287548065185547,1.478050708770752,0.5418190360069275
1772561534456184600,9.5211845703125,-0.514952540397644,1.3200277090072632,1.4063876867294312
1772561534466251800,9.531251708984374,-0.2784406840801239,0.8275466561317444,2.010746479034424
1772561534476317700,9.541317626953125,-0.13639725744724274,0.1293494701385498,2.3694095611572266
1772561534486384600,9.551384521484374,0.1262844353914261,-0.18302547931671143,2.8091237545013428
1772561534496450600,9.561450439453125,0.5032495856285095,0.19568854570388794,3.4796884059906006
1772561534506516700,9.571516845703124,0.9132924675941467,0.9239557981491089,4.068365097045898
1772561534516583700,9.581583740234375,1.072568655014038,1.2359379529953003,3.9809412956237793
1772561534526649600,9.591649658203124,0.6503926515579224,0.7236762046813965,3.018249273300171
1772561534536716800,9.601716796875,0.03073740564286709,0.8689036965370178,2.2530460357666016
1772561534546782700,9.61178271484375,-0.33975544571876526,1.9492192268371582,2.1353518962860107
1772561534556849700,9.621849609375,-0.619179368019104,2.8532121181488037,2.029703378677368
1772561534566915800,9.631915771484374,-0.19615192711353302,3.484724521636963,2.048306941986084
1772561534576982800,9.641982666015625,0.7007874250411987,3.873511791229248,2.5315327644348145
1772561534587048700,9.652048583984374,1.364324688911438,3.833214521408081,3.387615919113159
1772561534597115000,9.662114990234375,1.5113348960876465,3.000474691390991,4.304104328155518
1772561534607181800,9.672181884765624,1.1906298398971558,1.9045758247375488,5.1752471923828125
1772561534617247700,9.682247802734375,0.836685061454773,1.0984623432159424,5.663079261779785
1772561534627314700,9.692314697265624,0.7690380811691284,0.36894848942756653,5.20992374420166
1772561534637380900,9.702380859375,0.8093919157981873,-0.10640313476324081,4.386375427246094
1772561534647447800,9.71244775390625,0.632411539554596,-0.12693051993846893,3.8633718490600586
1772561534657513200,9.72251318359375,0.22020933032035828,0.12788020074367523,3.3611183166503906
1772561534667580200,9.732580078125,-0.058401789516210556,0.23697952926158905,2.4837262630462646
1772561534677646000,9.74264599609375,-0.08378437906503677,0.07397302985191345,1.2274436950683594
1772561534687712300,9.752712158203124,-0.024230238050222397,-0.18057990074157715,-0.10831848531961441
1772561534697779200,9.762779296875,-0.1089421957731247,-0.476805180311203,-1.2420083284378052
1772561534707845000,9.77284521484375,-0.28043192625045776,-0.758234977722168,-2.0587522983551025
1772561534717912300,9.782912353515625,-0.254114031791687,-0.8148255348205566,-2.4702184200286865
1772561534727978200,9.792978271484374,0.04060841351747513,-0.5058668851852417,-2.3181324005126953
1772561534738045200,9.803045166015625,0.4630342423915863,-0.022774288430809975,-1.719685673713684
1772561534748111400,9.813111328125,0.8879061341285706,0.49212661385536194,-1.1311084032058716
1772561534758178300,9.82317822265625,1.2450029850006104,0.7332150936126709,-0.9323527216911316
1772561534768244200,9.833244140625,1.5114341974258423,0.5571261048316956,-1.325049638748169
1772561534778310400,9.843310302734375,1.4839247465133667,0.2545523941516876,-2.203305959701538
1772561534788377300,9.85337744140625,1.1833980083465576,-0.05439586564898491,-3.287111282348633
1772561534798443300,9.863443359375,0.8209276795387268,-0.3495534658432007,-4.356132507324219
1772561534808510200,9.87351025390625,0.48479917645454407,-0.5445317625999451,-5.255971431732178
1772561534818576400,9.883576416015625,0.31304046511650085,-0.4615745544433594,-5.752795219421387
1772561534828643300,9.893643310546874,0.3217572569847107,-0.1604543924331665,-5.705098628997803
1772561534838709200,9.903709228515625,0.368692010641098,0.11892025917768478,-5.310283184051514
1772561534848776400,9.9137763671875,0.3302442133426666,0.18740184605121613,-4.815126419067383
1772561534858842000,9.923842041015625,0.2357741743326187,-0.14175499975681305,-4.271058559417725
1772561534868909300,9.933909423828124,0.08726832270622253,-1.0744012594223022,-3.9550821781158447
1772561534878975200,9.943975341796875,-0.27470827102661133,-2.1900901794433594,-3.8926610946655273
1772561534889041200,9.954041259765624,-0.5548174381256104,-2.775151252746582,-3.7222213745117188
1772561534899108000,9.964108154296875,-0.5087335109710693,-2.813880443572998,-3.53287935256958
1772561534909174300,9.97417431640625,-0.29588252305984497,-2.4396626949310303,-3.545100450515747
1772561534919241200,9.9842412109375,-0.062809057533741,-2.1400957107543945,-3.6644716262817383
1772561534929307100,9.99430712890625,0.07067416608333588,-2.08835768699646,-3.6087074279785156
1772561534939374300,10.004374267578125,-0.004634699318557978,-1.9922293424606323,-3.2137465476989746
1772561534949440300,10.014440185546874,-0.29808467626571655,-1.6319289207458496,-2.3218226432800293
1772561534959507200,10.024507080078125,-0.8110702037811279,-1.086030125617981,-1.251059651374817
1772561534969573400,10.034573486328124,-1.300370693206787,-0.7252306938171387,-0.3359937071800232
1772561534979640300,10.044640380859375,-1.9934204816818237,-1.0275013446807861,1.0281002521514893
1772561534989706200,10.054706298828124,-2.0833969116210938,-2.903693437576294,1.228356957435608
1772561534999772400,10.0647724609375,-1.646846055984497,-3.25475811958313,0.3697631359100342
1772561535009839400,10.07483935546875,-1.3639190196990967,-2.6591155529022217,-0.6924426555633545
1772561535019905300,10.0849052734375,-1.4818246364593506,-1.5178908109664917,-1.3974026441574097
1772561535029972200,10.09497216796875,-1.6440707445144653,-0.5450265407562256,-1.936302900314331
1772561535040038400,10.105038330078125,-1.648168921470642,0.2497376650571823,-2.4080371856689453
1772561535050105300,10.115105224609374,-1.4534885883331299,1.0742294788360596,-2.703239679336548
1772561535060171000,10.1251708984375,-1.1064832210540771,1.7765071392059326,-2.623858690261841
1772561535070238500,10.135238525390625,-0.8025643825531006,1.9765070676803589,-2.177114248275757
1772561535080304000,10.14530419921875,-0.6398321986198425,1.4644640684127808,-1.5144853591918945
1772561535090371000,10.15537109375,-0.6956688165664673,0.6295779347419739,-0.8250270485877991
1772561535100437200,10.165437255859375,-0.5507758259773254,0.7791463732719421,0.032233305275440216
1772561535110503200,10.175503173828124,-0.31350332498550415,2.0463695526123047,0.7198598980903625
1772561535120570000,10.185570068359375,-0.018280204385519028,3.8585445880889893,0.9524502754211426
1772561535130636300,10.19563623046875,0.37957900762557983,5.29451847076416,0.7221035957336426
1772561535140703200,10.205703125,0.8039081692695618,6.242170333862305,0.10823486000299454
1772561535150769200,10.21576904296875,1.2836849689483643,7.562372207641602,-0.127431720495224
1772561535160836000,10.225836181640625,1.7944376468658447,9.180581092834473,0.387332022190094
1772561535170902300,10.23590234375,2.3134899139404297,8.935246467590332,0.8097777962684631
1772561535180969200,10.24596923828125,2.902998924255371,6.747758865356445,0.8234462141990662
1772561535191035400,10.256035400390624,3.291962146759033,4.77055025100708,1.5896704196929932
1772561535201101300,10.266101318359375,3.7997703552246094,3.577087640762329,3.5889647006988525
1772561535211168300,10.276168212890624,4.212747573852539,1.894400954246521,5.782048225402832
1772561535221234400,10.286234375,4.206886291503906,-0.004472512751817703,7.552155494689941
1772561535231301400,10.29630126953125,4.0308837890625,-1.5839449167251587,8.552201271057129
1772561535241367300,10.3063671875,3.6379289627075195,-2.718393087387085,8.282652854919434
1772561535251434200,10.316434326171875,3.2407426834106445,-3.07183837890625,6.871100425720215
1772561535261500400,10.32650048828125,3.0032355785369873,-2.545395612716675,4.805119514465332
1772561535271567400,10.3365673828125,2.8233697414398193,-1.5647586584091187,2.6191039085388184
1772561535281633000,10.346633056640625,2.5612618923187256,-0.6214664578437805,0.729616641998291
1772561535291700200,10.3567001953125,2.0987558364868164,0.14482642710208893,-0.6490232944488525
1772561535301766100,10.36676611328125,1.5046234130859375,0.512699544429779,-1.516843318939209
1772561535311832000,10.37683203125,0.8876329064369202,0.48646605014801025,-1.9898338317871094
1772561535321899300,10.386899169921875,0.37374988198280334,0.5703361630439758,-2.038703441619873
1772561535331965200,10.396965087890624,0.24148239195346832,0.7594480514526367,-1.807105302810669
1772561535342032100,10.4070322265625,0.39655932784080505,1.0260432958602905,-1.460073471069336
1772561535352098300,10.417098388671874,0.48770469427108765,1.2421913146972656,-1.1169832944869995
1772561535362165200,10.427165283203125,0.4324840307235718,1.1558427810668945,-0.8572853803634644
1772561535372231200,10.437231201171874,0.1648765653371811,0.6120599508285522,-0.8167867064476013
1772561535382298000,10.447298095703125,-0.2853443920612335,-0.3718297481536865,-1.1473171710968018
1772561535392364300,10.4573642578125,-0.6635329723358154,-1.3323153257369995,-1.8217949867248535
1772561535402430200,10.46743017578125,-0.897723913192749,-1.7855466604232788,-2.587773561477661
1772561535412497400,10.477497314453124,-0.9656832218170166,-1.6120235919952393,-3.1864891052246094
1772561535422563300,10.487563232421875,-0.7630355954170227,-1.2477154731750488,-3.485933542251587
1772561535432630300,10.49763037109375,-0.36364585161209106,-0.8981457352638245,-3.335261106491089
1772561535442696400,10.507696533203125,0.04108485206961632,-0.9200987219810486,-2.6940841674804688
1772561535452763400,10.517763427734375,0.3466716706752777,-1.3529130220413208,-1.7621418237686157
1772561535462829300,10.527829345703125,0.5491880178451538,-2.012505292892456,-0.9957841634750366
1772561535472896300,10.537896240234375,0.5227828025817871,-2.9676713943481445,-0.7523070573806763
1772561535482962200,10.547962158203125,0.32650941610336304,-3.8237686157226562,-1.0061670541763306
1772561535493029400,10.558029296875,0.19927023351192474,-4.096831321716309,-1.4490495920181274
1772561535503095000,10.568094970703125,0.30345815420150757,-3.8536932468414307,-1.9014493227005005
1772561535513161200,10.5781611328125,0.57329922914505,-3.028609037399292,-2.290104627609253
1772561535523228200,10.588228271484375,0.6285856366157532,-1.9923813343048096,-2.588383436203003
1772561535533294000,10.598294189453124,0.34381037950515747,-0.9464890360832214,-2.550631046295166
1772561535543361300,10.608361328125,-0.19651678204536438,-0.12967197597026825,-2.228287935256958
1772561535553427200,10.61842724609375,-0.6707658767700195,0.4273470640182495,-1.825184941291809
1772561535563494100,10.628494140625,-0.9053621292114258,0.7449204921722412,-1.4666752815246582
1772561535573560300,10.638560302734374,-0.9238319396972656,0.7212929129600525,-1.190263032913208
1772561535583627300,10.648627197265625,-0.9435449242591858,0.5957291722297668,-0.9829961657524109
1772561535593693200,10.658693115234374,-1.0462872982025146,0.3447027802467346,-0.8448764085769653
1772561535603760000,10.668760009765625,-1.0755621194839478,-0.1838396042585373,-0.7518987655639648
1772561535613826300,10.678826416015625,-0.9967146515846252,-0.7752288579940796,-0.6511585712432861
1772561535623892200,10.688892333984375,-0.814189076423645,-1.2123374938964844,-0.5105849504470825
1772561535633959200,10.698959228515625,-0.6076891422271729,-1.4811785221099854,-0.23872655630111694
1772561535644025300,10.709025390625,-0.46349841356277466,-1.451776146888733,0.20842617750167847
1772561535654092000,10.719092041015625,-0.43994009494781494,-1.2612954378128052,0.7276355028152466
1772561535664158200,10.729158203125,-0.4847049117088318,-1.2106701135635376,1.1969319581985474
1772561535674225200,10.73922509765625,-0.43278631567955017,-1.4594013690948486,1.5276914834976196
1772561535684291000,10.749291015625,-0.26223480701446533,-1.8424261808395386,1.9236555099487305
1772561535694358000,10.75935791015625,0.0228017196059227,-2.0296711921691895,2.6686503887176514
1772561535704424200,10.769424072265625,0.2020697444677353,-1.7880964279174805,3.7570292949676514
1772561535714491100,10.7794912109375,0.1431020349264145,-1.099481463432312,4.872478485107422
1772561535724557000,10.78955712890625,-0.13751019537448883,-0.6265975832939148,5.251691818237305
1772561535734623200,10.799623291015624,-0.3386363685131073,-0.32957524061203003,4.673836708068848
1772561535744690200,10.809690185546875,-0.39636197686195374,0.3871628940105438,3.759883403778076
1772561535754756000,10.819756103515624,-0.3421059548854828,1.7900665998458862,3.4292678833007812
1772561535764823300,10.8298232421875,0.023082682862877846,3.086948871612549,3.8889663219451904
1772561535774889200,10.83988916015625,0.40889111161231995,3.3518052101135254,4.387025356292725
1772561535784956200,10.8499560546875,0.8743533492088318,2.4528353214263916,4.8132524490356445
1772561535795022300,10.860022216796875,1.0659688711166382,1.2086807489395142,5.297671794891357
1772561535805089300,10.87008935546875,0.6719019412994385,0.7300313115119934,5.85514497756958
1772561535815155200,10.8801552734375,0.26804131269454956,1.4447296857833862,6.156855583190918
1772561535825221000,10.89022119140625,0.12715183198451996,2.3761003017425537,5.694601535797119
1772561535835288000,10.9002880859375,-0.017019197344779968,2.755359411239624,4.345866680145264
1772561535845354000,10.91035400390625,-0.14305728673934937,2.5070674419403076,2.578962802886963
1772561535855421200,10.920421142578125,-0.1578996181488037,1.7142772674560547,1.046106219291687
1772561535865487000,10.930487060546875,-0.16138915717601776,0.9088327288627625,0.018281003460288048
1772561535875554000,10.940553955078125,-0.14562776684761047,0.11957140266895294,-0.6849559545516968
1772561535885620200,10.9506201171875,-0.04650332033634186,-0.7227686047554016,-1.4155508279800415
1772561535895687200,10.960687255859375,0.030191725119948387,-1.5595561265945435,-2.2079524993896484
1772561535905753000,10.970753173828125,0.10325980931520462,-1.7427395582199097,-2.3944149017333984
1772561535915820000,10.980820068359375,0.21778371930122375,-1.3005536794662476,-1.7933048009872437
1772561535925886200,10.99088623046875,0.3569432199001312,-0.7717209458351135,-0.9054087400436401
1772561535935952100,11.0009521484375,0.5525614619255066,-0.32987457513809204,-0.17562881112098694
1772561535946019000,11.01101904296875,0.855209469795227,0.18458954989910126,0.2943978011608124
1772561535956085200,11.021085205078125,1.2073909044265747,0.7187277674674988,0.4914437532424927
1772561535966152200,11.031152099609375,1.395858645439148,1.014504313468933,0.3634096384048462
1772561535976218000,11.041218017578124,1.3345015048980713,1.0108730792999268,-0.0948098674416542
1772561535986285300,11.051285400390626,1.1197950839996338,0.6539133787155151,-0.8706808090209961
1772561535996351200,11.061351318359375,0.8973177671432495,0.22714713215827942,-1.7778152227401733
1772561536006418200,11.071418212890626,0.717650294303894,-0.013075588271021843,-2.549231767654419
1772561536016484400,11.081484375,0.6532044410705566,0.010913101024925709,-3.0002801418304443
1772561536026551300,11.09155126953125,0.7112221717834473,0.1322437971830368,-3.0268774032592773
1772561536036617000,11.101616943359375,0.8709306120872498,0.2833174467086792,-2.611923933029175
1772561536046683100,11.11168310546875,1.0411138534545898,0.36337289214134216,-1.9667381048202515
1772561536056750000,11.12175,1.2089033126831055,0.3612002730369568,-1.4476690292358398
1772561536066816000,11.13181591796875,1.3800630569458008,0.17109771072864532,-1.3218668699264526
1772561536076883200,11.14188330078125,1.470351219177246,-0.14392760396003723,-1.6043670177459717
1772561536086949000,11.15194921875,1.360675573348999,-0.462730348110199,-2.0564398765563965
1772561536097016000,11.16201611328125,1.121445894241333,-0.5345577001571655,-2.3565914630889893
1772561536107082200,11.172082275390625,0.85603266954422,-0.296180784702301,-2.417513370513916
1772561536117149200,11.182149169921875,0.5591341257095337,0.08968248218297958,-2.317746162414551
1772561536127215000,11.192215087890625,0.3660504221916199,0.47852611541748047,-2.159982681274414
1772561536137282000,11.202281982421875,0.3756713569164276,0.7370032072067261,-2.033764600753784
1772561536147348200,11.21234814453125,0.5293115377426147,0.8783451318740845,-1.9875634908676147
1772561536157414100,11.2224140625,0.7839139699935913,0.5712733268737793,-1.8642699718475342
1772561536167481000,11.232481201171876,0.8897134065628052,0.1886277049779892,-1.5617681741714478
1772561536177547300,11.24254736328125,0.8914361596107483,0.044380515813827515,-0.9712013006210327
1772561536187614200,11.2526142578125,0.7178806066513062,0.21173568069934845,-0.3890039324760437
1772561536197680000,11.26268017578125,0.706595778465271,1.1792540550231934,-0.11974398046731949
1772561536207747300,11.272747314453126,0.9997251033782959,1.8844863176345825,-0.169346421957016
1772561536217813200,11.282813232421875,1.4205477237701416,1.8144431114196777,-0.49768462777137756
1772561536227880200,11.292880126953126,1.6889392137527466,1.2453372478485107,-0.9617710709571838
1772561536237946400,11.3029462890625,1.8560198545455933,0.6164360046386719,-1.378453016281128
1772561536248013300,11.313013427734376,1.9196144342422485,-0.34049126505851746,-1.5002907514572144
1772561536258079000,11.323078857421875,1.8333951234817505,-1.1090997457504272,-1.1279469728469849
1772561536268145200,11.333145263671875,1.6845735311508179,-1.6034027338027954,-0.42023348808288574
1772561536278212000,11.343212158203125,1.4987125396728516,-2.093219041824341,0.33652636408805847
1772561536288278000,11.353278076171875,-0.11740172654390335,-2.979419231414795,0.9998590350151062
1772561536298345200,11.36334521484375,-1.1497430801391602,-4.413744926452637,1.4528342485427856
1772561536308411100,11.3734111328125,-1.3586164712905884,-5.427628040313721,1.8307594060897827
1772561536318478000,11.38347802734375,-1.3489094972610474,-4.589867115020752,2.0945732593536377
1772561536328544300,11.393544189453126,-1.3853710889816284,-3.0728540420532227,2.0350863933563232
1772561536338611200,11.403611083984375,-1.6547197103500366,-1.3190330266952515,1.6643856763839722
1772561536348677000,11.413677001953126,-1.9803338050842285,0.6810445785522461,1.2995821237564087
1772561536358744000,11.423744140625,-1.986946702003479,2.9999918937683105,0.7650566697120667
1772561536368810200,11.433810302734376,-0.7365528345108032,3.856496810913086,-1.2327163219451904
1772561536378876200,11.443876220703125,0.08384083956480026,3.090561866760254,-3.743192672729492
1772561536388943000,11.453943115234376,-0.3252808749675751,1.316465973854065,-5.002472400665283
1772561536399009300,11.46400927734375,-0.47040584683418274,0.7817448377609253,-4.563205242156982
1772561536409076200,11.474076171875,-0.157953143119812,1.1335268020629883,-3.544412851333618
1772561536419142100,11.48414208984375,-0.10934007167816162,-0.12834519147872925,-2.8977904319763184
1772561536429209300,11.494209228515626,-0.3477505147457123,-1.8706450462341309,-2.764939546585083
1772561536439275300,11.504275146484375,-0.5349392890930176,-2.0576508045196533,-2.579157829284668
1772561536449342200,11.51434228515625,-0.6126615405082703,-1.5433385372161865,-2.287816286087036
1772561536459408100,11.524408203125,-0.7443096041679382,-1.1977617740631104,-1.9560819864273071
1772561536469475300,11.534475341796876,-0.8249359726905823,-0.8899362683296204,-1.6332708597183228
1772561536479541000,11.544541015625,-0.7183855772018433,-0.5834541320800781,-1.3229668140411377
1772561536489607200,11.554607177734376,-0.5797984004020691,-0.28600725531578064,-0.9870426058769226
1772561536499674000,11.564674072265625,-0.4891190826892853,-0.06543120741844177,-0.6550691723823547
1772561536509740000,11.574739990234375,-0.42879557609558105,-0.07663165777921677,-0.4116477370262146
1772561536519807000,11.584806884765625,-0.3532142639160156,-0.2998327910900116,-0.35620152950286865
1772561536529873200,11.594873046875,-0.3031063377857208,-0.27080753445625305,-0.4457492530345917
1772561536539940000,11.604940185546875,-0.2630574703216553,0.03464266657829285,-0.5541611909866333
1772561536550006300,11.61500634765625,-0.2574477791786194,0.3175063133239746,-0.6044488549232483
1772561536560073200,11.6250732421875,-0.2763194739818573,0.5804628729820251,-0.5310870409011841
1772561536570139100,11.63513916015625,-0.33523818850517273,0.8247405290603638,-0.3630698025226593
1772561536580206000,11.6452060546875,-0.4260559678077698,1.0066410303115845,-0.1325439214706421
1772561536590272300,11.655272216796876,-0.544768750667572,1.121505856513977,0.12823253870010376
1772561536600338200,11.665338134765625,-0.6538729071617126,1.1727067232131958,0.3831290006637573
1772561536610405000,11.675405029296876,-0.7010174989700317,1.1342486143112183,0.6087741255760193
1772561536620471300,11.68547119140625,-0.6727603077888489,0.9697895646095276,0.7852583527565002
1772561536630538200,11.695538330078126,-0.6019116640090942,0.7118022441864014,0.8924183249473572
1772561536640604200,11.705604248046875,-0.5375428199768066,0.4787442088127136,0.9565445780754089
1772561536650672000,11.715672119140624,-0.4795309007167816,0.3497034013271332,1.0158920288085938
1772561536660738300,11.72573828125,-0.4156334102153778,0.2760659456253052,1.0824463367462158
1772561536670805200,11.73580517578125,-0.33282482624053955,0.2119138538837433,1.15475332736969
1772561536680871200,11.74587109375,-0.23805837333202362,0.19467920064926147,1.2211629152297974
1772561536690938000,11.755938232421874,-0.16188876330852509,0.2016122192144394,1.2673397064208984
1772561536701004300,11.76600439453125,-0.12485644966363907,0.1702052801847458,1.2844383716583252
1772561536711070200,11.7760703125,-0.12544074654579163,0.11878843605518341,1.3151943683624268
1772561536721137400,11.786137451171875,-0.15430381894111633,0.05914507806301117,1.3557689189910889
1772561536731203300,11.796203369140626,-0.1796102374792099,0.015785887837409973,1.365674376487732
1772561536741270300,11.806270263671875,-0.19688935577869415,0.037634193897247314,1.3477387428283691
1772561536751336400,11.81633642578125,-0.2000257670879364,0.19292551279067993,1.2807549238204956
1772561536761403400,11.8264033203125,-0.17397312819957733,0.42489269375801086,1.177003264427185
1772561536771469300,11.83646923828125,-0.11422137916088104,0.6335761547088623,1.0140392780303955
1772561536781536300,11.846536376953125,-0.044064395129680634,0.7418035268783569,0.7791349291801453
1772561536791602400,11.8566025390625,0.011974903754889965,0.8680933117866516,0.5759450793266296
1772561536801669400,11.86666943359375,-0.045151498168706894,0.9512036442756653,0.45814573764801025
1772561536811735300,11.8767353515625,-0.043423641473054886,0.7554171085357666,0.22157233953475952
1772561536821802500,11.886802490234375,0.04577387869358063,0.45998331904411316,0.041496578603982925
1772561536831868200,11.8968681640625,0.06978094577789307,0.274664044380188,-0.03470658138394356
1772561536841934000,11.90693408203125,0.08781667053699493,0.23849806189537048,-0.04525642842054367
1772561536852001300,11.917001220703124,0.11990110576152802,0.37317171692848206,0.0459778793156147
1772561536862067200,11.927067138671875,0.0589836910367012,0.6543631553649902,0.23077835142612457
1772561536872134100,11.937134033203124,-0.010556770488619804,0.8312479257583618,0.3358701467514038
