time,seconds_elapsed,z,y,x
1772561525003809000,0.06880908203125,-0.7444945573806763,-0.8671014308929443,-0.05208127573132515
1772561525013875000,0.078875,-0.9398938417434692,-1.018959641456604,-0.1402209848165512
1772561525023942000,0.08894189453125,-1.124859094619751,-1.335106372833252,-0.23456206917762756
1772561525034008000,0.099008056640625,-1.298444151878357,-1.780840516090393,-0.3510463237762451
1772561525044075000,0.109074951171875,-1.4714549779891968,-2.1617181301116943,-0.39986735582351685
1772561525054141000,0.119140869140625,-1.632244348526001,-1.6188209056854248,-0.4233870506286621
1772561525064206800,0.129206787109375,-1.5816950798034668,-1.3754526376724243,-0.2506016194820404
1772561525074273800,0.139273681640625,-1.6367851495742798,-1.1296939849853516,-0.018476497381925583
1772561525084340000,0.149340087890625,-1.965400218963623,-1.2255676984786987,0.07550996541976929
1772561525094407000,0.159406982421875,-2.3431010246276855,-1.4690232276916504,0.19544914364814758
1772561525104472800,0.169472900390625,-1.9358530044555664,-1.5449795722961426,0.3016222417354584
1772561525114539800,0.179539794921875,-0.42721307277679443,-1.3342941999435425,-0.020047135651111603
1772561525124606000,0.18960595703125,0.8236538767814636,0.39162319898605347,-0.08633892983198166
1772561525134672000,0.199671875,1.6148217916488647,1.6411967277526855,-0.28535187244415283
1772561525144738800,0.20973876953125,2.0127665996551514,1.7570997476577759,-0.6712839603424072
1772561525154805000,0.219804931640625,2.0828747749328613,1.501801609992981,-0.9246168732643127
1772561525164872000,0.229871826171875,1.8525683879852295,1.2432724237442017,-0.9976964592933655
1772561525174937900,0.239937744140625,1.4073808193206787,1.0039024353027344,-0.9268233776092529
1772561525185004000,0.250004150390625,0.8727783560752869,0.8914703726768494,-0.7698683738708496
1772561525195071000,0.260071044921875,0.38207170367240906,0.9061963558197021,-0.5257545113563538
1772561525205137000,0.270136962890625,0.012575151398777962,1.0202885866165161,-0.18464404344558716
1772561525215204000,0.2802041015625,-0.2561447322368622,0.9766787886619568,0.11069093644618988
1772561525225269800,0.290269775390625,-0.42037123441696167,0.6588557958602905,0.3076130449771881
1772561525235336000,0.3003359375,-0.4761285185813904,0.24246948957443237,0.4411484897136688
1772561525245403000,0.31040283203125,-0.4670388698577881,-0.14131692051887512,0.5588907599449158
1772561525255468800,0.32046875,-0.4516806900501251,-0.5663757920265198,0.5248310565948486
1772561525265535700,0.33053564453125,-0.4454973340034485,-0.8212130069732666,0.2838786840438843
1772561525275602000,0.340601806640625,-0.3728034198284149,-0.9182751178741455,0.15492577850818634
1772561525285668900,0.3506689453125,-0.21708405017852783,-0.9707058668136597,0.09766549617052078
1772561525295734800,0.36073486328125,-0.0759064182639122,-1.0422742366790771,0.06148938462138176
1772561525305801000,0.370801025390625,0.048289015889167786,-0.9747406840324402,0.028484448790550232
1772561525315868000,0.380867919921875,0.18203110992908478,-0.7317906022071838,-0.03422261029481888
1772561525325933800,0.390933837890625,0.3054949641227722,-0.46934181451797485,-0.13825832307338715
1772561525336001000,0.4010009765625,0.47789469361305237,-0.10653349757194519,-0.2886025607585907
1772561525346067000,0.41106689453125,0.5828220248222351,0.11940312385559082,-0.3951185345649719
1772561525356132900,0.4211328125,0.6298957467079163,0.022134091705083847,-0.48941200971603394
1772561525366200000,0.431199951171875,0.6552321910858154,-0.33628252148628235,-0.5831103920936584
1772561525376266000,0.441265869140625,0.6727555394172668,-0.7341234087944031,-0.6440855860710144
1772561525386333000,0.4513330078125,0.6782944798469543,-0.9231951832771301,-0.6279740333557129
1772561525396399000,0.461399169921875,0.6461629271507263,-0.9248324632644653,-0.5263688564300537
1772561525406464800,0.47146484375,0.5949962139129639,-0.7991374135017395,-0.3278481960296631
1772561525416531700,0.48153173828125,0.5545523762702942,-0.5279977917671204,-0.008154084905982018
1772561525426598000,0.491597900390625,0.5474231243133545,0.5693272352218628,0.29397499561309814
1772561525436664800,0.501664794921875,0.5846291184425354,0.91077721118927,0.35910022258758545
1772561525446730800,0.511730712890625,0.64527827501297,1.173614501953125,0.3220299482345581
1772561525456798000,0.5217978515625,0.7064928412437439,1.4847170114517212,0.22603152692317963
1772561525466863900,0.53186376953125,0.7817373275756836,1.5978814363479614,0.05491434037685394
1772561525476929800,0.5419296875,0.82757169008255,1.56674325466156,-0.10123079270124435
1772561525486997000,0.5519970703125,0.8383834362030029,1.6106070280075073,-0.15448886156082153
1772561525497063000,0.56206298828125,0.8068963289260864,1.6864885091781616,-0.07858529686927795
1772561525507129900,0.5721298828125,0.7321769595146179,1.7711127996444702,0.02295309491455555
1772561525517196000,0.582196044921875,0.6369205117225647,1.8061463832855225,0.0803639218211174
1772561525527262000,0.592261962890625,0.5441530346870422,1.7195130586624146,0.09421250224113464
1772561525537329000,0.602328857421875,0.4737832546234131,1.5585979223251343,0.09006116539239883
1772561525547395000,0.61239501953125,0.456359326839447,1.4595342874526978,0.13859443366527557
1772561525557462000,0.6224619140625,0.46945250034332275,1.4236875772476196,0.2144218236207962
1772561525567528000,0.63252783203125,0.46605822443962097,1.3759106397628784,0.30837738513946533
1772561525577593900,0.64259375,0.46152418851852417,1.281678318977356,0.3883667588233948
1772561525587660800,0.652660888671875,0.46737921237945557,1.0744508504867554,0.3915781080722809
1772561525597726700,0.662726806640625,0.46278074383735657,0.7038198113441467,0.295970618724823
1772561525607794000,0.6727939453125,0.4282871186733246,0.21447554230690002,0.12004837393760681
1772561525617859800,0.68285986328125,0.3469805419445038,-0.22173506021499634,-0.052350033074617386
1772561525627926800,0.6929267578125,0.21967747807502747,-0.538149356842041,-0.18892639875411987
1772561525637993200,0.7029931640625,0.09519919008016586,-0.7372792363166809,-0.34858477115631104
1772561525648059000,0.713058837890625,0.00606160145252943,-0.8157378435134888,-0.5612531304359436
1772561525658125800,0.723125732421875,-0.0356922373175621,-0.730021059513092,-0.7933156490325928
1772561525668192000,0.73319189453125,-0.040178608149290085,-0.496540367603302,-0.9375841021537781
1772561525678259000,0.743259033203125,-0.052089329808950424,-0.19734223186969757,-0.9555546045303345
1772561525688324900,0.753324951171875,-0.09345453232526779,-0.08193641901016235,-0.883334755897522
1772561525698391000,0.76339111328125,-0.10334498435258865,-0.14180028438568115,-0.6925674676895142
1772561525708458000,0.7734580078125,-0.02350687049329281,-0.29311004281044006,-0.47471970319747925
1772561525718524000,0.78352392578125,-0.002523558447137475,-0.6570075154304504,-0.19478951394557953
1772561525728590800,0.7935908203125,-0.036953605711460114,-1.1893069744110107,0.15379451215267181
1772561525738657000,0.803656982421875,-0.11023794114589691,-1.8318196535110474,0.49783626198768616
1772561525748724000,0.813723876953125,-0.22807785868644714,-2.6033201217651367,0.7256415486335754
1772561525758790100,0.8237900390625,-0.36618009209632874,-3.3579649925231934,0.834248423576355
1772561525768856000,0.83385595703125,-0.3886139988899231,-3.8592379093170166,0.8335995674133301
1772561525778923000,0.843923095703125,-0.2774491310119629,-4.33661413192749,0.7841031551361084
1772561525788989200,0.8539892578125,-0.26531046628952026,-4.637006759643555,0.8720602989196777
1772561525799056100,0.86405615234375,-0.3966740667819977,-4.509667873382568,1.0561038255691528
1772561525809122000,0.8741220703125,-0.6822106242179871,-2.9785375595092773,0.9874879121780396
1772561525819188000,0.88418798828125,-0.6742285490036011,-2.010331392288208,0.9420762062072754
1772561525829255200,0.894255126953125,-0.4984925389289856,-1.6962366104125977,0.873723566532135
1772561525839320800,0.90432080078125,-0.38707947731018066,-1.5861412286758423,0.660550594329834
1772561525849387800,0.9143876953125,-0.5234934091567993,-0.5059880614280701,0.09121688455343246
1772561525859454000,0.924453857421875,-0.4528554677963257,0.8101767897605896,-0.09894906729459763
1772561525869520000,0.934519775390625,-0.26689884066581726,1.6725820302963257,-0.17085592448711395
1772561525879586800,0.9445869140625,-0.1631828397512436,1.8027698993682861,-0.3354283571243286
1772561525889653000,0.954653076171875,-0.18450020253658295,1.7952766418457031,-0.4835472106933594
1772561525899720000,0.964719970703125,-0.18114781379699707,2.9074862003326416,-0.42925548553466797
1772561525909786000,0.9747861328125,-0.14979076385498047,3.5017240047454834,-0.43024253845214844
1772561525919852000,0.98485205078125,-0.3444678485393524,3.6298024654388428,-0.5640227198600769
1772561525929919000,0.9949189453125,-0.6713587045669556,3.1528494358062744,-0.7816661596298218
1772561525939985200,1.004985107421875,-0.7847222685813904,2.6394565105438232,-0.8141998648643494
1772561525950052000,1.015052001953125,-0.6710867881774902,2.0036258697509766,-0.5867706537246704
1772561525960118000,1.025117919921875,-0.5459102392196655,1.2425845861434937,-0.17466676235198975
1772561525970185000,1.03518505859375,-0.4598076641559601,0.827233076095581,0.4405622184276581
1772561525980251100,1.045251220703125,-0.39851313829421997,0.792568564414978,1.0203651189804077
1772561525990317000,1.055317138671875,-0.3789108395576477,0.6944168210029602,1.2881730794906616
1772561526000384000,1.065384033203125,-0.28186285495758057,0.5063281655311584,1.326545000076294
1772561526010450000,1.075449951171875,-0.09090571105480194,0.36843806505203247,1.2873295545578003
1772561526020516900,1.085516845703125,0.038094084709882736,0.2266726791858673,1.2879993915557861
1772561526030582800,1.095582763671875,0.12123807519674301,0.18888109922409058,1.3646159172058105
1772561526040649000,1.10564892578125,0.18738913536071777,0.23618416488170624,1.4308372735977173
1772561526050716000,1.1157158203125,0.22210828959941864,0.25736120343208313,1.418144941329956
1772561526060782000,1.125781982421875,0.2562716007232666,0.13698793947696686,1.314765214920044
1772561526070849000,1.13584912109375,0.32423341274261475,0.027375027537345886,1.1798460483551025
1772561526080915000,1.1459150390625,0.40792378783226013,-0.03964688628911972,1.123415470123291
1772561526090981000,1.155981201171875,0.4893033504486084,0.08962256461381912,1.1665287017822266
1772561526101048000,1.166048095703125,0.5127415657043457,0.35478952527046204,1.1952996253967285
1772561526111114000,1.176114013671875,0.4965646266937256,0.5482931733131409,1.1304908990859985
1772561526121181000,1.186180908203125,0.4799233376979828,0.6061967015266418,0.9762811660766602
1772561526131247000,1.1962470703125,0.47106271982192993,0.6003580093383789,0.7660283446311951
1772561526141314000,1.20631396484375,0.4406595528125763,0.5634159445762634,0.531574010848999
1772561526151380000,1.2163798828125,0.31064164638519287,0.4765055775642395,0.2716103494167328
1772561526161446100,1.226446044921875,0.1611858606338501,0.4272666573524475,-0.020876646041870117
1772561526171513000,1.23651318359375,0.007971078157424927,0.5581579804420471,-0.29964572191238403
1772561526181578800,1.246578857421875,-0.11159607023000717,0.887460470199585,-0.5065730810165405
1772561526191646200,1.256646240234375,-0.15137064456939697,1.2006193399429321,-0.6506534218788147
1772561526201711900,1.2667119140625,0.064788818359375,1.5077826976776123,-0.6685413122177124
1772561526211778000,1.276778076171875,0.28343477845191956,1.3810111284255981,-0.6712645292282104
1772561526221845000,1.286844970703125,0.3809192478656769,1.0635544061660767,-0.6580318212509155
1772561526231911000,1.296910888671875,0.2544253468513489,0.7680414915084839,-0.6056134700775146
1772561526241977900,1.306977783203125,0.011464607901871204,0.46799251437187195,-0.5771648287773132
1772561526252044000,1.3170439453125,-0.1552923321723938,0.10567290335893631,-0.6960083246231079
1772561526262110000,1.32710986328125,-0.11358775943517685,-0.3913256824016571,-1.0189296007156372
1772561526272177000,1.337177001953125,0.04433075338602066,-0.763806164264679,-1.303047776222229
1772561526282243000,1.3472431640625,0.10943359136581421,-0.9362650513648987,-1.5030828714370728
1772561526292310000,1.35731005859375,0.003597983391955495,-0.952688992023468,-1.6496878862380981
1772561526302376000,1.3673759765625,-0.18375806510448456,-0.6816772222518921,-1.707150936126709
1772561526312443100,1.377443115234375,-0.3541903793811798,-0.34058260917663574,-1.6609619855880737
1772561526322509000,1.387509033203125,-0.4134022891521454,-0.1772347241640091,-1.5780465602874756
1772561526332575000,1.397574951171875,-0.37907737493515015,-0.3186248540878296,-1.493403434753418
1772561526342642200,1.40764208984375,-0.28876668214797974,-0.4767172932624817,-1.3807131052017212
1772561526352708000,1.4177080078125,-0.12159784138202667,-0.5626652240753174,-1.2522954940795898
1772561526362775000,1.427775146484375,0.017856452614068985,-0.9157508015632629,-1.0271916389465332
1772561526372841000,1.437841064453125,-0.009803405962884426,-1.552125096321106,-0.8190581202507019
1772561526382907000,1.447906982421875,0.018656546249985695,-1.817855715751648,-0.4877413511276245
1772561526392973800,1.457973876953125,0.004080093465745449,-1.9997296333312988,-0.22342997789382935
1772561526403040000,1.4680400390625,-0.10875137895345688,-2.472842216491699,-0.11589048057794571
1772561526413107000,1.47810693359375,-0.3249987065792084,-3.0214180946350098,-0.07531070709228516
1772561526423172900,1.4881728515625,-0.6302963495254517,-3.2345030307769775,0.014119570143520832
1772561526433239000,1.498239013671875,-1.0120278596878052,-3.0432381629943848,0.17873145639896393
1772561526443306000,1.508305908203125,-1.3953810930252075,-2.6824588775634766,0.36423182487487793
1772561526453372000,1.518371826171875,-1.6894922256469727,-2.431398630142212,0.5006056427955627
1772561526463439000,1.528439208984375,-1.7992008924484253,-2.3410303592681885,0.5349977016448975
1772561526473505000,1.538505126953125,-1.702643632888794,-2.2714099884033203,0.4672448933124542
1772561526483572000,1.548572021484375,-1.3844053745269775,-1.9175900220870972,0.1973676234483719
1772561526493638100,1.55863818359375,-0.897819459438324,-0.8787756562232971,-0.2545178234577179
1772561526503704000,1.5687041015625,-0.5503895878791809,-0.06773658096790314,-0.42420539259910583
1772561526513771000,1.57877099609375,-0.2810359001159668,0.5126861929893494,-0.5518537759780884
1772561526523837200,1.588837158203125,0.0055210473947227,1.0359272956848145,-0.7310653328895569
1772561526533904100,1.598904052734375,0.28325963020324707,1.388079285621643,-0.951457142829895
1772561526543970000,1.608969970703125,0.5190364718437195,1.4893577098846436,-1.2850196361541748
1772561526554036000,1.619035888671875,0.7217969298362732,1.4119669198989868,-1.7408788204193115
1772561526564103000,1.62910302734375,0.9519774317741394,1.2272835969924927,-2.206404685974121
1772561526574168800,1.6391689453125,1.072239637374878,1.0304381847381592,-2.6545138359069824
1772561526584236000,1.649236083984375,0.9841555953025818,1.2613824605941772,-2.7971997261047363
1772561526594302000,1.659302001953125,1.0027086734771729,1.6619007587432861,-2.261941432952881
1772561526604368000,1.669367919921875,1.1655117273330688,2.0618481636047363,-1.1550959348678589
1772561526614435000,1.67943505859375,0.9398216009140015,2.3650639057159424,0.0545719675719738
1772561526624501000,1.6895009765625,0.5189036726951599,3.0152063369750977,0.8627923130989075
1772561526634568000,1.69956787109375,0.07817448675632477,2.615586519241333,1.1198301315307617
1772561526644633900,1.7096337890625,-0.20967088639736176,1.0545684099197388,1.3452057838439941
1772561526654700800,1.71970068359375,-0.506056010723114,-0.2122398167848587,1.643707036972046
1772561526664766700,1.7297666015625,-0.8302061557769775,-0.6447126865386963,2.0396406650543213
1772561526674833000,1.7398330078125,-0.7891150116920471,-0.47879549860954285,2.362424373626709
1772561526684899800,1.74989990234375,-0.09848647564649582,-0.022555774077773094,2.4138777256011963
1772561526694965800,1.7599658203125,0.7393697500228882,0.5518405437469482,2.394920587539673
1772561526705032700,1.77003271484375,1.3965060710906982,1.4294719696044922,2.4031641483306885
1772561526715099000,1.780098876953125,1.7366626262664795,2.160275459289551,2.3783740997314453
1772561526725164800,1.790164794921875,1.8324031829833984,2.325936794281006,2.3728933334350586
1772561526735232000,1.80023193359375,1.6918010711669922,1.8395652770996094,2.274824619293213
1772561526745297700,1.810297607421875,1.3354743719100952,1.1977746486663818,2.0995466709136963
1772561526755364900,1.82036474609375,0.9490894675254822,0.6561770439147949,2.0269477367401123
1772561526765430800,1.8304306640625,0.4022780656814575,0.15807616710662842,2.1015126705169678
1772561526775497700,1.840497802734375,-0.2346167117357254,-0.3166012465953827,2.447723388671875
1772561526785563600,1.850563720703125,-0.6300287842750549,-0.9450792670249939,2.636414051055908
1772561526795629800,1.8606298828125,-0.3084442615509033,-2.176886796951294,2.3006467819213867
1772561526805696800,1.87069677734375,0.36112770438194275,-2.9262001514434814,1.952862024307251
1772561526815762700,1.8807626953125,0.7878830432891846,-2.7171401977539062,1.7892059087753296
1772561526825829600,1.89082958984375,1.1048778295516968,-2.1136438846588135,1.5139775276184082
1772561526835895800,1.900895751953125,1.3198561668395996,-1.5392429828643799,0.9129385352134705
1772561526845961700,1.910961669921875,1.2160136699676514,-1.1213886737823486,-0.04395762085914612
1772561526856028700,1.921028564453125,0.9785868525505066,-0.9415708780288696,-1.0227524042129517
1772561526866094800,1.9310947265625,0.6249622106552124,-1.1603844165802002,-1.6940059661865234
1772561526876161800,1.941161865234375,0.2374495416879654,-1.3109941482543945,-1.7537792921066284
1772561526886228000,1.95122802734375,0.15056949853897095,-1.188938021659851,-1.119521975517273
1772561526896294000,1.9612939453125,0.3228296637535095,-0.9028908610343933,-0.04495669901371002
1772561526906360800,1.97136083984375,0.40326884388923645,-0.48456576466560364,1.0620181560516357
1772561526916427000,1.981427001953125,0.28313371539115906,-0.11102453619241714,1.8424441814422607
1772561526926494000,1.991493896484375,-0.04594056308269501,-0.12259411066770554,2.00811767578125
1772561526936559600,2.0015595703125,-0.4650076925754547,-0.4335281550884247,1.6417793035507202
1772561526946626600,2.01162646484375,-0.8444439768791199,-0.5744493007659912,1.0380457639694214
1772561526956692700,2.021692626953125,-1.304572343826294,-0.5745247006416321,0.24635674059391022
1772561526966758700,2.031758544921875,-1.6854792833328247,-0.4605874717235565,-0.6229304075241089
1772561526976825600,2.04182568359375,-1.7878198623657227,0.009944753721356392,-1.4075603485107422
1772561526986891800,2.051891845703125,-1.6580860614776611,0.6736180782318115,-2.030776262283325
1772561526996958700,2.061958740234375,-1.2470264434814453,1.5896873474121094,-2.1819329261779785
1772561527007024600,2.072024658203125,-0.902248740196228,2.1397647857666016,-1.9136728048324585
1772561527017090800,2.0820908203125,-0.8217172026634216,2.021151065826416,-1.4690908193588257
1772561527027157800,2.09215771484375,-0.8643477559089661,1.3882118463516235,-1.1011223793029785
1772561527037224000,2.102223876953125,-0.9856262803077698,0.23012001812458038,-1.1831097602844238
1772561527047291000,2.112290771484375,-1.1400781869888306,-1.0248792171478271,-1.6870777606964111
1772561527057356800,2.122356689453125,-1.1572009325027466,-2.018397808074951,-2.348053455352783
1772561527067423700,2.132423828125,-1.1040968894958496,-2.6848459243774414,-2.9950263500213623
1772561527077490000,2.142489990234375,-1.0574856996536255,-2.9930338859558105,-3.4606363773345947
1772561527087555800,2.152555908203125,-1.0439049005508423,-2.756880760192871,-3.536207675933838
1772561527097622800,2.162622802734375,-1.054022192955017,-2.076852321624756,-3.1987075805664062
1772561527107688700,2.172688720703125,-1.097826361656189,-1.2746551036834717,-2.642157554626465
1772561527117756000,2.182755859375,-1.1522407531738281,-0.7599726915359497,-2.1560869216918945
1772561527127821600,2.192821533203125,-1.2077327966690063,-0.48961687088012695,-1.9394341707229614
1772561527137887700,2.2028876953125,-1.2017837762832642,-0.42468005418777466,-1.9959845542907715
1772561527147954700,2.21295458984375,-1.1142147779464722,-0.5051000714302063,-2.2243595123291016
1772561527158020600,2.2230205078125,-1.0173759460449219,-0.7491217851638794,-2.480571985244751
1772561527168087800,2.233087890625,-0.9817753434181213,-0.8680838346481323,-2.639707565307617
1772561527178153700,2.24315380859375,-1.0188828706741333,-0.6929067373275757,-2.5926365852355957
1772561527188220700,2.253220703125,-0.9889124631881714,-0.24024683237075806,-2.1385793685913086
1772561527198286800,2.263286865234375,-0.7112506031990051,0.15882596373558044,-1.3724706172943115
1772561527208352800,2.273352783203125,-0.29835063219070435,0.4159986674785614,-0.5555654764175415
1772561527218419700,2.283419677734375,0.026363462209701538,0.37459367513656616,0.052756115794181824
1772561527228486000,2.29348583984375,0.06128176674246788,0.021944299340248108,0.3762851655483246
1772561527238552800,2.303552734375,-0.11823251098394394,-0.5116474628448486,0.5864534378051758
1772561527248618800,2.31361865234375,-0.42554718255996704,-0.9720832109451294,0.8754827976226807
1772561527258685000,2.323684814453125,-0.7941151261329651,-0.7941786050796509,1.4075044393539429
1772561527268752000,2.333751953125,-1.005673885345459,0.36698436737060547,2.237677812576294
1772561527278817800,2.34381787109375,-1.005948781967163,1.9454458951950073,2.8056018352508545
1772561527288885000,2.353885009765625,-1.1240676641464233,2.6283323764801025,2.492393970489502
1772561527298950700,2.36395068359375,-1.7009543180465698,2.3465702533721924,1.2933428287506104
1772561527309017900,2.374017822265625,-2.4357235431671143,2.760607957839966,0.17314831912517548
1772561527319083800,2.384083740234375,-2.4074010848999023,4.911978721618652,-0.04891688749194145
1772561527329149700,2.394149658203125,-1.3991259336471558,6.8599724769592285,-0.12378766387701035
1772561527339216600,2.404216552734375,0.16205385327339172,8.141059875488281,-0.3555075228214264
1772561527349282800,2.41428271484375,1.8233095407485962,8.492940902709961,-0.4666297733783722
1772561527359349800,2.424349853515625,2.9521846771240234,7.587442874908447,-0.07014025747776031
1772561527369415700,2.434415771484375,3.568488597869873,5.5288262367248535,0.9839048385620117
1772561527379481900,2.44448193359375,3.7334935665130615,2.938117742538452,2.4038076400756836
1772561527389548800,2.454548828125,3.5145556926727295,-0.1746343970298767,3.1289772987365723
1772561527399614700,2.46461474609375,3.23600172996521,-2.234337091445923,3.36135196685791
1772561527409682000,2.474681884765625,2.837514638900757,-2.6737310886383057,3.7419955730438232
1772561527419747800,2.484747802734375,2.392815113067627,-2.556833267211914,3.8792166709899902
1772561527429814800,2.494814697265625,1.8180636167526245,-2.398367404937744,3.5032241344451904
1772561527439881000,2.504880859375,1.2358092069625854,-2.2994234561920166,2.6918137073516846
1772561527449947000,2.51494677734375,0.8134880661964417,-2.2079544067382812,1.5857818126678467
1772561527460013800,2.525013916015625,0.4985371232032776,-1.8946969509124756,0.3096274733543396
1772561527470080000,2.535080078125,0.2872728109359741,-1.4340566396713257,-0.9936966896057129
1772561527480147000,2.54514697265625,0.014676806516945362,-0.8476731181144714,-2.0212013721466064
1772561527490212600,2.555212646484375,-0.29610875248908997,-0.09707289934158325,-2.5446107387542725
1772561527500278800,2.56527880859375,-0.48728200793266296,0.6148120164871216,-2.4013781547546387
1772561527510345700,2.575345703125,-0.46276333928108215,1.2216767072677612,-1.6124610900878906
1772561527520411600,2.58541162109375,-0.2766162157058716,1.3481374979019165,-0.7595158219337463
1772561527530478600,2.595478515625,-0.06338782608509064,0.7105085849761963,-0.35524848103523254
1772561527540544800,2.605544677734375,-0.001854780362918973,-0.27632296085357666,-0.43080392479896545
1772561527550611700,2.61561181640625,-0.13113953173160553,-1.21354079246521,-0.8704747557640076
1772561527560678000,2.625677978515625,-0.3768952190876007,-1.6729692220687866,-1.4354530572891235
1772561527570743800,2.635743896484375,-0.5725107789039612,-1.6188281774520874,-1.858468770980835
1772561527580810800,2.645810791015625,-0.6373255252838135,-1.1813607215881348,-2.046035051345825
1772561527590877000,2.655876953125,-0.538659393787384,-0.5274915099143982,-1.9369245767593384
1772561527600943900,2.66594384765625,-0.3206857442855835,-0.1508941799402237,-1.7205853462219238
1772561527611009800,2.676009765625,-0.20696237683296204,-0.47099363803863525,-1.6881732940673828
1772561527621076000,2.686075927734375,-0.3483324646949768,-1.1942106485366821,-1.8154693841934204
1772561527631143000,2.696142822265625,-0.7151815295219421,-1.8947341442108154,-1.9663153886795044
1772561527641209000,2.706208984375,-1.0411924123764038,-2.174572706222534,-2.1193554401397705
1772561527651276300,2.7162763671875,-1.054101824760437,-2.0568578243255615,-2.3224592208862305
1772561527661342200,2.72634228515625,-0.7094046473503113,-1.7871513366699219,-2.4858264923095703
1772561527671409200,2.7364091796875,-0.4035067856311798,-1.6092392206192017,-2.569467782974243
1772561527681475000,2.74647509765625,-0.39931079745292664,-1.5624569654464722,-2.4690184593200684
1772561527691541200,2.756541259765625,-0.5473673939704895,-1.7318758964538574,-2.158663511276245
1772561527701608200,2.766608154296875,-0.7407293319702148,-2.085196018218994,-1.6229265928268433
1772561527711674000,2.776674072265625,-0.9661025404930115,-2.6168930530548096,-0.9111502170562744
1772561527721741300,2.7867412109375,-1.165927767753601,-3.1704509258270264,-0.24260038137435913
1772561527731807200,2.79680712890625,-1.3435981273651123,-3.5281057357788086,0.06651619076728821
1772561527741874200,2.806874267578125,-1.3778270483016968,-3.499988079071045,0.027850382030010223
1772561527751940400,2.8169404296875,-1.3128912448883057,-2.9923369884490967,-0.19034427404403687
1772561527762006300,2.82700634765625,-1.3105225563049316,-2.1486639976501465,-0.5077815055847168
1772561527772073200,2.8370732421875,-1.4096004962921143,-1.2396148443222046,-0.8154801726341248
1772561527782139400,2.847139404296875,-1.5280113220214844,-0.518875777721405,-1.0788202285766602
1772561527792206300,2.857206298828125,-1.619418978691101,0.06660602986812592,-1.1457617282867432
1772561527802272300,2.867272216796875,-1.622727870941162,0.6451908349990845,-1.0351976156234741
1772561527812338400,2.87733837890625,-1.579190731048584,1.2733420133590698,-0.7861616611480713
1772561527822405400,2.8874052734375,-1.439124345779419,1.7539491653442383,-0.5205551385879517
1772561527832471000,2.897470947265625,-1.2410509586334229,1.9465476274490356,-0.3561422526836395
1772561527842538200,2.907538330078125,-0.8714703321456909,1.8555256128311157,-0.1422545611858368
1772561527852604200,2.917604248046875,-0.5129505395889282,1.6380423307418823,0.3004016876220703
1772561527862671000,2.927671142578125,-0.2909296751022339,1.4810069799423218,0.8686938285827637
1772561527872737300,2.9377373046875,-0.0295566413551569,1.6378061771392822,1.542003870010376
1772561527882803200,2.94780322265625,0.4619576334953308,2.124478816986084,2.2158203125
1772561527892870100,2.9578701171875,1.0154941082000732,2.4252939224243164,2.483999490737915
1772561527902936300,2.967936279296875,1.4652788639068604,2.2395455837249756,2.190976858139038
1772561527913003300,2.978003173828125,1.7383439540863037,2.0088138580322266,1.9203970432281494
1772561527923069200,2.988069091796875,1.8054656982421875,2.079231023788452,2.1028337478637695
1772561527933136100,2.99813623046875,1.7410576343536377,2.1631991863250732,2.475215196609497
1772561527943202300,3.008202392578125,2.1307098865509033,2.451075315475464,2.9206647872924805
1772561527953268200,3.018268310546875,2.9900050163269043,2.845656156539917,3.440349817276001
1772561527963335200,3.028335205078125,3.559321641921997,2.758199691772461,3.7871642112731934
1772561527973401300,3.0384013671875,3.5929150581359863,2.118306875228882,4.089225769042969
1772561527983468300,3.04846826171875,3.3843724727630615,1.276005506515503,4.456051349639893
1772561527993534200,3.0585341796875,2.8985397815704346,0.4685976803302765,4.702715873718262
1772561528003600400,3.068600341796875,1.6921253204345703,-0.42351654171943665,4.084229946136475
1772561528013667300,3.078667236328125,0.7627571821212769,-0.7156900763511658,2.652696132659912
1772561528023733200,3.088733154296875,0.757381021976471,-0.04320955649018288,1.0231049060821533
1772561528033800200,3.09880029296875,0.8245342373847961,0.9324264526367188,-0.6949180960655212
1772561528043866000,3.1088662109375,0.9204154014587402,1.5791059732437134,-2.136291265487671
1772561528053933000,3.11893310546875,1.0400179624557495,1.6711088418960571,-3.0233583450317383
1772561528063999200,3.128999267578125,1.0557763576507568,1.4070667028427124,-3.279879570007324
1772561528074065200,3.139065185546875,0.7966576814651489,1.1272614002227783,-2.7772698402404785
1772561528084132000,3.149132080078125,0.32676154375076294,0.8558720350265503,-1.819275975227356
1772561528094198300,3.1591982421875,-0.01971597597002983,0.21235191822052002,-0.9723345041275024
1772561528104265200,3.16926513671875,-0.08620116859674454,0.06249092146754265,-0.30369704961776733
1772561528114331100,3.1793310546875,0.16507846117019653,0.13913695514202118,0.14632469415664673
1772561528124397300,3.189397216796875,0.43935349583625793,0.2994079887866974,0.23838213086128235
1772561528134464300,3.19946435546875,0.48888909816741943,0.21566222608089447,-0.20060454308986664
1772561528144530200,3.2095302734375,0.23216871917247772,-0.09223407506942749,-1.0569345951080322
1772561528154597400,3.219597412109375,-0.24070295691490173,-0.41755837202072144,-2.0082855224609375
1772561528164663300,3.229663330078125,-0.6672667860984802,-0.5311989188194275,-2.7446632385253906
1772561528174730200,3.239730224609375,-0.7917485237121582,-0.302898645401001,-3.0137953758239746
1772561528184796400,3.24979638671875,-0.7059828042984009,0.022280124947428703,-2.819279193878174
1772561528194862000,3.259862060546875,-0.47035324573516846,0.26970696449279785,-2.1900806427001953
1772561528204929300,3.26992919921875,-0.2317550927400589,0.21055801212787628,-1.4767560958862305
1772561528214995200,3.2799951171875,-0.07698734849691391,-0.030608266592025757,-0.9479681849479675
1772561528225062100,3.290062255859375,0.0034785487223416567,-0.5143346786499023,-0.7774019837379456
1772561528235128000,3.300128173828125,-0.08361587673425674,-1.056210994720459,-0.948769748210907
1772561528245195300,3.3101953125,-0.3782983720302582,-1.5087862014770508,-1.3462159633636475
1772561528255261200,3.32026123046875,-0.7593900561332703,-1.8304110765457153,-1.8180538415908813
1772561528265327000,3.3303271484375,-1.0386981964111328,-1.7864240407943726,-2.2029778957366943
1772561528275394300,3.340394287109375,-1.1514129638671875,-1.3230599164962769,-2.4105918407440186
1772561528285460200,3.350460205078125,-1.1614406108856201,-0.5684641599655151,-2.514676570892334
1772561528295527200,3.360527099609375,-1.179019570350647,0.20102296769618988,-2.5555267333984375
1772561528305593300,3.37059326171875,-1.208776831626892,0.7703765630722046,-2.4984548091888428
1772561528315660300,3.380660400390625,-1.203484058380127,1.0488157272338867,-2.3531525135040283
1772561528325726200,3.390726318359375,-1.2027634382247925,0.9503161311149597,-2.1750714778900146
1772561528335792400,3.40079248046875,-1.214827060699463,0.5298898220062256,-1.9804747104644775
1772561528345859300,3.410859375,-1.2581857442855835,-0.06564974039793015,-1.8173993825912476
1772561528355925200,3.42092529296875,-1.308195948600769,-0.6669893860816956,-1.6737606525421143
1772561528365992200,3.4309921875,-1.3124231100082397,-1.206078290939331,-1.4969525337219238
1772561528376058400,3.441058349609375,-1.3057962656021118,-1.7425979375839233,-1.3359724283218384
1772561528386124000,3.4511240234375,-1.2393144369125366,-2.2369327545166016,-1.1688696146011353
1772561528396191200,3.461191162109375,-1.027896761894226,-2.4966776371002197,-0.9384580254554749
1772561528406257200,3.471257080078125,-0.7945992946624756,-2.3699913024902344,-0.5945413708686829
1772561528416324000,3.481323974609375,-0.6789102554321289,-1.9935197830200195,-0.16929495334625244
1772561528426390300,3.491390380859375,-0.616370439529419,-1.378891110420227,0.3390040695667267
1772561528436457200,3.501457275390625,-0.48235881328582764,-0.7082261443138123,0.8851782083511353
1772561528446523100,3.511523193359375,-0.3838784992694855,-0.29832082986831665,1.289345145225525
1772561528456589300,3.52158935546875,-0.5062398314476013,-0.15296708047389984,1.5011188983917236
1772561528466656300,3.53165625,-0.7394960522651672,0.031143244355916977,1.6141546964645386
1772561528476722200,3.54172216796875,-0.8483016490936279,0.5519728660583496,1.8210923671722412
1772561528486789000,3.5517890625,-0.5575217008590698,1.6676174402236938,2.339724063873291
1772561528496855300,3.561855224609375,-0.048094358295202255,2.7222118377685547,2.956435203552246
1772561528506922200,3.571922119140625,0.3825352191925049,2.9013519287109375,3.363691806793213
1772561528516988200,3.58198828125,0.5309897065162659,2.4402241706848145,3.5119690895080566
1772561528527054300,3.592054443359375,0.6562825441360474,2.4048516750335693,4.01128625869751
1772561528537121300,3.602121337890625,0.7889894843101501,2.5209097862243652,4.770020008087158
1772561528547187500,3.6121875,1.1956913471221924,2.2611756324768066,5.323225021362305
1772561528557254400,3.62225439453125,2.075375556945801,1.8210551738739014,5.678906440734863
1772561528567320300,3.6323203125,2.7915141582489014,1.4339287281036377,6.051628589630127
1772561528577386200,3.64238623046875,2.9074103832244873,0.7804505228996277,6.100578308105469
1772561528587453200,3.652453125,2.595045328140259,-0.23075561225414276,5.621611595153809
1772561528597519000,3.66251904296875,2.1675314903259277,-0.9748904705047607,4.9844512939453125
1772561528607586000,3.6725859375,1.58670973777771,-1.633540153503418,3.937605857849121
1772561528617652200,3.68265234375,1.1741126775741577,-2.0264334678649902,2.580709934234619
1772561528627719200,3.69271923828125,0.984700083732605,-1.7393443584442139,1.39927077293396
1772561528637785000,3.70278515625,0.7439056038856506,-0.8922479152679443,0.38159194588661194
1772561528647851000,3.71285107421875,0.5005828142166138,-0.21101705729961395,-0.5790923237800598
1772561528657918000,3.72291796875,0.35716331005096436,0.17411865293979645,-1.3520740270614624
1772561528667984100,3.732984130859375,0.2660263776779175,0.41121721267700195,-1.8582526445388794
1772561528678051000,3.743051025390625,0.07672781497240067,0.3616483509540558,-2.149846076965332
1772561528688117000,3.753116943359375,-0.13014794886112213,0.07869891077280045,-2.110788345336914
1772561528698184000,3.763183837890625,-0.2800636887550354,-0.1020229309797287,-1.6670516729354858
1772561528708250000,3.77325,-0.32845190167427063,0.4192052185535431,-0.8778968453407288
1772561528718316000,3.78331591796875,-0.20631453394889832,1.0072160959243774,-0.1328229308128357
1772561528728383000,3.793383056640625,-0.0014634793624281883,1.0870070457458496,0.13502122461795807
1772561528738449200,3.80344921875,0.08609699457883835,0.6089027523994446,-0.2219880372285843
1772561528748516000,3.81351611328125,-0.14177238941192627,-0.07533246278762817,-0.9784427881240845
1772561528758581800,3.823581787109375,-0.5064702033996582,-0.4433336555957794,-1.737000584602356
1772561528768649200,3.833649169921875,-0.6875481009483337,-0.3521980047225952,-2.1886377334594727
1772561528778715000,3.84371484375,-0.6826931238174438,0.0701737254858017,-2.271820068359375
1772561528788780800,3.85378076171875,-0.5387076139450073,0.4667811095714569,-2.037196636199951
1772561528798848000,3.863847900390625,-0.2858428657054901,0.6169291138648987,-1.588302493095398
1772561528808914000,3.873913818359375,0.02569996938109398,0.5948224663734436,-1.109952688217163
1772561528818980900,3.88398095703125,0.2962494492530823,0.48613807559013367,-0.8204537034034729
1772561528829047000,3.894047119140625,0.46568533778190613,0.3182846009731293,-0.7766963839530945
1772561528839114000,3.904114013671875,0.39211365580558777,-0.15180620551109314,-0.9146225452423096
1772561528849180000,3.914179931640625,0.1845802217721939,-0.8919307589530945,-1.1641184091567993
1772561528859246000,3.92424609375,0.030753109604120255,-1.615670084953308,-1.4529086351394653
1772561528869313000,3.93431298828125,0.053442928940057755,-2.1133198738098145,-1.7461879253387451
1772561528879379000,3.94437890625,0.13911761343479156,-2.3358511924743652,-2.0374038219451904
1772561528889446100,3.954446044921875,0.12660367786884308,-2.2073001861572266,-2.297429084777832
1772561528899512000,3.964511962890625,0.01585986092686653,-1.6456793546676636,-2.4279468059539795
1772561528909578000,3.974577880859375,-0.13332590460777283,-0.825763463973999,-2.417048692703247
1772561528919645200,3.984645263671875,-0.29126280546188354,-0.0268982145935297,-2.306434392929077
1772561528929711000,3.994711181640625,-0.43417105078697205,0.5007920861244202,-2.1962170600891113
1772561528939778000,4.004778076171875,-0.5927524566650391,0.6916504502296448,-2.152700901031494
1772561528949844000,4.014843994140625,-0.8187390565872192,0.5797566771507263,-2.178509473800659
1772561528959911200,4.0249111328125,-0.9455100893974304,0.3285377621650696,-2.252192258834839
1772561528969976800,4.034976806640625,-0.9867062568664551,0.08860772848129272,-2.23913311958313
1772561528980043000,4.04504296875,-1.021983027458191,-0.19011257588863373,-2.1318016052246094
1772561528990110000,4.05510986328125,-1.0014127492904663,-0.587756335735321,-1.9270288944244385
1772561529000175900,4.06517578125,-1.027190089225769,-0.9142042398452759,-1.5574284791946411
1772561529010242800,4.075242919921875,-1.0759673118591309,-1.0378177165985107,-0.9894338250160217
1772561529020309000,4.08530908203125,-1.0912240743637085,-1.103000521659851,-0.3495713472366333
1772561529030376000,4.0953759765625,-0.9864221811294556,-1.1048341989517212,0.18282641470432281
1772561529040442000,4.105442138671875,-0.8114151954650879,-0.999733030796051,0.5299113988876343
1772561529050508000,4.115508056640625,-0.6810168623924255,-0.6170606017112732,0.7296636700630188
1772561529060575000,4.125574951171875,-0.5716557502746582,-0.07695366442203522,0.932515025138855
1772561529070641200,4.13564111328125,-0.43611055612564087,0.12824556231498718,1.3183989524841309
1772561529080708000,4.1457080078125,-0.37762168049812317,0.012604710645973682,1.958052396774292
1772561529090774000,4.15577392578125,-0.3774038553237915,0.15818586945533752,2.9103829860687256
1772561529100841000,4.165841064453125,-0.31605660915374756,0.5502796173095703,3.7337117195129395
1772561529110907100,4.1759072265625,-0.20937897264957428,1.0432337522506714,3.959015130996704
1772561529120972800,4.185972900390625,-0.20282332599163055,1.0066426992416382,3.5086722373962402
1772561529131040000,4.1960400390625,-0.1381523609161377,1.195311427116394,3.3768815994262695
1772561529141106000,4.20610595703125,-0.00888251792639494,1.4812614917755127,3.7559919357299805
1772561529151172900,4.2161728515625,-0.08117447048425674,1.322306513786316,3.978555679321289
1772561529161238800,4.22623876953125,0.3113754689693451,1.2200793027877808,4.171322345733643
1772561529171306000,4.236305908203125,1.0574878454208374,1.0764539241790771,4.5459465980529785
1772561529181372000,4.246371826171875,1.2362778186798096,0.6732561588287354,4.605095863342285
1772561529191438000,4.25643798828125,0.8710986971855164,0.4911716878414154,4.016197204589844
1772561529201505000,4.266505126953125,0.7217472791671753,0.7736837863922119,2.911336660385132
1772561529211571000,4.276571044921875,1.0970115661621094,0.8439827561378479,1.3892916440963745
1772561529221638000,4.286637939453125,1.240905523300171,0.4064570665359497,-0.08998148143291473
1772561529231704000,4.2967041015625,0.9462786316871643,-0.04145067557692528,-0.9862122535705566
1772561529241771000,4.30677099609375,0.5806950926780701,-0.566070556640625,-1.4713459014892578
1772561529251837000,4.3168369140625,0.42457711696624756,-1.420691728591919,-1.7627047300338745
1772561529261903000,4.326903076171875,0.452861487865448,-2.453195571899414,-1.9126121997833252
1772561529271970000,4.336969970703125,0.34237590432167053,-3.2084364891052246,-1.9870127439498901
1772561529282036000,4.347035888671875,-0.08922368288040161,-3.0637104511260986,-2.0000531673431396
1772561529292103200,4.357103271484375,-0.5690586566925049,-2.2513952255249023,-2.0143582820892334
1772561529302169000,4.367169189453125,-0.8849923610687256,-1.0828907489776611,-2.047420024871826
1772561529312236000,4.377236083984375,-0.8773021101951599,0.36537182331085205,-1.8148939609527588
1772561529322302200,4.38730224609375,-0.613014280796051,1.5390090942382812,-1.425977349281311
1772561529332368000,4.397367919921875,-0.3370603919029236,2.0225307941436768,-1.2252118587493896
1772561529342434800,4.407434814453125,-0.1732429414987564,1.6949388980865479,-1.4043866395950317
1772561529352501000,4.4175009765625,-0.2615942358970642,0.781351625919342,-1.943301796913147
1772561529362568000,4.42756787109375,-0.5137620568275452,-0.21902544796466827,-2.556485891342163
1772561529372633900,4.4376337890625,-0.7198897004127502,-0.6874286532402039,-2.8867671489715576
1772561529382700800,4.44770068359375,-0.6989452838897705,-0.5383920073509216,-2.8536388874053955
1772561529392767000,4.45776708984375,-0.4221465289592743,-0.12683893740177155,-2.511953592300415
1772561529402833000,4.4678330078125,-0.05381936952471733,0.5080983638763428,-1.9321595430374146
1772561529412900000,4.477900146484375,0.31279057264328003,0.8892037272453308,-1.406551480293274
1772561529422966000,4.487966064453125,0.5442072749137878,0.4957171678543091,-1.1617404222488403
1772561529433033000,4.498032958984375,0.5234865546226501,-0.5948759317398071,-1.2432277202606201
1772561529443099100,4.50809912109375,0.25449931621551514,-1.9767249822616577,-1.5072410106658936
1772561529453166000,4.518166015625,-0.14615124464035034,-3.08376407623291,-1.727018117904663
1772561529463232000,4.52823193359375,-0.4372491240501404,-3.524170160293579,-1.7557507753372192
1772561529473298200,4.538298095703125,-0.6267063021659851,-3.1933999061584473,-1.7162941694259644
1772561529483365000,4.548365234375,-0.8881925344467163,-2.362482786178589,-1.726119041442871
1772561529493431000,4.55843115234375,-1.2731192111968994,-1.3035610914230347,-1.752076506614685
1772561529503498000,4.568498046875,-1.7191393375396729,-0.4085477292537689,-1.7672029733657837
1772561529513564200,4.578564208984375,-2.158127784729004,-0.024265684187412262,-1.6361185312271118
1772561529523631000,4.588631103515625,-2.6023800373077393,-0.5070605874061584,-1.461345911026001
1772561529533696800,4.59869677734375,-2.906954765319824,-1.370152473449707,-1.293239951133728
1772561529543763000,4.608762939453125,-2.8849637508392334,-2.109830856323242,-1.2801907062530518
1772561529553830000,4.618829833984375,-2.636873245239258,-2.3713953495025635,-1.5208275318145752
1772561529563896000,4.62889599609375,-2.3640971183776855,-2.0934970378875732,-1.912363052368164
1772561529573963000,4.638962890625,-2.295586347579956,-1.5180467367172241,-2.219968557357788
1772561529584029000,4.64902880859375,-2.2539918422698975,-0.6554738879203796,-2.248868942260742
1772561529594095900,4.659095947265625,-1.9867671728134155,0.3080800473690033,-2.0132675170898438
1772561529604162000,4.669162109375,-1.5702946186065674,1.0988787412643433,-1.5088114738464355
1772561529614228000,4.67922802734375,-1.1797460317611694,1.5347864627838135,-0.8805513978004456
1772561529624295000,4.689294921875,-0.8911547660827637,1.4730384349822998,-0.3022094964981079
1772561529634361000,4.699361083984375,-0.7124091982841492,1.2310737371444702,0.28114455938339233
1772561529644428000,4.709427978515625,-0.35789260268211365,1.1617943048477173,1.0093334913253784
1772561529654494000,4.719493896484375,0.12938888370990753,1.2454190254211426,1.7295805215835571
1772561529664561200,4.72956103515625,0.5815536975860596,1.441611409187317,2.3920252323150635
1772561529674627000,4.739626953125,1.0058913230895996,1.821347951889038,3.0632803440093994
1772561529684693000,4.74969287109375,1.2744040489196777,2.3604941368103027,3.6353580951690674
1772561529694760200,4.75976025390625,1.351985216140747,2.7813546657562256,4.0090508460998535
1772561529704825900,4.769825927734375,1.250295877456665,2.412816286087036,3.883981943130493
1772561529714893000,4.77989306640625,0.998063325881958,1.4924160242080688,3.347557306289673
1772561529724959000,4.789958984375,0.8745182156562805,1.296806812286377,3.1458942890167236
1772561529735026000,4.80002587890625,1.0249024629592896,2.333562135696411,3.676111936569214
1772561529745091800,4.810091796875,1.044076681137085,3.2425029277801514,4.038271903991699
1772561529755158000,4.820157958984375,1.4473804235458374,3.9949169158935547,4.017499923706055
1772561529765225000,4.830224853515625,2.2218854427337646,4.772014617919922,4.247608661651611
1772561529775291000,4.840290771484375,2.9522860050201416,5.196162223815918,4.920222282409668
1772561529785358000,4.850358154296875,3.407473087310791,4.685604572296143,5.871524810791016
1772561529795424000,4.860424072265625,3.544563055038452,3.4530537128448486,6.9640631675720215
1772561529805490000,4.870489990234375,3.202223539352417,1.886202096939087,7.710627555847168
1772561529815557000,4.88055712890625,2.594566583633423,0.6011314392089844,7.669805526733398
1772561529825623000,4.890623046875,1.8142213821411133,0.4055110812187195,6.838266849517822
1772561529835690000,4.90068994140625,1.5150316953659058,1.3525047302246094,5.404152870178223
1772561529845756200,4.910756103515625,1.4852279424667358,2.624361276626587,3.7084290981292725
1772561529855823000,4.920822998046875,1.1952955722808838,3.3140780925750732,1.997802495956421
1772561529865889000,4.930888916015625,0.9973372220993042,2.878756523132324,0.5766613483428955
1772561529875955200,4.940955078125,0.9762105345726013,1.793407678604126,-0.35733407735824585
1772561529886022100,4.951022216796875,0.8873342275619507,0.5092785358428955,-0.8093081712722778
1772561529896087800,4.961087890625,0.5636324286460876,-0.555873692035675,-1.0382788181304932
1772561529906155000,4.971155029296875,0.012222826480865479,-1.1458392143249512,-1.2435100078582764
1772561529916221000,4.981220947265625,-0.6745395064353943,-1.2061070203781128,-1.4721328020095825
1772561529926288000,4.991287841796875,-1.296574354171753,-0.7577729821205139,-1.7333030700683594
1772561529936354000,5.00135400390625,-1.597632884979248,0.1057029664516449,-1.8307349681854248
1772561529946421000,5.0114208984375,-1.4998877048492432,0.8040229678153992,-1.78365159034729
1772561529956487000,5.02148681640625,-1.2932490110397339,1.0252834558486938,-1.7757601737976074
1772561529966553000,5.031552978515625,-1.2018667459487915,0.9366752505302429,-1.9327138662338257
1772561529976620000,5.0416201171875,-1.224160075187683,0.5375450253486633,-2.367795944213867
1772561529986686000,5.05168603515625,-1.3342671394348145,0.03310079500079155,-2.974363088607788
1772561529996753000,5.0617529296875,-1.5360057353973389,-0.434434711933136,-3.5714056491851807
1772561530006819000,5.071819091796875,-1.660245418548584,-0.696017324924469,-3.904942512512207
1772561530016886000,5.081885986328125,-1.5135602951049805,-0.7093388438224792,-3.779358148574829
1772561530026952000,5.091951904296875,-1.2950001955032349,-0.5919005870819092,-3.3357901573181152
1772561530037018000,5.10201806640625,-1.0544227361679077,-0.41726675629615784,-2.791031837463379
1772561530047085000,5.1120849609375,-0.8569634556770325,-0.5183401107788086,-2.470126152038574
1772561530057151000,5.12215087890625,-0.7463878393173218,-0.9370077848434448,-2.4651880264282227
1772561530067218200,5.13221826171875,-0.7794150114059448,-1.7578463554382324,-2.758645534515381
1772561530077284000,5.1422841796875,-0.955784797668457,-2.8871803283691406,-3.257525682449341
1772561530087351000,5.15235107421875,-1.0880986452102661,-3.926025390625,-3.7879905700683594
1772561530097417000,5.1624169921875,-1.0857620239257812,-4.361456871032715,-4.133645057678223
1772561530107483000,5.17248291015625,-0.8563389182090759,-3.8660693168640137,-4.138322353363037
1772561530117549800,5.1825498046875,-0.6037104725837708,-2.7768919467926025,-3.779876708984375
1772561530127616000,5.192615966796875,-0.5908005833625793,-1.7300950288772583,-3.155407190322876
1772561530137683000,5.202682861328125,-1.0233983993530273,-1.248230218887329,-2.592482328414917
1772561530147748900,5.212748779296875,-1.5598506927490234,-1.114802360534668,-2.2261438369750977
1772561530157815800,5.22281591796875,-1.8556758165359497,-0.9196308255195618,-2.1203646659851074
1772561530167882000,5.232882080078125,-1.7147927284240723,-0.9093227982521057,-2.4059860706329346
1772561530177948000,5.242947998046875,-1.2990657091140747,-1.0437198877334595,-2.8497252464294434
1772561530188015000,5.25301513671875,-1.0167062282562256,-1.1965035200119019,-3.2027535438537598
1772561530198081000,5.2630810546875,-1.0606615543365479,-1.4274038076400757,-3.310136556625366
1772561530208148000,5.27314794921875,-1.3337684869766235,-1.5741162300109863,-3.1755294799804688
1772561530218214100,5.283214111328125,-1.444875955581665,-1.4903169870376587,-2.808164358139038
1772561530228281000,5.293281005859375,-1.2524114847183228,-1.2055038213729858,-2.256312370300293
1772561530238347000,5.303346923828125,-0.9531522989273071,-0.7506850957870483,-1.5714969635009766
1772561530248413200,5.3134130859375,-0.704508364200592,-0.2089451253414154,-0.8975915908813477
1772561530258480000,5.323480224609375,-0.49010106921195984,0.44257113337516785,-0.31271806359291077
1772561530268546000,5.333546142578125,-0.2538914680480957,0.8041713833808899,0.11022786051034927
1772561530278613000,5.343613037109375,0.01145913265645504,0.7480624914169312,0.4931066036224365
1772561530288679000,5.353678955078125,0.18130116164684296,0.6271483302116394,1.087222695350647
1772561530298746000,5.36374609375,0.25549444556236267,0.7412161231040955,1.9934648275375366
1772561530308811800,5.373811767578125,0.48075899481773376,1.0866869688034058,3.0229763984680176
1772561530318878000,5.3838779296875,0.9423931241035461,1.2038185596466064,3.9128172397613525
1772561530328945000,5.39394482421875,1.4700618982315063,0.7439662218093872,4.488715648651123
1772561530339011000,5.404010986328125,1.7123222351074219,-0.18142974376678467,4.756633758544922
1772561530349078000,5.414078125,1.5868884325027466,-0.8089344501495361,4.9539313316345215
1772561530359144000,5.42414404296875,1.3785784244537354,-0.9681124687194824,4.8938117027282715
1772561530369211000,5.4342109375,1.3720999956130981,-0.7077184319496155,4.632644176483154
1772561530379277000,5.444277099609375,1.736595869064331,0.3192828893661499,4.701714038848877
1772561530389343000,5.454343017578125,2.1829566955566406,1.2372620105743408,5.069057464599609
1772561530399410000,5.464409912109375,2.420109510421753,1.5575684309005737,5.523600101470947
1772561530409476000,5.47447607421875,2.450303316116333,1.1726628541946411,5.847266674041748
1772561530419543000,5.48454296875,1.9792373180389404,0.727012038230896,5.972072601318359
1772561530429609000,5.49460888671875,1.1496913433074951,0.21029379963874817,5.762550354003906
1772561530439676200,5.50467626953125,0.445052832365036,-0.18480730056762695,5.4659576416015625
1772561530449742000,5.5147421875,0.0316692516207695,-0.31077322363853455,5.045512676239014
1772561530459808000,5.52480810546875,-0.42424795031547546,-0.5619616508483887,4.255218982696533
1772561530469875200,5.534875244140625,-0.8880438208580017,-0.8310418128967285,3.213993787765503
1772561530479940900,5.54494091796875,-1.05984628200531,-1.0406988859176636,2.0396692752838135
1772561530490007800,5.5550078125,-0.9215171337127686,-1.2945899963378906,0.8873138427734375
1772561530500074000,5.565073974609375,-0.7708537578582764,-1.4880340099334717,-0.008611781522631645
1772561530510141000,5.575140869140625,-0.80637127161026,-1.6111303567886353,-0.5486488938331604
1772561530520206800,5.585206787109375,-1.0418267250061035,-1.3829630613327026,-0.80238276720047
1772561530530273800,5.595273681640625,-1.4745861291885376,-0.6197344064712524,-0.7654367685317993
1772561530540340000,5.605340087890625,-1.8469687700271606,0.5206555128097534,-0.501120924949646
1772561530550406000,5.615406005859375,-1.921905517578125,1.3458932638168335,-0.35394665598869324
1772561530560473000,5.62547314453125,-1.767611026763916,1.6490633487701416,-0.47254449129104614
1772561530570539000,5.6355390625,-1.4568114280700684,1.4133304357528687,-0.8428634405136108
1772561530580606000,5.64560595703125,-1.163988709449768,0.8760266900062561,-1.3177462816238403
1772561530590672100,5.655672119140625,-0.9870197772979736,0.24241219460964203,-1.8601170778274536
1772561530600739000,5.665739013671875,-0.994727611541748,-0.2426849752664566,-2.5027570724487305
1772561530610805000,5.675804931640625,-1.1141717433929443,-0.3705550730228424,-3.129704713821411
1772561530620871200,5.68587109375,-1.1310125589370728,-0.015300827100872993,-3.578403949737549
1772561530630938000,5.695938232421875,-0.8620275855064392,0.5197418332099915,-3.8093864917755127
1772561530641004000,5.706004150390625,-0.40849265456199646,0.8241339325904846,-3.875126600265503
1772561530651070700,5.71607080078125,0.1076391264796257,0.6600877642631531,-3.7048661708831787
1772561530661137000,5.726136962890625,0.485714852809906,-0.2964692711830139,-3.4083659648895264
1772561530671203800,5.736203857421875,0.42639267444610596,-1.8920124769210815,-3.172739267349243
1772561530681269800,5.746269775390625,0.08712833374738693,-3.2681238651275635,-2.898977279663086
1772561530691336000,5.7563359375,-0.2568950951099396,-3.973036766052246,-2.7200803756713867
1772561530701403000,5.76640283203125,-0.4070350229740143,-4.322282314300537,-2.9561073780059814
1772561530711469000,5.776468994140625,-0.29937249422073364,-4.695823669433594,-3.7289531230926514
1772561530721536000,5.786535888671875,-0.1673198640346527,-4.656335353851318,-4.694880485534668
1772561530731602000,5.796601806640625,-0.2701309323310852,-3.485697031021118,-5.2376813888549805
1772561530741668900,5.8066689453125,-0.5930710434913635,-1.583563208580017,-5.142297744750977
1772561530751735000,5.816735107421875,-1.0398911237716675,0.3829844892024994,-4.564921855926514
1772561530761801000,5.826801025390625,-1.3310946226119995,1.638959288597107,-3.834773063659668
1772561530771868000,5.836867919921875,-1.2899879217147827,1.9078962802886963,-3.0578880310058594
1772561530781934000,5.84693408203125,-1.1433643102645874,1.2565627098083496,-2.3440475463867188
1772561530792001000,5.8570009765625,-1.0016510486602783,0.1040739044547081,-1.6494275331497192
1772561530802066700,5.867066650390625,-0.8568730354309082,-1.1657803058624268,-0.960739016532898
1772561530812134000,5.8771337890625,-0.6045968532562256,-2.220111131668091,-0.29191911220550537
1772561530822199800,5.88719970703125,-0.270953506231308,-2.8780808448791504,0.27263712882995605
1772561530832265700,5.897265625,-0.07718987762928009,-2.898084878921509,0.6523186564445496
1772561530842333000,5.9073330078125,0.012676036916673183,-2.2064788341522217,0.8503163456916809
1772561530852398800,5.91739892578125,0.18705077469348907,-1.2412614822387695,0.7974699139595032
1772561530862465800,5.9274658203125,0.5799127817153931,-0.30274978280067444,0.544741690158844
1772561530872532000,5.937531982421875,1.0454124212265015,0.40401747822761536,0.1951570212841034
1772561530882599000,5.947598876953125,1.3445096015930176,0.8211224675178528,-0.0056256577372550964
1772561530892664800,5.957664794921875,1.2450040578842163,1.1059025526046753,0.1849711835384369
1772561530902731000,5.96773095703125,0.8531790375709534,1.3449839353561401,0.8516489863395691
1772561530912798000,5.9777978515625,0.23548279702663422,1.6181323528289795,2.004257917404175
1772561530922863900,5.98786376953125,-0.2571760416030884,2.196988582611084,3.34213924407959
1772561530932931000,5.99793115234375,-0.37187865376472473,2.8305253982543945,4.047723293304443
1772561530942997000,6.0079970703125,-0.2612416446208954,3.0139949321746826,3.804110288619995
1772561530953064000,6.01806396484375,-0.20411042869091034,2.3533687591552734,2.934889078140259
1772561530963130000,6.028130126953125,-0.11371219903230667,2.072648048400879,2.29536771774292
1772561530973197000,6.038197021484375,-0.12674064934253693,2.542870283126831,2.048830509185791
1772561530983263000,6.048262939453125,-0.10400469601154327,4.1375203132629395,2.3468453884124756
1772561530993329000,6.058328857421875,0.795951783657074,6.044015407562256,3.033464193344116
1772561531003395800,6.068395751953125,2.1828103065490723,6.73410701751709,3.496720314025879
1772561531013461800,6.078461669921875,3.186741590499878,5.815006732940674,3.6146063804626465
1772561531023528700,6.08852880859375,3.213224172592163,4.344144344329834,3.827259063720703
1772561531033595000,6.098594970703125,2.676632881164551,3.330005168914795,4.314250946044922
1772561531043661800,6.108661865234375,2.1745362281799316,1.9533578157424927,4.040495872497559
1772561531053727700,6.118727783203125,2.1286401748657227,0.969656229019165,3.560900926589966
1772561531063794000,6.1287939453125,2.2365643978118896,0.5108460187911987,3.179105520248413
1772561531073860900,6.13886083984375,2.267605781555176,0.43888717889785767,2.8748533725738525
1772561531083927000,6.148927001953125,2.5303845405578613,0.12106992304325104,2.5504934787750244
1772561531093994000,6.158993896484375,2.807832956314087,-0.46786391735076904,2.315275192260742
1772561531104060000,6.169059814453125,2.6328125,-1.017122507095337,2.1489059925079346
1772561531114126800,6.179126953125,1.8319448232650757,-0.9923295974731445,1.838101863861084
1772561531124193000,6.189193115234375,0.8401537537574768,-0.3963046371936798,1.1627957820892334
1772561531134259000,6.199259033203125,0.1881139576435089,0.33069491386413574,0.09779661148786545
1772561531144326000,6.209325927734375,0.026277488097548485,1.3984092473983765,-0.9697564840316772
1772561531154392000,6.21939208984375,0.13601329922676086,2.391226291656494,-1.8283205032348633
1772561531164459000,6.229458984375,0.22163836658000946,2.8368256092071533,-2.43113374710083
1772561531174525000,6.23952490234375,0.20299383997917175,2.4777297973632812,-2.8237411975860596
1772561531184592100,6.249592041015625,0.0995713323354721,1.703866720199585,-3.128725051879883
1772561531194657800,6.25965771484375,0.0030277485493570566,0.9091157913208008,-3.4257125854492188
1772561531204723700,6.2697236328125,-0.2890825867652893,0.08541353046894073,-3.5772435665130615
1772561531214791000,6.279791015625,-0.6660285592079163,-0.6201938986778259,-3.4499495029449463
1772561531224856800,6.28985693359375,-0.8016233444213867,-1.0451619625091553,-3.1699647903442383
1772561531234923800,6.299923828125,-0.7060955166816711,-1.420060157775879,-2.9873218536376953
1772561531244990000,6.309989990234375,-0.44822242856025696,-1.809234619140625,-2.9454500675201416
1772561531255057000,6.320056884765625,-0.0637541338801384,-2.1822235584259033,-2.983537197113037
1772561531265122800,6.330122802734375,0.33367788791656494,-2.5208053588867188,-3.1191823482513428
1772561531275189800,6.340189697265625,0.4596211910247803,-2.6946635246276855,-3.3124988079071045
1772561531285256000,6.350255859375,0.3066048324108124,-2.632288932800293,-3.4653425216674805
1772561531295321900,6.36032177734375,0.1795366406440735,-2.4003093242645264,-3.5312392711639404
1772561531305388800,6.370388916015625,0.08379243314266205,-2.098982334136963,-3.573979616165161
1772561531315455000,6.380455078125,-0.06431926786899567,-1.421583890914917,-3.5025970935821533
1772561531325522000,6.39052197265625,-0.1614014357328415,-0.3371869921684265,-3.223900079727173
1772561531335588000,6.400588134765625,-0.25593459606170654,0.9170575141906738,-2.854111671447754
1772561531345655000,6.410655029296875,-0.35549676418304443,1.9807300567626953,-2.514718770980835
1772561531355721000,6.420720947265625,-0.3373100459575653,2.550208330154419,-2.2160117626190186
1772561531365787000,6.430786865234375,-0.28059208393096924,2.464369058609009,-1.9162319898605347
1772561531375854000,6.44085400390625,-0.4180485010147095,1.7858936786651611,-1.5514955520629883
1772561531385919700,6.450919677734375,-0.619981050491333,0.5558883547782898,-1.2985332012176514
1772561531395986700,6.460986572265625,-0.8374337553977966,-0.6223891377449036,-1.2976967096328735
1772561531406052900,6.471052978515625,-1.023676872253418,-1.3093467950820923,-1.4823509454727173
1772561531416119800,6.481119873046875,-1.0590155124664307,-1.4488152265548706,-1.6739485263824463
1772561531426185700,6.491185791015625,-1.0683141946792603,-1.0497015714645386,-1.6931242942810059
1772561531436252000,6.501251953125,-1.019307255744934,-0.17440205812454224,-1.3797844648361206
1772561531446318800,6.51131884765625,-0.7150788307189941,0.6802890300750732,-0.8404083847999573
1772561531456385000,6.521385009765625,-0.16869565844535828,1.1408600807189941,-0.17489266395568848
1772561531466452000,6.531451904296875,0.4363322854042053,1.1281629800796509,0.5848104357719421
1772561531476518000,6.541517822265625,0.8121111989021301,0.6140800714492798,1.1785163879394531
1772561531486584800,6.551584716796875,0.8497216701507568,-0.2581997513771057,1.6092088222503662
1772561531496651000,6.561651123046875,0.6441927552223206,-0.961111307144165,2.1145710945129395
1772561531506718000,6.571718017578125,0.3504193127155304,-1.1289921998977661,2.698741912841797
1772561531516783900,6.581783935546875,0.2264970988035202,-0.2347724735736847,3.4855129718780518
1772561531526850000,6.59185009765625,0.37641701102256775,1.0690470933914185,3.9722137451171875
1772561531536917000,6.6019169921875,0.6169949769973755,1.9504425525665283,3.7117180824279785
1772561531546983000,6.61198291015625,0.6991837620735168,2.240797758102417,2.9832892417907715
1772561531557050000,6.622050048828125,0.3522343635559082,2.0057373046875,2.294808864593506
1772561531567116000,6.632115966796875,-0.22133418917655945,1.657135248184204,2.057966947555542
1772561531577183000,6.642182861328125,-0.8590694069862366,0.8505247831344604,1.6946001052856445
1772561531587249000,6.652248779296875,-0.7725820541381836,0.4988413155078888,1.1760708093643188
1772561531597314800,6.662314697265625,-0.21884801983833313,0.5572037100791931,0.7830020189285278
1772561531607381800,6.6723818359375,0.27157139778137207,0.9309482574462891,0.5455073714256287
1772561531617448000,6.682447998046875,0.6981421709060669,1.2888978719711304,0.3259313404560089
1772561531627515000,6.692514892578125,1.1149905920028687,1.2508054971694946,0.11283722519874573
1772561531637580800,6.702580810546875,1.3848721981048584,0.5037257075309753,-0.17916721105575562
1772561531647647500,6.7126474609375,1.3989763259887695,-0.6982886791229248,-0.3148423433303833
1772561531657713400,6.72271337890625,1.1678727865219116,-1.6061854362487793,-0.04978245496749878
1772561531667779300,6.732779296875,0.7498025894165039,-2.0904932022094727,0.30585673451423645
1772561531677846500,6.742846435546875,0.3636285364627838,-2.313289165496826,0.3337389826774597
1772561531687912400,6.752912353515625,-0.01750488393008709,-2.338019847869873,-0.11132709681987762
1772561531697979400,6.7629794921875,-0.3761698305606842,-1.8485193252563477,-0.7511457204818726
1772561531708045600,6.773045654296875,-0.5445700287818909,-1.072849154472351,-1.2720941305160522
1772561531718112500,6.783112548828125,-0.44474703073501587,-0.2545846700668335,-1.353932499885559
1772561531728178400,6.793178466796875,-0.2671389579772949,0.4055206775665283,-0.8277097940444946
1772561531738245400,6.803245361328125,-0.1444934755563736,1.0323805809020996,0.1240626722574234
1772561531748311600,6.8133115234375,-0.04981372877955437,1.4704816341400146,0.9214178323745728
1772561531758377500,6.82337744140625,0.09787160158157349,1.4439467191696167,1.037271499633789
1772561531768444400,6.8334443359375,0.22526070475578308,0.8177913427352905,0.35268446803092957
1772561531778510600,6.843510498046875,0.22432006895542145,0.01876925304532051,-0.7681009769439697
1772561531788577500,6.85357763671875,0.20713816583156586,-0.3903724253177643,-1.6832741498947144
1772561531798643700,6.863643798828125,0.21281203627586365,-0.2611103355884552,-2.0438408851623535
1772561531808710700,6.873710693359375,0.31588852405548096,0.26047855615615845,-1.9147006273269653
1772561531818776600,6.883776611328125,0.6114650368690491,0.7773213982582092,-1.4975703954696655
1772561531828843500,6.893843505859375,1.0293240547180176,1.003158450126648,-1.0345449447631836
1772561531838909400,6.903909423828125,1.3108150959014893,0.9361482262611389,-0.7063694596290588
1772561531848975400,6.913975341796875,1.3389620780944824,0.6996955871582031,-0.5894611477851868
1772561531859042300,6.924042236328125,1.0829718112945557,0.42107754945755005,-0.7264925241470337
1772561531869108500,6.9341083984375,0.7307648658752441,0.09682969748973846,-1.1379090547561646
1772561531879175400,6.944175537109375,0.45665213465690613,-0.1288343220949173,-1.7792673110961914
1772561531889241300,6.954241455078125,0.26615265011787415,-0.185081347823143,-2.538078784942627
1772561531899308500,6.96430859375,0.15870660543441772,-0.1257075071334839,-3.2285122871398926
1772561531909374500,6.97437451171875,0.06327695399522781,-0.16070783138275146,-3.708144187927246
1772561531919440400,6.9844404296875,-0.08241233974695206,-0.3192591369152069,-3.870803117752075
1772561531929507600,6.994507568359375,-0.2869170606136322,-0.5142850875854492,-3.680298089981079
1772561531939573500,7.004573486328125,-0.5314890146255493,-0.6724227666854858,-3.241428852081299
1772561531949640400,7.014640380859375,-0.7113292813301086,-0.8007822036743164,-2.7235164642333984
1772561531959706600,7.02470654296875,-0.7454448938369751,-0.8336514830589294,-2.1730337142944336
1772561531969773600,7.034773681640625,-0.6598475575447083,-0.8086174726486206,-1.5953985452651978
1772561531979839500,7.044839599609375,-0.5589742064476013,-0.861414909362793,-1.1079225540161133
1772561531989906400,7.054906494140625,-0.43934258818626404,-1.0173557996749878,-0.7716807126998901
1772561531999972600,7.06497265625,-0.40309882164001465,-1.1835410594940186,-0.5445215702056885
1772561532010038300,7.075038330078125,-0.4779282808303833,-1.2868244647979736,-0.4454813003540039
1772561532020105700,7.085105712890625,-0.5995015501976013,-1.296299934387207,-0.42869406938552856
1772561532030171400,7.09517138671875,-0.5903822779655457,-1.0044068098068237,-0.24875538051128387
1772561532040238300,7.10523828125,-0.37260282039642334,-0.5719060301780701,0.1842666119337082
1772561532050304500,7.115304443359375,-0.0855613574385643,-0.1757051646709442,0.7634565830230713
1772561532060371500,7.125371337890625,0.1345454454421997,0.14817677438259125,1.5456656217575073
1772561532070437400,7.135437255859375,0.21931014955043793,0.30614590644836426,2.514803409576416
1772561532080503600,7.145503662109375,0.22623276710510254,0.5593773722648621,3.619868755340576
1772561532090570500,7.155570556640625,0.24899844825267792,0.8824281096458435,4.660821914672852
1772561532100636400,7.165636474609375,0.26205992698669434,1.1957567930221558,5.463945388793945
1772561532110703400,7.175703369140625,0.2956351935863495,1.197208046913147,5.93226432800293
1772561532120769500,7.18576953125,0.2863498032093048,0.7201072573661804,5.823676586151123
1772561532130836500,7.19583642578125,-0.059737659990787506,-0.5426238775253296,4.827890396118164
1772561532140902400,7.20590234375,-0.6091600060462952,-0.9923809170722961,3.795414686203003
1772561532150969600,7.215969482421875,-0.9707732200622559,0.4260636568069458,3.3421683311462402
1772561532161035500,7.226035400390625,-1.1453382968902588,2.0506691932678223,3.1070685386657715
1772561532171101700,7.236101806640625,-0.6195299625396729,2.470942735671997,2.7912402153015137
1772561532181168600,7.246168701171875,0.16032378375530243,2.313575267791748,2.959580183029175
1772561532191234600,7.256234619140625,0.6220844984054565,1.8507822751998901,3.839078903198242
1772561532201301500,7.266301513671875,0.32293081283569336,0.6543731093406677,4.711124897003174
1772561532211367700,7.27636767578125,-0.31098711490631104,-0.3353918790817261,5.321746349334717
1772561532221434600,7.2864345703125,-0.6613594889640808,-0.2837633192539215,5.2769646644592285
1772561532231500300,7.296500244140625,-0.13145089149475098,-0.10934597253799438,3.7975847721099854
1772561532241566500,7.30656640625,0.49733635783195496,-0.1460840255022049,1.5211427211761475
1772561532251633400,7.31663330078125,0.6236858367919922,0.011387098580598831,-0.2937740385532379
1772561532261699300,7.32669921875,0.6050546169281006,0.31057193875312805,-1.0744104385375977
1772561532271766500,7.3367666015625,0.6435920596122742,0.21969982981681824,-1.093925952911377
1772561532281832400,7.34683251953125,0.69058758020401,-0.479674756526947,-0.8221431374549866
1772561532291899400,7.3568994140625,0.7616773247718811,-1.419516682624817,-0.4889185130596161
1772561532301965600,7.366965576171875,0.785508930683136,-2.08807635307312,-0.2645173668861389
1772561532312032500,7.377032470703125,0.7925182580947876,-2.174072027206421,-0.14992192387580872
1772561532322098400,7.387098388671875,0.9172441959381104,-1.6534135341644287,-0.07219198346138
1772561532332164600,7.39716455078125,1.1188645362854004,-0.6277844905853271,-0.04923544079065323
1772561532342231600,7.4072314453125,1.2575246095657349,0.48010918498039246,-0.22228844463825226
1772561532352297500,7.41729736328125,1.1677640676498413,1.2619850635528564,-0.6570037603378296
1772561532362364400,7.427364501953125,0.8394117951393127,1.4876266717910767,-1.2747809886932373
1772561532372430600,7.4374306640625,0.4124079942703247,1.2513271570205688,-1.9924952983856201
1772561532382497500,7.44749755859375,-0.01581713743507862,0.7413718104362488,-2.7277438640594482
1772561532392563500,7.4575634765625,-0.24435624480247498,0.17730416357517242,-3.3512492179870605
1772561532402629400,7.46762939453125,-0.2790684401988983,-0.34702298045158386,-3.8602590560913086
1772561532412696600,7.477696533203125,-0.23662792146205902,-0.6020363569259644,-4.125804424285889
1772561532422762500,7.487762451171875,-0.14086651802062988,-0.5163081288337708,-4.026603698730469
1772561532432829400,7.497829345703125,-0.061624057590961456,-0.24350696802139282,-3.6021888256073
1772561532442895400,7.507895263671875,0.035189833492040634,-0.10250245034694672,-3.0617353916168213
1772561532452962300,7.51796240234375,0.03351665288209915,-0.31656333804130554,-2.6487269401550293
1772561532463028500,7.528028564453125,-0.14856714010238647,-0.82988440990448,-2.5209290981292725
1772561532473095400,7.538095458984375,-0.45632004737854004,-1.4063302278518677,-2.5863051414489746
1772561532483161300,7.548161376953125,-0.7403752207756042,-1.7404896020889282,-2.74232816696167
1772561532493227500,7.5582275390625,-0.9016053080558777,-1.7717801332473755,-2.9684579372406006
1772561532503294500,7.56829443359375,-1.0317292213439941,-1.4587223529815674,-3.26686692237854
1772561532513360400,7.5783603515625,-1.164710283279419,-0.8849937915802002,-3.5719096660614014
1772561532523427600,7.588427490234375,-1.3295506238937378,-0.2743716835975647,-3.818101167678833
1772561532533493500,7.598493408203125,-1.433741807937622,0.11528940498828888,-3.877974510192871
1772561532543560400,7.608560546875,-1.446099877357483,0.23564644157886505,-3.608044147491455
1772561532553626600,7.618626708984375,-1.498374581336975,0.09680052846670151,-3.0013670921325684
1772561532563693600,7.628693603515625,-1.6120518445968628,-0.022878732532262802,-2.185502767562866
1772561532573759500,7.638759521484375,-1.6142841577529907,-0.14878793060779572,-1.3963087797164917
1772561532583825700,7.64882568359375,-1.3681001663208008,-0.258886456489563,-0.7261525392532349
1772561532593892600,7.658892578125,-0.9664484858512878,-0.4550270736217499,-0.2166021466255188
1772561532603958500,7.66895849609375,-0.7294548749923706,-0.8320952653884888,0.1485513150691986
1772561532614025500,7.679025390625,-0.7639719843864441,-1.2968286275863647,0.4120347201824188
1772561532624091400,7.68909130859375,-0.8774352073669434,-1.7018046379089355,0.541545569896698
1772561532634158300,7.699158447265625,-0.850619912147522,-1.9297924041748047,0.5455322265625
1772561532644224500,7.709224609375,-0.6345033049583435,-1.4764186143875122,0.6600052714347839
1772561532654291700,7.719291748046875,-0.3528379797935486,-0.4286203682422638,0.9429351687431335
1772561532664357600,7.729357666015625,-0.16986016929149628,0.8249111771583557,1.2850760221481323
1772561532674423800,7.739423828125,-0.008525264449417591,1.9415647983551025,1.6255812644958496
1772561532684490800,7.74949072265625,0.15227560698986053,3.016064405441284,2.075883388519287
1772561532694556700,7.759556640625,0.31243571639060974,3.884258985519409,2.56040096282959
1772561532704623600,7.76962353515625,0.536594808101654,4.319093704223633,3.001450538635254
1772561532714689800,7.779689697265625,0.5997766256332397,3.9700119495391846,3.1760342121124268
1772561532724756700,7.7897568359375,0.44788089394569397,3.311471462249756,3.3503811359405518
1772561532734822700,7.79982275390625,0.5724195837974548,3.415496349334717,4.142611980438232
1772561532744888800,7.809888916015625,0.4664214849472046,3.4506027698516846,4.8052077293396
1772561532754955800,7.819955810546875,0.7500026822090149,3.112701654434204,4.9811482429504395
1772561532765021700,7.830021728515625,1.5229753255844116,2.6199541091918945,4.954352378845215
1772561532775089000,7.8400888671875,2.095174789428711,1.8997573852539062,4.946900367736816
1772561532785154800,7.85015478515625,2.237290620803833,1.2902742624282837,5.274281978607178
1772561532795221800,7.8602216796875,2.0771560668945312,0.5817272663116455,5.678764343261719
1772561532805288000,7.870287841796875,1.6366896629333496,0.0788889080286026,5.9233479499816895
1772561532815355000,7.88035498046875,1.077486276626587,0.1540457159280777,5.574850082397461
1772561532825420800,7.8904208984375,1.065943956375122,0.6172988414764404,4.294158935546875
1772561532835486700,7.90048681640625,1.4518864154815674,0.9690870046615601,2.6371116638183594
1772561532845553700,7.9105537109375,1.4306426048278809,1.1451342105865479,1.3005348443984985
1772561532855619600,7.92061962890625,1.2035152912139893,0.9657325744628906,0.5155621767044067
1772561532865686500,7.9306865234375,1.2192960977554321,0.394409716129303,0.15784664452075958
1772561532875752700,7.940752685546875,1.3961488008499146,-0.29421597719192505,0.03380383551120758
1772561532885819600,7.950819580078125,1.3738682270050049,-0.7669512629508972,0.011817578226327896
1772561532895885800,7.9608857421875,1.1437032222747803,-0.9465200901031494,0.04326146841049194
1772561532905952800,7.970952880859375,0.7826427817344666,-0.846741795539856,0.017750520259141922
1772561532916018700,7.981018798828125,0.40718400478363037,-0.4996654987335205,-0.1258573830127716
1772561532926084900,7.9910849609375,0.20709829032421112,0.1514834761619568,-0.2560872733592987
1772561532936151800,8.00115185546875,0.18331670761108398,0.9276910424232483,-0.2914552092552185
1772561532946217700,8.0112177734375,0.3121252954006195,1.5149396657943726,-0.25413981080055237
1772561532956284700,8.02128466796875,0.5318689942359924,1.7192999124526978,-0.2840214669704437
1772561532966350800,8.031350830078125,0.5961467623710632,1.4288150072097778,-0.569153368473053
1772561532976417800,8.041417724609374,0.24396009743213654,0.8794516324996948,-1.042796015739441
1772561532986483700,8.051483642578125,-0.3255060315132141,0.38168632984161377,-1.6317447423934937
1772561532996551000,8.061551025390624,-0.7867510914802551,0.05746857449412346,-2.3289687633514404
1772561533006616800,8.071616943359375,-0.9626656174659729,-0.06783634424209595,-2.9796783924102783
1772561533016682800,8.081682861328124,-0.8996632099151611,-0.06493030488491058,-3.365940809249878
1772561533026750000,8.09175,-0.7048348784446716,-0.13516132533550262,-3.423307180404663
1772561533036815600,8.101815673828124,-0.4908139705657959,-0.3435317277908325,-3.2152044773101807
1772561533046882600,8.111882568359375,-0.34933140873908997,-0.7612131237983704,-2.902747869491577
1772561533056948700,8.12194873046875,-0.35188642144203186,-1.421162724494934,-2.672424554824829
1772561533067015700,8.132015625,-0.5979657173156738,-2.3496177196502686,-2.694124937057495
1772561533077081600,8.14208154296875,-0.9410887360572815,-3.2525577545166016,-2.9297220706939697
1772561533087148500,8.1521484375,-1.0983669757843018,-3.850809097290039,-3.3511228561401367
1772561533097214700,8.162214599609374,-1.0556488037109375,-3.9566097259521484,-3.893763780593872
1772561533107280600,8.17228076171875,-0.9814441800117493,-3.738279104232788,-4.498692512512207
1772561533117347800,8.182347900390624,-1.0161197185516357,-3.2997963428497314,-4.999691963195801
1772561533127413800,8.192413818359375,-1.1721082925796509,-2.5745670795440674,-5.097132205963135
1772561533137480700,8.202480712890624,-1.3959910869598389,-1.7938631772994995,-4.789423942565918
1772561533147547000,8.212546875,-1.6122677326202393,-1.2412045001983643,-4.224655628204346
1772561533157613800,8.22261376953125,-1.7836353778839111,-0.935522198677063,-3.667664051055908
1772561533167679700,8.2326796875,-1.914786458015442,-0.513972818851471,-3.144472360610962
1772561533177746000,8.242745849609374,-2.069606065750122,-0.019900381565093994,-2.7076854705810547
1772561533187812900,8.252812744140625,-2.242495059967041,0.4674956500530243,-2.286345958709717
1772561533197878800,8.262878662109374,-2.2872021198272705,0.8653733134269714,-1.8174407482147217
1772561533207945700,8.27294580078125,-2.108163833618164,0.9571533203125,-1.2655187845230103
1772561533218012000,8.283011962890624,-2.051043748855591,0.6106911897659302,-0.7451711297035217
1772561533228078800,8.293078857421875,-2.3128480911254883,0.1574307233095169,-0.31558534502983093
1772561533238144500,8.30314453125,-2.5229668617248535,-0.03273562341928482,0.09482857584953308
1772561533248211700,8.313211669921875,-2.4986581802368164,0.07722416520118713,0.518956184387207
1772561533258277600,8.323277587890624,-2.3388097286224365,0.3873945474624634,0.9671545028686523
1772561533268344600,8.333344482421875,-1.9664041996002197,0.6718864440917969,1.461488127708435
1772561533278410800,8.34341064453125,-1.4927897453308105,0.9683744311332703,2.0227129459381104
1772561533288476700,8.3534765625,-0.9616361856460571,1.0767179727554321,2.71781849861145
1772561533298543600,8.363543701171874,-0.27330389618873596,1.0298197269439697,3.5923404693603516
1772561533308609800,8.37360986328125,0.37686240673065186,1.0335580110549927,4.37069845199585
1772561533318676700,8.3836767578125,0.6886720657348633,0.7259137034416199,4.521546840667725
1772561533328742700,8.39374267578125,0.7538398504257202,0.22306552529335022,3.906440019607544
1772561533338809900,8.403809814453124,0.9092574119567871,0.3418370485305786,3.0409493446350098
1772561533348875800,8.413875732421875,1.4245293140411377,1.259345293045044,2.74914288520813
1772561533358941700,8.423941650390624,1.8729363679885864,2.064289093017578,2.925438165664673
1772561533369009000,8.4340087890625,2.277456760406494,2.4505932331085205,3.012333631515503
1772561533379074800,8.44407470703125,2.6910605430603027,2.070115804672241,2.8932220935821533
1772561533389141800,8.454141845703125,2.872025728225708,1.7346287965774536,3.2842659950256348
1772561533399208000,8.4642080078125,2.827880859375,1.5948503017425537,4.0416388511657715
1772561533409275000,8.47427490234375,2.6164114475250244,1.2185176610946655,4.618968486785889
1772561533419340800,8.4843408203125,2.358726978302002,0.7636092901229858,4.889304161071777
1772561533429407700,8.49440771484375,1.9321436882019043,0.3162246346473694,4.356258392333984
1772561533439473700,8.5044736328125,1.367339849472046,-0.19300305843353271,2.9924325942993164
1772561533449539600,8.51453955078125,0.8385239243507385,-0.7521534562110901,1.362293004989624
1772561533459606500,8.5246064453125,0.5121496915817261,-1.0604945421218872,-0.12486264854669571
1772561533469672700,8.534672607421875,0.35430285334587097,-1.1888208389282227,-1.3647606372833252
1772561533479739600,8.54473974609375,0.13283772766590118,-1.3707491159439087,-2.3626110553741455
1772561533489805800,8.554805908203125,-0.23998883366584778,-1.5607880353927612,-3.144622802734375
1772561533499872800,8.564872802734374,-0.7586973905563354,-1.4878759384155273,-3.6109960079193115
1772561533509938700,8.574938720703125,-1.168269157409668,-0.9434695839881897,-3.5235705375671387
1772561533520005600,8.585005615234374,-1.3163272142410278,-0.2774990200996399,-3.0962278842926025
1772561533530071800,8.59507177734375,-1.2668613195419312,0.18816372752189636,-2.5579264163970947
1772561533540137700,8.6051376953125,-1.073003888130188,0.6573672890663147,-1.850638508796692
1772561533550204700,8.61520458984375,-0.6480985879898071,1.0468205213546753,-0.9814264178276062
1772561533560270800,8.625270751953124,-0.1250457465648651,1.0994787216186523,-0.26112616062164307
1772561533570337800,8.635337890625,0.15376219153404236,0.5760960578918457,-0.09447833150625229
1772561533580403700,8.64540380859375,-0.0023690969683229923,-0.3831416964530945,-0.6856600046157837
1772561533590471000,8.655470947265625,-0.3661177456378937,-1.202303409576416,-1.782268762588501
1772561533600536800,8.665536865234374,-0.590358316898346,-1.621193289756775,-3.0133631229400635
1772561533610603800,8.675603759765625,-0.5790970921516418,-1.3864591121673584,-3.943068742752075
1772561533620670000,8.685669921875,-0.20033518970012665,-0.5420263409614563,-4.2442145347595215
1772561533630737000,8.69573681640625,0.5439978241920471,0.42042574286460876,-3.788712739944458
1772561533640802600,8.705802490234374,1.3437989950180054,0.9254015684127808,-2.751418113708496
1772561533650868700,8.71586865234375,1.8750873804092407,0.7734056115150452,-1.6159776449203491
1772561533660935700,8.725935791015624,2.113306999206543,0.346884548664093,-0.6539416909217834
1772561533671001600,8.736001708984375,2.131154775619507,-0.26549017429351807,-0.10160205513238907
1772561533681068500,8.746068603515624,1.8945274353027344,-1.001512885093689,-0.12411966919898987
1772561533691134700,8.756134765625,1.6205452680587769,-1.5004864931106567,-0.6181294322013855
1772561533701201700,8.76620166015625,1.5437250137329102,-1.5420386791229248,-1.3792959451675415
1772561533711267600,8.776267578125,1.6341699361801147,-1.1578452587127686,-2.1019158363342285
1772561533721334800,8.786334716796874,1.7162638902664185,-0.6411065459251404,-2.488410234451294
1772561533731400700,8.796400634765625,1.623966932296753,-0.16761034727096558,-2.3091936111450195
1772561533741467000,8.806466796875,1.3127341270446777,0.26725295186042786,-1.530830979347229
1772561533751533800,8.816533935546875,0.9359373450279236,0.37785401940345764,-0.5313549637794495
1772561533761599700,8.826599853515624,0.6455752849578857,0.20066647231578827,0.28504395484924316
1772561533771666700,8.836666748046875,0.48555371165275574,-0.1264197826385498,0.7901004552841187
1772561533781732900,8.84673291015625,0.25487020611763,-0.4643954038619995,0.9120951890945435
1772561533791799800,8.8567998046875,-0.06227310746908188,-0.6652688980102539,0.7389662861824036
1772561533801865700,8.86686572265625,-0.39506295323371887,-0.6824042797088623,0.37771642208099365
1772561533811933000,8.876932861328125,-0.6178622245788574,-0.6121775507926941,-0.02148529514670372
1772561533821998800,8.886998779296874,-0.7605335712432861,-0.40294232964515686,-0.31581777334213257
1772561533832064500,8.897064453125,-0.896753191947937,0.023528844118118286,-0.37668031454086304
1772561533842132000,8.907132080078124,-1.0100746154785156,0.4227396249771118,-0.2820712625980377
1772561533852197600,8.91719775390625,-1.0392001867294312,0.6480454206466675,-0.021410660818219185
1772561533862264600,8.9272646484375,-1.0046440362930298,0.6719433665275574,0.30004188418388367
1772561533872330800,8.937330810546875,-0.9572594165802002,0.515148937702179,0.5906414985656738
1772561533882397700,8.947397705078124,-0.9100788831710815,0.26802313327789307,0.9362016916275024
1772561533892463600,8.957463623046875,-0.7594662308692932,0.08902595937252045,1.4508246183395386
1772561533902530600,8.967530517578124,-0.676234781742096,-0.0010761003941297531,2.0210564136505127
1772561533912596700,8.9775966796875,-0.775687575340271,0.2988450825214386,2.473254919052124
1772561533922662700,8.98766259765625,-0.8247547149658203,0.9029786586761475,2.508681058883667
1772561533932729600,8.9977294921875,-0.8946366310119629,1.0109986066818237,1.7662248611450195
1772561533942795800,9.007795654296874,-0.9264791011810303,1.4844712018966675,1.1501492261886597
1772561533952862700,9.01786279296875,-0.7152555584907532,2.4790472984313965,1.2633860111236572
1772561533962929000,9.027928955078124,-0.3112805187702179,3.580019235610962,2.0993380546569824
1772561533972995800,9.037995849609375,0.5741190314292908,4.318841934204102,3.1411967277526855
1772561533983061800,9.048061767578124,1.5418391227722168,3.918044328689575,4.155564308166504
1772561533993128700,9.058128662109375,2.02829647064209,2.7964768409729004,5.164954662322998
1772561534003195000,9.06819482421875,1.92457914352417,1.5600080490112305,6.099280834197998
1772561534013260800,9.0782607421875,1.6439863443374634,0.879801332950592,6.562027454376221
1772561534023327700,9.08832763671875,1.600297212600708,0.9345269799232483,6.112506866455078
1772561534033394000,9.098393798828125,1.400947093963623,0.8163859844207764,4.492495536804199
1772561534043460900,9.1084609375,1.1709734201431274,0.5841746926307678,2.594550848007202
1772561534053526500,9.118526611328125,0.9889029860496521,0.27415215969085693,1.1994354724884033
1772561534063593700,9.12859375,0.7577160596847534,-0.19460482895374298,0.3866448402404785
1772561534073659600,9.13865966796875,0.4975403845310211,-0.7679258584976196,-0.05008798837661743
1772561534083726600,9.1487265625,0.24562819302082062,-1.5293527841567993,-0.4454163908958435
1772561534093792800,9.158792724609375,-0.24567309021949768,-1.9427886009216309,-0.8158397078514099
1772561534103858700,9.168858642578124,-0.8116937875747681,-1.7156511545181274,-1.2171329259872437
1772561534113925600,9.178925537109375,-1.1594758033752441,-0.7342073321342468,-1.5755677223205566
1772561534123991800,9.18899169921875,-1.0405457019805908,0.7134071588516235,-1.6423472166061401
1772561534134058800,9.199058837890625,-0.6209456920623779,1.9770840406417847,-1.3000868558883667
1772561534144124700,9.209124755859374,-0.11550825834274292,2.4942076206207275,-0.9507275819778442
1772561534154191600,9.219191650390625,0.19083596765995026,2.0439486503601074,-0.886407196521759
1772561534164257800,9.2292578125,0.16700711846351624,0.7845907807350159,-1.1848034858703613
1772561534174324700,9.23932470703125,-0.07142356038093567,-0.3517771363258362,-1.6341301202774048
1772561534184390700,9.249390625,-0.29045307636260986,-0.8862419724464417,-2.0836007595062256
1772561534194457900,9.259457763671875,-0.4294639825820923,-0.8659015893936157,-2.4608798027038574
1772561534204523800,9.269523681640624,-0.47078201174736023,-0.4645994305610657,-2.6763064861297607
1772561534214590000,9.27958984375,-0.3736536204814911,0.07589151710271835,-2.694277048110962
1772561534224657000,9.289656982421874,-0.22896167635917664,0.4511938989162445,-2.5067460536956787
1772561534234722800,9.299722900390625,-0.1108693927526474,0.23489753901958466,-2.298410177230835
1772561534244789800,9.309789794921874,-0.07668619602918625,-0.6904969811439514,-2.1992013454437256
1772561534254855700,9.319855712890625,-0.16488875448703766,-2.0273687839508057,-2.3512446880340576
1772561534264923000,9.3299228515625,-0.3870776295661926,-3.256887197494507,-2.786627769470215
1772561534274988500,9.339988525390625,-0.5888469815254211,-3.8314502239227295,-3.328385353088379
1772561534285055700,9.3500556640625,-0.6997153162956238,-3.4412412643432617,-3.8101136684417725
1772561534295121700,9.36012158203125,-0.870276927947998,-2.431292772293091,-4.1791157722473145
1772561534305187600,9.3701875,-1.1326690912246704,-1.3082990646362305,-4.304255962371826
1772561534315254800,9.3802548828125,-1.4521697759628296,-0.44718965888023376,-4.157572269439697
1772561534325320700,9.39032080078125,-1.7446280717849731,0.06606924533843994,-3.7591936588287354
1772561534335387600,9.4003876953125,-1.7458088397979736,0.23894648253917694,-3.0959324836730957
1772561534345453800,9.410453857421874,-1.5985599756240845,0.09895741939544678,-2.1876511573791504
1772561534355520800,9.420520751953125,-1.6673061847686768,-0.67363041639328,-1.4188607931137085
1772561534365586700,9.430586669921874,-1.7659494876861572,-1.5749293565750122,-1.1302293539047241
1772561534375653600,9.440653564453125,-1.8707762956619263,-1.9932302236557007,-1.30073082447052
1772561534385719800,9.4507197265625,-1.9199553728103638,-2.168977737426758,-1.674826741218567
1772561534395785700,9.46078564453125,-1.8563307523727417,-2.1260688304901123,-2.003565549850464
1772561534405852700,9.470852783203124,-1.8688983917236328,-1.6760636568069458,-2.051229953765869
1772561534415918800,9.4809189453125,-1.9590730667114258,-0.6310176849365234,-1.7226805686950684
1772561534425985800,9.49098583984375,-1.857677936553955,0.5377401113510132,-1.1216731071472168
1772561534436052000,9.501052001953125,-1.4370330572128296,1.2588229179382324,-0.3317382037639618
1772561534446119000,9.511118896484374,-0.925916850566864,1.4827589988708496,0.5393095016479492
1772561534456184600,9.5211845703125,-0.5121145844459534,1.3247359991073608,1.403878092765808
1772561534466251800,9.531251708984374,-0.27560314536094666,0.8322542905807495,2.00823712348938
1772561534476317700,9.541317626953125,-0.13355973362922668,0.13405708968639374,2.3669002056121826
1772561534486384600,9.551384521484374,0.1291196048259735,-0.1783214509487152,2.8066155910491943
1772561534496450600,9.561450439453125,0.5060847401618958,0.20039257407188416,3.477180242538452
1772561534506516700,9.571516845703124,0.9161277413368225,0.928659975528717,4.06585693359375
1772561534516583700,9.581583740234375,1.0754039287567139,1.2406420707702637,3.978433132171631
1772561534526649600,9.591649658203124,0.6532300710678101,0.7283836603164673,3.015739917755127
1772561534536716800,9.601716796875,0.033574845641851425,0.8736112117767334,2.2505366802215576
1772561534546782700,9.61178271484375,-0.33691948652267456,1.9539244174957275,2.132843255996704
1772561534556849700,9.621849609375,-0.6163434386253357,2.857917308807373,2.0271947383880615
1772561534566915800,9.631915771484374,-0.1933155357837677,3.4894304275512695,2.0457983016967773
1772561534576982800,9.641982666015625,0.7036238312721252,3.8782176971435547,2.529024124145508
1772561534587048700,9.652048583984374,1.3671611547470093,3.8379204273223877,3.3851070404052734
1772561534597115000,9.662114990234375,1.5141713619232178,3.005180597305298,4.301595687866211
1772561534607181800,9.672181884765624,1.1934665441513062,1.9092820882797241,5.172738075256348
1772561534617247700,9.682247802734375,0.8395217061042786,1.1031686067581177,5.66057014465332
1772561534627314700,9.692314697265624,0.7718743681907654,0.37365424633026123,5.2074151039123535
1772561534637380900,9.702380859375,0.8122282028198242,-0.10169737786054611,4.383866786956787
1772561534647447300,9.712447265625,0.6352475881576538,-0.12222516536712646,3.860863208770752
1772561534657513200,9.72251318359375,0.22304537892341614,0.1325855553150177,3.358609676361084
1772561534667580200,9.732580078125,-0.05556592345237732,0.24168461561203003,2.481217861175537
1772561534677646000,9.74264599609375,-0.08094850927591324,0.07867812365293503,1.2249351739883423
1772561534687712300,9.752712158203124,-0.021394718438386917,-0.17587533593177795,-0.11082680523395538
1772561534697779200,9.762779296875,-0.10610667616128922,-0.4721006155014038,-1.2445166110992432
1772561534707845000,9.77284521484375,-0.27759578824043274,-0.7535294890403748,-2.061260938644409
1772561534717912300,9.782912353515625,-0.251277893781662,-0.8101200461387634,-2.472727060317993
1772561534727978200,9.792978271484374,0.04344506561756134,-0.5011606216430664,-2.320641279220581
1772561534738045200,9.803045166015625,0.4658708870410919,-0.01806800067424774,-1.7221945524215698
1772561534748111400,9.813111328125,0.8907428979873657,0.49683302640914917,-1.1336172819137573
1772561534758178300,9.82317822265625,1.2478396892547607,0.7379215359687805,-0.9348616600036621
1772561534768244200,9.833244140625,1.5142713785171509,0.5618332028388977,-1.3275587558746338
1772561534778310400,9.843310302734375,1.4867619276046753,0.25925949215888977,-2.205815076828003
1772561534788377300,9.85337744140625,1.1862335205078125,-0.04969130456447601,-3.2896196842193604
1772561534798443300,9.863443359375,0.8237631916999817,-0.3448489010334015,-4.358640670776367
1772561534808510200,9.87351025390625,0.48763608932495117,-0.5398250818252563,-5.258480548858643
1772561534818576400,9.883576416015625,0.31587737798690796,-0.45686787366867065,-5.755304336547852
1772561534828643300,9.893643310546874,0.3245946168899536,-0.15574704110622406,-5.707607746124268
1772561534838709200,9.903709228515625,0.37152937054634094,0.12362761050462723,-5.3127923011779785
1772561534848776400,9.9137763671875,0.33308112621307373,0.19210852682590485,-4.817635536193848
1772561534858842000,9.923842041015625,0.23861108720302582,-0.13704831898212433,-4.2735676765441895
1772561534868909300,9.933909423828124,0.09010462462902069,-1.0696954727172852,-3.9575908184051514
1772561534878975200,9.943975341796875,-0.271871954202652,-2.185384511947632,-3.895169734954834
1772561534889041200,9.954041259765624,-0.551980197429657,-2.770443916320801,-3.7247304916381836
1772561534899108000,9.964108154296875,-0.505896270275116,-2.809173107147217,-3.535388469696045
1772561534909174300,9.97417431640625,-0.29304587841033936,-2.4349563121795654,-3.547609329223633
1772561534919241200,9.9842412109375,-0.059972405433654785,-2.1353893280029297,-3.666980504989624
1772561534929307100,9.99430712890625,0.07351142913103104,-2.0836503505706787,-3.6112165451049805
1772561534939374300,10.004374267578125,-0.0017974353395402431,-1.9875221252441406,-3.2162556648254395
1772561534949440300,10.014440185546874,-0.2952479422092438,-1.6272225379943848,-2.324331521987915
1772561534959507200,10.024507080078125,-0.8082334399223328,-1.0813237428665161,-1.2535685300827026
1772561534969573400,10.034573486328124,-1.2975348234176636,-0.7205256223678589,-0.3385021984577179
1772561534979640300,10.044640380859375,-1.9905846118927002,-1.0227962732315063,1.0255917310714722
1772561534989706200,10.054706298828124,-2.0805602073669434,-2.898987054824829,1.2258480787277222
1772561534999772400,10.0647724609375,-1.6440093517303467,-3.250051736831665,0.36725419759750366
1772561535009839400,10.07483935546875,-1.3610823154449463,-2.654409170150757,-0.694951593875885
1772561535019905300,10.0849052734375,-1.4789879322052002,-1.5131844282150269,-1.3999115228652954
1772561535029972200,10.09497216796875,-1.6412343978881836,-0.540320634841919,-1.9388116598129272
1772561535040038400,10.105038330078125,-1.6453325748443604,0.25444355607032776,-2.410545825958252
1772561535050105300,10.115105224609374,-1.4506523609161377,1.078935146331787,-2.7057483196258545
1772561535060171000,10.1251708984375,-1.103646993637085,1.7812128067016602,-2.6263673305511475
1772561535070238500,10.135238525390625,-0.7997279763221741,1.9812129735946655,-2.1796228885650635
1772561535080304000,10.14530419921875,-0.636995792388916,1.4691699743270874,-1.5169941186904907
1772561535090371000,10.15537109375,-0.6928320527076721,0.6342843770980835,-0.8275359869003296
1772561535100437200,10.165437255859375,-0.5479390621185303,0.7838528156280518,0.029724376276135445
1772561535110503200,10.175503173828124,-0.3106667697429657,2.0510756969451904,0.7173510789871216
1772561535120570000,10.185570068359375,-0.015443638898432255,3.863250732421875,0.9499414563179016
1772561535130636300,10.19563623046875,0.3824165463447571,5.2992262840271,0.7195942997932434
1772561535140703200,10.205703125,0.806745707988739,6.246878147125244,0.10572554171085358
1772561535150769200,10.21576904296875,1.2865208387374878,7.567077159881592,-0.1299402117729187
1772561535160836000,10.225836181640625,1.7972735166549683,9.185286521911621,0.3848235309123993
1772561535170902300,10.23590234375,2.316326856613159,8.939952850341797,0.8072687387466431
1772561535180969200,10.24596923828125,2.9058358669281006,6.752465724945068,0.8209371566772461
1772561535191035400,10.256035400390624,3.2947990894317627,4.775256633758545,1.5871614217758179
1772561535201101300,10.266101318359375,3.802607297897339,3.581794261932373,3.586455821990967
1772561535211168300,10.276168212890624,4.215583801269531,1.899106740951538,5.779539585113525
1772561535221234400,10.286234375,4.209722518920898,0.00023324321955442429,7.549646854400635
1772561535231301400,10.29630126953125,4.03372049331665,-1.5792388916015625,8.549692153930664
1772561535241367300,10.3063671875,3.640765428543091,-2.7136871814727783,8.280143737792969
1772561535251434200,10.316434326171875,3.2435801029205322,-3.0671310424804688,6.86859130859375
1772561535261500400,10.32650048828125,3.006072998046875,-2.5406882762908936,4.802610397338867
1772561535271567400,10.3365673828125,2.826206922531128,-1.560051441192627,2.6165947914123535
1772561535281633000,10.346633056640625,2.564099073410034,-0.6167592406272888,0.7271074652671814
1772561535291700200,10.3567001953125,2.1015923023223877,0.14953231811523438,-0.6515320539474487
1772561535301766100,10.36676611328125,1.5074597597122192,0.5174054503440857,-1.5193520784378052
1772561535311832000,10.37683203125,0.8904690146446228,0.49117153882980347,-1.992342472076416
1772561535321899300,10.386899169921875,0.37658601999282837,0.575041651725769,-2.0412120819091797
1772561535331965200,10.396965087890624,0.24431973695755005,0.764155387878418,-1.8096145391464233
1772561535342032100,10.4070322265625,0.399396687746048,1.0307506322860718,-1.4625827074050903
1772561535352098300,10.417098388671874,0.49054092168807983,1.2468969821929932,-1.1194919347763062
1772561535362165200,10.427165283203125,0.43532025814056396,1.160548448562622,-0.859794020652771
1772561535372231200,10.437231201171874,0.16771391034126282,0.6167672872543335,-0.8192959427833557
1772561535382298000,10.447298095703125,-0.2825070321559906,-0.3671223819255829,-1.1498264074325562
1772561535392364300,10.4573642578125,-0.6606954336166382,-1.3276077508926392,-1.8243043422698975
1772561535402430200,10.46743017578125,-0.8948863744735718,-1.7808390855789185,-2.590282917022705
1772561535412497400,10.477497314453124,-0.9628456234931946,-1.6073158979415894,-3.1889984607696533
1772561535422563300,10.487563232421875,-0.7601979970932007,-1.243007779121399,-3.488442897796631
1772561535432630300,10.49763037109375,-0.3608078956604004,-0.8934374451637268,-3.337770700454712
1772561535442696400,10.507696533203125,0.04392281547188759,-0.9153904318809509,-2.696593761444092
1772561535452763400,10.517763427734375,0.34950849413871765,-1.3482065200805664,-1.764650821685791
1772561535462829300,10.527829345703125,0.5520248413085938,-2.007798671722412,-0.9982931613922119
1772561535472896300,10.537896240234375,0.5256194472312927,-2.9629650115966797,-0.754815936088562
1772561535482962200,10.547962158203125,0.32934606075286865,-3.8190622329711914,-1.0086759328842163
1772561535493029400,10.558029296875,0.20210802555084229,-4.092123508453369,-1.451559066772461
1772561535503095000,10.568094970703125,0.3062959313392639,-3.848985195159912,-1.903958797454834
1772561535513161200,10.5781611328125,0.5761364102363586,-3.02390193939209,-2.2926137447357178
1772561535523228200,10.588228271484375,0.6314228177070618,-1.9876742362976074,-2.5908925533294678
1772561535533294000,10.598294189453124,0.34664684534072876,-0.9417830109596252,-2.5531399250030518
1772561535543361300,10.608361328125,-0.1936803013086319,-0.12496595084667206,-2.2307968139648438
1772561535553427200,10.61842724609375,-0.6679286956787109,0.43205416202545166,-1.827694058418274
1772561535563494100,10.628494140625,-0.9025249481201172,0.7496275901794434,-1.469184398651123
1772561535573560300,10.638560302734374,-0.920994758605957,0.7260000109672546,-1.1927721500396729
1772561535583627300,10.648627197265625,-0.9407077431678772,0.600436270236969,-0.9855052828788757
1772561535593693200,10.658693115234374,-1.0434496402740479,0.3494105339050293,-0.8473857641220093
1772561535603760000,10.668760009765625,-1.072724461555481,-0.17913185060024261,-0.7544081211090088
1772561535613826300,10.678826416015625,-0.9938770532608032,-0.7705211043357849,-0.6536679267883301
1772561535623892200,10.688892333984375,-0.811351478099823,-1.2076297998428345,-0.5130943059921265
1772561535633959200,10.698959228515625,-0.6048519611358643,-1.4764714241027832,-0.24123570322990417
1772561535644025300,10.709025390625,-0.46066123247146606,-1.4470690488815308,0.20591703057289124
1772561535654092000,10.719092041015625,-0.4371028244495392,-1.2565882205963135,0.725126326084137
1772561535664158200,10.729158203125,-0.48186764121055603,-1.205962896347046,1.194422721862793
1772561535674225200,10.73922509765625,-0.4299487769603729,-1.4546937942504883,1.5251821279525757
1772561535684291000,10.749291015625,-0.2593972682952881,-1.8377186059951782,1.9211461544036865
1772561535694358000,10.75935791015625,0.0256392452865839,-2.024963617324829,2.6661410331726074
1772561535704424200,10.769424072265625,0.20490726828575134,-1.7833888530731201,3.7545199394226074
1772561535714491100,10.7794912109375,0.14593885838985443,-1.0947749614715576,4.869969367980957
1772561535724557000,10.78955712890625,-0.1346733719110489,-0.6218910217285156,5.24918270111084
1772561535734623200,10.799623291015624,-0.3357982337474823,-0.3248666822910309,4.671327114105225
1772561535744690200,10.809690185546875,-0.39352384209632874,0.39187145233154297,3.757373809814453
1772561535754756000,10.819756103515624,-0.3392699062824249,1.7947719097137451,3.4267592430114746
1772561535764823300,10.8298232421875,0.02591872587800026,3.0916543006896973,3.886457681655884
1772561535774889200,10.83988916015625,0.41172879934310913,3.356513023376465,4.384515762329102
1772561535784956200,10.8499560546875,0.8771910667419434,2.457543134689331,4.8107428550720215
1772561535795022300,10.860022216796875,1.0688068866729736,1.2133890390396118,5.295162200927734
1772561535805089300,10.87008935546875,0.6747398972511292,0.7347396016120911,5.852635383605957
1772561535815155200,10.8801552734375,0.2708776295185089,1.4494354724884033,6.154346942901611
1772561535825221000,10.89022119140625,0.12998813390731812,2.3808059692382812,5.6920928955078125
1772561535835288000,10.9002880859375,-0.014181584119796753,2.7600672245025635,4.343357086181641
1772561535845354000,10.91035400390625,-0.14021967351436615,2.511775255203247,2.576453447341919
1772561535855421200,10.920421142578125,-0.15506234765052795,1.7189844846725464,1.0435969829559326
1772561535865487000,10.930487060546875,-0.158551886677742,0.9135399460792542,0.015771813690662384
1772561535875554000,10.940553955078125,-0.14279049634933472,0.12427861988544464,-0.6874651312828064
1772561535885620200,10.9506201171875,-0.0436660572886467,-0.7180613875389099,-1.418060064315796
1772561535895687200,10.960687255859375,0.03302890062332153,-1.5548490285873413,-2.2104616165161133
1772561535905753000,10.970753173828125,0.10609698295593262,-1.7380324602127075,-2.3969240188598633
1772561535915820000,10.980820068359375,0.22062142193317413,-1.2958457469940186,-1.7958141565322876
1772561535925886200,10.99088623046875,0.3597809076309204,-0.7670130729675293,-0.9079181551933289
1772561535935952100,11.0009521484375,0.5553984045982361,-0.3251678943634033,-0.17813782393932343
1772561535946019000,11.01101904296875,0.8580464124679565,0.18929623067378998,0.2918887734413147
1772561535956085200,11.021085205078125,1.2102280855178833,0.7234348654747009,0.48893460631370544
1772561535966152200,11.031152099609375,1.3986958265304565,1.0192114114761353,0.36090049147605896
1772561535976218000,11.041218017578124,1.3373388051986694,1.015580415725708,-0.0973191037774086
1772561535986285300,11.051285400390626,1.122632384300232,0.6586207151412964,-0.8731900453567505
1772561535996351200,11.061351318359375,0.9001545310020447,0.23185355961322784,-1.780324101448059
1772561536006418200,11.071418212890626,0.7204870581626892,-0.00836916733533144,-2.5517406463623047
1772561536016484400,11.081484375,0.6560412645339966,0.015619655139744282,-3.00278902053833
1772561536026551300,11.09155126953125,0.7140589952468872,0.13695034384727478,-3.029386281967163
1772561536036617000,11.101616943359375,0.8737672567367554,0.2880237400531769,-2.6144328117370605
1772561536046683100,11.11168310546875,1.0439505577087402,0.36807918548583984,-1.9692469835281372
1772561536056750000,11.12175,1.2117397785186768,0.365906298160553,-1.450177788734436
1772561536066816000,11.13181591796875,1.382899522781372,0.17580373585224152,-1.3243756294250488
1772561536076883200,11.14188330078125,1.4731881618499756,-0.1392209231853485,-1.606876015663147
1772561536086949000,11.15194921875,1.3635125160217285,-0.45802366733551025,-2.0589489936828613
1772561536097016000,11.16201611328125,1.1242831945419312,-0.5298504829406738,-2.359100580215454
1772561536107082200,11.172082275390625,0.8588699102401733,-0.2914735674858093,-2.420022487640381
1772561536117149200,11.182149169921875,0.5619714856147766,0.09438983350992203,-2.3202552795410156
1772561536127215000,11.192215087890625,0.3688877820968628,0.4832334816455841,-2.162491798400879
1772561536137282000,11.202281982421875,0.37850749492645264,0.7417086958885193,-2.036273241043091
1772561536147348200,11.21234814453125,0.5321476459503174,0.8830506205558777,-1.9900721311569214
1772561536157414100,11.2224140625,0.7867505550384521,0.575979471206665,-1.86677885055542
1772561536167481000,11.232481201171876,0.892549991607666,0.19333386421203613,-1.5642770528793335
1772561536177547300,11.24254736328125,0.8942740559577942,0.04908866807818413,-0.9737107753753662
1772561536187614200,11.2526142578125,0.720718502998352,0.21644383668899536,-0.3915134370326996
1772561536197680000,11.26268017578125,0.7094327807426453,1.1839609146118164,-0.12225303798913956
1772561536207747300,11.272747314453126,1.0025620460510254,1.8891931772232056,-0.17185547947883606
1772561536217813200,11.282813232421875,1.4233858585357666,1.8191516399383545,-0.500194251537323
1772561536227880200,11.292880126953126,1.6917773485183716,1.2500457763671875,-0.9642807245254517
1772561536237946400,11.3029462890625,1.8588571548461914,0.6211433410644531,-1.3809622526168823
1772561536248013300,11.313013427734376,1.9224517345428467,-0.3357838988304138,-1.5027999877929688
1772561536258079000,11.323078857421875,1.83623206615448,-1.1043930053710938,-1.1304559707641602
1772561536268145200,11.333145263671875,1.6874104738235474,-1.598695993423462,-0.4227425158023834
1772561536278212000,11.343212158203125,1.501550555229187,-2.088510751724243,0.3340168297290802
1772561536288278000,11.353278076171875,-0.11456376314163208,-2.9747109413146973,0.9973495006561279
1772561536298345200,11.36334521484375,-1.1469045877456665,-4.409035682678223,1.4503244161605835
1772561536308411100,11.3734111328125,-1.3557779788970947,-5.422918796539307,1.8282495737075806
1772561536318478000,11.38347802734375,-1.3460721969604492,-4.585159778594971,2.092064142227173
1772561536328544300,11.393544189453126,-1.3825337886810303,-3.0681467056274414,2.0325772762298584
1772561536338611200,11.403611083984375,-1.651882290840149,-1.3143255710601807,1.6618764400482178
1772561536348677000,11.413677001953126,-1.9774963855743408,0.6857520341873169,1.2970728874206543
1772561536358744000,11.423744140625,-1.9841086864471436,3.004700183868408,0.7625471353530884
1772561536368810200,11.433810302734376,-0.7337148785591125,3.8612051010131836,-1.2352259159088135
1772561536378876200,11.443876220703125,0.08667836338281631,3.0952694416046143,-3.745702028274536
1772561536388943000,11.453943115234376,-0.3224433362483978,1.3211735486984253,-5.004981517791748
1772561536399009300,11.46400927734375,-0.46756893396377563,0.786451518535614,-4.565714359283447
1772561536409076200,11.474076171875,-0.1551162302494049,1.1382335424423218,-3.546921968460083
1772561536419142100,11.48414208984375,-0.10650333017110825,-0.12363877147436142,-2.900299310684204
1772561536429209300,11.494209228515626,-0.3449137806892395,-1.865938663482666,-2.7674484252929688
1772561536439275300,11.504275146484375,-0.5321018695831299,-2.052943229675293,-2.581667184829712
1772561536449342200,11.51434228515625,-0.6098241209983826,-1.5386310815811157,-2.29032564163208
1772561536459408100,11.524408203125,-0.7414724230766296,-1.1930546760559082,-1.958591103553772
1772561536469475300,11.534475341796876,-0.8220987915992737,-0.8852291703224182,-1.6357799768447876
1772561536479541000,11.544541015625,-0.7155483961105347,-0.578747034072876,-1.3254759311676025
1772561536489607200,11.554607177734376,-0.5769612193107605,-0.2813001573085785,-0.9895517230033875
1772561536499674000,11.564674072265625,-0.48628172278404236,-0.06072385609149933,-0.6575784087181091
1772561536509740000,11.574739990234375,-0.42595821619033813,-0.07192430645227432,-0.414156973361969
1772561536519807000,11.584806884765625,-0.3503767251968384,-0.29512518644332886,-0.3587108552455902
1772561536529873200,11.594873046875,-0.3002687990665436,-0.2660999298095703,-0.44825857877731323
1772561536539940000,11.604940185546875,-0.2602201998233795,0.039349883794784546,-0.5566703677177429
1772561536550006300,11.61500634765625,-0.25461050868034363,0.3222135305404663,-0.6069580316543579
1772561536560073200,11.6250732421875,-0.27348169684410095,0.5851708650588989,-0.5335965156555176
1772561536570139100,11.63513916015625,-0.3324004113674164,0.8294485211372375,-0.3655792474746704
1772561536580206000,11.6452060546875,-0.4232178330421448,1.0113495588302612,-0.13505354523658752
1772561536590272300,11.655272216796876,-0.541930615901947,1.1262143850326538,0.12572291493415833
1772561536600338200,11.665338134765625,-0.6510366201400757,1.177412509918213,0.3806203007698059
1772561536610405000,11.675405029296876,-0.6981812119483948,1.1389544010162354,0.6062654256820679
1772561536620471300,11.68547119140625,-0.669922947883606,0.9744969010353088,0.7827491164207458
1772561536630538200,11.695538330078126,-0.5990743041038513,0.7165095806121826,0.8899090886116028
1772561536640604200,11.705604248046875,-0.534706711769104,0.48344969749450684,0.9540359377861023
1772561536650672000,11.715672119140624,-0.4766947627067566,0.3544088900089264,1.013383388519287
1772561536660738300,11.72573828125,-0.4127962291240692,0.2807730436325073,1.079937219619751
1772561536670805200,11.73580517578125,-0.32998764514923096,0.21662093698978424,1.152244210243225
1772561536680871200,11.74587109375,-0.23521962761878967,0.19938868284225464,1.2186529636383057
1772561536690938000,11.755938232421874,-0.15905001759529114,0.20632170140743256,1.2648297548294067
1772561536701004300,11.76600439453125,-0.12201927602291107,0.17491236329078674,1.2819292545318604
1772561536711070200,11.7760703125,-0.12260357290506363,0.12349551916122437,1.312685251235962
1772561536721137400,11.786137451171875,-0.15146638453006744,0.06385256350040436,1.3532596826553345
1772561536731203300,11.796203369140626,-0.176772803068161,0.02049337327480316,1.3631651401519775
1772561536741270300,11.806270263671875,-0.19405217468738556,0.04234128072857857,1.3452296257019043
1772561536751336400,11.81633642578125,-0.1971885859966278,0.1976325958967209,1.2782458066940308
1772561536761403400,11.8264033203125,-0.17113594710826874,0.429599791765213,1.1744941473007202
1772561536771469300,11.83646923828125,-0.11138420552015305,0.6382832527160645,1.0115301609039307
1772561536781536300,11.846536376953125,-0.041226696223020554,0.7465113997459412,0.7766255140304565
1772561536791602400,11.8566025390625,0.01481260359287262,0.8728011846542358,0.5734356641769409
1772561536801669400,11.86666943359375,-0.042314060032367706,0.9559111595153809,0.45563647150993347
1772561536811735300,11.8767353515625,-0.0405862033367157,0.7601245641708374,0.21906305849552155
1772561536821802500,11.886802490234375,0.04861210286617279,0.46469199657440186,0.03898690640926361
1772561536831868200,11.8968681640625,0.07261916995048523,0.2793727219104767,-0.03721625357866287
1772561536841934000,11.90693408203125,0.0906548947095871,0.24320673942565918,-0.047766100615262985
1772561536852001300,11.917001220703124,0.12273932993412018,0.37788039445877075,0.043468207120895386
1772561536862067200,11.927067138671875,0.06182121858000755,0.6590707898139954,0.22826902568340302
1772561536872134100,11.937134033203124,-0.007719244807958603,0.8359555602073669,0.33336082100868225
