time,seconds_elapsed,z,y,x
1772457240393841200,0.060841064453125,-0.049021072685718536,-0.03026575967669487,0.003997404593974352
1772457240403909000,0.0709091796875,-0.03749411180615425,-0.0037388119380921125,-0.004289553500711918
1772457240413978000,0.08097802734375,-0.021346034482121468,0.0009534116834402084,-0.014537131413817406
1772457240424046000,0.091046142578125,-0.01013918686658144,-0.006797452457249165,-0.01576937548816204
1772457240434114300,0.1011142578125,-0.0037345506716519594,-0.031263645738363266,-0.010835870169103146
1772457240444183000,0.11118310546875,0.005833654198795557,-0.047149669378995895,0.00025486451340839267
1772457240454251000,0.1212509765625,0.016404272988438606,-0.06652603298425674,0.007473628968000412
1772457240464320300,0.1313203125,0.02070075087249279,-0.06980305165052414,0.01179061271250248
1772457240474388200,0.14138818359375,0.02869662642478943,-0.06289400905370712,0.007763913366943598
1772457240484457000,0.15145703125,0.03063327632844448,-0.050092995166778564,0.010386860929429531
1772457240494525200,0.161525146484375,0.028863074257969856,-0.03497529402375221,0.012660401873290539
1772457240504594200,0.17159423828125,0.026969565078616142,-0.043422307819128036,0.020859742537140846
1772457240514662100,0.181662109375,0.02238759770989418,-0.05385737121105194,0.02154017984867096
1772457240524731100,0.191731201171875,0.01581624709069729,-0.05590853840112686,0.02413329854607582
1772457240534799000,0.201799072265625,0.009378321468830109,-0.04133252426981926,0.026687270030379295
1772457240544868400,0.211868408203125,0.003596332622691989,-0.014739797450602055,0.03490898013114929
1772457240554936000,0.22193603515625,0.0012926984345540404,-0.0011137339752167463,0.03855964168906212
1772457240565004000,0.232004150390625,0.0015883093001320958,-0.0025308020412921906,0.04217515140771866
1772457240575073000,0.242072998046875,0.002335326047614217,-0.021819811314344406,0.04343908652663231
1772457240585141200,0.252141357421875,0.0024437166284769773,-0.022815033793449402,0.046899329870939255
1772457240595210000,0.2622099609375,-0.003519101068377495,-0.01293284259736538,0.05522490665316582
1772457240605278000,0.27227783203125,-0.00891146995127201,-0.0070770843885838985,0.06107134371995926
1772457240615347200,0.28234716796875,-0.011867844499647617,-0.014421283267438412,0.06898945569992065
1772457240625415200,0.292415283203125,-0.00974743627011776,-0.03713485226035118,0.06824563443660736
1772457240635484200,0.302484130859375,-0.0019044264918193221,-0.05343499407172203,0.061941131949424744
1772457240645552000,0.31255224609375,0.0024730113800615072,-0.05606220290064812,0.04843704029917717
1772457240655621000,0.32262109375,0.007586546707898378,-0.04691397771239281,0.04318875074386597
1772457240665689300,0.332689453125,0.009889115579426289,-0.02383662387728691,0.029951773583889008
1772457240675758000,0.342758056640625,0.01136770285665989,-0.016861004754900932,0.022010494023561478
1772457240685826000,0.352825927734375,0.004655738361179829,-0.024748755618929863,0.013759488239884377
1772457240695894300,0.362894287109375,-0.003132676472887397,-0.024112792685627937,0.017528394237160683
1772457240705963000,0.372962890625,-0.0035089810844510794,-0.022366026416420937,0.014974155463278294
1772457240716031000,0.383031005859375,-0.010749849490821362,-0.02112525887787342,0.0116776954382658
1772457240726100200,0.393100341796875,-0.009813748300075531,-0.013540576212108135,0.0036932716611772776
1772457240736168200,0.403168212890625,-0.011923238635063171,-0.01992657035589218,-0.010882741771638393
1772457240746237000,0.41323681640625,-0.012654276564717293,-0.0319661870598793,-0.024148745462298393
1772457240756305200,0.42330517578125,-0.011845474131405354,-0.038471758365631104,-0.03111690655350685
1772457240766374100,0.4333740234375,-0.008626777678728104,-0.013529923744499683,-0.03262611851096153
1772457240776442000,0.443442138671875,-0.014481737278401852,0.0035665053874254227,-0.02370426431298256
1772457240786511000,0.453510986328125,-0.01631665602326393,0.014080931432545185,-0.011078217066824436
1772457240796579000,0.4635791015625,-0.02461959235370159,0.00914582796394825,-0.0024650217965245247
1772457240806648000,0.47364794921875,-0.03290947899222374,-0.005899168085306883,0.0012064119800925255
1772457240816716300,0.48371630859375,-0.03302106633782387,-0.027630561962723732,0.000934236915782094
1772457240826784300,0.4937841796875,-0.024746624752879143,-0.02665797621011734,-0.00284984870813787
1772457240836853000,0.50385302734375,-0.014423946850001812,-0.022342057898640633,-0.009725597687065601
1772457240846921200,0.513921142578125,-0.003946804907172918,-0.011502458713948727,-0.009998039342463017
1772457240856990200,0.523990234375,0.0012279836228117347,-0.016162192448973656,-0.011184743605554104
1772457240867058000,0.534057861328125,0.004719920456409454,-0.014428740367293358,-0.0008977515972219408
1772457240877127200,0.544127197265625,0.011603659018874168,-0.01581864431500435,0.009266468696296215
1772457240887195100,0.554195068359375,0.023254988715052605,-0.014817828312516212,0.01438160240650177
1772457240897264000,0.56426416015625,0.02664812281727791,-0.015035674907267094,0.018126007169485092
1772457240907332000,0.57433203125,0.019585685804486275,-0.006900250446051359,0.019303657114505768
1772457240917401000,0.584401123046875,0.00845553632825613,0.0016884441720321774,0.022123677656054497
1772457240927469000,0.594468994140625,-0.005930326879024506,0.0027944548055529594,0.021588383242487907
1772457240937538000,0.6045380859375,-0.011803928762674332,-0.0012756541837006807,0.019331885501742363
1772457240947606000,0.61460595703125,-0.011649997904896736,-0.0009731190511956811,0.010521616786718369
1772457240957674000,0.624674072265625,-0.011975170113146305,0.0012072109384462237,0.006015548016875982
1772457240967743200,0.6347431640625,-0.01606045849621296,0.01715768128633499,0.0065471152774989605
1772457240977811200,0.644811279296875,-0.019355054944753647,0.018697787076234818,0.00019041601626668125
1772457240987880200,0.654880126953125,-0.021697571501135826,0.008710134774446487,-0.0046570696868002415
1772457240997948200,0.6649482421875,-0.02172420360147953,-0.014270815066993237,-0.014938202686607838
1772457241008017200,0.67501708984375,-0.015835687518119812,-0.023662451654672623,-0.03127403184771538
1772457241018085000,0.685085205078125,-0.016212258487939835,-0.024643028154969215,-0.04436027258634567
1772457241028154000,0.695154052734375,-0.009853430092334747,-0.00917352456599474,-0.05416576564311981
1772457241038222000,0.70522216796875,-0.00942039955407381,0.007108775898814201,-0.05879727005958557
1772457241048291300,0.715291259765625,-0.008452074602246284,0.021914087235927582,-0.05626913160085678
1772457241058359000,0.725359130859375,-0.007672833278775215,0.02143152244389057,-0.050696201622486115
1772457241068428000,0.735427978515625,-0.008902947418391705,0.00800146721303463,-0.045570146292448044
1772457241078496300,0.745496337890625,-0.00908537395298481,-0.004288754425942898,-0.037397705018520355
1772457241088564200,0.755564208984375,-0.01197011023759842,-0.015691878274083138,-0.03581925109028816
1772457241098633000,0.765633056640625,-0.012439358979463577,-0.005367334932088852,-0.028023378923535347
1772457241108701200,0.775701171875,-0.012440690770745277,0.005001150071620941,-0.020115921273827553
1772457241118770200,0.785770263671875,-0.015570437535643578,0.010624947026371956,-0.005902363918721676
1772457241128838100,0.795838134765625,-0.015517440624535084,0.0026383937802165747,0.0044072652235627174
1772457241138907100,0.8059072265625,-0.017545171082019806,-0.008981777355074883,0.004735632799565792
1772457241148975600,0.8159755859375,-0.017250891774892807,-0.007015299052000046,0.011937619186937809
1772457241159044600,0.826044677734375,-0.013547234237194061,0.006857906002551317,0.018122810870409012
1772457241169112300,0.8361123046875,-0.013704626820981503,0.023070165887475014,0.022960176691412926
1772457241179181600,0.846181640625,-0.01467801257967949,0.024292023852467537,0.019451195374131203
1772457241189249500,0.85624951171875,-0.007610781583935022,0.011152786202728748,0.012832441367208958
1772457241199318500,0.866318603515625,-0.003921238239854574,-0.007187339011579752,0.00264851376414299
1772457241209386500,0.876386474609375,-0.0022602248936891556,-0.007182811852544546,-0.005279717035591602
1772457241219454500,0.886454345703125,0.0024399880785495043,0.01248303521424532,-0.005431250669062138
1772457241229523500,0.8965234375,0.00304692261852324,0.028055069968104362,0.002569684060290456
1772457241239591700,0.906591796875,0.003072488820180297,0.02713414840400219,0.01158661488443613
1772457241249660400,0.916660400390625,0.004957207944244146,0.009645170532166958,0.013921407982707024
1772457241259728400,0.926728271484375,0.006944991648197174,-0.0070192934945225716,0.013095828704535961
1772457241269797600,0.936797607421875,0.009162073023617268,-0.009459015913307667,0.003510312642902136
1772457241279865600,0.946865478515625,0.01390170119702816,0.00047164582065306604,-0.0012785836588591337
1772457241289934600,0.9569345703125,0.01961711049079895,0.01332672405987978,-0.0009771138429641724
1772457241300002600,0.96700244140625,0.021079719066619873,0.009068329818546772,-0.001895105466246605
1772457241310071600,0.977071533203125,0.023816382512450218,0.004848817363381386,0.0024264061357825994
1772457241320139500,0.987139404296875,0.0249631404876709,-0.008013984188437462,0.00105354655534029
1772457241330208500,0.99720849609375,0.020832577720284462,-0.011166367679834366,0.002231728984043002
1772457241340276500,1.0072763671875,0.015352857299149036,0.007900799624621868,0.0120702451094985
1772457241350344700,1.0173447265625,0.012010323815047741,0.018618158996105194,0.017403490841388702
1772457241360413400,1.027413330078125,0.0033957967534661293,0.012119779363274574,0.024580443277955055
1772457241370481400,1.0374814453125,0.0009544769418425858,0.0020003002136945724,0.02238200418651104
1772457241380550700,1.047550537109375,-0.002395247109234333,-0.0006601976347155869,0.029275862500071526
1772457241390618600,1.05761865234375,-0.002825347473844886,-0.0001781654718797654,0.03261120617389679
1772457241400687400,1.067687255859375,-0.009375925175845623,0.00857457984238863,0.03744404390454292
1772457241410755600,1.077755615234375,-0.013920608907938004,0.010250773280858994,0.03296301141381264
1772457241420824600,1.087824462890625,-0.014713698998093605,0.0018751317402347922,0.02816825546324253
1772457241430892500,1.097892578125,-0.010545318946242332,-0.012176238931715488,0.022250443696975708
1772457241440961500,1.10796142578125,-0.005943909287452698,-0.017484717071056366,0.017072459682822227
1772457241451029500,1.118029541015625,0.003368099918588996,-0.014314490370452404,0.015005847439169884
1772457241461098500,1.128098388671875,0.008328237570822239,0.006401173770427704,0.018425878137350082
1772457241471166700,1.138166748046875,0.0033867419697344303,0.02238733135163784,0.021988922730088234
1772457241481234400,1.148234375,-0.0025782061275094748,0.019110310822725296,0.025405224412679672
1772457241491303400,1.158303466796875,-0.005428853910416365,-0.0019265307346358895,0.021679196506738663
1772457241501371600,1.16837158203125,-0.005651494022458792,-0.01972923055291176,0.015413044951856136
1772457241511440600,1.178440673828125,0.008420648984611034,-0.018612300977110863,0.0027087011840194464
1772457241521508400,1.18850830078125,0.018023476004600525,-0.014977618120610714,-0.0062219430692493916
1772457241531577600,1.19857763671875,0.028123246505856514,-0.0024887239560484886,-0.012250540778040886
1772457241541645600,1.2086455078125,0.03280588239431381,0.012658004648983479,-0.0022567627020180225
1772457241551714300,1.21871435546875,0.0309858787804842,0.01543568167835474,0.012033493258059025
1772457241561782500,1.228782470703125,0.027699537575244904,0.00037257623625919223,0.02802923694252968
1772457241571851500,1.2388515625,0.02719593420624733,-0.02215270698070526,0.03339897096157074
1772457241581919500,1.24891943359375,0.024657143279910088,-0.03297552838921547,0.03734337538480759
1772457241591987700,1.25898779296875,0.025647573173046112,-0.022846460342407227,0.03166205435991287
1772457241602056400,1.269056396484375,0.022562300786376,-0.0073324814438819885,0.02183366008102894
1772457241612124400,1.27912451171875,0.022606508806347847,0.006455502472817898,0.009423329494893551
1772457241622193700,1.289193603515625,0.019627496600151062,0.01565219648182392,0.008888034150004387
1772457241632261600,1.29926171875,0.016156865283846855,0.015974706038832664,0.004671717062592506
1772457241642330600,1.30933056640625,0.012974121607840061,0.0036093820817768574,0.010117615573108196
1772457241652398600,1.319398681640625,0.0008247809601016343,-0.01092615071684122,0.013575729914009571
1772457241662467600,1.329467529296875,-0.006582535337656736,-0.015900935977697372,0.014541125856339931
1772457241672535600,1.33953564453125,-0.013086507096886635,-0.022177740931510925,0.017341705039143562
1772457241682604500,1.3496044921875,-0.018553178757429123,-0.016098009422421455,0.01914226822555065
1772457241692672500,1.359672607421875,-0.018093250691890717,-0.006325007416307926,0.01865171454846859
1772457241702741500,1.369741455078125,-0.018792062997817993,0.0065535069443285465,0.017948640510439873
1772457241712809500,1.3798095703125,-0.02142379991710186,0.0159510038793087,0.019046129658818245
1772457241722877400,1.38987744140625,-0.026012958958745003,0.014708371832966805,0.018202971667051315
1772457241732946700,1.39994677734375,-0.02804441750049591,0.006037386134266853,0.022598519921302795
1772457241743014700,1.4100146484375,-0.027784759178757668,-0.006966829299926758,0.0203380286693573
1772457241753083400,1.42008349609375,-0.023208649829030037,-0.012121377512812614,0.02167040854692459
1772457241763151600,1.430151611328125,-0.014374145306646824,-0.02261636219918728,0.016914002597332
1772457241773220600,1.440220703125,-0.006937001831829548,-0.01812041364610195,0.020389162003993988
1772457241783288600,1.45028857421875,-0.005558549892157316,-0.0018908443162217736,0.022535402327775955
1772457241793357600,1.460357666015625,-0.003694869577884674,0.0005129248020239174,0.024519192054867744
1772457241803425500,1.470425537109375,-0.005548962391912937,-0.002389388158917427,0.021331919357180595
1772457241813494500,1.48049462890625,-0.009758621454238892,-0.007131945341825485,0.01890658028423786
1772457241823562500,1.4905625,-0.01392620149999857,-0.012722719460725784,0.015751266852021217
1772457241833631500,1.500631591796875,-0.01672358624637127,-0.009590575471520424,0.006027265917509794
1772457241843699500,1.510699462890625,-0.020499948412179947,0.00011424961121520028,0.0017963021527975798
1772457241853767700,1.520767578125,-0.02027091756463051,0.016831710934638977,-0.008845956064760685
1772457241863836400,1.53083642578125,-0.016324112191796303,0.018994197249412537,-0.01152669358998537
1772457241873904400,1.540904296875,-0.013861220329999924,0.011130415834486485,-0.019054384902119637
1772457241883973600,1.5509736328125,-0.011622834019362926,0.00023142869758885354,-0.022304506972432137
1772457241894041600,1.56104150390625,-0.00523683987557888,-0.009060340002179146,-0.029034314677119255
1772457241904110300,1.5711103515625,-0.007740743923932314,-0.010752779431641102,-0.032593630254268646
1772457241914178600,1.581178466796875,-0.012183163315057755,-0.00595642626285553,-0.030852189287543297
1772457241924247600,1.59124755859375,-0.01793505810201168,0.0059969061985611916,-0.017182448878884315
1772457241934315500,1.6013154296875,-0.018690330907702446,0.019467707723379135,-0.006935936864465475
1772457241944384500,1.611384521484375,-0.012558402493596077,0.016382168978452682,0.006780407857149839
1772457241954452500,1.621452392578125,-0.012971991673111916,0.005951632279902697,0.014642059803009033
1772457241964521700,1.631521728515625,-0.004581169690936804,-0.009409747086465359,0.01786155439913273
1772457241974589700,1.641589599609375,0.004206196404993534,-0.020551348105072975,0.012627378106117249
1772457241984657400,1.651657470703125,0.007464840542525053,-0.015927568078041077,0.006875482853502035
1772457241994726700,1.6617265625,0.0062669506296515465,-0.0025390577502548695,-0.00020586235041264445
1772457242004794600,1.671794677734375,0.0009981527691707015,0.010152502916753292,-0.007392934989184141
1772457242014863600,1.681863525390625,-0.008020908571779728,0.019106848165392876,-0.012121111154556274
1772457242024931300,1.691931396484375,-0.006633135490119457,0.018214156851172447,-0.015686551108956337
1772457242035000600,1.70200048828125,-0.005043228156864643,0.022164957597851753,-0.02684439718723297
1772457242045068500,1.712068603515625,-0.006741526070982218,0.03532363474369049,-0.03074433095753193
1772457242055137500,1.722137451171875,-0.009282181970775127,0.034085530787706375,-0.03281334042549133
1772457242065205500,1.73220556640625,-0.021090371534228325,0.025190841406583786,-0.03326794132590294
1772457242075274500,1.7422744140625,-0.03063567355275154,0.014857242815196514,-0.02781032584607601
1772457242085342700,1.7523427734375,-0.04000866785645485,0.013323528692126274,-0.022644059732556343
1772457242095411500,1.762411376953125,-0.03738731890916824,0.021629661321640015,-0.01920272223651409
1772457242105479400,1.7724794921875,-0.036849893629550934,0.022779347375035286,-0.01489106472581625
1772457242115547600,1.782547607421875,-0.033430926501750946,0.026312030851840973,-0.013243633322417736
1772457242125616600,1.79261669921875,-0.02762230671942234,0.022783342748880386,-0.013994911685585976
1772457242135684600,1.8026845703125,-0.02442997507750988,0.02551734447479248,-0.011024155654013157
1772457242145753600,1.812753662109375,-0.023456323891878128,0.03516251593828201,-0.0015901734586805105
1772457242155822000,1.822822021484375,-0.02604491636157036,0.048836782574653625,-0.0004892227007076144
1772457242165890800,1.832890869140625,-0.027039073407649994,0.053048305213451385,-0.002529470482841134
1772457242175959000,1.842958984375,-0.021379323676228523,0.04183186963200569,-0.009095760062336922
1772457242186028000,1.853028076171875,-0.009735185652971268,0.020380105823278427,-0.017834391444921494
1772457242196096000,1.863095947265625,-0.005079447291791439,-0.0005259743193164468,-0.03388046845793724
1772457242206165000,1.8731650390625,0.0020783308427780867,0.0017265273490920663,-0.04162281006574631
1772457242216233000,1.88323291015625,0.010467820800840855,0.010457168333232403,-0.04144224897027016
1772457242226302000,1.893302001953125,0.02034575119614601,0.016823189333081245,-0.033235982060432434
1772457242236370200,1.9033701171875,0.022794527933001518,0.014875885099172592,-0.021562816575169563
1772457242246438100,1.913438232421875,0.028922993689775467,0.004077299498021603,-0.007839014753699303
1772457242256507000,1.9235068359375,0.03664908930659294,-0.005425391718745232,0.0076360818929970264
1772457242266575000,1.9335751953125,0.03561844676733017,-0.0026285399217158556,0.011848137713968754
1772457242276644000,1.94364404296875,0.03518861532211304,0.007537811063230038,0.008412392809987068
1772457242286711800,1.9537119140625,0.03099733032286167,0.01931297779083252,0.0048916940577328205
1772457242296781000,1.963781005859375,0.028448153287172318,0.020426711067557335,-0.006922887172549963
1772457242306849000,1.97384912109375,0.021439511328935623,0.015527294017374516,-0.010144513100385666
1772457242316918000,1.98391796875,0.016577111557126045,0.011921906843781471,-0.015276957303285599
1772457242326986000,1.993986083984375,0.013905162923038006,0.02136148139834404,-0.02196095883846283
1772457242337055000,2.004054931640625,0.007979629561305046,0.013615410774946213,-0.023792680352926254
1772457242347123000,2.014123046875,0.0012535499408841133,0.016407735645771027,-0.022124210372567177
1772457242357192000,2.02419189453125,-0.0025534387677907944,0.020486898720264435,-0.017356352880597115
1772457242367260000,2.034260009765625,-0.006446181330829859,0.02153591811656952,-0.013944044709205627
1772457242377327900,2.044327880859375,-0.0022069616243243217,0.014010357670485973,-0.014003699645400047
1772457242387397000,2.054397216796875,0.003611512714996934,0.006117014680057764,-0.016831710934638977
1772457242397465000,2.064465087890625,0.007712514605373144,0.004375307355076075,-0.02243686653673649
1772457242407533800,2.074533935546875,0.004766792058944702,0.014055897481739521,-0.024081900715827942
1772457242417602000,2.08460205078125,0.005408347584307194,0.03205220773816109,-0.022895995527505875
1772457242427671000,2.094671142578125,-0.0035236284602433443,0.04024355858564377,-0.017885522916913033
1772457242437739000,2.104739013671875,-0.014372813515365124,0.04728815332055092,-0.007438475266098976
1772457242447808000,2.11480810546875,-0.014336595311760902,0.04143931716680527,0.004895688965916634
1772457242457876000,2.1248759765625,-0.016573118045926094,0.027582624927163124,0.017525464296340942
1772457242467945200,2.1349453125,-0.018879149109125137,0.012592757120728493,0.024090955033898354
1772457242478013000,2.145012939453125,-0.014510232955217361,0.005905559752136469,0.029088908806443214
1772457242488082000,2.15508203125,-0.012530439533293247,-0.0008801747462712228,0.02828197181224823
1772457242498150100,2.165150146484375,-0.004865595139563084,0.004282895475625992,0.027112843468785286
1772457242508218000,2.175218017578125,0.00020453077740967274,0.008626511320471764,0.020843230187892914
1772457242518286800,2.185286865234375,0.008947156369686127,-0.0005243764026090503,-0.0005544701125472784
1772457242528354800,2.195354736328125,0.007842476479709148,-0.012025503441691399,-0.013997840695083141
1772457242538424000,2.205424072265625,0.009413475170731544,-0.008672850206494331,-0.024293888360261917
1772457242548492000,2.215491943359375,0.015137141570448875,-0.010728544555604458,-0.03521071746945381
1772457242558561000,2.22556103515625,0.013680924661457539,-0.01398479100316763,-0.039795614778995514
1772457242568629000,2.23562890625,0.014684404246509075,-0.0024165522772818804,-0.034860510379076004
1772457242578698000,2.245697998046875,0.01372033916413784,0.002264752285555005,-0.030909446999430656
1772457242588766200,2.25576611328125,0.01034718006849289,0.0007808388327248394,-0.02678820490837097
1772457242598835000,2.2658349609375,0.008273109793663025,-0.004570250865072012,-0.02275511436164379
1772457242608903000,2.27590283203125,0.009997772984206676,-0.022380406036973,-0.02551041916012764
1772457242618972200,2.28597216796875,0.011202586814761162,-0.03532789647579193,-0.029152292758226395
1772457242629040000,2.2960400390625,0.01269715279340744,-0.02275138534605503,-0.030307039618492126
1772457242639108900,2.30610888671875,0.007988151162862778,0.008025169372558594,-0.024162327870726585
1772457242649177000,2.316177001953125,0.005545766558498144,0.023089872673153877,-0.012301141396164894
1772457242659245000,2.3262451171875,-0.0020793962758034468,0.017459683120250702,-0.004192348103970289
1772457242669313800,2.336313720703125,-0.008526909165084362,0.002186188939958811,0.006647250149399042
1772457242679382000,2.346382080078125,-0.007470965851098299,-0.01413632556796074,0.009332515299320221
1772457242689451000,2.356450927734375,-0.0033665020018815994,-0.02762017585337162,0.0020849888678640127
1772457242699519000,2.36651904296875,0.0023129554465413094,-0.0185270793735981,-0.007865912280976772
1772457242709588000,2.376587890625,0.005090632475912571,-0.002168612089008093,-0.009464342147111893
1772457242719656000,2.386656005859375,0.007183610461652279,0.0030980552546679974,-0.017846908420324326
1772457242729725000,2.396724853515625,0.00361790438182652,-0.0033776871860027313,-0.015777364373207092
1772457242739793200,2.406793212890625,0.005875998642295599,-0.016984043642878532,-0.016819993034005165
1772457242749862000,2.41686181640625,0.004024036228656769,-0.02551308274269104,-0.016336362808942795
1772457242759929900,2.426929931640625,0.0022540995851159096,-0.020791297778487206,-0.01593635603785515
1772457242769998000,2.436998046875,0.005472263321280479,-0.010698717087507248,-0.01677924580872059
1772457242780067000,2.447067138671875,0.007508249953389168,0.0032120386604219675,-0.014916897751390934
1772457242790134800,2.457134765625,0.006339388433843851,-0.005863481666892767,-0.010717093013226986
1772457242800204000,2.4672041015625,0.005396096967160702,-0.01914040558040142,-0.015679894015192986
1772457242810272000,2.47727197265625,0.001528920722194016,-0.033065009862184525,-0.01913854107260704
1772457242820341000,2.487341064453125,0.0007917577750049531,-0.022855248302221298,-0.014772022143006325
1772457242830409000,2.497408935546875,-0.006328469607979059,0.0013464941876009107,-0.0015582155901938677
1772457242840478000,2.50747802734375,-0.019266638904809952,0.017191236838698387,0.013737383298575878
1772457242850546000,2.5175458984375,-0.027219636365771294,0.010307231917977333,0.028244154527783394
1772457242860615000,2.527614990234375,-0.033308953046798706,-0.0059630838222801685,0.027588484808802605
1772457242870683000,2.537682861328125,-0.03231053426861763,-0.02480068802833557,0.018272746354341507
1772457242880752000,2.547752197265625,-0.026702716946601868,-0.035887159407138824,0.0027486486360430717
1772457242890820000,2.557820068359375,-0.01992923393845558,-0.02256016992032528,-0.014663098379969597
1772457242900888800,2.567888916015625,-0.008214253932237625,0.0065444521605968475,-0.021380655467510223
1772457242910957000,2.57795703125,-0.0021174794528633356,0.008655539713799953,-0.018567824736237526
1772457242921025000,2.58802490234375,0.00014807176194153726,-0.0015544871566817164,-0.01017007976770401
1772457242931094000,2.598093994140625,-0.000022370553779182956,-0.0065138256177306175,0.009587380103766918
1772457242941162000,2.608161865234375,0.003570766421034932,-0.008763398043811321,0.027420971542596817
1772457242951231000,2.61823095703125,0.0031164311803877354,-0.011627893894910812,0.04560796543955803
1772457242961299000,2.628298828125,0.007457117084413767,-0.025056883692741394,0.053652577102184296
1772457242971368200,2.6383681640625,0.015567242167890072,-0.03351215273141861,0.05348905920982361
1772457242981436000,2.648435791015625,0.022895196452736855,-0.03320961818099022,0.04404681921005249
1772457242991505000,2.6585048828125,0.024639032781124115,-0.027176227420568466,0.032274048775434494
1772457243001573000,2.668572998046875,0.026680612936615944,-0.014423946850001812,0.019889019429683685
1772457243011641900,2.678641845703125,0.025560487061738968,0.00028815402765758336,0.008275240659713745
1772457243021709800,2.688709716796875,0.02161022089421749,0.00947872269898653,0.00621155695989728
1772457243031779000,2.698779052734375,0.012594355270266533,0.0039023298304528,0.005423527676612139
1772457243041847000,2.708846923828125,0.005783853121101856,-0.012176505289971828,0.007880826480686665
1772457243051915000,2.7189150390625,0.0046362970024347305,-0.031152326613664627,0.010279535315930843
1772457243061984000,2.72898388671875,0.0013201289111748338,-0.02779674343764782,0.018309231847524643
1772457243072052000,2.739052001953125,-0.00336090917699039,-0.016470851376652718,0.02845614217221737
1772457243082121000,2.749120849609375,-0.00626002624630928,0.0023875238839536905,0.033357422798871994
1772457243092189200,2.759189208984375,-0.008324774913489819,0.005132444202899933,0.03286127746105194
1772457243102258000,2.7692578125,-0.011747470125555992,-0.0038629150949418545,0.024502413347363472
1772457243112326000,2.779325927734375,-0.010824152268469334,-0.015786686912178993,0.011409780941903591
1772457243122395100,2.78939501953125,-0.004799016285687685,-0.009620935656130314,0.0038184402510523796
1772457243132463000,2.799463134765625,0.0006287723081186414,0.005800630897283554,-0.00304692261852324
1772457243142532000,2.809531982421875,0.008485097438097,0.01088913343846798,0.0010042780777439475
1772457243152598800,2.819598876953125,0.007841677404940128,-0.0010242518037557602,0.005125253461301327
1772457243162668000,2.82966796875,0.01076982356607914,-0.022186528891324997,0.015031680464744568
1772457243172736000,2.839736083984375,0.012459066696465015,-0.036309536546468735,0.020126573741436005
1772457243182804000,2.849803955078125,0.016654077917337418,-0.0384022481739521,0.0298998411744833
1772457243192872700,2.859872802734375,0.01733051985502243,-0.014189588837325573,0.04097433015704155
1772457243202941000,2.86994091796875,0.015366706065833569,-0.0011142665753141046,0.05122457072138786
1772457243213010000,2.880010009765625,0.010517355985939503,-0.006798517424613237,0.05728379637002945
1772457243223078000,2.890077880859375,0.0018032263033092022,-0.014542191289365292,0.053590256720781326
1772457243233147000,2.90014697265625,-0.005310076754540205,-0.010937602259218693,0.052316199988126755
1772457243243214800,2.91021484375,-0.0033422671258449554,-0.002808303339406848,0.03869333490729332
1772457243253284000,2.9202841796875,-0.004125502891838551,0.002662362065166235,0.03387194499373436
1772457243263351800,2.930351806640625,-0.0019984361715614796,0.0003328951424919069,0.023301061242818832
1772457243273420800,2.9404208984375,-0.00024341292737517506,-0.004071440547704697,0.017127588391304016
1772457243283489000,2.950489013671875,-0.0016769925132393837,-0.004427238833159208,0.0121852932497859
1772457243293557800,2.960557861328125,-0.002650644164532423,0.004225904121994972,0.008913599886000156
1772457243303625700,2.970625732421875,-0.004817125853151083,0.0057260626927018166,0.004806739278137684
1772457243313693700,2.980693603515625,-0.0051681301556527615,0.001888980157673359,0.004035221878439188
1772457243323763000,2.990762939453125,-0.0014500912511721253,-0.008344748988747597,-0.0013073458103463054
1772457243333831000,3.000830810546875,0.0013765880139544606,-0.0139594916254282,-0.00723580876365304
1772457243343900000,3.01089990234375,0.008016914129257202,-0.009615609422326088,-0.015097726136446
1772457243353967900,3.0209677734375,0.010389257222414017,0.006326072849333286,-0.015355519950389862
1772457243364036900,3.031036865234375,0.008520783856511116,0.017531855031847954,-0.012797820381820202
1772457243374105000,3.04110498046875,0.006204898934811354,0.009613212198019028,-0.006953247357159853
1772457243384173800,3.051173828125,0.00418249424546957,-0.0019108180422335863,-0.0018407768802717328
1772457243394241800,3.06124169921875,0.00247594085521996,-0.01882801577448845,-0.0005483448621816933
1772457243404311000,3.07131103515625,0.0010897654574364424,-0.024927187711000443,-0.007518636528402567
1772457243414379000,3.08137890625,0.0012937636347487569,-0.010029198601841927,-0.009042496792972088
1772457243424447700,3.09144775390625,-0.0009126652730628848,0.006646717432886362,-0.008766060695052147
1772457243434516000,3.101515869140625,-0.00600462919101119,0.001585912425071001,-0.019399797543883324
1772457243444585000,3.1115849609375,-0.00914476253092289,-0.010552243329584599,-0.024407871067523956
1772457243454652700,3.121652587890625,-0.0062616243958473206,-0.006382531952112913,-0.02755066752433777
1772457243464721000,3.131720947265625,-0.005563343409448862,0.005328985396772623,-0.023488814011216164
1772457243474790000,3.141789794921875,-0.01133734267205,0.021764684468507767,-0.010159160941839218
1772457243484857900,3.15185791015625,-0.018246116116642952,0.02130315825343132,0.005533515941351652
1772457243494926800,3.1619267578125,-0.023901071399450302,0.0007986819837242365,0.01583142764866352
1772457243504994800,3.171994873046875,-0.02761591412127018,-0.024758875370025635,0.01769137941300869
1772457243515063800,3.182063720703125,-0.02375965751707554,-0.030104106292128563,0.013576795347034931
1772457243525132000,3.192132080078125,-0.019336679950356483,-0.0172671377658844,0.016993097960948944
1772457243535200800,3.20220068359375,-0.01435417216271162,0.008354868739843369,0.012534433975815773
1772457243545268700,3.212268798828125,-0.018577678129076958,0.022126607596874237,0.007940215058624744
1772457243555338000,3.222337890625,-0.023306654766201973,0.026693396270275116,0.008835835382342339
1772457243565406000,3.232406005859375,-0.027760257944464684,0.017705760896205902,0.006614493206143379
1772457243575475000,3.242474853515625,-0.027782361954450607,0.0002687129599507898,-0.0007041397620923817
1772457243585543000,3.25254296875,-0.028481975197792053,-0.019210446625947952,-0.006910636555403471
1772457243595611000,3.26261083984375,-0.020066918805241585,-0.027105920016765594,-0.01744716800749302
1772457243605679900,3.272679931640625,-0.010245979763567448,-0.014523815363645554,-0.024648888036608696
1772457243615747800,3.282747802734375,-0.003430950455367565,-0.005090632475912571,-0.027769578620791435
1772457243625816800,3.29281689453125,0.0026551715563982725,-0.0009922938188537955,-0.026695527136325836
1772457243635884800,3.302884765625,0.009882458485662937,-0.00999138131737709,-0.01914147101342678
1772457243645953800,3.312953857421875,0.014732873067259789,-0.015452992171049118,-0.012010590173304081
1772457243656021800,3.323021728515625,0.021572669968008995,-0.017641844227910042,-0.001728924224153161
1772457243666091000,3.333091064453125,0.02058383822441101,-0.017295366153120995,-0.0010096043115481734
1772457243676159000,3.343158935546875,0.02298334613442421,-0.010339989326894283,0.0034669029992073774
1772457243686227700,3.353227783203125,0.023371635004878044,-0.0079748360440135,-0.001981658162549138
1772457243696296000,3.3632958984375,0.025897111743688583,-0.014959242194890976,-0.019349196925759315
1772457243706365000,3.373364990234375,0.02851180173456669,-0.019687950611114502,-0.03431056812405586
1772457243716433000,3.383432861328125,0.03129027783870697,-0.01038339827209711,-0.049365684390068054
1772457243726500900,3.3935009765625,0.03157443925738335,0.012684635818004608,-0.05450478568673134
1772457243736569900,3.40356982421875,0.028971197083592415,0.03332306817173958,-0.04674273729324341
1772457243746637800,3.413637939453125,0.02183925174176693,0.017136109992861748,-0.036014992743730545
1772457243756707000,3.42370703125,0.010176471434533596,-0.010881143622100353,-0.021588383242487907
1772457243766774800,3.43377490234375,-0.0025158883072435856,-0.020769460126757622,-0.004733236040920019
1772457243776843800,3.44384375,-0.00586667750030756,-0.026434537023305893,0.006942594423890114
1772457243786912000,3.453912109375,-0.013610350899398327,-0.02095108851790428,0.014268151484429836
1772457243796980700,3.463980712890625,-0.01696992851793766,-0.0036709012929350138,0.01817953586578369
1772457243807048700,3.474048583984375,-0.015144065022468567,0.0034519892651587725,0.010664895176887512
1772457243817118000,3.484117919921875,-0.013592507690191269,0.006370814051479101,0.013946708291769028
1772457243827186000,3.49418603515625,-0.013511547818779945,0.010088587179780006,0.018731608986854553
1772457243837254700,3.504254638671875,-0.01546231284737587,0.0032988577149808407,0.02720206044614315
1772457243847323000,3.514322998046875,-0.019164107739925385,-0.006000368390232325,0.034919898957014084
1772457243857391900,3.524391845703125,-0.021739650517702103,-0.0127570740878582,0.048836782574653625
1772457243867459800,3.5344599609375,-0.01992630399763584,-0.021015003323554993,0.05240168794989586
1772457243877528000,3.544528076171875,-0.014899054542183876,-0.025680063292384148,0.04586495831608772
1772457243887596800,3.5545966796875,-0.009819074533879757,-0.020735105499625206,0.03716814145445824
1772457243897664800,3.564664794921875,-0.0015627428656443954,-0.007881359197199345,0.026380740106105804
1772457243907734000,3.574734130859375,-0.0014729943359270692,-0.0044048684649169445,0.013673467561602592
1772457243917802000,3.584802001953125,-0.004375307355076075,-0.004883704707026482,0.004836566746234894
1772457243927871000,3.59487109375,-0.007993744686245918,-0.0012112056137993932,-0.0004423510399647057
1772457243937939000,3.60493896484375,-0.015340340323746204,-0.002163019496947527,-0.0021515677217394114
1772457243948008000,3.615008056640625,-0.010633735917508602,-0.013634852133691311,-0.005832589231431484
1772457243958075600,3.62507568359375,-0.009979929774999619,-0.022562300786376,-0.011297661811113358
1772457243968145000,3.635144775390625,-0.002966228872537613,-0.017901502549648285,-0.017961956560611725
1772457243978212900,3.645212890625,-0.000508663768414408,-0.006780407857149839,-0.025308819487690926
1772457243988281900,3.65528173828125,-0.0012543488992378116,-0.0009928264189511538,-0.027712320908904076
1772457243998349800,3.665349853515625,-0.0026913906913250685,-0.004938033409416676,-0.01979500986635685
1772457244008417800,3.675417724609375,-0.00310604483820498,-0.013393037021160126,-0.015296664088964462
1772457244018487000,3.685487060546875,-0.001389371114782989,-0.03117736056447029,-0.01065024733543396
1772457244028555000,3.695554931640625,0.00250496924854815,-0.03507010266184807,-0.0060150157660245895
1772457244038623700,3.705623779296875,0.0037444045301526785,-0.022127939388155937,0.003364637726917863
1772457244048692000,3.71569189453125,0.0024051007349044085,-0.010313623584806919,0.006155364215373993
1772457244058761000,3.725760986328125,-0.006656837183982134,0.006397445686161518,0.016806943342089653
1772457244068829000,3.735828857421875,-0.009106147103011608,0.009895240887999535,0.028428178280591965
1772457244078898000,3.74589794921875,-0.01732146553695202,-0.00177899154368788,0.036020051687955856
1772457244088966000,3.7559658203125,-0.017230119556188583,-0.015190936625003815,0.03945739567279816
1772457244099035000,3.766034912109375,-0.01426415704190731,-0.02881487086415291,0.037939127534627914
1772457244109102800,3.776102783203125,-0.005944175645709038,-0.028862807899713516,0.027534954249858856
1772457244119171800,3.786171875,-0.002906840294599533,-0.018203238025307655,0.02273434028029442
1772457244129239800,3.79623974609375,-0.00040719733806326985,-0.011510981246829033,0.008462993428111076
1772457244139309000,3.80630908203125,0.00040187101694755256,-0.008623049594461918,-0.0022064289078116417
1772457244149377000,3.816376953125,-0.0046690539456903934,-0.0029177593532949686,-0.011668107472360134
1772457244159445000,3.826445068359375,-0.0008372978190891445,0.002602973720058799,-0.023969780653715134
1772457244169514200,3.83651416015625,-0.0016887104138731956,-0.005172657780349255,-0.028298482298851013
1772457244179582200,3.846582275390625,-0.00005699164830730297,-0.012839898467063904,-0.027425499632954597
1772457244189651000,3.85665087890625,-0.0039017973467707634,-0.010042247362434864,-0.023141272366046906
1772457244199719200,3.86671923828125,-0.005003014579415321,-0.0033816818613559008,-0.0205145962536335
1772457244209788200,3.8767880859375,-0.012146677821874619,0.006701045669615269,-0.014839133247733116
1772457244219856100,3.886856201171875,-0.018633605912327766,0.01595180295407772,-0.011451059952378273
1772457244229925000,3.896925048828125,-0.020263459533452988,0.0052056810818612576,-0.006649114191532135
1772457244239993000,3.9069931640625,-0.02612374536693096,-0.009917612187564373,0.0046879625879228115
1772457244250062300,3.917062255859375,-0.028182102367281914,-0.02449016273021698,0.013934457674622536
1772457244260130000,3.927130126953125,-0.029616747051477432,-0.019420303404331207,0.020621389150619507
1772457244270199000,3.937198974609375,-0.02991102635860443,0.0014138722326606512,0.016814399510622025
1772457244280267300,3.947267333984375,-0.03417288511991501,0.025524534285068512,0.022973492741584778
1772457244290335200,3.957335205078125,-0.03975407034158707,0.024058997631072998,0.024353010579943657
1772457244300404000,3.967404052734375,-0.03567038103938103,0.005595301277935505,0.013737383298575878
1772457244310472000,3.977471923828125,-0.0279751755297184,-0.015966448932886124,0.005755091086030006
1772457244320539100,3.9875390625,-0.014936605468392372,-0.030406640842556953,-0.0009504822082817554
1772457244330608000,3.997608154296875,-0.0036392095498740673,-0.021213144063949585,-0.008096275851130486
1772457244340676000,4.007676025390625,0.0054490938782691956,-0.0024311996530741453,-0.003925765864551067
1772457244350745000,4.0177451171875,0.008753810077905655,0.0035175031516700983,0.0013483584625646472
1772457244360813000,4.02781298828125,0.011964517645537853,-0.005591573193669319,0.012291819788515568
1772457244370881000,4.037881103515625,0.013950436376035213,-0.015956329181790352,0.013772537931799889
1772457244380950300,4.0479501953125,0.010686466470360756,-0.025624670088291168,0.021156150847673416
1772457244391018200,4.058018310546875,0.008777778595685959,-0.01895957626402378,0.01643010601401329
1772457244401087000,4.0680869140625,0.00418382603675127,0.0015707324491813779,0.01065291091799736
1772457244411155200,4.0781552734375,0.0031470574904233217,0.01666632853448391,0.0028613002505153418
1772457244421224200,4.08822412109375,0.0025121597573161125,0.014064686372876167,-0.0091157341375947
1772457244431292200,4.098292236328125,-0.0031526500824838877,0.004519384354352951,-0.016756609082221985
1772457244441361200,4.108361083984375,-0.00666429428383708,-0.006734601687639952,-0.02599058859050274
1772457244451429000,4.11842919921875,-0.012258264236152172,-0.011810586787760258,-0.030531810596585274
1772457244461498000,4.128498046875,-0.017043964937329292,-0.01091736275702715,-0.02796904928982258
1772457244471566000,4.138566162109375,-0.024864336475729942,0.010957309976220131,-0.02052551507949829
1772457244481635000,4.148635009765625,-0.02851020358502865,0.024405740201473236,-0.008919725194573402
1772457244491703000,4.158703125,-0.036018986254930496,0.015295333229005337,-0.005000883713364601
1772457244501771300,4.168771240234375,-0.03629063069820404,0.0011582087026908994,0.00019467707898002118
1772457244511840000,4.178840087890625,-0.035838425159454346,-0.005678658373653889,-0.00407463638111949
1772457244521908000,4.188907958984375,-0.03717692941427231,0.0029414615128189325,0.0006538060260936618
1772457244531977200,4.198977294921875,-0.03467142581939697,0.021798506379127502,0.0012239888310432434
1772457244542045200,4.209045166015625,-0.03563256189227104,0.02412317879498005,0.003912449814379215
1772457244552114000,4.219114013671875,-0.031013309955596924,0.019522568210959435,0.0070613715797662735
1772457244562182100,4.22918212890625,-0.029226062819361687,-0.0038812910206615925,0.003687146585434675
1772457244572251100,4.239251220703125,-0.020081033930182457,-0.022410500794649124,-0.00047377636656165123
1772457244582319000,4.249319091796875,-0.01510012336075306,-0.030176278203725815,-0.004181162919849157
1772457244592388000,4.25938818359375,-0.011623899452388287,-0.01525804866105318,-0.007552724797278643
1772457244602456000,4.2694560546875,-0.009558085352182388,0.009109875187277794,-0.010725348256528378
1772457244612525300,4.279525390625,-0.012918462045490742,0.028312597423791885,-0.013165070675313473
1772457244622593300,4.28959326171875,-0.018369153141975403,0.03099626488983631,-0.01353524997830391
1772457244632662000,4.299662109375,-0.021738851442933083,0.02263154275715351,-0.021400097757577896
1772457244642730200,4.309730224609375,-0.01954786852002144,0.011118963360786438,-0.02749740518629551
1772457244652798200,4.319798095703125,-0.024283502250909805,0.01599920727312565,-0.030553381890058517
1772457244662867000,4.329866943359375,-0.027576766908168793,0.030555246397852898,-0.03003326617181301
1772457244672936200,4.339936279296875,-0.03401415795087814,0.03754178434610367,-0.025886457413434982
1772457244683004200,4.350004150390625,-0.04416746273636818,0.02322622574865818,-0.016831178218126297
1772457244693073200,4.3600732421875,-0.04261430725455284,0.018795259296894073,-0.0020663465838879347
1772457244703141000,4.37014111328125,-0.03231000155210495,0.020899955183267593,0.008462460711598396
1772457244713210000,4.380210205078125,-0.015409049578011036,0.01998276263475418,0.008709602057933807
1772457244723278000,4.390278076171875,-0.00392709719017148,0.00663526589050889,0.002633333671838045
1772457244733347000,4.40034716796875,0.0010138654615730047,-0.0032503881957381964,0.0011646003695204854
1772457244743415000,4.4104150390625,-0.0006562029011547565,-0.00016964336100500077,-0.0035694348625838757
1772457244753484000,4.420484130859375,-0.0027651600539684296,0.011902199126780033,0.000284159294096753
1772457244763552300,4.43055224609375,-0.0054727960377931595,0.015478825196623802,0.00043516053119674325
1772457244773621000,4.44062109375,-0.00583818182349205,0.01389903761446476,-0.00039228363311849535
1772457244783689000,4.45068896484375,-0.003942277282476425,0.007952465675771236,-0.006607835181057453
1772457244793758200,4.46075830078125,-0.0043590618297457695,0.007306648883968592,-0.006738596595823765
1772457244803826200,4.470826171875,-0.005382515024393797,0.0015198660548776388,-0.004029895178973675
1772457244813894100,4.48089404296875,-0.010100038722157478,-0.00007590009045088664,-0.0028964539524167776
1772457244823963100,4.490963134765625,-0.01452887523919344,0.004804608877748251,-0.000713993504177779
1772457244834031000,4.501031005859375,-0.014421016909182072,0.008985771797597408,-0.000592287047766149
1772457244844100400,4.511100341796875,-0.01818113401532173,0.008766859769821167,-0.0002364887041039765
1772457244854168000,4.52116796875,-0.023150060325860977,0.006262689363211393,-0.003230680711567402
1772457244864237000,4.531237060546875,-0.022372683510184288,0.007786284200847149,-0.003456516657024622
1772457244874305000,4.541304931640625,-0.02576368674635887,0.001713744131848216,0.00364746549166739
1772457244884374000,4.5513740234375,-0.025067269802093506,-0.0118489358574152,0.004296477884054184
1772457244894442000,4.56144189453125,-0.02437085285782814,-0.01107608713209629,0.006933273747563362
1772457244904511200,4.57151123046875,-0.020836306735873222,0.0013523531379178166,0.009099489077925682
1772457244914579200,4.5815791015625,-0.01973562128841877,0.014326208271086216,0.006946855690330267
1772457244924648000,4.59164794921875,-0.02033989317715168,0.019153986126184464,-0.00004793690095539205
1772457244934716200,4.601716064453125,-0.01956464722752571,0.010251572355628014,-0.0010868359822779894
1772457244944784100,4.6117841796875,-0.02111327461898327,-0.003706587478518486,-0.0054879761300981045
1772457244954853000,4.62185302734375,-0.024394821375608444,0.0015901734586805105,-0.003169428091496229
1772457244964921300,4.63192138671875,-0.030728617683053017,0.018123077228665352,0.0014721954939886928
1772457244974990000,4.641989990234375,-0.03147749975323677,0.03338485583662987,0.0046091326512396336
1772457244985058000,4.65205810546875,-0.03461416810750961,0.036859214305877686,0.01309130061417818
1772457244995127300,4.662127197265625,-0.034392859786748886,0.01859099417924881,0.008853678591549397
1772457245005195300,4.6721953125,-0.027944549918174744,-0.004318581894040108,0.005555886775255203
1772457245015264000,4.682263916015625,-0.01423486229032278,-0.02262488566339016,-0.007273359224200249
1772457245025332200,4.692332275390625,-0.0016615461790934205,-0.02219904586672783,-0.016352608799934387
1772457245035401200,4.702401123046875,0.011379154399037361,-0.01643223688006401,-0.026555178686976433
1772457245045469000,4.712468994140625,0.014598649926483631,-0.002139050979167223,-0.027949875220656395
1772457245055538200,4.7225380859375,0.01369024533778429,0.014759238809347153,-0.020115388557314873
1772457245065606100,4.732606201171875,0.00814794097095728,0.020652281120419502,0.002478337613865733
1772457245075675100,4.742675048828125,0.007934888824820518,0.005934321787208319,0.019582223147153854
1772457245085743000,4.7527431640625,0.0038842204958200455,-0.00498037738725543,0.030224481597542763
1772457245095811000,4.76281103515625,0.0046754456125199795,-0.015468438155949116,0.03458700701594353
1772457245105880000,4.772880126953125,0.0070464578457176685,-0.009157279506325722,0.029532326385378838
1772457245115948300,4.7829482421875,0.006750048138201237,-0.005318332463502884,0.011231082491576672
1772457245126017000,4.79301708984375,0.0006439523422159255,-0.004914064891636372,-0.01088780164718628
1772457245136085000,4.8030849609375,0.0023872575256973505,0.002121207769960165,-0.026918966323137283
1772457245146154200,4.813154296875,0.009256348945200443,0.000019707391402334906,-0.026970896869897842
1772457245156222700,4.82322265625,0.017767012119293213,0.003975566942244768,-0.01864638924598694
1772457245166291700,4.833291748046875,0.017188573256134987,-0.00008096009696600959,-0.005928196478635073
1772457245176360000,4.84335986328125,0.017645306885242462,-0.013190902769565582,0.006449377164244652
1772457245186428700,4.8534287109375,0.015511581674218178,-0.019635487347841263,0.014657505787909031
1772457245196496600,4.86349658203125,0.01474752090871334,-0.026611903682351112,0.014184262603521347
1772457245206566000,4.87356591796875,0.014216486364603043,-0.01750948466360569,0.014318485744297504
1772457245216633900,4.8836337890625,0.012062788009643555,0.0020487697329372168,0.014972025528550148
1772457245226702600,4.89370263671875,0.010674748569726944,0.015787752345204353,0.014550979249179363
1772457245236770800,4.903770751953125,0.00651568965986371,0.011727762408554554,0.012248942628502846
1772457245246838800,4.9138388671875,0.0038871499709784985,0.0008578042034059763,0.01853906363248825
1772457245256907800,4.92390771484375,0.003424558788537979,-0.012831375934183598,0.028024177998304367
1772457245266976000,4.93397607421875,0.006077067460864782,-0.028852686285972595,0.03825977072119713
1772457245277044700,4.944044677734375,0.00948085356503725,-0.028782645240426064,0.0456114262342453
1772457245287112700,4.95411279296875,0.011669439263641834,-0.02370559610426426,0.051306065171957016
1772457245297182000,4.964181884765625,0.016394419595599174,-0.01894732564687729,0.046422094106674194
1772457245307249700,4.974249755859375,0.014615161344408989,-0.02269146405160427,0.037816621363162994
1772457245317318700,4.984318603515625,0.012057195417582989,-0.023897342383861542,0.023666979745030403
1772457245327387000,4.994386962890625,0.012524580582976341,-0.01912575773894787,0.01303137931972742
1772457245337455900,5.004455810546875,0.013596235774457455,-0.006904511246830225,0.0031851406674832106
1772457245347523600,5.014523681640625,0.014999455772340298,-0.0051934304647147655,-0.0003014698449987918
1772457245357592800,5.0245927734375,0.010792993009090424,-0.001332645770162344,-0.00518837058916688
1772457245367660800,5.034660888671875,0.00805925764143467,-0.0013648699969053268,-0.006020075641572475
1772457245377728800,5.044728759765625,0.011444401927292347,-0.003939614165574312,-0.011759720742702484
1772457245387797800,5.0547978515625,0.013013004325330257,-0.013191435486078262,-0.015400527976453304
1772457245397865700,5.06486572265625,0.013123791664838791,-0.014487596228718758,-0.01967223733663559
1772457245407935000,5.07493505859375,0.011263040825724602,-0.011313640512526035,-0.025601234287023544
1772457245418003000,5.0850029296875,0.011166367679834366,-0.004053863696753979,-0.02623506635427475
1772457245428071700,5.09507177734375,0.01065131276845932,0.0029585056472569704,-0.014082795940339565
1772457245438139600,5.1051396484375,0.009441439062356949,0.00475374236702919,-0.011215636506676674
1772457245448209000,5.115208984375,0.010427074506878853,-0.000316916179144755,-0.002511094557121396
1772457245458276900,5.12527685546875,0.009915214963257313,-0.011887019500136375,0.0010042780777439475
1772457245468345900,5.135345947265625,0.008766593411564827,-0.01877368800342083,0.007133543025702238
1772457245478413800,5.145413818359375,0.010881143622100353,-0.017247695475816727,0.009064601734280586
1772457245488482800,5.15548291015625,0.010355968028306961,-0.017057280987501144,0.010181797668337822
1772457245498550800,5.16555078125,0.012309929355978966,-0.02046799100935459,0.010302704758942127
1772457245508619800,5.175619873046875,0.014312360435724258,-0.021462680771946907,0.011958125978708267
1772457245518687700,5.185687744140625,0.015929697081446648,-0.01769617199897766,0.00814847368746996
1772457245528756000,5.195755859375,0.01613129861652851,-0.016527844592928886,0.0013017531018704176
1772457245538824700,5.20582470703125,0.013714213855564594,-0.013823137618601322,-0.0025710156187415123
1772457245548892700,5.215892578125,0.009383381344377995,-0.007648066151887178,-0.0036107138730585575
1772457245558962000,5.2259619140625,0.0034208304714411497,-0.0017174725653603673,-0.0035302862524986267
1772457245569030000,5.23602978515625,-0.0002966761530842632,-0.005051750224083662,0.000182959163794294
1772457245579098600,5.2460986328125,-0.007983890362083912,-0.010181797668337822,0.004652009811252356
1772457245589166800,5.256166748046875,-0.015001320280134678,-0.008160724304616451,0.01221352256834507
1772457245599235800,5.26623583984375,-0.01599734276533127,-0.012194614857435226,0.010696586221456528
1772457245609303800,5.2763037109375,-0.017947308719158173,-0.014386395923793316,0.004992628004401922
1772457245619372800,5.286372802734375,-0.015577628277242184,-0.006292516831308603,0.0007310376968234777
1772457245629440800,5.296440673828125,-0.018066085875034332,-0.015425828285515308,-0.003971572034060955
1772457245639509800,5.306509765625,-0.02076147124171257,-0.01720402017235756,-0.0009448895580135286
1772457245649578000,5.316577880859375,-0.02497805468738079,-0.008392419666051865,0.0001400822657160461
1772457245659646700,5.326646728515625,-0.028775988146662712,0.0023467775899916887,0.0025249430909752846
1772457245669714700,5.336714599609375,-0.025587651878595352,0.006086121778935194,0.002907639369368553
1772457245679783000,5.346782958984375,-0.026987142860889435,0.003431216813623905,0.0035534559283405542
1772457245689851600,5.3568515625,-0.02695651724934578,-0.008353004232048988,0.0046421559527516365
1772457245699919600,5.366919677734375,-0.017103353515267372,-0.024214526638388634,-0.013106214813888073
1772457245709988900,5.37698876953125,-0.007440872024744749,-0.02414022386074066,-0.019042667001485825
1772457245720056800,5.387056884765625,0.004220577888190746,-0.017285779118537903,-0.0282132625579834
1772457245730125800,5.397125732421875,0.017966749146580696,-0.011087538674473763,-0.029811425134539604
1772457245740193800,5.40719384765625,0.025727467611432076,-0.0017531589837744832,-0.020956946536898613
1772457245750262800,5.4172626953125,0.026941603049635887,-0.009973538108170033,-0.0060235378332436085
1772457245760330800,5.427330810546875,0.021950040012598038,-0.027934694662690163,0.016275908797979355
1772457245770399700,5.437399658203125,0.02695358730852604,-0.03789997845888138,0.026853451505303383
1772457245780467700,5.4474677734375,0.03290947899222374,-0.045692119747400284,0.02846253477036953
1772457245790537000,5.457536865234375,0.0387340784072876,-0.042996201664209366,0.023998543620109558
1772457245800605000,5.46760498046875,0.039451003074645996,-0.02666383422911167,0.008828112855553627
1772457245810673700,5.477673583984375,0.033431991934776306,-0.013686517253518105,-0.0008106662426143885
1772457245820742000,5.487741943359375,0.028964007273316383,-0.01738698035478592,-0.00564084155485034
1772457245830809900,5.497809814453125,0.026342125609517097,-0.03092356026172638,-0.008522648364305496
1772457245840878800,5.50787890625,0.022583605721592903,-0.03459659218788147,-0.008617190644145012
1772457245850946800,5.51794677734375,0.027039073407649994,-0.028851356357336044,-0.007999603636562824
1772457245861015800,5.528015869140625,0.02305205538868904,-0.01865650899708271,0.005289037711918354
1772457245871083800,5.538083740234375,0.02841060236096382,-0.018493523821234703,0.0037561224307864904
1772457245881152800,5.54815283203125,0.026323482394218445,-0.025471005588769913,0.003931358456611633
1772457245891220700,5.558220703125,0.02003868855535984,-0.028789304196834564,0.010202836245298386
1772457245901289700,5.568289794921875,0.022785473614931107,-0.01515871286392212,0.016319584101438522
1772457245911358000,5.57835791015625,0.02805001102387905,-0.0036876790691167116,0.025535985827445984
1772457245921426700,5.5884267578125,0.02852858044207096,-0.0031345405150204897,0.031687088310718536
1772457245931494700,5.59849462890625,0.034624822437763214,-0.011408715508878231,0.03358086198568344
1772457245941564000,5.60856396484375,0.03627731278538704,-0.02376525104045868,0.030914239585399628
1772457245951632000,5.6186318359375,0.03524453938007355,-0.0332074873149395,0.033193107694387436
1772457245961699800,5.628699951171875,0.03716627508401871,-0.03231719508767128,0.029086247086524963
1772457245971768800,5.638768798828125,0.03833833336830139,-0.030479878187179565,0.023335948586463928
1772457245981836800,5.6488369140625,0.037220872938632965,-0.02088876999914646,0.019951337948441505
1772457245991905800,5.65890576171875,0.031801071017980576,-0.015421832911670208,0.025499766692519188
1772457246001973800,5.668973876953125,0.02810407243669033,-0.009987120516598225,0.028493959456682205
1772457246012042800,5.679042724609375,0.02611096203327179,-0.010866495780646801,0.03441043943166733
1772457246022110700,5.68911083984375,0.02617727592587471,-0.007922371849417686,0.035591017454862595
1772457246032179700,5.6991796875,0.025178857147693634,-0.005932457745075226,0.034450385719537735
1772457246042247700,5.70924755859375,0.025317341089248657,-0.010331466794013977,0.02859143167734146
1772457246052317000,5.71931689453125,0.021464278921484947,-0.0060416474007070065,0.02737756259739399
1772457246062385000,5.729385009765625,0.020855214446783066,-0.0036666402593255043,0.02702416107058525
1772457246072453600,5.73945361328125,0.013769874349236488,-0.0065505774691700935,0.019959326833486557
1772457246082521600,5.749521484375,0.006012352649122477,-0.006742058787494898,0.005197159014642239
1772457246092590800,5.7595908203125,0.001261805766262114,-0.01420343667268753,-0.004214984830468893
1772457246102658800,5.769658935546875,-0.0030399984680116177,-0.012508068233728409,-0.012358931824564934
1772457246112727800,5.779727783203125,-0.008688828907907009,0.0059662796556949615,-0.017532121390104294
1772457246122795800,5.789795654296875,-0.00891173630952835,0.017784323543310165,-0.011607120744884014
1772457246132863700,5.79986376953125,-0.009222793392837048,0.024267256259918213,-0.010754110291600227
1772457246142933000,5.80993310546875,-0.006762298755347729,0.014936072751879692,-0.006269081030040979
1772457246153000700,5.820000732421875,-0.002656236756592989,0.006884537637233734,0.00028762139845639467
1772457246163069200,5.830069091796875,0.010068080388009548,-0.006165483966469765,-0.0017182715237140656
1772457246173137200,5.84013720703125,0.01507082860916853,-0.017609886825084686,-0.0006506102508865297
1772457246183206100,5.8502060546875,0.019665846601128578,-0.01836196333169937,-0.004562261048704386
1772457246193274400,5.8602744140625,0.015628494322299957,-0.00015446334145963192,-0.0027507790364325047
1772457246203343000,5.870343017578125,0.015087073668837547,0.010897388681769371,0.004817125853151083
1772457246213411000,5.8804111328125,0.009958624839782715,-0.000059388490626588464,0.012723784893751144
1772457246223480300,5.890480224609375,0.005218463949859142,-0.011412178166210651,0.018553178757429123
1772457246233548300,5.90054833984375,0.007462976034730673,-0.01889459602534771,0.0118502676486969
1772457246243617000,5.910616943359375,0.009759154170751572,-0.013480654917657375,0.005502357147634029
1772457246253685200,5.920685302734375,0.0150402020663023,-0.000990695902146399,0.0007664577569812536
1772457246263754200,5.930754150390625,0.018016017973423004,-0.001437308033928275,-0.0062914518639445305
1772457246273822000,5.940822021484375,0.01902029663324356,-0.004774248693138361,-0.005821137689054012
1772457246283891200,5.95089111328125,0.017658889293670654,-0.006085855886340141,0.00002956108801299706
1772457246293959200,5.960959228515625,0.013611682690680027,-0.0032921996898949146,0.0026993800420314074
1772457246304027100,5.971027099609375,0.009869142435491085,0.004289553500711918,-0.0006013417732901871
1772457246314096000,5.98109619140625,0.008289088495075703,0.0012447615154087543,0.0013164004776626825
1772457246324164000,5.9911640625,0.006421147845685482,-0.0005560680292546749,0.000907338981050998
1772457246334233000,6.001233154296875,0.008280833251774311,-0.0006881608278490603,0.008681639097630978
1772457246344301300,6.01130126953125,0.004325239919126034,0.00472631212323904,0.0059449742548167706
1772457246354370000,6.0213701171875,-0.0052442969754338264,0.0075604477897286415,0.008024636656045914
1772457246364438000,6.03143798828125,-0.011151188053190708,0.014936339110136032,-0.0009286442655138671
1772457246374507300,6.04150732421875,-0.012253470718860626,0.004863997455686331,-0.0017033577896654606
1772457246384575200,6.0515751953125,-0.009974603541195393,-0.011094729416072369,-0.016927851364016533
1772457246394644200,6.061644287109375,-0.00395825644955039,-0.015474030748009682,-0.031066039577126503
1772457246404712200,6.071712158203125,0.000993625377304852,-0.010758105665445328,-0.04418104141950607
1772457246414781200,6.08178125,0.004471447318792343,0.007458448875695467,-0.043836165219545364
1772457246424849200,6.09184912109375,0.007425425574183464,0.019360115751624107,-0.032398421317338943
1772457246434917000,6.101917236328125,0.0011350392596796155,0.018388329073786736,-0.015270299278199673
1772457246444986000,6.111986083984375,-0.004649346694350243,0.00039015308720991015,-0.0007536745979450643
1772457246455054300,6.122054443359375,-0.006841660942882299,-0.024043017998337746,0.013600763864815235
1772457246465123000,6.132123046875,-0.002569417702034116,-0.03806855529546738,0.017181916162371635
1772457246475191000,6.14219091796875,0.001957956003025174,-0.036438699811697006,0.012174374423921108
1772457246485260300,6.15226025390625,0.005711148958653212,-0.003763046581298113,0.0036448021419346333
1772457246495328300,6.162328369140625,0.006029130425304174,0.016622386872768402,-0.009349825792014599
1772457246505397000,6.17239697265625,-0.00020266656065359712,0.01997370831668377,-0.01858992874622345
1772457246515465200,6.18246533203125,-0.00875194650143385,0.014704910106956959,-0.023199062794446945
1772457246525534200,6.1925341796875,-0.010143980383872986,0.003823766717687249,-0.018936140462756157
1772457246535602200,6.202602294921875,-0.008798019029200077,-0.013733388856053352,-0.018817896023392677
1772457246545671200,6.212671142578125,-0.004832039587199688,-0.02214285358786583,-0.01876729540526867
1772457246555739100,6.2227392578125,-0.0021856562234461308,-0.0187063105404377,-0.02243660017848015
1772457246565808000,6.23280810546875,-0.005869074258953333,0.0011590076610445976,-0.017284980043768883
1772457246575876400,6.24287646484375,-0.007749265991151333,0.025494175031781197,-0.004524177871644497
1772457246585945000,6.252945068359375,-0.01248170342296362,0.03074220009148121,0.005088502075523138
1772457246596013000,6.263012939453125,-0.0181150883436203,0.01871003769338131,0.011313107796013355
1772457246606081300,6.273081298828125,-0.02238227054476738,0.0021339908707886934,0.01780243217945099
1772457246616150000,6.28314990234375,-0.018433602526783943,-0.01816675253212452,0.015578693710267544
1772457246626218000,6.293218017578125,-0.015090269967913628,-0.029285984113812447,0.0025217472575604916
1772457246636287200,6.303287353515625,-0.01452807616442442,-0.018789399415254593,-0.007183344569057226
1772457246646355200,6.313355224609375,-0.012560267001390457,0.0033726270776242018,-0.006342317909002304
1772457246656424000,6.323423828125,-0.014376009814441204,0.024636371061205864,0.006462692748755217
1772457246666492200,6.3334921875,-0.01973855122923851,0.02191248908638954,0.019029883667826653
1772457246676561200,6.34356103515625,-0.016887636855244637,0.00626029260456562,0.029686523601412773
1772457246686629000,6.353629150390625,-0.01194081548601389,-0.015923572704195976,0.034861575812101364
1772457246696698000,6.363697998046875,-0.007526359520852566,-0.034928157925605774,0.02648540399968624
1772457246706766000,6.37376611328125,-0.004473578184843063,-0.030779484659433365,0.011325624771416187
1772457246716835300,6.38383544921875,0.0004780374001711607,-0.0024703482631593943,0.000693220819812268
1772457246726903300,6.3939033203125,-0.0027718180790543556,0.02522173337638378,0.0008111988427117467
1772457246736972000,6.403971923828125,-0.011057977564632893,0.032048746943473816,0.0046578687615692616
1772457246747040300,6.414040283203125,-0.017415741458535194,0.020811006426811218,0.007574030198156834
1772457246757108200,6.424108154296875,-0.016329437494277954,0.0013944311067461967,0.01041402481496334
1772457246767177200,6.43417724609375,-0.01317998394370079,-0.014398113824427128,0.008860070258378983
1772457246777245200,6.4442451171875,-0.002311357529833913,-0.011599398218095303,0.004193147178739309
1772457246787314200,6.454314208984375,0.0035603800788521767,-0.003703924361616373,0.001967277145013213
1772457246797382100,6.464382080078125,0.0070832096971571445,0.002255431143566966,-0.003565173828974366
1772457246807451100,6.474451171875,0.005258411634713411,0.0024282701779156923,-0.0027920580469071865
1772457246817519000,6.48451904296875,0.005316734779626131,-0.003628556849434972,0.001074052881449461
1772457246827588000,6.494588134765625,0.0006921555614098907,-0.0098052266985178,0.003322559641674161
1772457246837656300,6.50465625,0.0010727213229984045,-0.003829625668004155,0.00812130980193615
1772457246847725000,6.51472509765625,0.004886634182184935,-0.000586161739192903,0.014260961674153805
1772457246857793000,6.52479296875,0.008154865354299545,0.0028780782595276833,0.015412512235343456
1772457246867862300,6.5348623046875,0.008330101147294044,-0.005254416726529598,0.016212791204452515
1772457246877930200,6.54493017578125,0.0027206854429095984,-0.015517174266278744,0.016927585005760193
1772457246887999000,6.5549990234375,-0.0014122743159532547,-0.01842161826789379,0.008371380157768726
1772457246898067200,6.565067138671875,-0.003978762775659561,-0.00267780851572752,0.005519134923815727
1772457246908136200,6.57513623046875,-0.007287473883479834,0.016038620844483376,0.012647884897887707
1772457246918204200,6.5852041015625,-0.010573281906545162,0.015926769003272057,0.016885772347450256
1772457246928272100,6.595272216796875,-0.012024705298244953,0.0011952266795560718,0.019703930243849754
1772457246938341000,6.605341064453125,-0.009726130403578281,-0.018245050683617592,0.01829458586871624
1772457246948409000,6.6154091796875,-0.011729094199836254,-0.025895513594150543,0.011296596378087997
1772457246958478300,6.625478271484375,-0.010832673870027065,-0.013777331449091434,0.001061802264302969
1772457246968546000,6.635546142578125,-0.013376259244978428,0.008717591874301434,-0.005013667047023773
1772457246978615000,6.645614990234375,-0.014119547791779041,0.020798755809664726,-0.006045908201485872
1772457246988683300,6.655683349609375,-0.015588014386594296,0.013715279288589954,-0.010518155060708523
1772457246998752000,6.665751953125,-0.01501223910599947,-0.0037955371662974358,-0.00586747657507658
1772457247008820000,6.675820068359375,-0.015527826733887196,-0.02214977703988552,0.00042743736412376165
1772457247018889200,6.68588916015625,-0.01452940795570612,-0.02550349570810795,0.0014317154418677092
1772457247028957200,6.695957275390625,-0.016218118369579315,-0.013626063242554665,0.0028455876745283604
1772457247039026200,6.706026123046875,-0.01768551953136921,0.004644286818802357,0.004797950852662325
1772457247049094100,6.71609423828125,-0.017828531563282013,0.01859419047832489,0.0005941512063145638
1772457247059163100,6.7261630859375,-0.026390861719846725,0.011451859027147293,-0.008073639124631882
1772457247069231400,6.7362314453125,-0.02521054819226265,0.0020652813836932182,-0.011620703153312206
1772457247079299300,6.74629931640625,-0.021541777998209,-0.00276063266210258,-0.023252857849001884
1772457247089368000,6.7563681640625,-0.007771902717649937,0.0007475492893718183,-0.028323782607913017
1772457247099436300,6.766436279296875,0.012685701251029968,0.038904257118701935,-0.03635827451944351
1772457247109505300,6.77650537109375,0.04525962471961975,0.09037277102470398,-0.03726481273770332
1772457247119573000,6.786572998046875,0.08798471838235855,0.17055203020572662,-0.023721573874354362
1772457247129642200,6.796642333984375,0.10940292477607727,0.19269222021102905,-0.011085940524935722
1772457247139710200,6.806710205078125,0.12143907696008682,0.18422682583332062,0.016757940873503685
1772457247149779200,6.816779296875,0.10896509885787964,0.15517839789390564,0.05456923693418503
1772457247159848000,6.826847900390625,0.09080633521080017,0.07747801393270493,0.08730267733335495
1772457247169917200,6.836917236328125,0.0710374265909195,0.03392760828137398,0.10720847547054291
1772457247179985200,6.846985107421875,0.043053459376096725,-0.0013257216196507215,0.11560516059398651
1772457247190054000,6.857053955078125,0.03676440566778183,-0.023096265271306038,0.10613682121038437
1772457247200121900,6.867121826171875,0.017648501321673393,-0.022071747109293938,0.08735807240009308
1772457247210191000,6.877191162109375,0.005914614535868168,-0.023129554465413094,0.05705050379037857
1772457247220259000,6.887259033203125,-0.007647000718861818,-0.013214871287345886,0.038122352212667465
1772457247230328000,6.897328125,-0.01599787548184395,-0.015861254185438156,0.020989438518881798
1772457247240396000,6.90739599609375,-0.026748523116111755,-0.019462646916508675,0.007536479737609625
1772457247250464000,6.917464111328125,-0.03555027022957802,-0.02930089645087719,-0.0022740731947124004
1772457247260533000,6.927532958984375,-0.04009415581822395,-0.04180363938212395,-0.021340975537896156
1772457247270601000,6.93760107421875,-0.04355626553297043,-0.052929528057575226,-0.03795776888728142
1772457247280670000,6.947669921875,-0.05692986026406288,-0.04621356725692749,-0.05360916629433632
1772457247290738200,6.95773828125,-0.06481868028640747,-0.025316542014479637,-0.0701489970088005
1772457247300807000,6.967806884765625,-0.07082463800907135,-0.01816808432340622,-0.07978617399930954
1772457247310875000,6.977875,-0.07236581295728683,-0.023001190274953842,-0.08465576171875
1772457247320944000,6.987944091796875,-0.07103423029184341,-0.019584087654948235,-0.08680041134357452
1772457247331012000,6.99801220703125,-0.0648205429315567,-0.02461293525993824,-0.07840106636285782
1772457247341080800,7.008080810546875,-0.06251637637615204,-0.03412627801299095,-0.07132931053638458
1772457247351149000,7.018149169921875,-0.05781136825680733,-0.034984081983566284,-0.05776742473244667
1772457247361218000,7.028218017578125,-0.055147141218185425,-0.025898441672325134,-0.04566522315144539
1772457247371286000,7.0382861328125,-0.04976622387766838,-0.019721506163477898,-0.0444452278316021
1772457247381355000,7.04835498046875,-0.0428641103208065,-0.017776601016521454,-0.04135196655988693
1772457247391423000,7.058423095703125,-0.0360884964466095,-0.012702212668955326,-0.03238829970359802
1772457247401491000,7.068490966796875,-0.03608423471450806,-0.014176539145410061,-0.02239052578806877
1772457247411560000,7.078559814453125,-0.03163569048047066,-0.01312299259006977,-0.011416971683502197
1772457247421628000,7.0886279296875,-0.030052972957491875,-0.012121643871068954,0.0003283677506260574
1772457247431697000,7.09869677734375,-0.027528829872608185,-0.014043646864593029,0.003079679561778903
1772457247441765000,7.10876513671875,-0.026440927758812904,-0.005736182443797588,0.010029731318354607
1772457247451833900,7.118833740234375,-0.01871483214199543,0.003623496973887086,0.016353938728570938
1772457247461901800,7.12890185546875,-0.017102288082242012,0.005225121974945068,0.017122793942689896
1772457247471971000,7.13897119140625,-0.011129084043204784,-0.002169144805520773,0.021976938471198082
1772457247482039000,7.1490390625,-0.00817936658859253,-0.01227610744535923,0.021511683240532875
1772457247492108000,7.15910791015625,-0.0062701464630663395,-0.017886321991682053,0.01612810418009758
1772457247502176000,7.169176025390625,-0.009616142138838768,-0.014420217834413052,0.012659336440265179
1772457247512245000,7.179244873046875,-0.0124247120693326,-0.003442401997745037,0.015453258529305458
1772457247522313000,7.18931298828125,-0.012619122862815857,0.0024517059791833162,0.01221645250916481
1772457247532382000,7.1993818359375,-0.013709953054785728,-0.0002181128947995603,0.011536281555891037
1772457247542450000,7.209449951171875,-0.013821805827319622,-0.003829892026260495,0.004219512455165386
1772457247552518000,7.219517822265625,-0.007870440371334553,-0.01606312207877636,-0.008403871208429337
1772457247562587100,7.229587158203125,-0.00618199585005641,-0.02233033999800682,-0.012370117008686066
1772457247572654800,7.23965478515625,-0.006907973438501358,-0.010724283754825592,-0.010491522960364819
1772457247582724000,7.24972412109375,-0.011808189563453197,0.0059873186983168125,-0.0072898706421256065
1772457247592792000,7.2597919921875,-0.023519175127148628,0.01194028276950121,-0.0017536915838718414
1772457247602860800,7.26986083984375,-0.034513503313064575,0.012892629019916058,0.001958222361281514
1772457247612929000,7.279928955078125,-0.036498621106147766,0.006800381932407618,0.002017344580963254
1772457247622998000,7.289998046875,-0.037151362746953964,-0.011631355620920658,-0.0027776770293712616
1772457247633066000,7.30006591796875,-0.03627598285675049,-0.013731790706515312,-0.011865181848406792
1772457247643135000,7.310135009765625,-0.032343558967113495,-0.004760400392115116,-0.014643391594290733
1772457247653203000,7.320202880859375,-0.026206569746136665,0.01353498362004757,-0.013303021900355816
1772457247663272000,7.33027197265625,-0.02851313352584839,0.019869046285748482,-0.0070344735868275166
1772457247673340200,7.340340087890625,-0.031863123178482056,0.007948470301926136,-0.00227806787006557
1772457247683409000,7.350408935546875,-0.029652433469891548,-0.009294698014855385,-0.0006311691831797361
1772457247693476900,7.360476806640625,-0.029575735330581665,-0.021196365356445312,-0.00004234426160110161
1772457247703546000,7.370546142578125,-0.03202344477176666,-0.011427091434597969,-0.0035665053874254227
1772457247713614000,7.380614013671875,-0.03290175646543503,0.008294148370623589,0.0021427792962640524
1772457247723682000,7.39068212890625,-0.03447515144944191,0.022531142458319664,0.0028903286438435316
1772457247733751000,7.4007509765625,-0.03135552629828453,0.027112044394016266,0.0026200178544968367
1772457247743819000,7.410819091796875,-0.027043867856264114,0.025770876556634903,0.0015542207984253764
1772457247753888000,7.420887939453125,-0.025847576558589935,0.01968209259212017,0.0025752766523510218
1772457247763956000,7.4309560546875,-0.025141572579741478,0.012228436768054962,-0.002170742489397526
1772457247774025000,7.44102490234375,-0.02207281067967415,0.012078233994543552,-0.002793655963614583
1772457247784093000,7.451093017578125,-0.017185112461447716,0.013332583010196686,-0.005815810989588499
1772457247794162000,7.461161865234375,-0.009424660354852676,0.0027366643771529198,-0.008017712272703648
1772457247804230000,7.47122998046875,-0.0038962047547101974,0.0020823257509618998,-0.005517004523426294
1772457247814299100,7.481299072265625,0.0023270701058208942,-0.0015006912872195244,0.003932956140488386
1772457247824367000,7.4913671875,0.0008391620358452201,0.0008937568636611104,0.013484117574989796
1772457247834435800,7.501435791015625,-0.003099919529631734,0.005468801129609346,0.024295220151543617
1772457247844503800,7.51150390625,-0.0029920614324510098,0.010370083153247833,0.03003166802227497
1772457247854573000,7.521572998046875,-0.004495948553085327,0.013757890090346336,0.03098667785525322
1772457247864641000,7.53164111328125,-0.0015531554818153381,0.010512029752135277,0.023632891476154327
1772457247874709000,7.541708984375,0.00227860058657825,0.010384730063378811,0.018437596037983894
1772457247884778000,7.551778076171875,0.0021544971968978643,0.009129050187766552,0.014209295623004436
1772457247894846000,7.561845947265625,0.0019385149935260415,0.010268882848322392,0.007443801499903202
1772457247904915200,7.571915283203125,-0.0062456452287733555,0.0060182115994393826,0.0038045919500291348
1772457247914983000,7.58198291015625,-0.009593239054083824,-0.003498328384011984,-0.0033859428949654102
1772457247925052000,7.592052001953125,-0.010723751038312912,-0.008066448383033276,-0.005196892656385899
1772457247935120100,7.6021201171875,-0.005618470720946789,-0.006916229147464037,-0.006354568526148796
1772457247945189000,7.612189208984375,-0.0021028320770710707,-0.004277036525309086,-0.008325840346515179
1772457247955256800,7.6222568359375,-0.004093012306839228,0.0014242585748434067,-0.009557286277413368
1772457247965326000,7.632326171875,-0.004024036228656769,0.00675244489684701,-0.013368003070354462
1772457247975394000,7.64239404296875,-0.008988169021904469,0.02285817824304104,-0.01660747267305851
1772457247985462800,7.652462890625,-0.01381221879273653,0.044194623827934265,-0.009823868982493877
1772457247995531000,7.662531005859375,-0.01164547074586153,0.04645511507987976,0.0003664509567897767
1772457248005600000,7.67260009765625,-0.010819890536367893,0.03760117292404175,0.01392833236604929
1772457248015668000,7.68266796875,-0.005973204039037228,0.01780083402991295,0.01895877718925476
1772457248025736200,7.692736083984375,-0.0016732640797272325,-0.0038666436448693275,0.023555658757686615
1772457248035805000,7.702804931640625,-0.002138518262654543,-0.012248942628502846,0.021734856069087982
1772457248045873000,7.712872802734375,-0.0023073628544807434,-0.018272213637828827,0.014327007345855236
1772457248055942100,7.722942138671875,-0.0062823970802128315,-0.018976354971528053,0.011539476923644543
1772457248066010000,7.733010009765625,-0.011148790828883648,-0.008130630478262901,0.009548763744533062
1772457248076078800,7.743078857421875,-0.012169847264885902,0.009109875187277794,0.012771189212799072
1772457248086147000,7.75314697265625,-0.01492462120950222,0.008756473660469055,0.015417838469147682
1772457248096216000,7.763216064453125,-0.013791712000966072,-0.004307130351662636,0.014007162302732468
1772457248106283800,7.77328369140625,-0.015372298657894135,-0.007808920927345753,0.007223025429993868
1772457248116353000,7.78335302734375,-0.016219183802604675,-0.0026429209392517805,0.003224022686481476
1772457248126421000,7.7934208984375,-0.013324327766895294,-0.000666589243337512,-0.007813181728124619
1772457248136490000,7.803489990234375,-0.004406466148793697,-0.0023153522051870823,-0.010271811857819557
1772457248146558000,7.813557861328125,-0.001017061178572476,-0.0010120011866092682,-0.01738644763827324
1772457248156626200,7.823626220703125,0.006595051847398281,-0.0031902005430310965,-0.022899989038705826
1772457248166694100,7.833694091796875,0.008950884453952312,-0.010854777880012989,-0.026570357382297516
1772457248176763100,7.84376318359375,0.009328254498541355,-0.00950721837580204,-0.029712887480854988
1772457248186831400,7.853831298828125,0.006926615722477436,-0.012507270090281963,-0.03093048557639122
1772457248196899000,7.863899169921875,0.007664577569812536,-0.012675048783421516,-0.02256389893591404
1772457248206968000,7.873968017578125,0.005184642039239407,-0.014785337261855602,-0.014302506111562252
1772457248217036000,7.8840361328125,0.002703641075640917,-0.015906261280179024,-0.00043223105603829026
1772457248227105000,7.89410498046875,0.003920439630746841,-0.015868712216615677,0.012190885841846466
1772457248237173000,7.904173095703125,-0.0018527611391618848,-0.0060235378332436085,0.021168934181332588
1772457248247242200,7.9142421875,-0.0065415226854383945,-0.0021587584633380175,0.030979221686720848
1772457248257310200,7.924310302734375,-0.012864666059613228,-0.001856489572674036,0.03479925915598869
1772457248267379000,7.93437890625,-0.01739097386598587,-0.0014149374328553677,0.03646773099899292
1772457248277447200,7.944447265625,-0.0173795223236084,-0.005518868565559387,0.03274303302168846
1772457248287516200,7.95451611328125,-0.019397133961319923,-0.012958675622940063,0.03163515776395798
1772457248297584000,7.964584228515625,-0.016092151403427124,-0.011483018286526203,0.022774288430809975
1772457248307653000,7.974653076171875,-0.015455389395356178,-0.02002697065472603,0.01726394146680832
1772457248317721000,7.98472119140625,-0.01251978613436222,-0.017352359369397163,0.007545001804828644
1772457248327789000,7.9947890625,-0.006961769424378872,-0.010958109050989151,0.005422728601843119
1772457248337857000,8.00485693359375,-0.004350806120783091,0.003284742822870612,0.008213987573981285
1772457248347926000,8.014926025390626,-0.004486893769353628,-0.011693674139678478,0.0171427670866251
1772457248357994000,8.024993896484375,-0.009734919294714928,-0.031034082174301147,0.01991112343966961
1772457248368063200,8.035063232421875,-0.011410313658416271,-0.04658454656600952,0.017137175425887108
1772457248378131200,8.045131103515626,-0.013768542557954788,-0.053399041295051575,0.015122760087251663
1772457248388200000,8.055199951171875,-0.020177707076072693,-0.035522572696208954,0.009081379510462284
1772457248398268200,8.06526806640625,-0.025659823790192604,-0.017951570451259613,0.000580036488827318
1772457248408337200,8.075337158203125,-0.03976844996213913,-0.01829218864440918,-0.0061521683819592
1772457248418405000,8.085405029296876,-0.04783143848180771,-0.016979515552520752,-0.00800333172082901
1772457248428474000,8.09547412109375,-0.04709640517830849,-0.015505190007388592,-0.010867294855415821
1772457248438542000,8.1055419921875,-0.04127446934580803,-0.021408353000879288,-0.01842081919312477
1772457248448611000,8.115611083984374,-0.03293957561254501,-0.021826734766364098,-0.02309892699122429
1772457248458679300,8.12567919921875,-0.022169217467308044,-0.029527265578508377,-0.0304548442363739
1772457248468748000,8.135748046875,-0.014595188200473785,-0.043663591146469116,-0.038065094500780106
1772457248478816000,8.14581591796875,-0.006975884083658457,-0.03376834839582443,-0.032036229968070984
1772457248488884200,8.15588427734375,-0.0009153284481726587,-0.031441546976566315,-0.018982745707035065
1772457248498953200,8.165953125,0.007442469708621502,-0.03640354797244072,-0.006429936271160841
1772457248509021000,8.17602099609375,0.004117513541132212,-0.048466868698596954,0.008141282945871353
1772457248519090200,8.186090087890625,-0.0034461303148418665,-0.04454456642270088,0.017493773251771927
1772457248529158100,8.196158203125,-0.002956641372293234,-0.027293406426906586,0.02688620798289776
1772457248539227100,8.20622705078125,-0.004248807206749916,-0.01980193331837654,0.029402630403637886
1772457248549295000,8.216295166015625,-0.004461327567696571,-0.013549896888434887,0.029281722381711006
1772457248559364000,8.226364013671875,-0.00959643442183733,-0.03080851212143898,0.02936294861137867
1772457248569432000,8.23643212890625,-0.01221618615090847,-0.039379097521305084,0.027216173708438873
1772457248579501000,8.2465009765625,-0.01751001738011837,-0.049922820180654526,0.02792004868388176
1772457248589569000,8.256569091796875,-0.01528681069612503,-0.055755406618118286,0.028907548636198044
1772457248599638300,8.26663818359375,-0.01824158802628517,-0.058771971613168716,0.031124096363782883
1772457248609706200,8.276706298828126,-0.020848024636507034,-0.07476558536291122,0.016395485028624535
1772457248619775000,8.28677490234375,-0.02774774096906185,-0.07302733510732651,0.0059777311980724335
1772457248629843200,8.29684326171875,-0.03672978654503822,-0.044743236154317856,0.00984224397689104
1772457248639912200,8.306912109375,-0.044802892953157425,-0.008923454210162163,0.01793106272816658
1772457248649980200,8.316980224609376,-0.05024159699678421,-0.010761567391455173,0.029642313718795776
1772457248660048100,8.327048095703125,-0.055681902915239334,0.0010572749888524413,0.04430115222930908
1772457248670117000,8.3371171875,-0.052616871893405914,-0.015272163785994053,0.0486929714679718
1772457248680186000,8.34718603515625,-0.041608694940805435,-0.03827361762523651,0.04671157896518707
1772457248690254300,8.35725439453125,-0.0327366404235363,-0.05553809180855751,0.045770950615406036
1772457248700323000,8.367322998046875,-0.02816559188067913,-0.06484051793813705,0.025202825665473938
1772457248710391000,8.37739111328125,-0.020748155191540718,-0.07413841038942337,0.006058691535145044
1772457248720460300,8.387460205078124,-0.0143493777140975,-0.054967910051345825,-0.00774820102378726
1772457248730528000,8.397528076171875,-0.016878848895430565,-0.029707029461860657,-0.017116136848926544
1772457248740597000,8.407596923828125,-0.01563861407339573,-0.011654258705675602,-0.008464857004582882
1772457248750665200,8.417665283203124,-0.014034858904778957,-0.02226882055401802,0.0010894992155954242
1772457248760734200,8.427734130859376,-0.014679609797894955,-0.03586505725979805,0.009924269281327724
1772457248770802000,8.437802001953125,-0.015840215608477592,-0.054716240614652634,0.015994679182767868
1772457248780871200,8.44787109375,-0.012648949399590492,-0.06576516479253769,0.010300840251147747
1772457248790939100,8.457939208984374,-0.003802461316809058,-0.07222519814968109,0.0011851066956296563
1772457248801008000,8.468008056640626,0.011594871059060097,-0.05331062525510788,-0.013533119112253189
1772457248811076000,8.478076171875,0.022954052314162254,-0.022853916510939598,-0.026810841634869576
1772457248821145000,8.48814501953125,0.027514981105923653,-0.01366201601922512,-0.04530729353427887
1772457248831213300,8.49821337890625,0.0242555383592844,-0.0109474565833807,-0.04729774221777916
1772457248841281300,8.50828125,0.014491857029497623,-0.0037531929556280375,-0.036610476672649384
1772457248851350000,8.51835009765625,0.008311991579830647,0.009061671793460846,-0.016694823279976845
1772457248861418000,8.52841796875,0.007288272958248854,0.0003328951424919069,-0.0014229270163923502
1772457248871487200,8.5384873046875,0.009515740908682346,-0.021159347146749496,0.00993252545595169
1772457248881555200,8.54855517578125,0.0157169122248888,-0.03941265493631363,0.004706870764493942
1772457248891624200,8.558624267578125,0.021991850808262825,-0.04779069125652313,-0.0005635248962789774
1772457248901692200,8.568692138671874,0.02798636071383953,-0.04230165109038353,-0.015064703300595284
1772457248911761200,8.57876123046875,0.029028454795479774,-0.03020876832306385,-0.019120430573821068
1772457248921829000,8.5888291015625,0.028722990304231644,-0.016412261873483658,-0.01804558001458645
1772457248931898000,8.598898193359375,0.027632692828774452,-0.009920541197061539,-0.01034771278500557
1772457248941966000,8.608966064453124,0.028299015015363693,-0.004670652095228434,-0.00842863880097866
1772457248952035000,8.61903515625,0.024514663964509964,-0.00370179396122694,0.004206995479762554
1772457248962103000,8.62910302734375,0.023482689633965492,-0.007752728182822466,0.01338424813002348
1772457248972172000,8.639172119140625,0.01924879476428032,-0.016639163717627525,0.01774251088500023
1772457248982240300,8.649240234375,0.01960885524749756,-0.02215377241373062,0.014358432963490486
1772457248992308200,8.65930810546875,0.014874020591378212,-0.028958413749933243,0.01095438003540039
1772457249002377000,8.669376953125,0.013158412650227547,-0.019947608932852745,0.006143646314740181
1772457249012445200,8.679445068359374,0.006643521599471569,-0.006936469115316868,0.0070674968883395195
1772457249022514200,8.68951416015625,0.006660033017396927,0.004270378965884447,0.008168181404471397
1772457249032582100,8.69958203125,0.0039039277471601963,0.005110073368996382,0.0162372924387455
1772457249042651100,8.709651123046875,0.004345746245235205,0.005459479987621307,0.02034894749522209
1772457249052719000,8.719718994140624,0.0059750680811703205,-0.0006476807757280767,0.027354126796126366
1772457249062788000,8.7297880859375,0.0024836640805006027,-0.018222946673631668,0.01829671487212181
1772457249072856000,8.73985595703125,-0.00017177389236167073,-0.021734589710831642,0.012524846941232681
1772457249082925000,8.749925048828125,0.000013582121027866378,-0.01558268815279007,0.003165965899825096
1772457249092993000,8.759992919921874,0.0027324033435434103,0.010599647648632526,0.0035167040769010782
1772457249103062300,8.770062255859376,0.0019747340120375156,0.023194001987576485,0.007083741948008537
1772457249113130000,8.7801298828125,-0.006728210020810366,0.019584886729717255,0.016265522688627243
1772457249123199200,8.79019921875,-0.011038536205887794,0.014219682663679123,0.028211398050189018
1772457249133267200,8.80026708984375,-0.015680426731705666,0.006848052144050598,0.0374874547123909
1772457249143336000,8.8103359375,-0.015601330436766148,-0.0070794811472296715,0.03759557753801346
1772457249153404200,8.820404052734375,-0.016937438398599625,-0.029692381620407104,0.023068834096193314
1772457249163472000,8.830471923828124,-0.014596519060432911,-0.01810550130903721,0.0035814191214740276
1772457249173541000,8.840541015625,-0.007508516311645508,0.004802478477358818,-0.0075692362152040005
1772457249183609000,8.850609130859375,0.0022892532870173454,0.023518109694123268,-0.009771936573088169
1772457249193677800,8.860677734375,0.007767641916871071,0.030250314623117447,0.006232596002519131
1772457249203746000,8.87074609375,0.005558017175644636,0.018033063039183617,0.023186013102531433
1772457249213815000,8.88081494140625,0.004710599314421415,0.002235191175714135,0.038148183375597
1772457249223883000,8.890883056640625,0.007411044556647539,-0.0157155804336071,0.045401837676763535
1772457249233952000,8.900951904296875,0.013431120663881302,-0.028414331376552582,0.03834286332130432
1772457249244020000,8.91102001953125,0.020610736683011055,-0.03197497874498367,0.01661253161728382
1772457249254089000,8.9210888671875,0.027304058894515038,-0.0210120752453804,-0.0015310513554140925
1772457249264157200,8.9311572265625,0.034437067806720734,-0.0011496866354718804,-0.028443891555070877
1772457249274226000,8.941225830078125,0.03081277385354042,0.01847834326326847,-0.03916604444384575
1772457249284294000,8.9512939453125,0.023980166763067245,0.02803083509206772,-0.03867841884493828
1772457249294363100,8.961363037109376,0.012403938919305801,0.022159896790981293,-0.02895468659698963
1772457249304430800,8.971430908203125,0.009411078877747059,0.006117014680057764,-0.019342537969350815
1772457249314500000,8.9815,0.007494401652365923,-0.012570653110742569,-0.013998107053339481
1772457249324568000,8.991568115234376,0.004768123384565115,-0.026221750304102898,-0.014896657317876816
1772457249334636000,9.001635986328125,0.0049438923597335815,-0.021468007937073708,-0.015095329843461514
1772457249344705000,9.011705078125,0.0007344998302869499,-0.0019323896849527955,-0.013284114189445972
1772457249354773000,9.02177294921875,-0.0023132218047976494,0.007666175253689289,-0.013302222825586796
1772457249364842000,9.031842041015626,-0.006714361719787121,0.017417605966329575,-0.0031499869655817747
1772457249374910200,9.04191015625,-0.012917662970721722,0.016703080385923386,0.00791651289910078
1772457249384979000,9.05197900390625,-0.019297530874609947,0.006849916651844978,0.01625060848891735
1772457249395047000,9.062046875,-0.019771307706832886,-0.004280765075236559,0.024770593270659447
1772457249405116200,9.0721162109375,-0.022287994623184204,-0.014027668163180351,0.020538564771413803
1772457249415184100,9.08218408203125,-0.024164991453289986,-0.017642909660935402,0.02466726303100586
1772457249425252900,9.0922529296875,-0.01890631392598152,-0.017491642385721207,0.01792760193347931
1772457249435321000,9.102321044921876,-0.015387744642794132,-0.016028234735131264,0.011141601018607616
1772457249445390000,9.11239013671875,-0.007611314300447702,-0.0068089039996266365,0.006133526097983122
1772457249455458000,9.1224580078125,-0.005092496518045664,0.003308178624138236,0.006789196282625198
1772457249465527000,9.132527099609375,-0.006885869428515434,-0.0032415995374321938,0.004791293293237686
1772457249475595000,9.142594970703126,-0.0035808864049613476,-0.012290487997233868,0.0020817930344492197
1772457249485664000,9.1526640625,-0.002829076023772359,-0.01242444571107626,-0.0051598744466900826
1772457249495732000,9.16273193359375,-0.0003731088654603809,-0.0025350630749017,-0.009646235965192318
1772457249505800000,9.172800048828124,-0.00014141385327093303,-0.0015896408585831523,-0.006493585649877787
1772457249515869000,9.182868896484376,-0.003363838652148843,0.0010258496040478349,-0.007933024317026138
1772457249525937200,9.192937255859375,-0.0043896883726119995,-0.004808337427675724,-0.01594674214720726
1772457249536006000,9.203005859375,-0.004625111818313599,-0.005840312223881483,-0.015179751440882683
1772457249546073900,9.213073974609374,0.002169144805520773,-0.007666175253689289,-0.025487249717116356
1772457249556143000,9.22314306640625,0.0036876790691167116,0.006994526367634535,-0.026026008650660515
1772457249566211000,9.233211181640625,0.006223541218787432,0.0224445890635252,-0.024758342653512955
1772457249576279800,9.24327978515625,0.006404902320355177,0.01119379885494709,-0.018511366099119186
1772457249586348000,9.25334814453125,0.00520647969096899,-0.00387383415363729,-0.014737666584551334
1772457249596417000,9.2634169921875,0.0046845003962516785,-0.016512397676706314,-0.01452914159744978
1772457249606485000,9.273485107421875,0.002517486223950982,-0.00395665830001235,-0.007999070920050144
1772457249616554000,9.283553955078125,0.004283428192138672,0.01233629509806633,-0.00032330775866284966
1772457249626622000,9.2936220703125,0.001975000137463212,0.015415707603096962,0.0041436124593019485
1772457249636691200,9.303691162109375,0.0016503608785569668,0.0002479403046891093,0.010612164624035358
1772457249646759000,9.313759033203125,0.004705273080617189,-0.018561167642474174,0.00478516798466444
1772457249656828000,9.323827880859374,0.010332532227039337,-0.02846652828156948,-0.006879744119942188
1772457249666896100,9.333896240234376,0.010279002599418163,-0.026736538857221603,-0.026368489488959312
1772457249676964000,9.343964111328125,0.008505337871611118,0.0065377941355109215,-0.029081186279654503
1772457249687032800,9.35403271484375,0.00555082643404603,0.03507596254348755,-0.02718980982899666
1772457249697101000,9.36410107421875,-0.002567553659901023,0.030900124460458755,-0.023779630661010742
1772457249707170000,9.374170166015626,-0.007543403655290604,0.010422547347843647,-0.017460748553276062
1772457249717238000,9.384238037109375,-0.012258264236152172,-0.01480264775454998,-0.0037345506716519594
1772457249727307000,9.39430712890625,-0.007842476479709148,-0.016209863126277924,-0.002157160546630621
1772457249737375000,9.404375,-0.0018628811230883002,-0.011573298834264278,-0.004573978949338198
1772457249747444000,9.41444384765625,-0.003325755475088954,-0.013231117278337479,-0.007562578655779362
1772457249757512200,9.42451220703125,-0.0065684206783771515,-0.006763896439224482,-0.01636192947626114
1772457249767581000,9.434580810546874,-0.007786284200847149,0.012073706835508347,-0.01762719638645649
1772457249777649000,9.44464892578125,-0.009285643696784973,0.014479872770607471,-0.01919659785926342
1772457249787718100,9.45471826171875,-0.008506935089826584,0.012181032449007034,-0.017162475734949112
1772457249797786000,9.4647861328125,-0.003594468580558896,-0.0022325278259813786,-0.014166951179504395
1772457249807854800,9.474854736328124,0.00008309062832267955,-0.012942164205014706,-0.014723552390933037
1772457249817923000,9.484923095703126,-0.002695385366678238,-0.004692756105214357,-0.011208179406821728
1772457249827992000,9.494991943359375,-0.004196343012154102,0.005288505461066961,-0.0025989788118749857
1772457249838059800,9.505059814453125,-0.010930411517620087,0.005372394807636738,0.010585532523691654
1772457249848129000,9.51512890625,-0.009723201394081116,0.008391620591282845,0.01757420040667057
1772457249858197000,9.525197021484376,-0.007194263394922018,-0.0008700547041371465,0.009719472378492355
1772457249868265000,9.535264892578125,-0.006705573294311762,-0.02069728821516037,0.0005725796218030155
1772457249878334000,9.545333984375,-0.0007187871960923076,-0.03574388101696968,-0.01696167327463627
1772457249888402000,9.55540185546875,0.008611065335571766,-0.04246729984879494,-0.037999581545591354
1772457249898471000,9.565470947265625,0.01449798233807087,-0.036262400448322296,-0.045034851878881454
1772457249908539100,9.5755390625,0.022836074233055115,-0.02503158338367939,-0.053286924958229065
1772457249918608000,9.58560791015625,0.027943750843405724,-0.012342420406639576,-0.04794728383421898
1772457249928675800,9.59567578125,0.025800438597798347,-0.000949150591623038,-0.03448553755879402
1772457249938745000,9.6057451171875,0.019895942881703377,-0.0009632653673179448,-0.01846476085484028
1772457249948813000,9.61581298828125,0.01269741915166378,-0.004162254277616739,-0.005139368120580912
1772457249958882000,9.625882080078124,0.004562261048704386,0.0004117247008252889,0.004255731590092182
1772457249968950000,9.635949951171876,0.005768673028796911,0.006265618838369846,0.010323744267225266
1772457249979019000,9.64601904296875,0.004565723240375519,0.005172657780349255,0.01673583686351776
1772457249989087200,9.656087158203125,0.005042429082095623,0.005379851907491684,0.016353406012058258
1772457249999156000,9.666156005859374,0.0036932716611772776,0.009336509741842747,0.018212825059890747
1772457250009224000,9.676223876953125,-0.0010974886827170849,0.0054733287543058395,0.022473882883787155
1772457250019293200,9.686293212890625,-0.007105580065399408,0.003777960315346718,0.0248454287648201
1772457250029361000,9.69636083984375,-0.009977000765502453,0.00026738137239590287,0.02882152795791626
1772457250039428900,9.706428955078126,-0.009674465283751488,-0.01817101426422596,0.020019780844449997
1772457250049498000,9.716498046875,-0.008043545298278332,-0.03127962723374367,0.006207828409969807
1772457250059566000,9.726566162109375,-0.007684551179409027,-0.023239541798830032,0.0015137407463043928
1772457250069634800,9.736634765625,-0.0049185920506715775,0.005361742340028286,0.002665025182068348
1772457250079703000,9.746703125,-0.011960255913436413,0.024999625980854034,0.011080614291131496
1772457250089772000,9.75677197265625,-0.021981731057167053,0.02683907002210617,0.02574664168059826
1772457250099840000,9.766840087890625,-0.033794183284044266,0.013045228086411953,0.036318592727184296
1772457250109909000,9.776908935546874,-0.036562271416187286,-0.008929579518735409,0.04204358905553818
1772457250119977000,9.78697705078125,-0.03672073036432266,-0.026644127443432808,0.03801422566175461
1772457250130046000,9.7970458984375,-0.03760702908039093,-0.02262541837990284,0.03191239386796951
1772457250140114200,9.8071142578125,-0.03593989089131355,-0.00032197617110796273,0.023911191150546074
1772457250150183000,9.817182861328124,-0.028417792171239853,0.014372281730175018,0.01990845985710621
1772457250160251100,9.827251220703126,-0.030788006260991096,0.008695220574736595,0.007534615229815245
1772457250170320100,9.837320068359375,-0.03189960867166519,-0.0016325177857652307,-0.001273523666895926
1772457250180388000,9.84738818359375,-0.032217856496572495,0.00007430219557136297,0.0010804444318637252
1772457250190457000,9.85745703125,-0.034146785736083984,0.009325058199465275,0.006388923618942499
1772457250200525000,9.867525146484375,-0.03049985133111477,0.007451258134096861,0.0031989889685064554
1772457250210593300,9.87759326171875,-0.028077173978090286,-0.0021734058391302824,0.00196408131159842
1772457250220662000,9.887662109375,-0.023255255073308945,-0.01781601458787918,-0.009797769598662853
1772457250230730000,9.89772998046875,-0.016522783786058426,-0.028665998950600624,-0.02243979461491108
1772457250240799200,9.90779931640625,-0.0057039582170546055,-0.01642371341586113,-0.036913275718688965
1772457250250867200,9.9178671875,0.004432565066963434,-0.013894510455429554,-0.05558736249804497
1772457250260936000,9.92793603515625,0.009969810023903847,-0.00015339808305725455,-0.06471455097198486
1772457250271004200,9.938004150390626,0.012448147870600224,0.009091232903301716,-0.06439017504453659
1772457250281073200,9.9480732421875,0.0049066077917814255,0.005844307132065296,-0.06360267847776413
1772457250291141000,9.95814111328125,0.0004820321628358215,0.004224305972456932,-0.052015531808137894
1772457250301210000,9.968210205078124,-0.007525294087827206,-0.0031409321818500757,-0.03756468743085861
1772457250311278000,9.978278076171875,-0.0123043367639184,0.00007616640505148098,-0.022485334426164627
1772457250321347300,9.988347412109375,-0.012688631191849709,0.0007712514488957822,-0.015536349266767502
1772457250331415300,9.998415283203125,-0.012527509592473507,-0.0031614385079592466,-0.016153668984770775
1772457250341484000,10.008484130859374,-0.014578676782548428,0.008840363472700119,-0.0034735610242933035
1772457250351552000,10.018552001953125,-0.013006612658500671,0.009297894313931465,0.012345083057880402
1772457250361621200,10.028621337890625,-0.024112792685627937,0.006250439211726189,0.026130937039852142
1772457250371689000,10.03868896484375,-0.028490496799349785,0.014308631420135498,0.03172703832387924
1772457250381758200,10.04875830078125,-0.029272135347127914,0.009458216838538647,0.0464165024459362
1772457250391826200,10.058826171875,-0.02707129903137684,-0.00012117382721044123,0.05010524392127991
1772457250401894100,10.06889404296875,-0.02376631647348404,-0.009229451417922974,0.05133029818534851
1772457250411963100,10.078963134765624,-0.022167086601257324,-0.007488809060305357,0.048059139400720596
1772457250422031000,10.089031005859376,-0.022001706063747406,-0.0016130766598507762,0.046717170625925064
1772457250432100000,10.09910009765625,-0.018932677805423737,0.00021944446780253202,0.04284093901515007
1772457250442168300,10.109168212890625,-0.015026353299617767,-0.004344947170466185,0.036795031279325485
1772457250452237000,10.119237060546874,-0.00899775605648756,-0.010267284698784351,0.027279291301965714
1772457250462305000,10.129304931640625,-0.004523645620793104,0.008198807947337627,0.020808609202504158
1772457250472374300,10.139374267578125,-0.0046935551799833775,0.00902438722550869,0.01474379189312458
1772457250482442200,10.149442138671875,-0.010922688990831375,0.002793655963614583,0.006200638134032488
1772457250492511000,10.159510986328126,-0.017286844551563263,0.0005821670056320727,0.0032200280111283064
1772457250502579200,10.1695791015625,-0.02123364992439747,-0.0017281252657994628,-0.0002825613773893565
1772457250512648200,10.179648193359375,-0.01624794490635395,-0.0002205097407568246,-0.0002511360798962414
1772457250522716200,10.189716064453124,-0.010950385592877865,-0.0029356025625020266,-0.00012436961696948856
1772457250532785200,10.19978515625,-0.00806298665702343,-0.0028250813484191895,-0.005342300981283188
1772457250542853000,10.20985302734375,-0.004878112114965916,-0.0007845672662369907,-0.004742024466395378
1772457250552922000,10.219922119140625,-0.005604089703410864,-0.009230249561369419,-0.006688262801617384
1772457250562990000,10.229989990234374,-0.01028725877404213,-0.012438559904694557,-0.003944940399378538
1772457250573059000,10.24005908203125,-0.013586116023361683,-0.014649515971541405,0.0018751317402347922
1772457250583127000,10.250126953125,-0.01552596315741539,-0.011683554388582706,0.004328702110797167
1772457250593195300,10.2601953125,-0.020440559834241867,-0.00717588746920228,0.00894023198634386
1772457250603264000,10.270263916015624,-0.018558504059910774,-0.006488259416073561,-0.0009076052810996771
1772457250613332000,10.28033203125,-0.017642376944422722,-0.01489399466663599,-0.012367187067866325
1772457250623401200,10.290401123046875,-0.01576671190559864,-0.0075814868323504925,-0.023127689957618713
1772457250633469200,10.30046923828125,-0.009402289986610413,-0.004493551794439554,-0.027897411957383156
1772457250643538200,10.3105380859375,-0.003368099918588996,-0.008318383246660233,-0.030129672959446907
1772457250653606100,10.320606201171875,0.002304699504747987,-0.02219611592590809,-0.029945649206638336
1772457250663675100,10.330675048828125,0.0073292856104671955,-0.023990821093320847,-0.02599697932600975
1772457250673743000,10.3407431640625,0.009573264978826046,-0.016440225765109062,-0.01483460608869791
1772457250683812000,10.35081201171875,0.009397230111062527,-0.020609671249985695,-0.001924932817928493
1772457250693880000,10.360880126953125,0.003689809702336788,-0.02165602706372738,0.0067753479816019535
1772457250703949300,10.37094921875,0.004185690078884363,-0.013255084864795208,0.009945841506123543
1772457250714017300,10.381017333984374,0.003881823504343629,-0.00049108691746369,0.0065282066352665424
1772457250724086000,10.3910859375,0.002080195117741823,-0.0031433289404958487,0.0017014936311170459
1772457250734154200,10.401154296875,-0.0013880395563319325,0.005645102355629206,0.005992378573864698
1772457250744223200,10.41122314453125,-0.0021201425697654486,0.0049561429768800735,0.00751890242099762
1772457250754291000,10.421291015625,-0.002950782421976328,-0.0028855351265519857,0.004214984830468893
1772457250764359200,10.431359130859375,-0.006603574380278587,-0.009319465607404709,-0.0003134540456812829
1772457250774428200,10.44142822265625,-0.006067479960620403,-0.005306880921125412,-0.0036107138730585575
1772457250784496000,10.45149609375,-0.008258462883532047,-0.0006130596739239991,-0.0035145736765116453
1772457250794565000,10.461565185546876,-0.006382531952112913,-0.0010993528412654996,-0.0011382350930944085
1772457250804633000,10.471633056640625,-0.005184642039239407,-0.0034237599465996027,0.000925182132050395
1772457250814702000,10.4817021484375,-0.0024796691723167896,0.0017566210590302944,0.0025278725661337376
1772457250824770300,10.491770263671874,-0.00026312030968256295,0.013772537931799889,0.006003564223647118
1772457250834839000,10.501839111328126,-0.004231763072311878,0.015310779213905334,0.01380875613540411
1772457250844907000,10.511906982421875,-0.008696019649505615,0.011757856234908104,0.025493375957012177
1772457250854976300,10.521976318359375,-0.010543720796704292,0.01673636958003044,0.031867653131484985
1772457250865044200,10.532044189453124,-0.009831325151026249,0.006735400762408972,0.038550589233636856
1772457250875113000,10.542113037109376,-0.004846154246479273,-0.006839263718575239,0.03350815922021866
1772457250885181200,10.55218115234375,-0.0012452941155061126,-0.02544490620493889,0.03008519858121872
1772457250895250200,10.562250244140625,0.005227518733590841,-0.017831994220614433,0.0204530768096447
1772457250905318100,10.572318115234374,0.008625445887446404,-0.003757453989237547,0.01458932925015688
1772457250915387100,10.58238720703125,0.008806806989014149,0.008384429849684238,0.011435347609221935
1772457250925455000,10.592455078125,0.0017944378778338432,0.014543788507580757,0.012973056174814701
1772457250935524400,10.6025244140625,-0.003364105010405183,0.011694739572703838,0.01647910848259926
1772457250945592000,10.612592041015626,-0.0022082931827753782,0.0073231603018939495,0.018935607746243477
1772457250955660000,10.622659912109375,0.0019142802339047194,-0.007357514929026365,0.018562765792012215
1772457250965729300,10.632729248046875,0.005538576282560825,-0.01823839172720909,0.0051276502199471
1772457250975797200,10.64279736328125,0.006636863574385643,-0.0027265443932265043,0.0026554379146546125
1772457250985866000,10.652865966796876,0.006483998149633408,0.01480770856142044,-0.0011265170760452747
1772457250995934000,10.662933837890625,0.001731587341055274,0.01571344956755638,-0.008549279533326626
1772457251006003200,10.673003173828125,-0.0038088529836386442,0.01366414688527584,-0.010103234089910984
1772457251016071200,10.6830712890625,-0.0035657063126564026,0.0158921480178833,-0.00264798104763031
1772457251026140200,10.69314013671875,-0.005119660869240761,0.011159444227814674,0.0065625617280602455
1772457251036208000,10.7032080078125,-0.004128698725253344,-0.0001030643325066194,0.01128194946795702
1772457251046277000,10.713277099609375,0.0023156185634434223,-0.009077916853129864,0.012949886731803417
1772457251056345300,10.723345458984374,0.0006125270738266408,-0.010915764607489109,0.01359463855624199
1772457251066414000,10.7334140625,0.004310326185077429,-0.007254716940224171,0.017535850405693054
1772457251076482000,10.74348193359375,0.0018716695485636592,0.0012543488992378116,0.01949114352464676
1772457251086551300,10.75355126953125,0.005196892656385899,-0.0017044231062754989,0.012926717288792133
1772457251096619000,10.763618896484376,0.0070334081538021564,-0.01050430629402399,0.01188169326633215
1772457251106688000,10.77368798828125,0.008500011637806892,-0.008430768735706806,0.009679258801043034
1772457251116756200,10.783756103515625,0.006699447985738516,0.002217081608250737,0.007108243182301521
1772457251126824200,10.79382421875,0.00498224189504981,0.009820939041674137,0.006972421891987324
1772457251136893000,10.803892822265626,0.0018261295044794679,0.015659652650356293,0.00797270517796278
1772457251146961200,10.813961181640625,0.0057071540504693985,0.010299775749444962,0.010873686522245407
1772457251157030100,10.824030029296875,0.008435562252998352,0.0004242415598127991,0.008363657630980015
1772457251167099000,10.834098876953124,0.010908573865890503,-0.011113104410469532,0.0033539850264787674
1772457251177168000,10.84416796875,0.011100322008132935,-0.0070613715797662735,-0.0017555557424202561
1772457251187235800,10.85423583984375,0.016279637813568115,0.003846936160698533,-0.006229666527360678
1772457251197304800,10.864304931640625,0.011537346057593822,0.010488061234354973,-0.006367351859807968
1772457251207372800,10.874372802734374,0.007105846423655748,0.008146876469254494,-0.004683434963226318
1772457251217441800,10.88444189453125,0.006955377757549286,0.0015986956423148513,-0.009251022711396217
1772457251227509800,10.894509765625,0.00848323293030262,-0.007626494392752647,-0.004837632179260254
1772457251237578800,10.904578857421875,0.010273942723870277,-0.012859073467552662,-0.004211256746202707
1772457251247646700,10.914646728515624,0.012921124696731567,-0.007391070947051048,-0.0049460227601230145
1772457251257715700,10.9247158203125,0.016583237797021866,-0.003906857222318649,-0.005304750520735979
1772457251267784000,10.934783935546875,0.013740845955908298,0.003769704606384039,0.007093063089996576
1772457251277852700,10.944852783203125,0.01369557250291109,0.0051683965139091015,0.017078319564461708
1772457251287920600,10.954920654296876,0.011451326310634613,-0.0023529028985649347,0.028979454189538956
1772457251297990000,10.964989990234375,0.012770390138030052,-0.01519706193357706,0.0312279611825943
1772457251308057900,10.975057861328125,0.014339524321258068,-0.022725285962224007,0.03284742683172226
1772457251318125800,10.985125732421874,0.012252138927578926,-0.013137639500200748,0.037450700998306274
1772457251328194800,10.99519482421875,0.005826996639370918,0.007790545001626015,0.03606239706277847
1772457251338262800,11.0052626953125,-0.0004964132094755769,0.017795775085687637,0.03687252849340439
1772457251348331800,11.015331787109375,-0.0029648973140865564,0.013263873755931854,0.03656600043177605
1772457251358399700,11.025399658203124,-0.008724781684577465,-0.0043910201638937,0.02630537375807762
1772457251368468700,11.03546875,-0.0021995047573000193,-0.015792544931173325,0.011052118614315987
1772457251378536700,11.04553662109375,0.010967696085572243,-0.005825132131576538,-0.012924587354063988
1772457251388606000,11.05560595703125,0.01834465190768242,0.009562079794704914,-0.027996746823191643
1772457251398673700,11.065673583984376,0.018371284008026123,0.02799195423722267,-0.034205906093120575
1772457251408743000,11.075742919921876,0.01534433476626873,0.030168555676937103,-0.02803323231637478
1772457251418811000,11.085810791015625,0.011865714564919472,0.014903848059475422,-0.010572216473519802
1772457251428879600,11.095879638671875,0.011770373210310936,-0.0016588830621913075,0.003111637430265546
1772457251438947600,11.105947509765626,0.012372779659926891,-0.01092588435858488,0.01943282037973404
1772457251449016800,11.116016845703125,0.020724186673760414,-0.008826514706015587,0.029030052945017815
1772457251459084800,11.126084716796875,0.027232419699430466,-0.012807940132915974,0.03425464406609535
1772457251469153800,11.13615380859375,0.02466673031449318,-0.017950238659977913,0.030308105051517487
1772457251479221800,11.1462216796875,0.02219798043370247,-0.021700767800211906,0.02606116235256195
1772457251489290800,11.156290771484375,0.02364887110888958,-0.022657375782728195,0.01549400482326746
1772457251499359000,11.16635888671875,0.024686969816684723,-0.01997184380888939,-0.00020453077740967274
1772457251509427000,11.176427001953124,0.02382570505142212,-0.0023004384711384773,-0.004747350700199604
1772457251519495700,11.18649560546875,0.01372486725449562,0.01423219870775938,-0.006697583943605423
1772457251529564000,11.19656396484375,0.005022455472499132,0.012288358062505722,-0.005121524911373854
1772457251539633000,11.2066328125,-0.0009504822082817554,-0.012117116712033749,-0.008587895892560482
1772457251549700900,11.216700927734376,-0.0038687740452587605,-0.030950458720326424,-0.009372995235025883
1772457251559769900,11.226769775390625,0.001187237212434411,-0.023438213393092155,-0.011382883414626122
1772457251569837800,11.236837890625,0.002941727638244629,-0.014721421524882317,-0.011661183089017868
1772457251579906800,11.24690673828125,0.007191600278019905,-0.0014652712270617485,-0.007525560446083546
1772457251589974800,11.256974853515626,0.005647499579936266,-0.0029372002463787794,-0.0028160265646874905
1772457251600043800,11.267043701171875,0.007208378054201603,-0.016454607248306274,0.0012828446924686432
1772457251610111700,11.27711181640625,0.007739678490906954,-0.024720260873436928,0.003961984533816576
1772457251620180700,11.2871806640625,0.0054395063780248165,-0.01215839572250843,0.006494384724646807
1772457251630248700,11.297248779296876,0.0038221688009798527,0.0054637412540614605,0.00443922309204936
1772457251640317700,11.307317626953125,0.005860285833477974,0.012142682448029518,0.006328469607979059
1772457251650386000,11.317385986328125,0.006252569612115622,0.01414404809474945,0.009725331328809261
1772457251660454700,11.32745458984375,0.007427556440234184,0.019031748175621033,0.007676295470446348
1772457251670522600,11.337522705078126,0.010617757216095924,0.009908024221658707,0.006068544927984476
1772457251680590800,11.3475908203125,0.007989482954144478,0.023967649787664413,0.004687163513153791
1772457251690659800,11.357659912109375,0.007850199937820435,0.04174851253628731,0.013126454316079617
1772457251700727800,11.367727783203126,0.0007856325246393681,0.030170151963829994,0.028563201427459717
1772457251710796800,11.377796875,-0.00580728892236948,0.023418506607413292,0.0507127121090889
1772457251720864800,11.38786474609375,-0.00517691858112812,0.01252058520913124,0.05688858404755592
1772457251730934000,11.39793408203125,-0.007737548090517521,-0.00440912926569581,0.06855615973472595
1772457251741001700,11.408001708984376,0.003950799349695444,-0.041421208530664444,0.045514754951000214
1772457251751070700,11.41807080078125,0.03296753764152527,-0.056837182492017746,0.013585050590336323
1772457251761138700,11.428138671875,0.05096331611275673,-0.03975699841976166,-0.00544456671923399
1772457251771208000,11.4382080078125,0.054837416857481,-0.03804192319512367,-0.029218871146440506
1772457251781275600,11.448275634765626,0.05296894162893295,-0.033800043165683746,-0.05398280918598175
1772457251791345000,11.458344970703125,0.05109327659010887,-0.03874579817056656,-0.06911861896514893
1772457251801412900,11.468412841796875,0.04650864750146866,-0.035702869296073914,-0.07275516539812088
1772457251811481600,11.478481689453124,0.046358708292245865,-0.034454911947250366,-0.07231148332357407
1772457251821549800,11.4885498046875,0.04133518785238266,-0.02917945757508278,-0.06507673859596252
1772457251831618800,11.498618896484375,0.0457959845662117,-0.014567490667104721,-0.05752880498766899
