time,seconds_elapsed,z,y,x
1772457613878883600,0.068883544921875,-0.05167166888713837,-0.16745594143867493,-0.09549780189990997
1772457613888952600,0.07895263671875,-0.05086047202348709,-0.16625697910785675,-0.11069486290216446
1772457613899021600,0.089021484375,-0.04293186217546463,-0.15016497671604156,-0.12059997022151947
1772457613909090600,0.099090576171875,-0.0419161319732666,-0.13072097301483154,-0.13256582617759705
1772457613919159600,0.10915966796875,-0.04331604391336441,-0.08731185644865036,-0.13456161320209503
1772457613929227500,0.1192275390625,-0.03936124965548515,-0.04381978139281273,-0.13773077726364136
1772457613939296500,0.129296630859375,-0.02707526832818985,-0.01913861557841301,-0.13398781418800354
1772457613949365500,0.139365478515625,-0.020233074203133583,-0.002753518521785736,-0.13503043353557587
1772457613959434500,0.1494345703125,-0.013243851251900196,-0.011280976235866547,-0.1368689388036728
1772457613969503700,0.159503662109375,-0.012317870743572712,-0.01207992434501648,-0.12992127239704132
1772457613979571500,0.169571533203125,-0.007821278646588326,-0.005439217202365398,-0.12351879477500916
1772457613989640400,0.179640380859375,0.003105937037616968,-0.008515967056155205,-0.12035629153251648
1772457613999709700,0.189709716796875,0.015160092152655125,-0.012045303359627724,-0.11620280891656876
1772457614009778400,0.1997783203125,0.025195149704813957,-0.01076379045844078,-0.10248646885156631
1772457614019846400,0.209846435546875,0.03149456903338432,-0.01581425778567791,-0.08505623787641525
1772457614029915400,0.219915283203125,0.030837833881378174,-0.035035621374845505,-0.06208328157663345
1772457614039984400,0.229984375,0.026412148028612137,-0.04634077474474907,-0.036081280559301376
1772457614050053400,0.240053466796875,0.01902746967971325,-0.04309864342212677,-0.020478086546063423
1772457614060122400,0.250122314453125,0.016410978510975838,-0.017629418522119522,-0.006656607612967491
1772457614070190300,0.2601904296875,0.013426374644041061,0.006876189261674881,-0.0002085622400045395
1772457614080259600,0.270259521484375,0.019434310495853424,0.023000946268439293,-0.0004053900483995676
1772457614090328600,0.28032861328125,0.021167229861021042,0.023731984198093414,-0.004521039314568043
1772457614100397300,0.290397216796875,0.02571672946214676,0.02150077372789383,-0.009288490749895573
1772457614110466600,0.300466552734375,0.025289293378591537,0.01603570207953453,-0.01486568246036768
1772457614120534500,0.310534423828125,0.027606531977653503,0.016225898638367653,-0.01802482269704342
1772457614130603500,0.320603515625,0.03295309096574783,0.021837444975972176,-0.01436111330986023
1772457614140672500,0.330672607421875,0.030633877962827682,0.018209852278232574,0.004684096667915583
1772457614150741200,0.3407412109375,0.02707802690565586,-0.005094670690596104,0.012689292430877686
1772457614160809500,0.3508095703125,0.027403397485613823,-0.023926496505737305,0.010589184239506721
1772457614170878500,0.36087841796875,0.024749556556344032,-0.03130079060792923,0.0027222062926739454
1772457614180947500,0.370947509765625,0.02723737247288227,-0.033542755991220474,-0.010644445195794106
1772457614191016400,0.381016357421875,0.029372163116931915,-0.005651203915476799,-0.021725058555603027
1772457614201085400,0.39108544921875,0.037495337426662445,0.037040598690509796,-0.029609879478812218
1772457614211153400,0.4011533203125,0.03686603158712387,0.052428875118494034,-0.026401303708553314
1772457614221222400,0.411222412109375,0.036150217056274414,0.035803861916065216,-0.024487782269716263
1772457614231291600,0.421291748046875,0.027209453284740448,0.010289979167282581,-0.016676731407642365
1772457614241360400,0.4313603515625,0.017854813486337662,-0.011328811757266521,-0.0042593772523105145
1772457614251429600,0.4414296875,0.018434051424264908,-0.0204906165599823,-0.0017269774107262492
1772457614261497600,0.45149755859375,0.013587163761258125,-0.027298638597130775,0.008023860864341259
1772457614271566300,0.46156640625,0.017132095992565155,-0.024842141196131706,0.010779700241982937
1772457614281635600,0.471635498046875,0.0246217492967844,-0.023302001878619194,0.0019468336831778288
1772457614291704300,0.481704345703125,0.03129269927740097,-0.025845851749181747,-0.009780928492546082
1772457614301772300,0.491772216796875,0.026728998869657516,-0.017281509935855865,-0.01916908472776413
1772457614311841500,0.501841552734375,0.02097044512629509,0.008697360754013062,-0.0214516781270504
1772457614321910300,0.51191015625,0.01973147690296173,0.026093311607837677,-0.020817788317799568
1772457614331979500,0.5219794921875,0.015642724931240082,0.028049137443304062,-0.016511723399162292
1772457614342048500,0.532048583984375,0.016209976747632027,0.010648373514413834,-0.013604057021439075
1772457614352116200,0.5421162109375,0.010800563730299473,-0.010623626410961151,-0.01498677022755146
1772457614362185500,0.552185546875,0.006849808618426323,-0.018274588510394096,-0.006443042308092117
1772457614372254500,0.56225439453125,0.0043666772544384,-0.018701758235692978,-0.0015707892598584294
1772457614382323500,0.572323486328125,0.0007157288491725922,-0.01191926933825016,-0.005890603177249432
1772457614392392400,0.582392333984375,0.006595722399652004,0.007086913101375103,-0.01119961403310299
1772457614402460400,0.59246044921875,0.012300679460167885,0.023422660306096077,-0.018004197627305984
1772457614412529400,0.602529296875,0.012219453230500221,0.029196927323937416,-0.021811453625559807
1772457614422598400,0.612598388671875,0.010573174804449081,0.03269112482666969,-0.019059235230088234
1772457614432667400,0.62266748046875,-0.00044245878234505653,0.03178458660840988,-0.004093868192285299
1772457614442735400,0.6327353515625,-0.004096713848412037,0.02511373534798622,0.0044792331755161285
1772457614452804600,0.6428046875,-0.011329060420393944,0.024967527016997337,0.015959056094288826
1772457614462873300,0.652873291015625,-0.007784123532474041,0.02261030115187168,0.02342599257826805
1772457614472942300,0.6629423828125,-0.005640544928610325,0.027211977168917656,0.03112119808793068
1772457614483011600,0.673011474609375,-0.0013362579047679901,0.03399624302983284,0.02904484234750271
1772457614493079300,0.683079345703125,0.001297874841839075,0.038185395300388336,0.030167097225785255
1772457614503148500,0.6931484375,-0.000466339522972703,0.057276759296655655,0.03194093704223633
1772457614513217500,0.703217529296875,-0.006890150252729654,0.0572674386203289,0.03747951239347458
1772457614523286300,0.713286376953125,-0.014200459234416485,0.05007079988718033,0.04883727803826332
1772457614533354500,0.7233544921875,-0.023121783509850502,0.034877464175224304,0.05930563434958458
1772457614543423500,0.733423583984375,-0.026551423594355583,0.009908746927976608,0.058374449610710144
1772457614553492500,0.743492431640625,-0.023075733333826065,-0.009864157997071743,0.050386298447847366
1772457614563561500,0.7535615234375,-0.021243231371045113,-0.0063808574341237545,0.035704098641872406
1772457614573630200,0.763630126953125,-0.012999149039387703,0.008114462718367577,0.02002500183880329
1772457614583698400,0.773698486328125,-0.0031904166098684072,0.011486325412988663,0.008247477002441883
1772457614593767400,0.783767333984375,-0.0013144856784492731,0.015080261044204235,-0.0003465439658612013
1772457614603836400,0.79383642578125,-0.0036066474858671427,0.00710680428892374,-0.0014044488780200481
1772457614613905400,0.803905517578125,-0.0042585888877511024,-0.008842334151268005,-0.004988264758139849
1772457614623974700,0.813974609375,-0.01000300608575344,-0.021599626168608665,-0.0037614451721310616
1772457614634042600,0.824042724609375,-0.009432291612029076,-0.01903367042541504,-0.00650689797475934
1772457614644111400,0.834111328125,-0.010528849437832832,-0.018703272566199303,-0.013372382149100304
1772457614654180600,0.8441806640625,-0.008476883172988892,0.001236612442880869,-0.018299229443073273
1772457614664249300,0.854249267578125,-0.008304953575134277,0.010917352512478828,-0.02442927286028862
1772457614674317300,0.8643173828125,-0.006044995039701462,-0.001471139956265688,-0.02953987941145897
1772457614684386600,0.874386474609375,-0.00782771222293377,-0.01607358083128929,-0.03315328434109688
1772457614694455300,0.884455322265625,-0.011751614511013031,-0.027516119182109833,-0.043289005756378174
1772457614704524500,0.894524658203125,-0.014025067910552025,-0.024877596646547318,-0.043759215623140335
1772457614714593500,0.904593505859375,-0.016438158228993416,-0.005895648617297411,-0.04048539325594902
1772457614724661200,0.9146611328125,-0.011967155151069164,0.006043169181793928,-0.02962997741997242
1772457614734730500,0.92473046875,-0.011191642843186855,0.00679098442196846,-0.014366067945957184
1772457614744799500,0.934799560546875,-0.008726287633180618,-0.007930153049528599,0.0025973841547966003
1772457614754868500,0.944868408203125,-0.007353961002081633,-0.028871921822428703,0.009383651427924633
1772457614764936400,0.9549365234375,-0.007812709547579288,-0.024714939296245575,0.019367791712284088
1772457614775005400,0.96500537109375,-0.008822579868137836,-0.014540331438183784,0.02323496900498867
1772457614785074400,0.975074462890625,-0.0043735927902162075,-0.006149045191705227,0.025366483256220818
1772457614795143400,0.985143310546875,0.0008848186116665602,-0.006366625428199768,0.022353915497660637
1772457614805212400,0.99521240234375,0.00678691640496254,-0.018219556659460068,0.01882975548505783
1772457614815280400,1.0052802734375,0.007960570976138115,-0.025610893964767456,0.014562040567398071
1772457614825349400,1.015349365234375,0.009429153054952621,-0.01665569096803665,0.015940969809889793
1772457614835418400,1.02541845703125,0.011271527037024498,0.000999733805656433,0.021116025745868683
1772457614845487400,1.0354873046875,0.006196759641170502,0.019565638154745102,0.036307815462350845
1772457614855556600,1.045556640625,0.009761400520801544,0.017882253974676132,0.050991423428058624
1772457614865624300,1.055624267578125,0.00850095134228468,-0.006586350034922361,0.056321341544389725
1772457614875693600,1.065693603515625,0.011182487942278385,-0.041036736220121384,0.056012678891420364
1772457614885762600,1.075762451171875,0.01166846975684166,-0.05578988417983055,0.04783487319946289
1772457614895831300,1.085831298828125,0.02081616222858429,-0.05477229133248329,0.032340869307518005
1772457614905899500,1.0958994140625,0.024564512073993683,-0.02888527140021324,0.019738249480724335
1772457614915968500,1.105968505859375,0.023873688653111458,-0.0010038381442427635,0.019064467400312424
1772457614926037500,1.11603759765625,0.01637374237179756,0.005974947474896908,0.023249633610248566
1772457614936106500,1.1261064453125,0.0041698068380355835,0.006018623244017363,0.028894202783703804
1772457614946175200,1.13617529296875,-0.0018909522332251072,-0.005173699930310249,0.03311688080430031
1772457614956243500,1.146243408203125,-0.001131951343268156,-0.008921033702790737,0.03612412512302399
1772457614966312400,1.1563125,0.003769821021705866,-0.0034379474818706512,0.029807040467858315
1772457614976381400,1.16638134765625,0.004114966839551926,0.0015530828386545181,0.022398924455046654
1772457614986450400,1.176450439453125,0.008967602625489235,0.011440401896834373,0.0202929750084877
1772457614996518400,1.186518310546875,0.0074394806288182735,0.014634065330028534,0.015376245602965355
1772457615006587400,1.19658740234375,0.012815136462450027,-0.004659922327846289,0.01006078440696001
1772457615016657000,1.206656982421875,0.017391778528690338,-0.02610529214143753,0.007066059857606888
1772457615026726000,1.216725830078125,0.020506208762526512,-0.02149326726794243,-0.002770152874290943
1772457615036795000,1.226794921875,0.019859859719872475,0.012308637611567974,0.00765638891607523
1772457615046862800,1.23686279296875,0.019359637051820755,0.035419829189777374,0.01850779913365841
1772457615056932000,1.24693212890625,0.015163827687501907,0.027240196242928505,0.020234061405062675
1772457615067000800,1.257000732421875,0.015455530025064945,0.0009717009961605072,0.027499279007315636
1772457615077069800,1.26706982421875,0.016943970695137978,-0.016004620119929314,0.03402482345700264
1772457615087138000,1.277137939453125,0.01428449247032404,-0.015739401802420616,0.04113968834280968
1772457615097206800,1.287206787109375,0.010709465481340885,-0.01011107861995697,0.03746718913316727
1772457615107276000,1.297276123046875,0.012175798416137695,0.010580413974821568,0.0376104936003685
1772457615117344800,1.3073447265625,0.01184822991490364,0.0239164587110281,0.03665255755186081
1772457615127413800,1.317413818359375,0.012272872030735016,0.013600806705653667,0.03772060200572014
1772457615137482000,1.32748193359375,0.011421194300055504,-0.013255042023956776,0.03809717297554016
1772457615147550700,1.33755078125,0.003878143150359392,-0.03375566005706787,0.0370570532977581
1772457615157620000,1.347619873046875,-0.004464209079742432,-0.028649315237998962,0.03590337187051773
1772457615167689000,1.35768896484375,-0.004958734847605228,-0.008820762857794762,0.027171801775693893
1772457615177758000,1.367758056640625,0.0011223277542740107,-0.0002688202075660229,0.019722674041986465
1772457615187826000,1.377825927734375,0.01293531060218811,-0.0021554031409323215,0.0026147940661758184
1772457615197895000,1.38789501953125,0.02966848388314247,-0.012377148494124413,-0.006804540753364563
1772457615207964000,1.3979638671875,0.04599468410015106,-0.025099635124206543,-0.013092036359012127
1772457615218033000,1.408032958984375,0.05397404730319977,-0.03394372761249542,-0.008824321441352367
1772457615228100900,1.418100830078125,0.05056864023208618,-0.02147085964679718,0.004255892708897591
1772457615238169900,1.428169921875,0.044036973267793655,-0.0057531497441232204,0.01604411005973816
1772457615248238800,1.43823876953125,0.03387397155165672,-0.005329023580998182,0.026060277596116066
1772457615258307800,1.448307861328125,0.031794045120477676,-0.017407257109880447,0.02408580854535103
1772457615268376800,1.458376953125,0.03439098224043846,-0.03507513552904129,0.01189153827726841
1772457615278444800,1.46844482421875,0.034173402935266495,-0.03285485506057739,0.0013182559050619602
1772457615288513800,1.478513671875,0.03044559434056282,-0.010484972968697548,-0.003685978939756751
1772457615298582800,1.488582763671875,0.030127612873911858,0.0013634315691888332,0.0020091908518224955
1772457615308652000,1.498652099609375,0.01957051083445549,0.0048598130233585835,0.01174443494528532
1772457615318719700,1.5087197265625,0.01319383829832077,-0.011248849332332611,0.017398858442902565
1772457615328788700,1.518788818359375,0.0036061920691281557,-0.03509053215384483,0.021604789420962334
1772457615338858000,1.52885791015625,-0.0011837691999971867,-0.0380258671939373,0.020758703351020813
1772457615348926700,1.5389267578125,0.0007125330157577991,-0.023305879905819893,0.016737477853894234
1772457615358996000,1.548995849609375,-0.00290803425014019,-0.009359171614050865,0.014293493703007698
1772457615369064000,1.55906396484375,-0.006739696953445673,0.0002441946417093277,0.010084944777190685
1772457615379132700,1.569132568359375,-0.01200343482196331,0.010053150355815887,0.006923506036400795
1772457615389202000,1.579201904296875,-0.009155632928013802,0.017308058217167854,0.009905057959258556
1772457615399270700,1.589270751953125,-0.013159162364900112,0.01596715673804283,0.00415209773927927
1772457615409339000,1.5993388671875,-0.015662891790270805,-0.0029530725441873074,-0.0025530236307531595
1772457615419408000,1.609407958984375,-0.017352133989334106,-0.016421210020780563,-0.008815180510282516
1772457615429476900,1.619476806640625,-0.01596689037978649,-0.009825524874031544,-0.006830472033470869
1772457615439545900,1.6295458984375,-0.01174737699329853,0.007901273667812347,-0.00149642676115036
1772457615449614800,1.63961474609375,-0.0051986402831971645,0.023316167294979095,0.005840186960995197
1772457615459682800,1.649682861328125,-0.004226053599268198,0.012076564133167267,0.01364644430577755
1772457615469751800,1.659751708984375,-0.0035893579479306936,-0.008777400478720665,0.014924288727343082
1772457615479821000,1.669821044921875,0.0020360371563583612,-0.019363466650247574,0.014016150496900082
1772457615489889800,1.679889892578125,0.002919211285188794,-0.016850218176841736,0.010459138080477715
1772457615499957800,1.689957763671875,0.004166369792073965,0.00016018981114029884,0.0009596424642950296
1772457615510027000,1.700027099609375,0.011451886035501957,0.026506833732128143,0.002095704199746251
1772457615520095700,1.710095703125,0.013444995507597923,0.03358418494462967,-0.002057229168713093
1772457615530165000,1.7201650390625,0.01613183505833149,0.020046286284923553,-0.006043588276952505
1772457615540233700,1.730233642578125,0.023667247965931892,0.011427763849496841,-0.012023183517158031
1772457615550301700,1.7403017578125,0.024990154430270195,0.006103093735873699,-0.007920632138848305
1772457615560371000,1.750370849609375,0.026241574436426163,0.015366899780929089,0.0017165488097816706
1772457615570440000,1.76043994140625,0.02783207967877388,0.020228315144777298,0.011682304553687572
1772457615580509000,1.770509033203125,0.031097114086151123,0.017396576702594757,0.01909814402461052
1772457615590578000,1.780577880859375,0.03516700118780136,0.004538601730018854,0.023241527378559113
1772457615600646000,1.79064599609375,0.0351124070584774,-0.01057696808129549,0.02744799107313156
1772457615610715000,1.80071484375,0.03699788451194763,-0.013839701190590858,0.02165580913424492
1772457615620783900,1.810783935546875,0.04252287745475769,-0.010519005358219147,0.020174026489257812
1772457615630852900,1.820852783203125,0.03947235643863678,0.009963059797883034,0.019035704433918
1772457615640920800,1.8309208984375,0.037814006209373474,0.025089815258979797,0.017219431698322296
1772457615650989800,1.84098974609375,0.030051447451114655,0.028641924262046814,0.013663716614246368
1772457615661058800,1.851058837890625,0.026863377541303635,0.026527373120188713,0.011895643547177315
1772457615671127800,1.8611279296875,0.025846803560853004,0.014696778729557991,0.011690008454024792
1772457615681197000,1.871197021484375,0.027408214285969734,0.0021056204568594694,0.011633549816906452
1772457615691264800,1.8812646484375,0.030397480353713036,-0.01726897805929184,0.005534790456295013
1772457615701333800,1.891333740234375,0.026524445042014122,-0.01751132495701313,-0.0018024842720478773
1772457615711403000,1.901403076171875,0.02480427175760269,0.0030720902141183615,-0.002450801432132721
1772457615721471700,1.9114716796875,0.021754153072834015,0.02019808068871498,-0.0038353789132088423
1772457615731540000,1.9215400390625,0.010672001168131828,0.028876133263111115,-0.0016819699667394161
1772457615741609000,1.93160888671875,-0.0009684097021818161,0.017984602600336075,0.005779142491519451
1772457615751677700,1.941677734375,-0.008884810842573643,0.002830532845109701,0.016413124278187752
1772457615761747000,1.951746826171875,-0.019176330417394638,-0.006119818892329931,0.018941262736916542
1772457615771815700,1.961815673828125,-0.02112438902258873,0.0027285676915198565,0.01463550329208374
1772457615781884000,1.9718837890625,-0.021748367697000504,0.014989761635661125,0.0008858696091920137
1772457615791953000,1.981952880859375,-0.015326329506933689,0.012970887124538422,-0.01639184169471264
1772457615802022000,1.99202197265625,-0.004432137124240398,0.005804320797324181,-0.02284308336675167
1772457615812091000,2.0020908203125,-0.0036107529886066914,-0.008066405542194843,-0.025832273066043854
1772457615822158800,2.012158935546875,-0.004606509115546942,-0.022795818746089935,-0.021094243973493576
1772457615832227800,2.022227783203125,-0.01184677891433239,-0.022144591435790062,-0.009278923273086548
1772457615842296800,2.032296875,-0.014589568600058556,-0.013902107253670692,0.003809448564425111
1772457615852366000,2.042365966796875,-0.016347695142030716,-0.005275588482618332,0.014804085716605186
1772457615862434800,2.052434814453125,-0.0124901058152318,-0.009308146312832832,0.014633109793066978
1772457615872502800,2.062502685546875,-0.010116830468177795,-0.019129188731312752,0.0023675416596233845
1772457615882572000,2.072572021484375,-0.006936217658221722,-0.029135217890143394,-0.007674173451960087
1772457615892640800,2.082640869140625,-0.009960368275642395,-0.03722473233938217,-0.020478270947933197
1772457615902710000,2.0927099609375,-0.007342214696109295,-0.019620705395936966,-0.030157797038555145
1772457615912778800,2.10277880859375,-0.006036848295480013,0.009918221272528172,-0.026992041617631912
1772457615922846700,2.1128466796875,-0.0052938261069357395,0.020359409973025322,-0.02281726896762848
1772457615932916000,2.122916015625,-0.008580190129578114,0.015730053186416626,-0.0145983612164855
1772457615942984700,2.132984619140625,-0.009716028347611427,-0.0005602370947599411,-0.006510074250400066
1772457615953054000,2.143053955078125,-0.008283891715109348,-0.0137251578271389,-0.004088175483047962
1772457615963122000,2.153121826171875,-0.004824444651603699,-0.010744016617536545,0.0030951686203479767
1772457615973191000,2.16319091796875,-0.007926827296614647,-0.01470395177602768,0.0003215458709746599
1772457615983260000,2.173260009765625,-0.01137881726026535,-0.01615723967552185,-0.004651374649256468
1772457615993329000,2.183328857421875,-0.010888085700571537,-0.015191644430160522,-0.012558112852275372
1772457616003398000,2.19339794921875,-0.00991549901664257,-0.016656914725899696,-0.017972584813833237
1772457616013465600,2.203465576171875,-0.005638213362544775,-0.012721938081085682,-0.023025337606668472
1772457616023534800,2.213534912109375,-0.004046708811074495,-0.004037901759147644,-0.016139734536409378
1772457616033603600,2.223603515625,-0.0081175547093153,0.002246501622721553,-0.009398764930665493
1772457616043672800,2.2336728515625,-0.015074264258146286,0.0030824679415673018,-0.010041652247309685
1772457616053740800,2.24374072265625,-0.01926332712173462,-0.00020034238696098328,-0.006081719417124987
1772457616063809500,2.2538095703125,-0.015856077894568443,-0.00812058337032795,-0.006482258904725313
1772457616073878800,2.263878662109375,-0.013399729505181313,-0.019804082810878754,-0.006632249802350998
1772457616083947800,2.27394775390625,-0.0026533426716923714,-0.012844708748161793,-0.015290719456970692
1772457616094016800,2.284016845703125,0.0064440565183758736,-0.005745693575590849,-0.02522743120789528
1772457616104084700,2.294084716796875,0.008910410106182098,0.0032336870208382607,-0.027960631996393204
1772457616114153700,2.30415380859375,0.005677512846887112,0.016071060672402382,-0.029327480122447014
1772457616124222700,2.31422265625,-0.006706186570227146,0.02520010992884636,-0.02334442362189293
1772457616134291700,2.324291748046875,-0.01582655869424343,0.02522689290344715,-0.015595936216413975
1772457616144359700,2.334359619140625,-0.02165568619966507,0.013971574604511261,-0.005480451509356499
1772457616154428700,2.3444287109375,-0.020806431770324707,0.00022308016195893288,-0.004359098616987467
1772457616164497700,2.35449755859375,-0.012871275655925274,-0.020367681980133057,-0.008736535906791687
1772457616174566700,2.364566650390625,-0.010969512164592743,-0.029271163046360016,-0.01843949779868126
1772457616184635600,2.3746357421875,-0.013960327953100204,0.003753235563635826,-0.02094164490699768
1772457616194704000,2.384703857421875,-0.02009614184498787,0.03572060540318489,-0.01894855499267578
1772457616204772600,2.394772705078125,-0.030107498168945312,0.04863373935222626,-0.015548497438430786
1772457616214841600,2.404841552734375,-0.03673286363482475,0.036071378737688065,-0.020673979073762894
1772457616224910800,2.414910888671875,-0.032951172441244125,0.014244909398257732,-0.023433545604348183
1772457616234978600,2.424978515625,-0.029381852596998215,0.00029408978298306465,-0.03960583731532097
1772457616245047800,2.4350478515625,-0.02423902042210102,0.0030390098690986633,-0.05224067345261574
1772457616255116800,2.44511669921875,-0.020060144364833832,0.021474327892065048,-0.056723590940237045
1772457616265185500,2.455185546875,-0.020611152052879333,0.02877085655927658,-0.05386868119239807
1772457616275254800,2.4652548828125,-0.020410148426890373,0.03160597383975983,-0.043225567787885666
1772457616285322800,2.47532275390625,-0.017180534079670906,0.012572096660733223,-0.037812162190675735
1772457616295391700,2.485391845703125,-0.013470086269080639,-0.004303392954170704,-0.037246886640787125
1772457616305460700,2.495460693359375,-0.015095147304236889,-0.016205325722694397,-0.04263978824019432
1772457616315529500,2.505529541015625,-0.010084742680191994,-0.003922642208635807,-0.04313401132822037
1772457616325598700,2.5155986328125,-0.0039054090157151222,0.018986668437719345,-0.04075341299176216
1772457616335666700,2.525666748046875,-0.004159094300121069,0.03528100997209549,-0.03873266279697418
1772457616345735700,2.535735595703125,-0.011142967268824577,0.03707997500896454,-0.037973128259181976
1772457616355804700,2.5458046875,-0.013871043920516968,0.0306013822555542,-0.027877673506736755
1772457616365874000,2.5558740234375,-0.01388009823858738,0.017399027943611145,-0.019140908494591713
1772457616375941600,2.565941650390625,-0.01671505719423294,0.01704830303788185,-0.005434019491076469
1772457616386010600,2.5760107421875,-0.015728356316685677,0.019494682550430298,0.007882584817707539
1772457616396079900,2.586079833984375,-0.014050589874386787,0.013231741264462471,0.011652683839201927
1772457616406148600,2.596148681640625,-0.006891213357448578,0.006532026920467615,0.005833943374454975
1772457616416216600,2.606216552734375,-0.003086840035393834,0.002012082142755389,-0.0021294336766004562
1772457616426285800,2.616285888671875,0.002759331138804555,-0.0029959920793771744,-0.02104560099542141
1772457616436354600,2.6263544921875,0.006016664206981659,-0.013156170956790447,-0.036908816546201706
1772457616446423800,2.636423828125,0.009462794288992882,-0.005999724380671978,-0.04106387868523598
1772457616456492500,2.646492431640625,0.007878545671701431,0.011099450290203094,-0.03357086703181267
1772457616466560500,2.656560546875,0.008370164781808853,0.017174918204545975,-0.01951177418231964
1772457616476629800,2.666629638671875,-0.0010894488077610731,0.009577104821801186,-0.006546116434037685
1772457616486698800,2.67669873046875,-0.010003847070038319,-0.003032163716852665,-0.0006682537496089935
1772457616496767700,2.686767822265625,-0.008676264435052872,-0.013118557631969452,0.005474623292684555
1772457616506836700,2.696836669921875,-0.0056953877210617065,-0.025031674653291702,0.001779753714799881
1772457616516904700,2.70690478515625,-0.0011520327534526587,-0.014966587536036968,-0.003784418571740389
1772457616526973700,2.7169736328125,-0.004677525721490383,0.005036415532231331,0.001235107658430934
1772457616537042700,2.727042724609375,-0.0024284410756081343,0.023317985236644745,0.00468047708272934
1772457616547111700,2.737111572265625,-0.01390746422111988,0.0299705620855093,0.012439331039786339
1772457616557179600,2.7471796875,-0.0166273545473814,0.02705259807407856,0.019252261146903038
1772457616567248600,2.75724853515625,-0.017850810661911964,0.013189246878027916,0.02082858607172966
1772457616577317600,2.767317626953125,-0.014062819071114063,0.00013862410560250282,0.02105141244828701
1772457616587386600,2.77738671875,-0.009934119880199432,-0.015604120679199696,0.014680864289402962
1772457616597455600,2.78745556640625,-0.0056273434311151505,-0.02368614450097084,-0.0021618716418743134
1772457616607523600,2.797523681640625,-0.0037362328730523586,-0.012899809516966343,-0.007685001473873854
1772457616617592800,2.8075927734375,-0.005941195413470268,0.004151979926973581,-0.012196279130876064
1772457616627661800,2.817661865234375,-0.01262626238167286,0.025532901287078857,-0.01249748282134533
1772457616637730600,2.82773046875,-0.017406482249498367,0.034083928912878036,-0.008252916857600212
1772457616647798800,2.837798828125,-0.021962352097034454,0.031555257737636566,-0.017125504091382027
1772457616657867800,2.84786767578125,-0.02457699552178383,0.012997055426239967,-0.0237860307097435
1772457616667936800,2.857936767578125,-0.021368153393268585,-0.004510299768298864,-0.027258526533842087
1772457616678005800,2.868005859375,-0.013790862634778023,-0.01310903299599886,-0.024819662794470787
1772457616688074500,2.878074462890625,-0.007553473114967346,-0.0033797062933444977,-0.022945065051317215
1772457616698142700,2.888142822265625,-0.008363433182239532,-0.008450636640191078,-0.015415026806294918
1772457616708211700,2.898211669921875,-0.008970633149147034,-0.008524138480424881,-0.01169752050191164
1772457616718280700,2.90828076171875,-0.01112905703485012,-0.01100112684071064,-0.003975504077970982
1772457616728349700,2.918349609375,-0.013370107859373093,-0.015191877260804176,-0.0007083381060510874
1772457616738417700,2.928417724609375,-0.013677878305315971,-0.009609290398657322,-0.00029120827093720436
1772457616748486700,2.938486572265625,-0.010624831542372704,-0.0031687021255493164,0.003432157216593623
1772457616758555600,2.9485556640625,-0.007524712942540646,-0.0006139511242508888,0.004098035395145416
1772457616768625000,2.958625,-0.008852032944560051,-0.0065778340213000774,0.00902541633695364
1772457616778693600,2.968693603515625,-0.007878913544118404,-0.012250633910298347,0.011639309115707874
1772457616788761600,2.97876171875,-0.01333413366228342,-0.007773327175527811,0.009179879911243916
1772457616798830800,2.988830810546875,-0.014328841120004654,-0.008334831334650517,0.006909600459039211
1772457616808899600,2.998899658203125,-0.011959427036345005,-0.008951086550951004,0.008165014907717705
1772457616818968800,3.00896875,-0.004301687702536583,0.0007147197611629963,0.011230691336095333
1772457616829037600,3.01903759765625,0.004456650465726852,0.012891757301986217,0.02213553711771965
1772457616839105500,3.02910546875,0.010132534429430962,-0.008986759930849075,0.024389656260609627
1772457616849174800,3.0391748046875,0.01740536093711853,-0.0007554618641734123,0.03275411203503609
1772457616859243500,3.049243408203125,0.014754405245184898,0.006722926627844572,0.040712129324674606
1772457616869312800,3.059312744140625,0.01434667594730854,0.010954422876238823,0.037936050444841385
1772457616879380700,3.069380615234375,0.008687922731041908,0.012250564992427826,0.03734385222196579
1772457616889449500,3.079449462890625,0.003798891557380557,0.011381308548152447,0.037380870431661606
1772457616899518700,3.089518798828125,-0.0008789233397692442,0.025534603744745255,0.0491713210940361
1772457616909587700,3.099587646484375,-0.006364502944052219,0.03092670626938343,0.05708996579051018
1772457616919656700,3.10965673828125,-0.012176650576293468,0.025107618421316147,0.06291302293539047
1772457616929724700,3.119724609375,-0.01852962002158165,0.015992149710655212,0.06802522391080856
1772457616939793700,3.129793701171875,-0.024867260828614235,0.004711208865046501,0.0683073103427887
1772457616949862700,3.139862548828125,-0.02555781789124012,-0.016944019123911858,0.05617315322160721
1772457616959931600,3.149931640625,-0.02526693604886532,-0.032560981810092926,0.04381895437836647
1772457616970000000,3.159999755859375,-0.018027132377028465,-0.019972216337919235,0.03709767013788223
1772457616980068600,3.170068603515625,-0.012398295104503632,0.0028518245089799166,0.029534123837947845
1772457616990137900,3.180137939453125,-0.006685814820230007,0.013956939801573753,0.028448883444070816
1772457617000206600,3.19020654296875,-0.010363660752773285,0.010022871196269989,0.025379687547683716
1772457617010275600,3.200275634765625,-0.013652132824063301,0.004949016496539116,0.016770754009485245
1772457617020344000,3.210343994140625,-0.015565437264740467,0.0019736639223992825,0.011423315852880478
1772457617030412800,3.220412841796875,-0.019507449120283127,0.0072848061099648476,0.006874903105199337
1772457617040482000,3.23048193359375,-0.018375828862190247,0.013247987255454063,0.00040908483788371086
1772457617050551000,3.240551025390625,-0.015408268198370934,0.01304265670478344,-0.003901774063706398
1772457617060618800,3.25061865234375,-0.010281725786626339,0.011264100670814514,-0.006097886711359024
1772457617070688000,3.26068798828125,-0.0035346075892448425,0.012496878392994404,-0.009242547675967216
1772457617080757000,3.270757080078125,-0.00005492428317666054,0.020029958337545395,-0.009387393482029438
1772457617090826000,3.280825927734375,-0.0003577256575226784,0.019848329946398735,-0.01706209033727646
1772457617100895000,3.29089501953125,0.002437375485897064,0.013533230870962143,-0.022720294073224068
1772457617110963000,3.300962890625,0.004361775703728199,0.003916556481271982,-0.016907410696148872
1772457617121032000,3.311031982421875,0.012916713953018188,-0.008025508373975754,-0.019010035321116447
1772457617131101000,3.321100830078125,0.01858445256948471,-0.034335944801568985,-0.014350302517414093
1772457617141170000,3.331169921875,0.015865541994571686,-0.040759023278951645,-0.015558656305074692
1772457617151239000,3.341239013671875,0.011496893130242825,-0.01647365652024746,-0.011477895081043243
1772457617161307000,3.351306884765625,0.007519133388996124,0.013326707296073437,-0.011085587553679943
1772457617171375900,3.3613759765625,0.002275901846587658,0.04028322547674179,-0.008910850621759892
1772457617181444900,3.37144482421875,-0.0018736140336841345,0.05385279282927513,-0.0010513672605156898
1772457617191514000,3.38151416015625,0.0020976916421204805,0.048518482595682144,0.0019516132306307554
1772457617201582000,3.39158203125,0.009339711628854275,0.027786433696746826,0.007630649954080582
1772457617211650800,3.40165087890625,0.016610940918326378,0.0018341958057135344,0.006675906479358673
1772457617221720000,3.411719970703125,0.020392097532749176,-0.010677866637706757,0.008167809806764126
1772457617231788800,3.421788818359375,0.020740171894431114,-0.006190441083163023,0.012954042293131351
1772457617241858000,3.431858154296875,0.022930601611733437,-0.000039651058614254,0.01569080352783203
1772457617251926000,3.441926025390625,0.02361450158059597,0.008623612113296986,0.015202113427221775
1772457617261994800,3.451994873046875,0.02455887943506241,0.008753088302910328,0.014134888537228107
1772457617272064000,3.46206396484375,0.02276097796857357,0.000754284206777811,0.009091660380363464
1772457617282132700,3.4721328125,0.0204752329736948,-0.004794376902282238,0.0026857315097004175
1772457617292201000,3.482200927734375,0.020175093784928322,-0.00925437267869711,-0.009484382346272469
1772457617302270000,3.49227001953125,0.02031642198562622,-0.010201255790889263,-0.026466673240065575
1772457617312339000,3.5023388671875,0.019204817712306976,0.0011954759247601032,-0.03765355050563812
1772457617322408000,3.512407958984375,0.015147246420383453,0.017665576189756393,-0.03817029669880867
1772457617332477000,3.522476806640625,0.006334580481052399,0.03564377874135971,-0.029461227357387543
1772457617342545200,3.532545166015625,-0.005327778868377209,0.02890240214765072,-0.024256858974695206
1772457617352614000,3.54261376953125,-0.01643609069287777,0.011257627978920937,-0.01339116320014
1772457617362683100,3.55268310546875,-0.024250537157058716,-0.009945846162736416,-0.006852360442280769
1772457617372752000,3.562751953125,-0.0239701084792614,-0.017979538068175316,-0.0041388655081391335
1772457617382819800,3.57281982421875,-0.020650411024689674,-0.012160714715719223,0.000046766363084316254
1772457617392889000,3.58288916015625,-0.014772282913327217,0.005764489062130451,-0.005301659926772118
1772457617402957800,3.592957763671875,-0.011389361694455147,0.017415549606084824,-0.012565750628709793
1772457617413027000,3.603027099609375,-0.011491626501083374,0.014753719791769981,-0.023289768025279045
1772457617423096000,3.613095947265625,-0.010871640406548977,0.009962894953787327,-0.034660957753658295
1772457617433163800,3.623163818359375,-0.0060784826055169106,0.009627336636185646,-0.04307228699326515
1772457617443233000,3.63323291015625,-0.0008740909397602081,0.01946089044213295,-0.04429034888744354
1772457617453302000,3.643302001953125,0.0012385945301502943,0.03205231577157974,-0.05185266211628914
1772457617463371000,3.65337109375,0.0009426786564290524,0.028188176453113556,-0.04397965967655182
1772457617473439000,3.66343896484375,0.003341920441016555,0.022113505750894547,-0.03945628181099892
1772457617483508000,3.673508056640625,0.0005940257105976343,0.013577507808804512,-0.03137815371155739
1772457617493577000,3.683576904296875,0.004730979911983013,-0.002987354528158903,-0.027996202930808067
1772457617503646000,3.69364599609375,0.013201139867305756,-0.006849456578493118,-0.02293659932911396
1772457617513715000,3.70371484375,0.01942308247089386,-0.00761085469275713,-0.023161370307207108
1772457617523783000,3.713782958984375,0.023890558630228043,0.008027213625609875,-0.018891388550400734
1772457617533852000,3.723851806640625,0.018920835107564926,0.021281765773892403,-0.009818797931075096
1772457617543921000,3.7339208984375,0.020180441439151764,0.01946919783949852,-0.001552786910906434
1772457617553990000,3.743989990234375,0.0127483569085598,0.0025421464815735817,0.00476476363837719
1772457617564058000,3.75405810546875,0.015230316668748856,-0.013218083418905735,0.009769625961780548
1772457617574126800,3.764126953125,0.016138188540935516,-0.013603976927697659,0.01621421054005623
1772457617584195800,3.77419580078125,0.020846476778388023,-0.013043251819908619,0.008809404447674751
1772457617594265000,3.78426513671875,0.015531606040894985,-0.0028681131079792976,-0.002154564019292593
1772457617604333800,3.794333740234375,0.012738728895783424,0.011160839349031448,-0.005705260206013918
1772457617614402000,3.804402099609375,0.008840126916766167,0.02127579227089882,-0.009878166951239109
1772457617624471000,3.814470947265625,0.0055208285339176655,0.014032607898116112,-0.009434542618691921
1772457617634539800,3.824539794921875,0.007326984778046608,0.01088821329176426,-0.01522984728217125
1772457617644609000,3.834609130859375,0.01225149817764759,0.005737537518143654,-0.010536055080592632
1772457617654677800,3.844677734375,0.016687259078025818,-0.0026908349245786667,-0.01422693021595478
1772457617664746000,3.85474609375,0.01875891163945198,-0.008990856818854809,-0.018924379721283913
1772457617674815000,3.86481494140625,0.017689917236566544,-0.009984748438000679,-0.02342485636472702
1772457617684883700,3.8748837890625,0.012094354256987572,-0.004567141178995371,-0.0321027971804142
1772457617694953000,3.884952880859375,0.003327227896079421,0.00977637805044651,-0.02705371007323265
1772457617705021000,3.89502099609375,0.00260084867477417,0.035541292279958725,-0.014534839428961277
1772457617715090000,3.90508984375,-0.0005502034910023212,0.041025541722774506,0.001884880242869258
1772457617725159000,3.915158935546875,-0.0026126413140445948,0.029616430401802063,0.011694521643221378
1772457617735228200,3.925228271484375,0.000504055991768837,0.0082930326461792,0.01709594391286373
1772457617745297000,3.935296875,0.0011962319258600473,-0.009949041530489922,0.014037208631634712
1772457617755364900,3.94536474609375,-0.0030547059141099453,-0.007551131770014763,0.008726066909730434
1772457617765434000,3.95543408203125,-0.004458239302039146,0.004705030005425215,-0.006331722252070904
1772457617775502800,3.9655029296875,-0.0038933828473091125,0.020591318607330322,-0.011560040526092052
1772457617785572000,3.975572021484375,-0.0010531879961490631,0.03385511040687561,-0.011198323220014572
1772457617795640000,3.98564013671875,0.003232637420296669,0.038689278066158295,-0.0024013689253479242
1772457617805708800,3.995708740234375,0.010043518617749214,0.018983006477355957,0.0019035805016756058
1772457617815777000,4.005777099609375,0.015384755097329617,-0.0012599462643265724,0.013019349426031113
1772457617825846000,4.015845947265625,0.015461319126188755,-0.027139583602547646,0.01703394576907158
1772457617835914800,4.025914794921875,0.018752187490463257,-0.03729022294282913,0.021532824262976646
1772457617845984000,4.03598388671875,0.02165960520505905,-0.025227397680282593,0.016328779980540276
1772457617856053000,4.046052978515625,0.02297067828476429,-0.00010659918189048767,0.019875578582286835
1772457617866121000,4.056120849609375,0.024854643270373344,0.016533663496375084,0.014255283400416374
1772457617876190000,4.06618994140625,0.02675161324441433,0.015772266313433647,0.005586160346865654
1772457617886259000,4.076259033203125,0.0245925672352314,0.01949804276227951,0.003563352394849062
1772457617896328000,4.086327880859375,0.02229425683617592,0.009457392618060112,0.003792916890233755
1772457617906396000,4.09639599609375,0.021890148520469666,-0.0034796223044395447,0.004549774341285229
1772457617916465200,4.106465087890625,0.01553771086037159,-0.006706042215228081,0.0077919065952301025
1772457617926534000,4.116533935546875,0.013316786848008633,-0.004936425946652889,0.008367202244699001
1772457617936603000,4.126602783203125,0.011444318108260632,-0.0012900261208415031,0.007238022051751614
1772457617946671900,4.136671875,0.007080666720867157,0.0015524905174970627,0.004709905944764614
1772457617956739800,4.14673974609375,0.005557871423661709,-0.0005881586112082005,0.0009740234818309546
1772457617966809000,4.15680908203125,0.004532534163445234,0.00004296470433473587,-0.006957841571420431
1772457617976877800,4.1668779296875,0.0050398665480315685,0.007836971431970596,-0.010121144354343414
1772457617986947000,4.176947021484375,0.0052217524498701096,0.019916124641895294,-0.014728874899446964
1772457617997015000,4.18701513671875,0.004892319440841675,0.015820715576410294,-0.014405567198991776
1772457618007083800,4.197083740234375,0.003536597592756152,-0.006604957394301891,-0.011778580024838448
1772457618017152800,4.20715283203125,0.0036391292233020067,-0.030238382518291473,-0.009440856985747814
1772457618027221800,4.2172216796875,0.0030174539424479008,-0.03761933743953705,-0.008345011621713638
1772457618037290800,4.227290771484375,-0.0019637225195765495,-0.02649611420929432,-0.0069860005751252174
1772457618047358700,4.237358642578125,-0.006364129483699799,-0.006975226569920778,-0.0019288647454231977
1772457618057427700,4.247427734375,-0.010700288228690624,0.014122601598501205,0.0012376338709145784
1772457618067496700,4.25749658203125,-0.01382987666875124,0.01817202940583229,0.004973502829670906
1772457618077565700,4.267565673828125,-0.011853277683258057,0.010841144248843193,0.00857516098767519
1772457618087633700,4.277633544921875,-0.00649604294449091,-0.004385698586702347,0.0028162458911538124
1772457618097702700,4.28770263671875,-0.002509023994207382,-0.013001024723052979,-0.00014945026487112045
1772457618107771600,4.297771728515625,-0.003757759463042021,-0.02178754284977913,-0.00281270919367671
1772457618117840600,4.307840576171875,-0.0032379101030528545,-0.015214596875011921,-0.0007010886911302805
1772457618127909600,4.31790966796875,-0.004176518879830837,0.0022593531757593155,0.008340628817677498
1772457618137977600,4.3279775390625,-0.0027842181734740734,0.014591120183467865,0.014269623905420303
1772457618148046800,4.338046875,-0.0051260702311992645,0.0127494428306818,0.022057389840483665
1772457618158116900,4.348116943359375,-0.002025085734203458,-0.005075892899185419,0.019752155989408493
1772457618168184800,4.358184814453125,0.002499558962881565,-0.026247840374708176,0.007934438064694405
1772457618178253600,4.368253662109375,0.008649064227938652,-0.034250106662511826,-0.005103865638375282
1772457618188322800,4.37832275390625,0.010051709599792957,-0.018779899924993515,-0.010652633383870125
1772457618198391600,4.3883916015625,0.006026607938110828,0.0005892710760235786,-0.011130405589938164
1772457618208459500,4.39845947265625,0.0020909435115754604,0.0070950728841125965,-0.008900046348571777
1772457618218528800,4.40852880859375,-0.001953332917764783,-0.005147744435817003,-0.0016077783657237887
1772457618228597800,4.41859765625,0.0027639002073556185,-0.02073068544268608,-0.0008366629481315613
1772457618238666800,4.428666748046875,0.003130883676931262,-0.03253168612718582,0.00239747972227633
1772457618248735700,4.43873583984375,0.0031887886580079794,-0.028665784746408463,0.003125534625723958
1772457618258803700,4.4488037109375,0.0007037930190563202,-0.02252054028213024,0.007880076766014099
1772457618268872700,4.458872802734375,0.00042314082384109497,-0.024509619921445847,0.006627362221479416
1772457618278941700,4.468941650390625,-0.00551863806322217,-0.02916748821735382,0.0044361138716340065
1772457618289010700,4.4790107421875,-0.007177344523370266,-0.03245709463953972,-0.0017494200728833675
1772457618299078700,4.48907861328125,-0.007617032155394554,-0.023153875023126602,-0.0031840649899095297
1772457618309147600,4.499147705078125,-0.009358476847410202,0.0019328971393406391,0.007781533058732748
1772457618319216600,4.509216552734375,-0.010966227389872074,0.020481280982494354,0.015282059088349342
1772457618329285600,4.51928564453125,-0.009472236037254333,0.01534314826130867,0.022636307403445244
1772457618339355000,4.52935498046875,-0.012648588046431541,-0.010012540966272354,0.02261500246822834
1772457618349422600,4.539422607421875,-0.0074358065612614155,-0.03962882608175278,0.021977631375193596
1772457618359491600,4.54949169921875,-0.0003555263392627239,-0.05196911469101906,0.015763944014906883
1772457618369560800,4.559560791015625,0.0034577641636133194,-0.0424121618270874,0.006245461292564869
1772457618379629600,4.569629638671875,0.0006984630599617958,-0.011522688902914524,0.0014158189296722412
1772457618389697800,4.57969775390625,-0.0015809126198291779,0.01846795156598091,0.0027797608636319637
1772457618399766800,4.589766845703125,-0.010668416507542133,0.030208231881260872,0.011085361242294312
1772457618409835800,4.599835693359375,-0.017452310770750046,0.030205048620700836,0.02090536430478096
1772457618419904800,4.60990478515625,-0.01837536320090294,0.014969371259212494,0.0345495380461216
1772457618429973500,4.619973388671875,-0.0166800357401371,-0.006719774100929499,0.03347301483154297
1772457618440041700,4.630041748046875,-0.014807035215198994,-0.027453280985355377,0.02246164344251156
1772457618450110700,4.64011083984375,-0.015060992911458015,-0.03389396145939827,-0.0004910638090223074
1772457618460179700,4.6501796875,-0.012073990888893604,-0.02204209379851818,-0.024232877418398857
1772457618470248700,4.660248779296875,-0.005531265400350094,-0.004332296550273895,-0.044817965477705
1772457618480316700,4.670316650390625,0.0011348933912813663,0.004617522470653057,-0.05352357402443886
1772457618490385700,4.6803857421875,0.0010737511329352856,0.010753294453024864,-0.05057574063539505
1772457618500454700,4.69045458984375,-0.003527658525854349,0.020456787198781967,-0.03412779048085213
1772457618510524000,4.70052392578125,-0.01168026588857174,0.009008083492517471,-0.014288920909166336
1772457618520592600,4.710592529296875,-0.014953557401895523,-0.009818334132432938,-0.002309223636984825
1772457618530660600,4.72066064453125,-0.01931818760931492,-0.02287103235721588,0.0036441448610275984
1772457618540729900,4.730729736328125,-0.01764705404639244,-0.016271986067295074,-0.000677366741001606
1772457618550798600,4.740798583984375,-0.013174852356314659,0.0033445570152252913,-0.0012768832966685295
1772457618560867800,4.750867919921875,-0.007129743695259094,0.01676981896162033,-0.010258394293487072
1772457618570935800,4.760935791015625,-0.007722292561084032,0.035113878548145294,-0.00942991953343153
1772457618581004500,4.771004638671875,-0.007530278991907835,0.04235874116420746,-0.0028186219278723
1772457618591073800,4.78107373046875,-0.007431365549564362,0.034322500228881836,0.002639774000272155
1772457618601142500,4.791142578125,-0.0021630998235195875,0.028010010719299316,0.013243150897324085
1772457618611211800,4.801211669921875,0.0014000337105244398,0.017474349588155746,0.026523344218730927
1772457618621279700,4.81127978515625,0.004031236749142408,0.0032067301217466593,0.03503187745809555
1772457618631348700,4.8213486328125,0.005550676956772804,-0.012140891514718533,0.036980532109737396
1772457618641417700,4.831417724609375,0.006138702854514122,-0.010042852722108364,0.041493259370326996
1772457618651486700,4.84148681640625,0.005159126129001379,-0.0058700283989310265,0.03953908756375313
1772457618661554700,4.8515546875,0.005765527952462435,-0.0050817327573895454,0.034225545823574066
1772457618671623700,4.861623779296875,0.0037789654452353716,0.0013672620989382267,0.02275746315717697
1772457618681692700,4.871692626953125,0.004571788478642702,0.0059779928997159,0.015986375510692596
1772457618691761700,4.88176171875,0.005831795744597912,0.014056241139769554,0.010843753814697266
1772457618701830700,4.89183056640625,0.0016754003008827567,0.008585575968027115,0.00852733664214611
1772457618711899000,4.90189892578125,-0.0020449250005185604,-0.003238476812839508,0.009039442986249924
1772457618721967600,4.911967529296875,-0.002063566818833351,-0.009520607069134712,0.007140608504414558
1772457618732036600,4.92203662109375,-0.0016297830734401941,-0.012584874406456947,0.006487828679382801
1772457618742105600,4.932105712890625,0.0002714477013796568,-0.007650037296116352,0.010459933429956436
1772457618752174600,4.942174560546875,0.0012361588887870312,-0.001592088956385851,0.009340553544461727
1772457618762242800,4.952242919921875,0.002765079727396369,-0.0025068847462534904,0.009524844586849213
1772457618772311800,4.962311767578125,0.00464881956577301,-0.0047371541149914265,0.009059169329702854
1772457618782380500,4.972380615234375,0.0008367709815502167,-0.003050041850656271,0.008229861035943031
1772457618792449800,4.98244970703125,0.0017177894478663802,0.005471309646964073,0.0078043267130851746
1772457618802517800,4.992517822265625,-0.006408579647541046,0.00815817341208458,0.012285361997783184
1772457618812586800,5.002586669921875,-0.012866565957665443,0.007357231806963682,0.012253823690116405
1772457618822655700,5.01265576171875,-0.011981597170233727,0.0024407701566815376,0.016557492315769196
1772457618832724700,5.022724853515625,-0.010624032467603683,0.0034732220228761435,0.015615586191415787
1772457618842793700,5.032793701171875,-0.005956842098385096,-0.00026612263172864914,0.015539152547717094
1772457618852861700,5.04286181640625,-0.00547141395509243,-0.005344852805137634,0.010994261130690575
1772457618862930700,5.0529306640625,-0.0030378170777112246,-0.0025128470733761787,0.011362576857209206
1772457618872999700,5.062999755859375,-0.002274423837661743,0.0033507985062897205,0.00444889348000288
1772457618883068700,5.073068603515625,-0.002297859638929367,0.006764971185475588,0.0010757334530353546
1772457618893136600,5.08313671875,-0.0040077874436974525,0.012727120891213417,0.002030050614848733
1772457618903205600,5.09320556640625,0.0015630125999450684,0.005988257471472025,0.0015746501740068197
1772457618913275000,5.10327490234375,0.002968520624563098,-0.012057233601808548,-0.0033889582846313715
1772457618923343600,5.113343505859375,0.005011697765439749,-0.015714818611741066,-0.009587998501956463
1772457618933412900,5.123412841796875,0.006178339011967182,-0.015023531392216682,-0.013420898467302322
1772457618943480800,5.133480712890625,0.007635087706148624,-0.0070700012147426605,-0.013766310177743435
1772457618953549600,5.143549560546875,0.003808547742664814,-0.00022978801280260086,-0.012935384176671505
1772457618963618800,5.153618896484375,-0.0008125696331262589,0.009067839942872524,-0.007365116383880377
1772457618973687600,5.1636875,-0.007173664402216673,0.005314279347658157,-0.0008633935358375311
1772457618983756800,5.1737568359375,-0.010767333209514618,0.00238879700191319,0.009928267449140549
1772457618993824800,5.18382470703125,-0.01153227686882019,-0.006934853736311197,0.012714589014649391
1772457619003893500,5.1938935546875,-0.010347436182200909,-0.012793010100722313,0.012569978833198547
1772457619013962000,5.2039619140625,-0.00911666452884674,-0.011265929788351059,0.01319336798042059
1772457619024031000,5.214031005859375,-0.010987268760800362,-0.009797729551792145,0.015048791654407978
1772457619034099200,5.22409912109375,-0.011230278760194778,-0.006539848167449236,0.014548744075000286
1772457619044168000,5.23416796875,-0.012524042278528214,0.0014328574761748314,0.01718341000378132
1772457619054237000,5.24423681640625,-0.016349852085113525,0.004961144179105759,0.017295369878411293
1772457619064306000,5.254305908203125,-0.020323555916547775,0.0038785692304372787,0.01872602105140686
1772457619074375000,5.264375,-0.017799189314246178,-0.005668364930897951,0.01772196963429451
1772457619084443100,5.274443115234375,-0.012324262410402298,-0.012794982641935349,0.0142052648589015
1772457619094511900,5.284511962890625,-0.0072515602223575115,-0.018937427550554276,0.005616195499897003
1772457619104580900,5.294580810546875,-0.01117279939353466,-0.01225555781275034,-0.0036976775154471397
1772457619114650000,5.304650146484375,-0.015363438054919243,0.0005450421012938023,-0.013791077770292759
1772457619124717800,5.3147177734375,-0.01895178109407425,0.008646378293633461,-0.01785692572593689
1772457619134787000,5.324787109375,-0.016253843903541565,0.013400536961853504,-0.0155503423884511
1772457619144856000,5.33485595703125,-0.01724906638264656,0.012969903647899628,-0.008348887786269188
1772457619154925000,5.344925048828125,-0.017129601910710335,0.0019131421577185392,0.0012294563930481672
1772457619164994000,5.354994140625,-0.015367122367024422,-0.005950639955699444,0.010931884869933128
1772457619175062000,5.36506201171875,-0.01757832057774067,-0.0054979161359369755,0.016530517488718033
1772457619185131000,5.375131103515625,-0.014522342942655087,-0.00534638250246644,0.00923611968755722
1772457619195200000,5.385199951171875,-0.015407713130116463,-0.014263814315199852,-0.0019202444236725569
1772457619205269000,5.39526904296875,-0.007186800707131624,-0.012053389102220535,-0.015677601099014282
1772457619215337000,5.4053369140625,0.00008027767762541771,-0.016028575599193573,-0.022021004930138588
1772457619225406000,5.415406005859375,0.0055101970210671425,-0.015018436126410961,-0.014681066386401653
1772457619235475000,5.425474853515625,0.0024999785237014294,-0.004364964552223682,-0.002132264431566
1772457619245544000,5.4355439453125,-0.004329165443778038,-0.004289863631129265,0.014855774119496346
1772457619255613200,5.44561328125,-0.007751614786684513,-0.014957735314965248,0.022030163556337357
1772457619265681200,5.45568115234375,-0.012656624428927898,-0.026909470558166504,0.020114019513130188
1772457619275750000,5.46575,-0.010194439440965652,-0.024860428646206856,0.017130527645349503
1772457619285819100,5.475819091796875,-0.012540417723357677,-0.002674699295312166,0.012067858129739761
1772457619295888000,5.485887939453125,-0.014573675580322742,0.022517820820212364,0.007088488899171352
1772457619305955800,5.495955810546875,-0.01510098297148943,0.02718421258032322,0.007874920032918453
1772457619316025000,5.506025146484375,-0.016448475420475006,0.018682152032852173,0.008329729549586773
1772457619326093800,5.51609375,-0.012522976845502853,0.01198696531355381,0.010017374530434608
1772457619336163000,5.5261630859375,-0.013240234926342964,0.006128523498773575,0.01463751494884491
1772457619346232000,5.536232177734375,-0.008917391300201416,-0.011696547269821167,0.01127341017127037
1772457619356299800,5.5462998046875,-0.006958879064768553,-0.021349720656871796,0.01411487441509962
1772457619366369000,5.556369140625,-0.007326927501708269,-0.023890908807516098,0.015339662320911884
1772457619376438000,5.56643798828125,-0.005461805500090122,-0.019992724061012268,0.014905547723174095
1772457619386507000,5.576507080078125,-0.004709196276962757,-0.01729494147002697,0.015570539981126785
1772457619396575000,5.586574951171875,-0.006722213700413704,-0.006084016524255276,0.00816396251320839
1772457619406644200,5.596644287109375,-0.010380597785115242,0.009001991711556911,0.009360522031784058
1772457619416713000,5.606712890625,-0.011696534231305122,0.022432295605540276,0.005564537364989519
1772457619426782000,5.616781982421875,-0.013275789096951485,0.018226897343993187,0.006648976821452379
1772457619436851000,5.626850830078125,-0.010081722401082516,0.007426752708852291,0.0028234366327524185
1772457619446919000,5.6369189453125,-0.009571727365255356,0.0035443962551653385,0.0038788472302258015
1772457619456988200,5.64698828125,-0.004355018958449364,-0.0027516703121364117,0.00680061150342226
1772457619467057000,5.657056884765625,0.002744169207289815,-0.004384987521916628,0.011857688426971436
1772457619477126000,5.6671259765625,0.005477371625602245,-0.01893809624016285,0.01395572628825903
1772457619487195100,5.677195068359375,0.007269944995641708,-0.030387558043003082,0.01221854705363512
1772457619497262800,5.687262939453125,0.010534163564443588,-0.025262415409088135,0.01337415724992752
1772457619507332000,5.69733203125,0.011841775849461555,-0.019842883571982384,0.007885649800300598
1772457619517401000,5.707401123046875,0.009389336220920086,-0.004816447850316763,0.0016620506066828966
1772457619527469800,5.7174697265625,0.006743486039340496,0.008193094283342361,0.0002521732822060585
1772457619537538000,5.7275380859375,0.008289361372590065,0.025361360982060432,0.005099048838019371
1772457619547607000,5.73760693359375,0.00499449810013175,0.02612888254225254,0.010991026647388935
1772457619557676000,5.747676025390625,-0.0000344857107847929,0.016626155003905296,0.017667477950453758
1772457619567745000,5.7577451171875,-0.002277932595461607,0.010937642306089401,0.02573605626821518
1772457619577814000,5.76781396484375,-0.00028093671426177025,-0.004655613098293543,0.03404298424720764
1772457619587882000,5.777882080078125,0.0037574805319309235,-0.01762920245528221,0.02843463234603405
1772457619597951000,5.787950927734375,0.009608244523406029,-0.020945554599165916,0.02757597155869007
1772457619608020000,5.79802001953125,0.016191579401493073,-0.01800808683037758,0.020674655213952065
1772457619618089000,5.8080888671875,0.01231069304049015,-0.016074858605861664,0.015700487419962883
1772457619628157000,5.818156982421875,0.007863214239478111,0.006731389090418816,0.009919562377035618
1772457619638226000,5.828225830078125,0.0052931043319404125,0.020392516627907753,0.009867646731436253
1772457619648295000,5.838294921875,0.003541276790201664,0.011838975362479687,0.01204744353890419
1772457619658364200,5.8483642578125,0.005091703496873379,-0.004871377255767584,0.010727107524871826
1772457619668433000,5.858432861328125,0.008653948083519936,-0.02140028588473797,0.004079058766365051
1772457619678500900,5.8685009765625,0.00903983972966671,-0.021321456879377365,-0.003782060230150819
1772457619688570000,5.878570068359375,0.008756745606660843,0.00249892077408731,-0.00519513338804245
1772457619698638800,5.888638916015625,0.005907921120524406,0.020675700157880783,-0.0056575327180325985
1772457619708708000,5.8987080078125,0.002589089795947075,0.025070980191230774,-0.006188566796481609
1772457619718776000,5.908776123046875,-0.001597780268639326,0.015363969840109348,-0.004735225345939398
1772457619728844800,5.9188447265625,-0.006368034053593874,-0.001904499251395464,0.000804948853328824
1772457619738914000,5.9289140625,-0.008812344633042812,-0.011446746066212654,-0.003926935140043497
1772457619748982800,5.938982666015625,-0.012148486450314522,-0.013039583340287209,-0.007906230166554451
1772457619759052000,5.949052001953125,-0.010308095254004002,-0.010100980289280415,-0.012617252767086029
1772457619769120000,5.9591201171875,-0.010021273046731949,-0.0054138172417879105,-0.01509026437997818
1772457619779189000,5.96918896484375,-0.009385131299495697,0.00606800289824605,-0.006542684976011515
1772457619789258000,5.979258056640625,-0.014967117458581924,0.011373552493751049,0.009708723053336143
1772457619799327000,5.989326904296875,-0.018714915961027145,0.0006783162243664265,0.020373530685901642
1772457619809395200,5.999395263671875,-0.024905167520046234,-0.011011096648871899,0.030555061995983124
1772457619819464000,6.0094638671875,-0.02310864068567753,-0.01707441173493862,0.027179166674613953
1772457619829533200,6.019533203125,-0.022850047796964645,-0.012390710413455963,0.023721585050225258
1772457619839602000,6.029601806640625,-0.016052022576332092,-0.011697926558554173,0.012287375517189503
1772457619849671000,6.0396708984375,-0.01281787920743227,-0.008238745853304863,0.008110739290714264
1772457619859739100,6.0497392578125,-0.013639885932207108,-0.005853236187249422,0.010889195837080479
1772457619869807900,6.059807861328125,-0.015778137370944023,0.006134716793894768,0.019039800390601158
1772457619879877000,6.069877197265625,-0.015946511179208755,0.013513927347958088,0.022573040798306465
1772457619889945900,6.07994580078125,-0.016239192336797714,0.009275240823626518,0.0216438639909029
1772457619900014800,6.090014892578125,-0.013862944208085537,-0.006053185556083918,0.009912827983498573
1772457619910083000,6.1000830078125,-0.012936430983245373,-0.015046147629618645,0.003990490920841694
1772457619920152000,6.110152099609375,-0.009151676669716835,-0.013140285387635231,-0.008026376366615295
1772457619930221000,6.120220947265625,-0.008423568680882454,-0.02072310447692871,-0.013276532292366028
1772457619940290000,6.1302900390625,-0.008142052218317986,-0.011367905884981155,-0.015127524733543396
1772457619950358000,6.14035791015625,-0.008702647872269154,-0.003445534035563469,-0.010112259536981583
1772457619960427000,6.150427001953125,-0.00489539559930563,0.004351464100182056,0.0005659845191985369
1772457619970496000,6.16049609375,-0.010776454582810402,-0.0002696528099477291,0.005997767671942711
1772457619980565000,6.17056494140625,-0.012511970475316048,-0.010054290294647217,0.009383917786180973
1772457619990634000,6.180634033203125,-0.016574889421463013,-0.012989094480872154,0.017198164016008377
1772457620000702000,6.190701904296875,-0.015049337409436703,-0.008822038769721985,0.008229216560721397
1772457620010771000,6.20077099609375,-0.013183527626097202,-0.0024427026510238647,-0.00009689014405012131
1772457620020840400,6.21084033203125,-0.006143972277641296,0.005245357286185026,-0.01530603226274252
1772457620030909200,6.2209091796875,-0.0007220432162284851,0.01488493476063013,-0.018992114812135696
1772457620040977400,6.230977294921875,0.005947356577962637,0.01909676007926464,-0.021174803376197815
1772457620051046400,6.24104638671875,0.008837152272462845,0.011476656422019005,-0.013527268543839455
1772457620061115400,6.251115478515625,0.00898245070129633,0.0019935560412704945,-0.0063100834377110004
1772457620071184400,6.261184326171875,0.005369872786104679,-0.008368004113435745,-0.0021089469082653522
1772457620081253400,6.27125341796875,0.008521408773958683,-0.016653869301080704,0.00274625513702631
1772457620091321300,6.2813212890625,0.012175798416137695,-0.02517225779592991,-0.0008695186115801334
1772457620101390300,6.291390380859375,0.015368690714240074,-0.02338455244898796,-0.006891089957207441
1772457620111459300,6.301459228515625,0.019544526934623718,-0.006587195210158825,-0.011697828769683838
1772457620121528300,6.3115283203125,0.019336730241775513,0.013388621620833874,-0.010116616263985634
1772457620131596300,6.32159619140625,0.014458086341619492,0.028291404247283936,-0.0067690229043364525
1772457620141665500,6.33166552734375,0.0034355493262410164,0.026552140712738037,0.0009551120456308126
1772457620151734300,6.341734375,-0.0007200471591204405,0.01001710630953312,0.012044780887663364
1772457620161803500,6.351803466796875,-0.0052071837708354,-0.0056244502775371075,0.021280759945511818
1772457620171872300,6.361872314453125,-0.007712152786552906,-0.023798393085598946,0.03030354715883732
1772457620181940200,6.371940185546875,-0.0049801054410636425,-0.024883434176445007,0.028058160096406937
1772457620192009500,6.382009521484375,-0.00508796377107501,-0.02178138494491577,0.026056263595819473
1772457620202078500,6.392078369140625,-0.002939214464277029,-0.019538618624210358,0.008617064915597439
1772457620212147500,6.4021474609375,-0.0027855499647557735,-0.009518742561340332,0.0044822413474321365
1772457620222215400,6.41221533203125,-0.002701414981856942,0.012018991634249687,-0.0014855391345918179
1772457620232284400,6.422284423828125,-0.0026233841199427843,0.0233499426394701,-0.0017486595315858722
1772457620242353400,6.432353515625,-0.004361629486083984,0.02262183465063572,-0.0035409668926149607
1772457620252422400,6.44242236328125,-0.00791242253035307,0.014688543975353241,-0.004474405199289322
1772457620262491400,6.452491455078125,-0.007061918266117573,0.004250435158610344,-0.005783595610409975
1772457620272559400,6.462559326171875,-0.002732417779043317,-0.001899602822959423,-0.00949977058917284
1772457620282628400,6.47262841796875,0.0015043392777442932,-0.010335512459278107,-0.009465091861784458
1772457620292697300,6.482697265625,0.007987005636096,-0.014046361669898033,-0.01996886543929577
1772457620302766300,6.492766357421875,0.009912844747304916,-0.0002981489524245262,-0.01603296585381031
1772457620312834300,6.502834228515625,0.008183654397726059,0.010551303625106812,-0.011083214543759823
1772457620322903300,6.5129033203125,0.00763300247490406,0.015336273238062859,-0.007638603448867798
1772457620332972300,6.52297216796875,0.0019357019336894155,0.014334924519062042,-0.007981618866324425
1772457620343041500,6.53304150390625,0.0015345190186053514,0.004276048392057419,-0.011891918256878853
1772457620353110300,6.5431103515625,-0.00030439370311796665,0.0029500601813197136,-0.009501464664936066
1772457620363178200,6.55317822265625,-0.001147570786997676,0.009002313017845154,-0.003629897255450487
1772457620373247500,6.56324755859375,-0.004023518413305283,0.009692338295280933,0.003801653627306223
1772457620383316200,6.573316162109375,-0.008801963180303574,0.0017303673084825277,0.004684966988861561
1772457620393385500,6.583385498046875,-0.0059310756623744965,-0.0049360571429133415,0.006196843460202217
1772457620403453400,6.593453369140625,-0.010618196800351143,-0.007417228072881699,0.013817016035318375
1772457620413522400,6.6035224609375,-0.009248534217476845,0.0016431116964668036,0.009964752942323685
1772457620423591400,6.61359130859375,-0.01174098253250122,0.006964311935007572,0.013397535309195518
1772457620433660200,6.62366015625,-0.016238529235124588,0.006915043108165264,0.0030287851113826036
1772457620443729400,6.6337294921875,-0.014366572722792625,0.0007306989282369614,0.001908296486362815
1772457620453797400,6.64379736328125,-0.012580391019582748,-0.0019154180772602558,-0.0034864689223468304
1772457620463866400,6.653866455078125,-0.011403359472751617,-0.007742277346551418,-0.01030587125569582
1772457620473935400,6.663935302734375,-0.011044898070394993,-0.003349926322698593,-0.0193057581782341
1772457620484004400,6.67400439453125,-0.008029313758015633,0.0022953059524297714,-0.023039663210511208
1772457620494073300,6.6840732421875,-0.008926799520850182,0.005217858590185642,-0.028982508927583694
1772457620504141300,6.694141357421875,-0.008621355518698692,0.01920499838888645,-0.025916580110788345
1772457620514210600,6.70421044921875,-0.007394437678158283,0.022602660581469536,-0.020982807502150536
1772457620524279300,6.714279296875,-0.008487418293952942,0.006201269570738077,-0.017438044771552086
1772457620534348300,6.724348388671875,-0.008259719237685204,-0.004088651854544878,-0.015557320788502693
1772457620544416500,6.73441650390625,-0.003056635381653905,-0.00636557349935174,-0.014243373647332191
1772457620554485200,6.7444853515625,-0.002248366130515933,-0.0005984986200928688,-0.01754382997751236
1772457620564554500,6.754554443359375,0.00010695122182369232,0.01300077699124813,-0.012490815483033657
1772457620574623200,6.764623291015625,-0.0001721479929983616,0.012466013431549072,-0.010428463108837605
1772457620584692500,6.7746923828125,-0.0006275905761867762,0.009196355007588863,-0.005658543203026056
1772457620594760400,6.784760498046875,-0.0010326574556529522,0.00945068709552288,0.0015756676439195871
1772457620604829200,6.7948291015625,-0.0002929866313934326,0.009481162764132023,0.007415426895022392
1772457620614898400,6.8048984375,0.003542497754096985,0.00913175567984581,0.009050874970853329
1772457620624967400,6.814967529296875,-0.0009352755732834339,0.01072147861123085,0.010999184101819992
1772457620635035400,6.825035400390625,-0.00549753662198782,0.003659574780613184,0.004742354154586792
1772457620645104400,6.8351044921875,-0.008024848066270351,0.010533386841416359,-0.0016877495218068361
1772457620655173400,6.84517333984375,-0.003769116709008813,0.009627645835280418,-0.009246866218745708
1772457620665242400,6.855242431640625,-0.0015151773113757372,-0.00003652414306998253,-0.013391525484621525
1772457620675310300,6.865310302734375,0.005559510085731745,-0.002861871849745512,-0.013822690583765507
1772457620685379300,6.87537939453125,0.011661898344755173,-0.006801437586545944,-0.00896944385021925
1772457620695448300,6.8854482421875,0.01845002919435501,-0.009806016460061073,-0.008673034608364105
1772457620705517300,6.895517333984375,0.02054809033870697,-0.014599187299609184,-0.004418231081217527
1772457620715586300,6.90558642578125,0.015295006334781647,-0.010710705071687698,-0.0022882348857820034
1772457620725654300,6.915654296875,0.015345116145908833,-0.004166956525295973,0.001829348737373948
1772457620735723300,6.92572314453125,0.012720038183033466,0.003188161877915263,0.005125543102622032
1772457620745792500,6.93579248046875,0.012703956104815006,0.010241575539112091,0.0019653826020658016
1772457620755861200,6.945861328125,0.013976681046187878,0.01926383189857006,-0.0009454521350562572
1772457620765930500,6.955930419921875,0.014376791194081306,0.016381194815039635,-0.00433666817843914
1772457620775998500,6.96599853515625,0.011849717237055302,0.011790704913437366,-0.004339597653597593
1772457620786067200,6.976067138671875,0.004777233116328716,0.015334534458816051,0.0024103226605802774
1772457620796136400,6.986136474609375,0.00460412772372365,0.0054046716541051865,0.007813610136508942
1772457620806205200,6.996205078125,0.007278826087713242,-0.017018752172589302,0.010625757277011871
1772457620816273400,7.0062734375,0.009353961795568466,-0.026296138763427734,0.014242064207792282
1772457620826342400,7.01634228515625,0.017326556146144867,-0.023350266739726067,0.015337441116571426
1772457620836411400,7.026411376953125,0.02906843274831772,-0.016979185864329338,0.013279881328344345
1772457620846480400,7.03648046875,0.03091171756386757,-0.009794926270842552,0.012083571404218674
1772457620856549400,7.04654931640625,0.029068276286125183,0.002888111863285303,0.006903988774865866
1772457620866617300,7.056617431640625,0.019914861768484116,0.02904711477458477,0.0028164172545075417
1772457620876686300,7.066686279296875,0.017874881625175476,0.024921612814068794,-0.006867102347314358
1772457620886755600,7.076755615234375,0.013669859617948532,0.019334416836500168,-0.0021850180346518755
1772457620896824300,7.08682421875,0.007952053099870682,0.008537962101399899,-0.0019360124133527279
1772457620906892300,7.096892333984375,0.0051954807713627815,-0.006832923740148544,0.0025098116602748632
1772457620916961500,7.10696142578125,0.011113823391497135,-0.011545654386281967,0.009142148308455944
1772457620927030300,7.1170302734375,0.012280331924557686,-0.014658854342997074,0.018007051199674606
1772457620937099500,7.127099609375,0.007470664102584124,-0.013379472307860851,0.02332857996225357
1772457620947168300,7.137168212890625,0.00004720943979918957,0.004221535753458738,0.033202528953552246
1772457620957236200,7.147236328125,-0.004766453988850117,0.01303047314286232,0.04172411188483238
1772457620967305500,7.157305419921875,-0.009413912892341614,0.013618486002087593,0.04902317747473717
1772457620977374200,7.167374267578125,-0.009716447442770004,0.0017205476760864258,0.04777974635362625
1772457620987443500,7.177443359375,-0.004493345506489277,-0.00560755655169487,0.04447873681783676
1772457620997511400,7.187511474609375,-0.005742368288338184,-0.0020359912887215614,0.038903407752513885
1772457621007580200,7.197580078125,-0.006406429223716259,-0.0008608405478298664,0.03537726774811745
1772457621017649400,7.2076494140625,-0.0019877117592841387,0.004785859491676092,0.028279144316911697
1772457621027718700,7.21771875,0.0050134966149926186,-0.000005180947482585907,0.01791558973491192
1772457621037786400,7.227786376953125,0.008114214986562729,0.001387119758874178,0.012177808210253716
1772457621047855400,7.23785546875,0.009189402684569359,0.00448173563927412,0.011110318824648857
1772457621057924600,7.247924560546875,0.002952013397589326,0.007258347235620022,0.013344177976250648
1772457621067993300,7.257993408203125,-0.0005822924431413412,0.008128946647047997,0.009129859507083893
1772457621078062600,7.2680625,-0.002029986819252372,0.00639016879722476,0.015031425282359123
1772457621088130600,7.278130615234375,0.0015688081039115787,-0.0017033624462783337,0.013903783634305
1772457621098199300,7.28819921875,0.002173611894249916,-0.00569677259773016,0.009541792795062065
1772457621108268500,7.2982685546875,0.002222237177193165,-0.006411148700863123,0.006410466507077217
1772457621118337300,7.308337158203125,0.0018254262395203114,-0.007157632615417242,0.003738783998414874
1772457621128406500,7.318406494140625,0.00284477393142879,0.008779672905802727,0.0058757234364748
1772457621138474500,7.328474609375,0.0036908602342009544,0.01788262464106083,0.015387202613055706
1772457621148543200,7.338543212890625,0.001459151622839272,0.021526407450437546,0.02067827619612217
1772457621158612500,7.348612548828125,0.005464013200253248,0.01818920113146305,0.023375792428851128
1772457621168681500,7.358681396484375,0.004446709994226694,0.00798262283205986,0.02294396050274372
1772457621178749400,7.36874951171875,0.0030341693200170994,0.0013260520063340664,0.02258629910647869
1772457621188818400,7.378818359375,0.006941027007997036,-0.00130009138956666,0.016415754333138466
1772457621198887400,7.388887451171875,0.010226301848888397,-0.0030750883743166924,0.006940493360161781
1772457621208956400,7.398956298828125,0.011602620594203472,0.0018747244030237198,0.005064330063760281
1772457621219025400,7.409025390625,0.010825776495039463,0.017896834760904312,0.0036712305154651403
1772457621229093600,7.41909375,0.005846894811838865,0.02922062762081623,0.00940762273967266
1772457621239162400,7.429162353515625,0.0005061917472630739,0.030914664268493652,0.0066728233359754086
1772457621249231400,7.4392314453125,-0.004047507885843515,0.014617275446653366,0.007670522667467594
1772457621259300400,7.44930029296875,-0.008221479132771492,0.002126250881701708,0.00406700000166893
1772457621269368300,7.459368408203125,-0.008619647473096848,0.0013342387974262238,0.008110343478620052
1772457621279437600,7.4694375,-0.0024277977645397186,0.004656798671931028,0.010345002636313438
1772457621289506600,7.479506591796875,-0.0034014247357845306,0.004011236131191254,0.008080915547907352
1772457621299575600,7.489575439453125,-0.0032791858538985252,0.0005656383000314236,0.006975171156227589
1772457621309643500,7.4996435546875,-0.005262091755867004,-0.002476566005498171,-0.002991565503180027
1772457621319712500,7.50971240234375,-0.012417738325893879,-0.0018073134124279022,-0.002848553704097867
1772457621329781500,7.519781494140625,-0.018326226621866226,0.010333176702260971,-0.010058825835585594
1772457621339850500,7.5298505859375,-0.02557295374572277,0.03089810535311699,-0.0005763745866715908
1772457621349919500,7.53991943359375,-0.02589483931660652,0.041218724101781845,0.008666468784213066
1772457621359987500,7.549987548828125,-0.026445049792528152,0.03071574866771698,0.008202014490962029
1772457621370056400,7.560056396484375,-0.02545604109764099,0.007426336407661438,0.0021791981998831034
1772457621380125400,7.57012548828125,-0.024811290204524994,-0.014237680472433567,-0.005736249499022961
1772457621390194400,7.5801943359375,-0.017839867621660233,-0.019101593643426895,-0.019916042685508728
1772457621400262400,7.590262451171875,-0.012722337618470192,-0.011611721478402615,-0.03293810039758682
1772457621410331400,7.600331298828125,-0.01105011347681284,0.010447761043906212,-0.02879994548857212
1772457621420400400,7.610400390625,-0.007315295748412609,0.02650023065507412,-0.015960313379764557
1772457621430469600,7.6204697265625,-0.0069081648252904415,0.015421932563185692,-0.001593035296536982
1772457621440538400,7.630538330078125,-0.003013557754456997,-0.00950179435312748,0.010049772448837757
1772457621450606300,7.6406064453125,-0.005138960666954517,-0.03831631690263748,0.018281545490026474
1772457621460675600,7.650675537109375,-0.0032068376895040274,-0.0489383339881897,0.01977051980793476
1772457621470744300,7.660744384765625,-0.005914186127483845,-0.021141275763511658,0.023901518434286118
1772457621480813600,7.6708134765625,-0.007787720300257206,0.010070172138512135,0.021664729341864586
1772457621490881500,7.680881591796875,-0.013305478729307652,0.022041648626327515,0.01828734762966633
1772457621500950300,7.6909501953125,-0.016414985060691833,0.020175836980342865,0.01444467157125473
1772457621511019500,7.70101953125,-0.014309868216514587,0.011788628064095974,0.009008913300931454
1772457621521088300,7.711088134765625,-0.013975907117128372,0.0049501629546284676,0.0072395084425807
1772457621531157500,7.721157470703125,-0.004736467730253935,0.009730907157063484,0.006746672093868256
1772457621541225500,7.7312255859375,-0.0034168711863458157,0.015480938367545605,0.013445320539176464
1772457621551294500,7.74129443359375,-0.001821059500798583,0.006980429403483868,0.008297469466924667
1772457621561363500,7.751363525390625,0.0006546147633343935,-0.005973452236503363,0.002743979450315237
1772457621571432400,7.761432373046875,-0.00022374442778527737,-0.01751663163304329,-0.003198068356141448
1772457621581500400,7.77150048828125,-0.00017607398331165314,-0.013685676269233227,-0.008562207221984863
1772457621591569400,7.7815693359375,0.00022031506523489952,0.006391213275492191,-0.0074942996725440025
1772457621601638700,7.791638671875,0.0005878312513232231,0.02380908466875553,-0.002226832788437605
1772457621611707400,7.801707275390625,-0.0057739438489079475,0.023915505036711693,0.0007005732040852308
1772457621621776400,7.8117763671875,-0.00681497436016798,0.007847855798900127,-0.0008917306549847126
1772457621631844600,7.8218447265625,-0.0037359423004090786,-0.013531260192394257,-0.006199886091053486
1772457621641913300,7.831913330078125,0.00467938045039773,-0.02480042539536953,-0.008813511580228806
1772457621651982600,7.841982666015625,0.004541006404906511,-0.017008699476718903,-0.00530961062759161
1772457621662051300,7.85205126953125,0.0021052793599665165,0.0019082664512097836,0.0021994381677359343
1772457621672119300,7.862119384765625,-0.004588555544614792,0.012328464537858963,0.014385433867573738
1772457621682188500,7.8721884765625,-0.008918322622776031,0.004875874612480402,0.023913424462080002
1772457621692257300,7.88225732421875,-0.008485822007060051,-0.0035994299687445164,0.028312399983406067
1772457621702326500,7.892326416015625,-0.00871378742158413,-0.015485117211937904,0.024263061583042145
1772457621712395500,7.9023955078125,-0.004380201920866966,-0.013789679855108261,0.019408728927373886
1772457621722463500,7.91246337890625,-0.0027471515350043774,-0.004023069515824318,0.01406882330775261
1772457621732532500,7.922532470703125,-0.0013907626271247864,0.013668669387698174,0.007352408021688461
1772457621742601500,7.9326015625,0.002182666677981615,0.01876622624695301,0.00990105327218771
1772457621752670500,7.94267041015625,0.003170834854245186,0.009160574525594711,0.009830594062805176
1772457621762738400,7.952738525390625,0.0070260269567370415,-0.0020984718576073647,0.008947756141424179
1772457621772807400,7.962807373046875,0.006257197353988886,-0.005100132431834936,0.007636813446879387
1772457621782876400,7.97287646484375,0.0004230104386806488,0.000245098490267992,0.01228429563343525
1772457621792945400,7.9829453125,-0.0032278767321258783,0.00773027166724205,0.014060169458389282
1772457621803013600,7.993013671875,-0.005719530396163464,0.004230078775435686,0.017639990895986557
1772457621813082400,8.003082275390625,-0.004368463531136513,-0.007338125258684158,0.016089269891381264
1772457621823151400,8.0131513671875,-0.005834533832967281,-0.006724267266690731,0.014382983557879925
1772457621833219600,8.023219482421876,-0.003759996499866247,0.003542936872690916,0.012035463005304337
1772457621843288300,8.033288330078125,-0.010617103427648544,0.014462696388363838,0.011059947311878204
1772457621853357600,8.043357666015625,-0.014420541003346443,0.029174866154789925,0.011288254521787167
1772457621863426600,8.053426513671875,-0.01651485078036785,0.038153983652591705,0.021826116368174553
1772457621873494300,8.063494384765624,-0.01373850367963314,0.03148569166660309,0.022880729287862778
1772457621883563500,8.0735634765625,-0.012431159615516663,0.009882661513984203,0.028929566964507103
1772457621893632500,8.083632568359375,-0.005116831976920366,-0.01673939637839794,0.022237004712224007
1772457621903701500,8.093701416015625,-0.0010501849465072155,-0.034326910972595215,0.015270708128809929
1772457621913769500,8.10376953125,0.00598885677754879,-0.031626373529434204,0.008196364156901836
1772457621923838500,8.11383837890625,0.009329259395599365,-0.023281091824173927,-0.0007547866553068161
1772457621933907500,8.123907470703125,0.005750307347625494,-0.007147640455514193,-0.012934582307934761
1772457621943976400,8.1339765625,0.003920449409633875,0.009910705499351025,-0.02190144546329975
1772457621954045400,8.14404541015625,0.0019060997292399406,0.011931059882044792,-0.02624698355793953
1772457621964113400,8.154113525390626,0.000220585148781538,0.004430001135915518,-0.03189101815223694
1772457621974182400,8.164182373046875,-0.0012618356849998236,-0.006650784984230995,-0.03382556512951851
1772457621984251400,8.17425146484375,0.00031395675614476204,-0.010711573995649815,-0.02816608175635338
1772457621994320400,8.1843203125,-0.002459218492731452,-0.009491568431258202,-0.019734641537070274
1772457622004388400,8.194388427734374,-0.010616746731102467,-0.011137934401631355,-0.013489795848727226
1772457622014457300,8.204457275390626,-0.01463519036769867,-0.013774730265140533,-0.008426060900092125
1772457622024526000,8.214526123046875,-0.017686374485492706,-0.009709148667752743,-0.00419909181073308
1772457622034595300,8.22459521484375,-0.01901404932141304,0.0005471468903124332,-0.0004933781456202269
1772457622044664000,8.2346640625,-0.016418535262346268,0.003549328539520502,0.007706761360168457
1772457622054732000,8.24473193359375,-0.018176952376961708,-0.0006549227982759476,0.010077184066176414
1772457622064801300,8.25480126953125,-0.0236060731112957,-0.007729077711701393,0.014585384167730808
1772457622074870000,8.2648701171875,-0.0214369036257267,-0.020087487995624542,0.013976981863379478
1772457622084939300,8.274939208984375,-0.021291229873895645,-0.024909673258662224,0.013065382838249207
1772457622095007200,8.28500732421875,-0.023398900404572487,-0.01402164064347744,0.011116177774965763
1772457622105076200,8.295076171875,-0.020311230793595314,0.0027067388873547316,0.014044854789972305
1772457622115145200,8.305145263671875,-0.018397418782114983,0.01295492984354496,0.011155801825225353
1772457622125214200,8.315214111328125,-0.015118001028895378,0.011855310760438442,0.010209314525127411
1772457622135282200,8.3252822265625,-0.013316458091139793,0.006632459349930286,0.007628860883414745
1772457622145351200,8.33535107421875,-0.01762385480105877,-0.015387620776891708,0.002214122097939253
1772457622155421200,8.345421142578125,-0.017992129549384117,-0.023364229127764702,-0.00902487151324749
1772457622165490200,8.355490234375,-0.01735590025782585,-0.012962721288204193,-0.01356982160359621
1772457622175559200,8.36555908203125,-0.02149294503033161,-0.001584435347467661,-0.010657732374966145
1772457622185628200,8.375628173828124,-0.026018988341093063,0.011280231177806854,-0.007011065725237131
1772457622195696000,8.385696044921875,-0.028595656156539917,0.02305419370532036,0.008282152935862541
1772457622205765000,8.39576513671875,-0.02910085767507553,0.016457542777061462,0.018274599686264992
1772457622215834000,8.405834228515625,-0.026693075895309448,0.00708379503339529,0.024676479399204254
1772457622225903400,8.4159033203125,-0.02466534450650215,-0.0007592146284878254,0.02820170484483242
1772457622235971300,8.425971435546876,-0.019505562260746956,-0.005855449475347996,0.0214228555560112
1772457622246040000,8.4360400390625,-0.016857314854860306,0.0023159277625381947,0.013125778175890446
1772457622256109300,8.446109375,-0.01118848193436861,0.0122638288885355,-0.0021060765720903873
1772457622266178000,8.456177978515624,-0.007528499700129032,0.018015723675489426,-0.011463092640042305
1772457622276246300,8.466246337890626,-0.0024873625952750444,0.017532717436552048,-0.015438315458595753
1772457622286315300,8.476315185546875,0.0031215210910886526,0.011762980371713638,-0.018055137246847153
1772457622296384000,8.486384033203125,0.0037652775645256042,0.0028251688927412033,-0.008335229009389877
1772457622306453200,8.496453369140625,0.001464572618715465,-0.0017016720958054066,0.0006481462623924017
1772457622316522200,8.506522216796874,0.005694757681339979,-0.00890361238270998,0.00042434711940586567
1772457622326590200,8.516590087890625,0.003162624314427376,-0.0071608396247029305,0.003290441120043397
1772457622336659200,8.5266591796875,0.004886955488473177,-0.002503585070371628,-0.00421695364639163
1772457622346728200,8.536728271484375,0.0032312683761119843,0.002199557377025485,-0.013177691958844662
1772457622356797200,8.546797119140624,0.002494322368875146,0.010279346257448196,-0.015047764405608177
1772457622366865200,8.556865234375,0.0010575468186289072,0.017364952713251114,-0.01874050311744213
1772457622376934400,8.566934326171875,0.005919548682868481,0.015261691063642502,-0.021078642457723618
1772457622387003100,8.577003173828125,0.007184283807873726,0.011294113472104073,-0.019562505185604095
1772457622397072400,8.587072265625,0.008903113193809986,0.005670038051903248,-0.014912227168679237
1772457622407141000,8.59714111328125,0.009206447750329971,0.00023905374109745026,-0.013615533709526062
1772457622417209000,8.607208984375,0.007092319428920746,0.007941599003970623,0.0008318673353642225
1772457622427278300,8.6172783203125,0.00799326691776514,0.014532922767102718,0.01442117802798748
1772457622437347000,8.62734716796875,0.007240099832415581,0.010577606968581676,0.020795589312911034
1772457622447416300,8.637416259765626,0.012797851115465164,-0.003300657495856285,0.025973839685320854
1772457622457484300,8.647484375,0.01801944524049759,-0.015017050318419933,0.022627901285886765
1772457622467553000,8.657552978515625,0.021188074722886086,-0.018110577017068863,0.012224794365465641
1772457622477622300,8.667622314453125,0.021336456760764122,-0.01007045991718769,0.009760077111423016
1772457622487691300,8.677691162109374,0.022625694051384926,0.01556646078824997,0.012660259380936623
1772457622497759000,8.687759033203125,0.01588396728038788,0.029577698558568954,0.014408036135137081
1772457622507828200,8.697828125,0.011825043708086014,0.03185443580150604,0.01925552263855934
1772457622517897200,8.707897216796875,0.011623130179941654,0.016605138778686523,0.01656142994761467
1772457622527966200,8.71796630859375,0.008127198554575443,-0.008122044615447521,0.013089999556541443
1772457622538035200,8.72803515625,0.011534648016095161,-0.018069297075271606,0.0019223561976104975
1772457622548103200,8.738103271484375,0.013903796672821045,-0.011588762514293194,-0.0034985081292688847
1772457622558172200,8.748172119140625,0.015219241380691528,0.003288570325821638,-0.0016423037741333246
1772457622568241200,8.7582412109375,0.012332109734416008,0.01511034183204174,0.0007694549858570099
1772457622578310100,8.76831005859375,0.004936379846185446,0.016294488683342934,0.001552270958200097
1772457622588379100,8.778379150390625,0.0029999956022948027,0.015654796734452248,0.006209606304764748
1772457622598447000,8.788447021484375,0.003953809384256601,0.0073716724291443825,0.0013891297858208418
1772457622608516000,8.79851611328125,0.009083856828510761,-0.006687687709927559,0.0025635838974267244
1772457622618585000,8.808585205078124,0.01408084761351347,-0.01574699580669403,-0.001330965431407094
1772457622628654300,8.818654296875,0.021822389215230942,-0.018339049071073532,0.00017771543934941292
1772457622638722300,8.828722412109375,0.02068152092397213,-0.007389536127448082,-0.0017561741406098008
1772457622648791300,8.838791259765625,0.014629220589995384,0.009400895796716213,0.001279829302802682
1772457622658860300,8.8488603515625,0.006990537047386169,0.01841769926249981,0.0033482869621366262
1772457622668929000,8.858928955078126,-0.005733247380703688,0.016247224062681198,0.003961347043514252
1772457622678997200,8.868997314453125,-0.009731225669384003,0.008116764947772026,0.004771938547492027
1772457622689066200,8.879066162109375,-0.010064920410513878,0.007579871919006109,0.009373081848025322
1772457622699135200,8.88913525390625,-0.006197013892233372,0.005745997652411461,0.013242216780781746
1772457622709204200,8.899204345703126,-0.004323747009038925,-0.007192970719188452,0.007122538052499294
1772457622719273200,8.909273193359375,-0.0027631795965135098,-0.012322253547608852,0.004073446616530418
1772457622729341200,8.919341064453125,-0.0064548528753221035,-0.010582142509520054,-0.0019703314173966646
1772457622739410200,8.92941015625,-0.0033863550052046776,-0.008040748536586761,-0.00996970385313034
1772457622749479200,8.939479248046876,-0.002534409984946251,0.0004962808452546597,-0.016730139032006264
1772457622759548200,8.949548095703125,-0.003033375833183527,0.0072784023359417915,-0.018766943365335464
1772457622769616100,8.9596162109375,-0.0045260777696967125,0.0008750976994633675,-0.01800687611103058
1772457622779685400,8.969685302734375,-0.007343636825680733,0.001157207414507866,-0.014561602845788002
1772457622789754000,8.979754150390624,-0.0050194961950182915,0.011858854442834854,-0.006435499060899019
1772457622799823400,8.9898232421875,-0.0066040512174367905,0.0023380417842417955,0.0011706214863806963
1772457622809891300,8.999891357421875,-0.004562205635011196,-0.00835055485367775,-0.003154618665575981
1772457622819960000,9.0099599609375,-0.005703862756490707,-0.010740382596850395,-0.0032512149773538113
1772457622830029300,9.020029296875,-0.004197046160697937,-0.008563248440623283,-0.006076029967516661
1772457622840098000,9.03009814453125,-0.005514637567102909,-0.009727268479764462,-0.007068784907460213
1772457622850167300,9.040167236328125,-0.0048549724742770195,-0.005461949855089188,-0.004054086748510599
1772457622860235300,9.0502353515625,-0.004814673215150833,0.005090152379125357,0.0007588963489979506
1772457622870304000,9.060303955078124,-0.005771813914179802,0.012448200024664402,0.009369428269565105
1772457622880373200,9.070373291015626,-0.006184629164636135,0.012659400701522827,0.010562392883002758
1772457622890442200,9.080442138671875,-0.003994711674749851,0.0068992492742836475,0.007992441765964031
1772457622900510200,9.09051025390625,-0.0016920561902225018,-0.0008464250713586807,0.001599369803443551
1772457622910579200,9.1005791015625,-0.0030294954776763916,-0.009646042250096798,-0.0012227820698171854
1772457622920648200,9.110648193359374,0.003058892209082842,-0.004849053453654051,-0.009489916265010834
1772457622930717200,9.12071728515625,0.007282399572432041,-0.002162190154194832,-0.012533643282949924
1772457622940786200,9.1307861328125,0.0027956406120210886,-0.0010142643004655838,-0.014354598708450794
1772457622950854400,9.1408544921875,0.004300326574593782,-0.004388755187392235,-0.00960831344127655
1772457622960923100,9.150923095703124,0.004744693636894226,-0.011096250265836716,-0.008907579816877842
1772457622970992000,9.1609921875,0.0007877687457948923,-0.014918951317667961,-0.005281686317175627
1772457622981061000,9.17106103515625,-0.002124885795637965,-0.008077255450189114,-0.0008695886936038733
1772457622991129000,9.181129150390625,-0.004296161234378815,0.006208472885191441,0.00015040184371173382
1772457623001198300,9.1911982421875,-0.0036852273624390364,0.018087178468704224,0.0032979545649141073
1772457623011267000,9.20126708984375,-0.005510024726390839,0.018812622874975204,-0.0014360807836055756
1772457623021336600,9.211336669921875,-0.006859539542347193,0.008726895786821842,-0.005461257882416248
1772457623031405600,9.221405517578125,-0.009320832788944244,-0.008981261402368546,-0.0065033528953790665
1772457623041473500,9.2314736328125,-0.006818530615419149,-0.024537526071071625,-0.006765638943761587
1772457623051542500,9.24154248046875,-0.001303123775869608,-0.01703619956970215,-0.003334954846650362
1772457623061611800,9.25161181640625,0.0009452563244849443,-0.004774693865329027,0.00431425403803587
1772457623071680500,9.261680419921875,-0.001808718778192997,0.011017851531505585,0.010099438019096851
1772457623081748500,9.27174853515625,-0.007117624394595623,0.011310705915093422,0.012143434956669807
1772457623091817700,9.281817626953124,-0.006984466686844826,0.0033329413272440434,0.014408454298973083
1772457623101886500,9.291886474609376,-0.007775424979627132,-0.010570889338850975,0.008932994678616524
1772457623111955700,9.301955810546875,-0.0029268739745020866,-0.018556911498308182,0.009543923661112785
1772457623122023700,9.312023681640625,0.0042344871908426285,-0.012942432425916195,0.004199654329568148
1772457623132092400,9.322092529296874,0.002668015891686082,-0.002261558547616005,0.0035277390852570534
1772457623142161700,9.33216162109375,-0.002537872176617384,0.019757593050599098,0.007115805521607399
1772457623152230400,9.34223046875,-0.0047887759283185005,0.01510425191372633,0.009297467768192291
1772457623162299600,9.352299560546875,-0.006764302495867014,0.004277380649000406,0.012759799137711525
1772457623172367600,9.36236767578125,-0.010910311713814735,-0.014449968002736568,0.018817158415913582
1772457623182436400,9.372436279296876,-0.0065270415507256985,-0.02259443700313568,0.01276739314198494
1772457623192505600,9.382505615234376,-0.0037986324168741703,-0.024859454482793808,0.009189702570438385
1772457623202574600,9.39257470703125,-0.0005339991766959429,-0.023602813482284546,-0.002993572736158967
1772457623212642600,9.402642578125,0.0011712226551026106,-0.012117133475840092,-0.008873832412064075
1772457623222711600,9.412711669921874,0.0069030337035655975,0.004296078812330961,-0.01505101565271616
1772457623232780500,9.422780517578126,0.008566444739699364,0.019128821790218353,-0.012815025635063648
1772457623242849500,9.432849609375,0.004830918740481138,0.02174917422235012,-0.010462846606969833
1772457623252918500,9.44291845703125,0.007751873694360256,0.014099511317908764,-0.009534202516078949
1772457623262986800,9.45298681640625,0.0058540599420666695,0.0015498616266995668,-0.014589984901249409
1772457623273055500,9.463055419921876,0.004145375918596983,-0.011185906827449799,-0.015584675595164299
1772457623283124700,9.473124755859375,0.008494981564581394,-0.024657877162098885,-0.018920663744211197
1772457623293193500,9.483193359375,0.01490734051913023,-0.02716284617781639,-0.024016356095671654
1772457623303261400,9.493261474609374,0.019584162160754204,-0.012315688654780388,-0.025420870631933212
1772457623313330700,9.50333056640625,0.022358909249305725,0.005738678388297558,-0.015879031270742416
1772457623323399400,9.5133994140625,0.01738789863884449,0.010495651513338089,-0.013988680206239223
1772457623333468700,9.52346875,0.012188876047730446,0.005402355920523405,-0.007649558596313
1772457623343536600,9.53353662109375,0.008133595809340477,-0.0008178497664630413,0.004176624119281769
1772457623353605600,9.543605712890624,0.004069345537573099,-0.008468578569591045,0.006055750884115696
1772457623363674600,9.553674560546876,0.005752924829721451,-0.017687402665615082,0.007411130703985691
1772457623373743600,9.56374365234375,0.00439364742487669,-0.015014919452369213,0.0027505995240062475
1772457623383812600,9.5738125,0.012256073765456676,-0.005432853475213051,0.00008890265598893166
1772457623393880600,9.583880615234374,0.010750321671366692,0.006427800748497248,0.0030527347698807716
1772457623403949600,9.593949462890626,0.007282825652509928,0.010205356404185295,0.006557737477123737
1772457623414018600,9.6040185546875,0.007716921158134937,0.0027671472635120153,0.006390491500496864
1772457623424087600,9.614087646484375,0.00975153036415577,-0.011909835040569305,0.005495099350810051
1772457623434155500,9.624155517578124,0.005391403567045927,-0.027569221332669258,0.0010361687745898962
1772457623444224500,9.634224609375,0.004544764757156372,-0.02661772072315216,-0.0050155059434473515
1772457623454293500,9.64429345703125,-0.002467870945110917,-0.007011528126895428,-0.006840836722403765
1772457623464362500,9.654362548828125,-0.00698215514421463,0.010845057666301727,0.0012669714633375406
1772457623474431500,9.664431396484375,-0.011833103373646736,0.01356840692460537,0.007499833591282368
1772457623484499700,9.674499755859374,-0.010512642562389374,0.0019235499203205109,0.009411926381289959
1772457623494568700,9.684568603515626,-0.013628807850182056,-0.01726985163986683,0.010662547312676907
1772457623504637400,9.694637451171875,-0.01632632315158844,-0.020503461360931396,0.005887499079108238
1772457623514706700,9.704706787109375,-0.02126915007829666,-0.01626504212617874,0.0014189810026437044
1772457623524774700,9.714774658203124,-0.020024960860610008,-0.009774209931492805,-0.010170642286539078
1772457623534843600,9.72484375,-0.020896347239613533,-0.0010603475384414196,-0.01228599064052105
1772457623544912600,9.73491259765625,-0.021609969437122345,0.004720749333500862,-0.012350417673587799
1772457623554981400,9.7449814453125,-0.019672252237796783,0.002216312801465392,-0.010304311290383339
1772457623565050600,9.755050537109375,-0.020654156804084778,-0.007325850892812014,-0.008291534148156643
1772457623575118600,9.76511865234375,-0.020156409591436386,-0.00459877448156476,-0.007788995746523142
1772457623585187600,9.7751875,-0.01852037012577057,-0.010566246695816517,-0.0007343001198023558
1772457623595256600,9.785256591796875,-0.015245214104652405,-0.022090010344982147,-0.0065557039342820644
1772457623605325600,9.79532568359375,-0.016236307099461555,-0.020331954583525658,0.0013819632586091757
1772457623615393500,9.8053935546875,-0.013864231295883656,-0.010215670801699162,0.0038006461691111326
1772457623625462500,9.815462646484375,-0.015320863574743271,0.0018487735651433468,-0.0012945742346346378
1772457623635531800,9.82553173828125,-0.018225573003292084,0.015534758567810059,0.0019105400424450636
1772457623645600500,9.8356005859375,-0.01841270923614502,0.02447165548801422,0.010202942416071892
1772457623655668500,9.84566845703125,-0.014116230420768261,0.019071031361818314,0.016947930678725243
1772457623665737700,9.85573779296875,-0.012916340492665768,0.0072451019659638405,0.01805724948644638
1772457623675806500,9.865806396484375,-0.011891290545463562,-0.0029161893762648106,0.012615878134965897
1772457623685875700,9.875875732421875,-0.008629470132291317,-0.011151793412864208,-0.002343538450077176
1772457623695944400,9.8859443359375,-0.007936782203614712,-0.015804603695869446,-0.02252151072025299
1772457623706012400,9.896012451171876,-0.0018584339413791895,-0.01547514833509922,-0.03605222702026367
1772457623716081700,9.90608154296875,0.007810438051819801,-0.00680895522236824,-0.046193014830350876
1772457623726150400,9.916150390625,0.013864828273653984,-0.006699857767671347,-0.04599202424287796
1772457623736219600,9.9262197265625,0.012537509202957153,-0.00961974821984768,-0.041802868247032166
1772457623746287600,9.93628759765625,0.010147161781787872,-0.02145892195403576,-0.029716890305280685
1772457623756356400,9.9463564453125,0.0010615212377160788,-0.027622541412711143,-0.014259371906518936
1772457623766425600,9.956425537109375,-0.003442904679104686,-0.024661606177687645,-0.006568390876054764
1772457623776494600,9.96649462890625,-0.009897874668240547,-0.026105307042598724,0.0030754480976611376
1772457623786563600,9.9765634765625,-0.015865501016378403,-0.021662987768650055,0.010019158013164997
1772457623796631600,9.986631591796876,-0.021479710936546326,-0.02145686000585556,0.01698758453130722
1772457623806700500,9.996700439453125,-0.02407483011484146,-0.01984868198633194,0.02001202665269375
1772457623816769500,10.00676953125,-0.025901492685079575,-0.012110602110624313,0.024486137554049492
1772457623826838500,10.016838623046874,-0.032081130892038345,0.0067705875262618065,0.02800009585916996
1772457623836906800,10.02690673828125,-0.03558318689465523,0.017444271594285965,0.034174367785453796
1772457623846975500,10.0369755859375,-0.032603997737169266,0.015812480822205544,0.030900739133358
1772457623857044500,10.04704443359375,-0.02703027054667473,0.0019651087932288647,0.02336132898926735
1772457623867113500,10.057113525390625,-0.018456626683473587,-0.007513985503464937,0.01906660571694374
1772457623877182500,10.067182373046874,-0.006486781872808933,-0.007637556176632643,0.010510135442018509
1772457623887250700,10.077250732421875,0.005625521764159203,0.00316471210680902,0.003793201642110944
1772457623897319700,10.087319580078125,0.012341480702161789,0.01643417775630951,0.004225699231028557
1772457623907388700,10.097388671875,0.0082963602617383,0.019094642251729965,0.000548636307939887
1772457623917457700,10.107457763671874,0.005563423968851566,0.012369627133011818,0.0017497220542281866
1772457623927525600,10.117525634765625,0.005350546911358833,0.0035587544552981853,0.0005544214509427547
1772457623937594600,10.1275947265625,0.0058080777525901794,0.004682874772697687,-0.0007462664507329464
1772457623947663600,10.13766357421875,0.012395648285746574,0.007057626266032457,-0.0005365402903407812
1772457623957732600,10.147732666015624,0.01489795371890068,0.012916314415633678,-0.005639423616230488
1772457623967800600,10.157800537109376,0.022948097437620163,0.01904517598450184,-0.0024097964633256197
1772457623977869600,10.16786962890625,0.02365037240087986,0.01797005906701088,0.010883638635277748
1772457623987938600,10.1779384765625,0.019461993128061295,0.011694329790771008,0.02272232621908188
1772457623998007600,10.188007568359374,0.013383861631155014,0.0034332037903368473,0.03497420251369476
1772457624008076500,10.19807666015625,0.014715196564793587,-0.0030227862298488617,0.04693356156349182
1772457624018144800,10.208144775390625,0.02069505862891674,-0.008489190600812435,0.05348920077085495
1772457624028214000,10.218214111328125,0.027817174792289734,-0.007258819881826639,0.05162591487169266
1772457624038282800,10.22828271484375,0.035947270691394806,-0.0021122610196471214,0.047036223113536835
1772457624048352000,10.23835205078125,0.03558134660124779,0.0046623446978628635,0.04111526161432266
1772457624058420000,10.248419921875,0.032444410026073456,0.010923169553279877,0.03825342655181885
1772457624068489000,10.258489013671875,0.0293695330619812,0.015006272122263908,0.041144512593746185
1772457624078558000,10.268557861328125,0.024442683905363083,0.009165160357952118,0.04137434437870979
1772457624088627000,10.278626953125,0.02166464366018772,0.008893239311873913,0.04338579624891281
1772457624098696000,10.288696044921876,0.02629987709224224,0.012738578021526337,0.04278498888015747
1772457624108764000,10.298763916015625,0.02449783682823181,0.015042214654386044,0.040694303810596466
1772457624118833200,10.308833251953125,0.022216837853193283,0.010153183713555336,0.03511498123407364
1772457624128902000,10.31890185546875,0.023086952045559883,0.0007931073196232319,0.029599560424685478
1772457624138971000,10.328970947265624,0.018649062141776085,-0.0036575677804648876,0.025320926681160927
1772457624149039000,10.3390390625,0.019707005470991135,0.0005521960556507111,0.02951951138675213
1772457624159107800,10.34910791015625,0.019658535718917847,0.004462249577045441,0.024069886654615402
1772457624169177000,10.359177001953125,0.01665029488503933,0.004586166702210903,0.02752980962395668
1772457624179245800,10.369245849609374,0.012457412667572498,0.008228572085499763,0.024142267182469368
1772457624189313800,10.379313720703125,0.008687799796462059,0.005087976343929768,0.0175334420055151
1772457624199383000,10.389383056640625,0.0032850445713847876,-0.0020951018668711185,0.020530030131340027
1772457624209452000,10.3994521484375,-0.0008016214706003666,-0.009379414841532707,0.022217106074094772
1772457624219521000,10.40952099609375,-0.007119971327483654,-0.014256194233894348,0.02298968844115734
1772457624229590000,10.419590087890626,-0.008702129125595093,-0.009083813987672329,0.03172791376709938
1772457624239658000,10.429657958984375,-0.011014818213880062,0.006307659205049276,0.036219336092472076
1772457624249727000,10.43972705078125,-0.018242377787828445,0.025296585634350777,0.04349460452795029
1772457624259796000,10.4497958984375,-0.021294359117746353,0.033050913363695145,0.038009561598300934
1772457624269865000,10.459864990234376,-0.023018579930067062,0.024332452565431595,0.03389250114560127
1772457624279933000,10.469932861328125,-0.019908806309103966,0.010812914930284023,0.03417106717824936
1772457624290002000,10.480001953125,-0.014741027727723122,-0.0014510690234601498,0.02858763374388218
1772457624300071000,10.49007080078125,-0.008553173393011093,-0.001644148025661707,0.03353845328092575
1772457624310140000,10.500139892578124,-0.0020564377773553133,0.0059687294997274876,0.03279352933168411
1772457624320209200,10.510209228515626,-0.003246071981266141,0.013646623119711876,0.035224463790655136
1772457624330276900,10.52027685546875,-0.006277281790971756,0.016217637807130814,0.03373895213007927
1772457624340345900,10.530345947265625,-0.009929007850587368,0.013687369413673878,0.025597667321562767
1772457624350415000,10.5404150390625,-0.018204111605882645,0.002048395574092865,0.016359806060791016
1772457624360483800,10.55048388671875,-0.019832368940114975,0.000137310940772295,0.0025281454436481
1772457624370552000,10.560552001953125,-0.019557615742087364,0.015518272295594215,-0.001003060955554247
1772457624380621000,10.57062109375,-0.018166646361351013,0.02998403087258339,-0.0038704865146428347
1772457624390689800,10.580689697265624,-0.01262176875025034,0.03160928562283516,-0.006227988749742508
1772457624400759000,10.590759033203126,-0.007238189689815044,0.03010886162519455,-0.012024092487990856
1772457624410827000,10.600826904296875,-0.008578402921557426,0.024453256279230118,-0.01516314223408699
1772457624420896000,10.61089599609375,-0.010130226612091064,0.01947181485593319,-0.010998224839568138
1772457624430965000,10.620965087890625,-0.011407478712499142,0.023043112829327583,-0.002886235946789384
1772457624441033700,10.63103369140625,-0.010527837090194225,0.025994163006544113,0.007372526917606592
1772457624451103000,10.64110302734375,-0.009773192927241325,0.020665163174271584,0.011946209706366062
1772457624461171000,10.6511708984375,-0.008992619812488556,0.00950838252902031,0.0007681231945753098
1772457624471240000,10.661239990234375,-0.007575286086648703,-0.008794991299510002,-0.01454878132790327
1772457624481309000,10.671308837890624,0.003034747438505292,-0.011567074805498123,-0.033629000186920166
1772457624491378000,10.6813779296875,0.007509722374379635,-0.0035122628323733807,-0.04576374962925911
1772457624501446000,10.69144580078125,0.004250545985996723,0.01921115815639496,-0.04763728380203247
1772457624511515000,10.701514892578125,0.000495935557410121,0.035974565893411636,-0.03270505368709564
1772457624521584000,10.711584228515624,-0.01117270439863205,0.034107424318790436,-0.012939871288836002
1772457624531652900,10.72165283203125,-0.019643019884824753,0.012220339849591255,0.007747674826532602
1772457624541720800,10.731720947265625,-0.024287305772304535,-0.011908432468771935,0.020189164206385612
1772457624551790000,10.7417900390625,-0.024603091180324554,-0.019352152943611145,0.022298332303762436
1772457624561858800,10.75185888671875,-0.02209598943591118,-0.01426791213452816,0.01726522482931614
1772457624571928000,10.761927978515626,-0.022258512675762177,0.01070612296462059,0.007727211341261864
1772457624581996800,10.771996826171875,-0.022259311750531197,0.032935261726379395,-0.000729923602193594
1772457624592064800,10.782064697265625,-0.02358725108206272,0.03800126537680626,-0.009788515977561474
1772457624602134000,10.792134033203125,-0.020964834839105606,0.04066069796681404,-0.012634635902941227
1772457624612203000,10.802203125,-0.020977508276700974,0.03548283129930496,-0.009873222559690475
1772457624622272000,10.81227197265625,-0.020030222833156586,0.02734261192381382,-0.009336329065263271
1772457624632340000,10.822340087890625,-0.01894688792526722,0.013112451881170273,-0.012118883430957794
1772457624642409000,10.832408935546875,-0.0132977906614542,0.00465851416811347,-0.017941085621714592
1772457624652478000,10.84247802734375,-0.008991003036499023,-0.002057146281003952,-0.021298924461007118
1772457624662547000,10.852546875,-0.004068415611982346,0.012436042539775372,-0.027121927589178085
1772457624672615200,10.862615234375,-0.00015875417739152908,0.028004929423332214,-0.033618103712797165
1772457624682684000,10.872683837890625,-0.000569147290661931,0.04802684113383293,-0.03128623962402344
1772457624692753000,10.8827529296875,-0.005063372664153576,0.05855559930205345,-0.027224725112318993
1772457624702822000,10.89282177734375,-0.011658424511551857,0.05324605479836464,-0.00952029600739479
1772457624712891000,10.902890869140625,-0.016467731446027756,0.03633073344826698,-0.0035979237873107195
1772457624722959000,10.912958984375,-0.020363938063383102,0.009510040283203125,0.0023856665939092636
1772457624733027800,10.92302783203125,-0.018639449030160904,0.00011421181261539459,0.010112368501722813
1772457624743097000,10.93309716796875,-0.016413578763604164,-0.001043996773660183,0.00085309031419456
1772457624753166000,10.943166015625,-0.013897761702537537,0.011382021009922028,0.004254580475389957
1772457624763233800,10.95323388671875,-0.013631179928779602,0.01837574876844883,0.004733948968350887
1772457624773303000,10.963302978515625,-0.008933473378419876,0.019378578290343285,0.006201103329658508
1772457624783372000,10.9733720703125,-0.006602408830076456,0.008181584998965263,0.0026614961680024862
1772457624793441000,10.98344091796875,-0.00251858145929873,-0.00848730094730854,-0.006264776922762394
1772457624803510000,10.993510009765625,-0.0018440026324242353,-0.005248897708952427,-0.01493070274591446
1772457624813578000,11.003577880859375,-0.002998377662152052,0.009576559998095036,-0.021180585026741028
1772457624823647000,11.01364697265625,-0.003762971144169569,0.022413529455661774,-0.023393403738737106
1772457624833716000,11.023716064453126,0.00009861751459538937,0.025280632078647614,-0.0313057005405426
1772457624843785000,11.033784912109375,0.005489920731633902,0.01960037648677826,-0.03557181730866432
1772457624853853000,11.04385302734375,0.005768195725977421,0.01751379854977131,-0.03744387999176979
1772457624863922000,11.053921875,0.005036092363297939,0.011463629081845284,-0.03191755712032318
1772457624873991000,11.063990966796876,0.00038603763096034527,0.00999363511800766,-0.021952733397483826
1772457624884060000,11.074059814453125,-0.005012189969420433,0.017239563167095184,-0.01830313727259636
1772457624894127900,11.0841279296875,-0.0034717973321676254,0.02033446729183197,-0.009085496887564659
1772457624904196900,11.09419677734375,-0.003608684055507183,0.01925322413444519,-0.0019745908211916685
1772457624914265900,11.104265869140624,-0.0010755052790045738,0.006159748416393995,-0.003307676175609231
1772457624924335000,11.114335205078126,0.001791920280084014,-0.005068405065685511,-0.0011486513540148735
1772457624934403800,11.12440380859375,0.005918534006923437,0.005248982459306717,0.0015797941014170647
1772457624944471800,11.134471923828125,0.0029331303667277098,0.02770502306520939,0.008458739146590233
1772457624954541000,11.144541015625,0.003352584782987833,0.034416936337947845,0.01060439832508564
1772457624964609800,11.15460986328125,0.0016460311599075794,0.02927197329699993,0.010699738748371601
1772457624974679000,11.164678955078125,-0.0026275753043591976,0.020324349403381348,0.013962829485535622
1772457624984747000,11.1747470703125,-0.00634375074878335,0.028423020616173744,0.015391083434224129
1772457624994816000,11.18481591796875,-0.0033783656544983387,0.03523721545934677,0.014155339449644089
1772457625004885000,11.194885009765626,0.006106482818722725,0.035088878124952316,0.008944598957896233
1772457625014953700,11.20495361328125,0.011541798710823059,0.03420127183198929,0.00952773168683052
1772457625025022000,11.21502197265625,0.010949244722723961,0.026487426832318306,0.03441470488905907
1772457625035091000,11.225091064453125,0.008376697078347206,-0.036691997200250626,0.03795718401670456
1772457625045160000,11.235159912109374,0.022266946732997894,-0.05758795887231827,0.04498899728059769
1772457625055229000,11.24522900390625,0.038754310458898544,-0.074717678129673,0.03245456516742706
1772457625065298000,11.2552978515625,0.04304652661085129,-0.07121694833040237,0.0022652363404631615
1772457625075366100,11.2653662109375,0.05314132571220398,-0.045388154685497284,-0.02954770252108574
1772457625085435000,11.275434814453124,0.05333387106657028,-0.0009554433636367321,-0.05603630468249321
1772457625095504100,11.285504150390626,0.04370912164449692,0.026031039655208588,-0.07596752047538757
1772457625105572900,11.29557275390625,0.027615640312433243,0.040826763957738876,-0.08261903375387192
1772457625115640800,11.305640869140625,0.016681239008903503,0.03602156788110733,-0.07928692549467087
1772457625125710000,11.3157099609375,0.0030471852514892817,0.012157514691352844,-0.07584505528211594
1772457625135778800,11.32577880859375,-0.002732121152803302,-0.00909473281353712,-0.059820909053087234
