time,seconds_elapsed,z,y,x
1772457059969059000,0.06705908203125,0.20142273605465888,-0.03837064718753099,0.061035538259055465
1772457059979127000,0.077126953125,0.2593400874942541,0.020974691228568553,0.16458501578914
1772457059989194800,0.08719482421875,0.19676935729086398,0.04900660749226808,0.15578491087574511
1772457059999264000,0.097263916015625,0.06435644457638263,0.1236702188104391,0.08506351611101999
1772457060009332000,0.10733203125,-0.005407996523380279,0.13919833507090806,0.03709699225621298
1772457060019400200,0.117400146484375,-0.0018190321207046509,0.13417758429944515,0.021193046686984598
1772457060029468200,0.12746826171875,0.014292729246616363,0.1409013395965099,0.04795435849297791
1772457060039535900,0.137535888671875,0.0868926860332489,0.14737579630762337,0.14494438617592675
1772457060049603800,0.147603759765625,0.20753274336755276,0.12512860092520714,0.18074870827309786
1772457060059672000,0.157672119140625,0.22849077572226523,0.09858955356776714,0.1165055513454601
1772457060069740000,0.167739990234375,0.07653086649477481,0.08797375926822423,-0.01160065888473764
1772457060079808000,0.17780810546875,-0.06681728173196315,0.09143442111611366,-0.08122444940479472
1772457060089876000,0.1878759765625,-0.0281768776923418,0.028869243870675562,-0.08219974244404583
1772457060099945000,0.197945068359375,0.08170973043739795,-0.0060875032201409334,-0.037880032392684365
1772457060110013000,0.208012939453125,0.1482224762648344,-0.04289747696220875,0.02554683971600607
1772457060120081000,0.218080810546875,0.1508282748490572,-0.05241261654347181,0.04405515909735113
1772457060130149000,0.228149169921875,0.09038871145546436,-0.04751783023923635,-0.022642587908171117
1772457060140217000,0.238217041015625,-0.04822890111804008,-0.03491261568814516,-0.13445146933738142
1772457060150285000,0.24828515625,-0.12491349686980247,-0.012976970472931861,-0.1827026553524658
1772457060160353000,0.25835302734375,-0.03899345526099205,-0.03709259007573128,-0.1240212242051959
1772457060170421200,0.268421142578125,0.08036182295978068,-0.051719665843248365,-0.06753953159190713
1772457060180489000,0.278489013671875,0.1688438240110874,-0.0672854837656021,-0.004654200747702271
1772457060190558000,0.288557861328125,0.15409341412484645,-0.035943127779662604,0.004735686752386391
1772457060200626200,0.298626220703125,0.14904372951984404,-0.012417290763556956,0.021621263770107178
1772457060210694100,0.308694091796875,0.1389239020437002,-0.005356850858032703,-0.001172514378093183
1772457060220762000,0.31876220703125,0.12053367435038088,-0.00047580081820487974,-0.023737634869571773
1772457060230830000,0.328830078125,0.10670914713740348,0.024031448450684546,-0.03511372775081545
1772457060240898000,0.33889794921875,0.12562544453144073,0.02765723773241043,-0.0286973579024896
1772457060250966000,0.348966064453125,0.13963351161777973,0.0012058686584234238,0.02091987403510138
1772457060261034000,0.359033935546875,0.20942191811501978,0.01614683268070221,0.03007211685441434
1772457060271102000,0.36910205078125,0.23223346938192843,0.019963468359410763,0.06271949102431536
1772457060281171200,0.379171142578125,0.2321305935293436,0.0043278000712394715,0.03386995650110766
1772457060291239000,0.389239013671875,0.11213409479558467,0.02879617863446474,-0.0015515402909368275
1772457060301307000,0.399306884765625,0.06133329736292362,0.048345220974087715,-0.010344740539509803
1772457060311375000,0.409375,0.0648240620881319,0.013997545692324637,0.013638831915147602
1772457060321443000,0.419443115234375,0.11411679304540157,0.011438216598331927,0.04333254391122609
1772457060331511000,0.429510986328125,0.15723989545702932,0.0024678514182567596,0.03609477467741817
1772457060341579000,0.4395791015625,0.16460720935463904,0.024956454341113567,0.06716731901234016
1772457060351647200,0.449647216796875,0.10159224251508712,0.0328127207994461,0.04420183755904436
1772457060361715200,0.459715087890625,0.031167876201868054,0.06534954726696014,0.04877301793210208
1772457060371784000,0.469783935546875,0.005106383228302001,0.07930150025188923,0.052276222013775256
1772457060381852200,0.47985205078125,0.05345628037750721,0.05456394935846329,0.0456282353666611
1772457060391920000,0.489920166015625,0.06694763011336326,0.02613952664583921,0.03122811848912388
1772457060401988000,0.499988037109375,0.08845978921949862,0.021676409757137298,0.033790096197929234
1772457060412056000,0.51005615234375,0.1044295117676258,0.009204758457839489,0.027918738212808963
1772457060422124000,0.5201240234375,0.04552782546579837,0.014291852463781833,-0.0025881350633688268
1772457060432192000,0.53019189453125,-0.02583469848036766,0.03366583049744368,-0.03155645539434627
1772457060442260000,0.540260009765625,-0.0306213482350111,0.028203765699267386,-0.013288429308589547
1772457060452328000,0.550327880859375,0.061576458469033236,-0.005456804101169109,0.019875461282394827
1772457060462397200,0.560397216796875,0.11067220554947853,-0.015162205557525158,0.015642171094194055
1772457060472465200,0.570465087890625,0.13381634977161883,-0.028367724089324472,-0.016181356004811822
1772457060482532900,0.580532958984375,0.1005605613797903,-0.045913609912991524,-0.05767696681246161
1772457060492600800,0.590600830078125,0.0788496648311615,-0.035625147871673105,-0.06032693333197385
1772457060502669000,0.6006689453125,0.11167582963407038,-0.039756840848922725,-0.05772327190591022
1772457060512737000,0.610737060546875,0.16120412291288375,-0.02235474741011858,-0.025423651727754622
1772457060522805000,0.620804931640625,0.1532324133813381,-0.009527122280001639,-0.01526645138328895
1772457060532873200,0.630873291015625,0.06776654528081416,0.029219957004487512,-0.021812110167089848
1772457060542941200,0.640941162109375,0.04809212299585342,0.03533580953627825,-0.008256298626586795
1772457060553010000,0.651010009765625,0.10250234309732914,-0.0007093173131346702,0.0069230955277569586
1772457060563078000,0.661077880859375,0.12727964147925377,-0.01567307768911123,-0.002402037906739861
1772457060573146000,0.67114599609375,0.08969956014752388,-0.010040624760091304,-0.022354491681791842
1772457060583214000,0.681214111328125,0.055333764687180514,-0.010263035339117049,-0.04499863222623244
1772457060593282000,0.691281982421875,0.07686755110323429,-0.042405601792037485,-0.06796137373317032
1772457060603350000,0.70135009765625,0.09824936182796955,-0.03680588208884,-0.0558119583918713
1772457060613418000,0.71141796875,0.11986965748369693,-0.04065934264659881,-0.03649955608602613
1772457060623486000,0.72148583984375,0.17527707192897796,-0.0474938648417592,-0.01900768373822793
1772457060633554000,0.731553955078125,0.21839549816548823,-0.04116992251724005,0.026481618081778287
1772457060643623200,0.741623046875,0.19051088141798972,-0.021668226450681685,0.05775560327293351
1772457060653691100,0.751691162109375,0.11786825453341007,0.026676117740571496,0.08057153845401481
1772457060663759000,0.761759033203125,0.06681786625385285,0.040083880846202374,0.0625683007842861
1772457060673826800,0.771826904296875,0.02075169612765312,0.055025137129426,0.02334741170927882
1772457060683895000,0.78189501953125,0.01885784520506859,0.05028115747272968,-0.005917407350242138
1772457060693963000,0.791962890625,0.03297054170966148,0.06457651706784963,0.025799700232222673
1772457060704031000,0.802031005859375,-0.0230704944640398,0.06077741704583168,0.03555412846207619
1772457060714099000,0.812098876953125,-0.043099137014150614,0.07282441319227219,0.06505222655450925
1772457060724167200,0.822167236328125,0.03960603420138359,0.04992985981702804,0.06249353678133338
1772457060734236000,0.83223583984375,0.0944037923157215,0.05383797317147255,0.08730939534166827
1772457060744303900,0.842303955078125,0.12808277455568312,0.04677548743933439,0.08969692979902029
1772457060754372000,0.8523720703125,0.13289923492670058,0.012127367906272411,0.0411105752791278
1772457060764440000,0.862440185546875,0.05013619604408741,0.0053916299104690545,-0.0442936257620342
1772457060774508000,0.872508056640625,0.047315877926349635,-0.021881284679472444,-0.06255014407308772
1772457060784576000,0.882575927734375,0.13181786943078042,-0.06978840649724007,-0.034577575047500426
1772457060794644200,0.892644287109375,0.12177227623462676,-0.07709639142304658,0.009976747477333993
1772457060804712000,0.9027119140625,0.0797077429652214,-0.06627104602605104,0.02772562679350376
1772457060814780000,0.91277978515625,0.08070493730902671,-0.03918050226569175,0.017217000929173082
1772457060824849200,0.92284912109375,0.05319383004903793,-0.03261398335695267,-0.01284647596105933
1772457060834917000,0.932917236328125,0.046537879291176795,-0.0410454193547368,-0.044192430409882216
1772457060844985000,0.942985107421875,0.0687415277928114,-0.04920154554247856,-0.03588894990701228
1772457060855053000,0.953052978515625,0.09079846130013465,-0.06510872424840927,-0.056361226305086165
1772457060865121000,0.96312109375,0.0630249037116766,-0.03794248490333557,-0.08098282266864552
1772457060875189000,0.97318896484375,0.0677086776137352,-0.023944354689121244,-0.0575222877074033
1772457060885257000,0.983257080078125,0.06878828954398632,0.0030778000101447105,-0.035486196058709174
1772457060895325000,0.993324951171875,0.024538228929042814,0.0318041282787919,-0.017441347736958414
1772457060905393200,1.00339306640625,-0.017655483677983284,0.08019932587444782,-0.00490532596455887
1772457060915461000,1.013461181640625,0.00933364553451538,0.07383622058331966,0.016038330804929137
1772457060925529900,1.02352978515625,0.040372926920652384,0.07247194649279118,0.019831019352469594
1772457060935598000,1.03359814453125,0.11202245111465453,0.04310293640643358,0.01761374516179785
1772457060945666000,1.043666015625,0.1782113718152046,0.025077450372278688,0.0020713446476496753
1772457060955734000,1.053734130859375,0.18802490982115266,0.01941664813160896,-0.0036835108183324336
1772457060965802000,1.063802001953125,0.15672025549709795,0.02009907743781805,-0.03858814412942156
1772457060975870200,1.0738701171875,0.059572717431187625,0.03415156818777323,-0.07072081024283543
1772457060985938200,1.083938232421875,0.05817044941782951,0.04020575366020202,-0.060133072993997484
1772457060996006700,1.094006591796875,0.12639818246960638,0.020242285300791262,-0.013028901589568704
1772457061006074600,1.10407470703125,0.18538053279221056,-0.0055234395965933795,0.030565745590254663
1772457061016144000,1.114143798828125,0.1972995186448097,-0.0007666004583239555,0.0611096812075004
1772457061026211800,1.1242119140625,0.1755629031330347,0.013724866230785846,0.07341311806673184
1772457061036279600,1.134279541015625,0.14101824397444723,0.0141539052978158,0.052749319418240334
1772457061046347800,1.14434765625,0.09362637820243835,0.01771656621545553,-0.014294702007994054
1772457061056415700,1.154415771484375,0.0017997428983449935,0.035221827767789364,-0.10590897320304066
1772457061066483700,1.164483642578125,-0.011480009913444519,0.017420505878329277,-0.08962627571560441
1772457061076551700,1.1745517578125,0.08091478066742419,0.0021767595171928405,-0.03628927433621138
1772457061086620000,1.184619873046875,0.13984744662940501,0.0001242109015583992,0.034207170832529665
1772457061096687900,1.19468798828125,0.09162205264270305,0.02133066505938768,0.041084582321345806
1772457061106756600,1.204756591796875,-0.007504092019796371,0.03163607823550701,0.0003457446977496147
1772457061116824800,1.214824951171875,-0.043914545050263404,0.03334288215339184,-0.05690031988415867
1772457061126892800,1.224892822265625,-0.057687049815058705,0.02814531351029873,-0.06693276133779436
1772457061136960800,1.234960693359375,0.005870353338122368,0.010434884774684905,-0.05554583653528243
1772457061147028700,1.24502880859375,0.11807049910724163,-0.015400105966627596,-0.027324608244560657
1772457061157097000,1.255096923828125,0.17674188378453254,-0.010118950693309307,0.010457882057782262
1772457061167165000,1.2651650390625,0.225755213278532,0.012858604790270328,0.04911901835817843
1772457061177232600,1.275232666015625,0.22791911331415174,0.004128185845911503,0.06580048763854429
1772457061187300600,1.285300537109375,0.1472854876756668,-0.004044306954741478,0.025680823092907666
1772457061197369900,1.295369873046875,0.05192074137330055,0.008136252443492411,-0.03834006938617676
1772457061207437800,1.305437744140625,0.05179390012323856,-0.004571253438293933,-0.07601212158398703
1772457061217505800,1.315505859375,0.0949836380302906,-0.04182897094786167,-0.0909958835683763
1772457061227573800,1.32557373046875,0.10895020406246185,-0.03179652949422598,-0.04812080110106617
1772457061237641700,1.335641845703125,0.05689560717642307,-0.009570961421728134,-0.03660055050877854
1772457061247709700,1.345709716796875,0.054882513788342475,-0.0002443301498889923,0.010104648173321037
1772457061257777700,1.355777587890625,0.06591419541239738,-0.006454290705919265,0.01917947837486863
1772457061267846000,1.365845947265625,0.017795184409618376,0.0006117021575570106,-0.012433218985050915
1772457061277913900,1.375913818359375,-0.016532617127895353,0.029828736552596092,-0.03847743203025311
1772457061287981800,1.38598193359375,-0.0004874912559986114,0.03668605510145426,-0.040138953767996276
1772457061298050800,1.39605078125,0.03220072638094425,0.03178337775170803,-0.011989110213052481
1772457061308118800,1.406118896484375,0.07047989589273929,0.018622282883524893,0.05554010091423988
1772457061318186800,1.416186767578125,0.10278349812626839,0.020950141309201715,0.08875762138860299
1772457061328254700,1.426254638671875,0.10599603043198585,0.01309504389464855,0.07122163590444251
1772457061338323000,1.436322998046875,0.1434329039007425,0.012739654585719108,0.06598916034474968
1772457061348391000,1.446390869140625,0.13805588703751565,-0.00033200843334198,0.04696249791141599
1772457061358459000,1.456458984375,0.09041501494050025,0.036791561302542686,0.06874476092951372
1772457061368526600,1.466526611328125,0.12363923915028571,0.03968348335176706,0.08532746427683159
1772457061378594800,1.4765947265625,0.12152151634395122,0.06791705966740846,0.0901887867028825
1772457061388663800,1.486663818359375,0.054661564514040945,0.07743190698772669,0.059159131661616265
1772457061398731800,1.496731689453125,-0.0668412471294403,0.07651128501147031,-0.026042422946915028
1772457061408800000,1.506800048828125,-0.11522446202635764,0.04995148712694645,-0.06351862377906217
1772457061418867700,1.51686767578125,-0.038756139373779294,0.030022505559027194,-0.06446344861481339
1772457061428935700,1.526935791015625,0.08440788348019122,0.012804828776419162,0.01800374912638217
1772457061439003600,1.537003662109375,0.163119016623497,0.005749357306957244,0.06697446332136169
1772457061449071900,1.54707177734375,0.19355214881002902,-0.012278466814756393,0.06426609941180796
1772457061459139800,1.557139892578125,0.14741232892572878,-0.0075146134138107295,0.012060421883594245
1772457061469207800,1.567207763671875,0.0774421361207962,0.00666238049864769,-0.020275000260304658
1772457061479276800,1.57727685546875,0.060330842322111125,0.01156271976083517,-0.0044866621610708535
1772457061489344800,1.5873447265625,0.12912614612877368,-0.006951426573097706,0.013742584550566971
1772457061499412700,1.597412841796875,0.14821955365538597,-0.018026655077934266,0.04237611996922642
1772457061509480700,1.607480712890625,0.13602350442707536,-0.018303426192700863,0.02717292481418699
1772457061519549000,1.617548828125,0.11055179404020309,-0.03385667689442634,-0.03125674179540947
1772457061529617000,1.627616943359375,0.07340192081928253,-0.022656945227086542,-0.08193069797800853
1772457061539684900,1.637684814453125,0.06943535527586936,-0.030541268736124037,-0.09066056893309578
1772457061549752800,1.6477529296875,0.05794365492463111,-0.02243482690900564,-0.0769323965003714
1772457061559820800,1.65782080078125,0.022246903121471404,-0.0014268179327249525,-0.029001784209161996
1772457061569889800,1.667889892578125,0.035004677885770795,0.0314274039208889,0.01394382447740063
1772457061579957800,1.677957763671875,0.07650748561918735,0.011774316684901713,0.032085685166530306
1772457061590026000,1.68802587890625,0.12502046437561512,0.002760696884989738,0.03434509973218664
1772457061600094000,1.698093994140625,0.14974047961235046,0.015543021568655967,0.030515750702377407
1772457061610161700,1.70816162109375,0.13970482328832148,-0.0014665654212236404,0.010711875085160135
1772457061620229600,1.718229736328125,0.12213000363111495,0.010871814887225627,-0.026377262658160178
1772457061630297900,1.7282978515625,0.12467325837314128,0.008685995280742645,-0.034463940338883545
1772457061640365800,1.73836572265625,0.139778473046422,0.0024359949752688404,-0.00043866541190072894
1772457061650433800,1.748433837890625,0.17137889544665813,0.009218494722247124,0.02048853341313079
1772457061660502800,1.758502685546875,0.1834668081253767,0.02607873636931181,0.0441572494986467
1772457061670570800,1.76857080078125,0.1937485481649637,0.037758945029973984,0.004669745376706123
1772457061680638700,1.778638671875,0.0799737004250288,0.054719432181119916,-0.031069658258091656
1772457061690706700,1.788706787109375,-0.07076397353112697,0.09038111267089843,-0.06085466526681557
1772457061700774700,1.798774658203125,-0.07372808403372764,0.06840718127191066,-0.02807383744297549
1772457061710843000,1.8088427734375,0.02421732641160488,0.043992870983481404,0.03016277254624292
1772457061720910800,1.818910888671875,0.04584229824244976,0.036845629577338695,0.10067706389892846
1772457061730978800,1.828978759765625,0.09058101915717125,0.04586743268370628,0.14259102798281237
1772457061741046800,1.839046875,0.065599722635746,0.06555559123307467,0.13441256209909916
1772457061751115800,1.84911572265625,0.0018798223972320556,0.08129910380989312,0.10142645749412477
1772457061761183700,1.859183837890625,-0.048589551123976706,0.09621785600036382,0.06034821358202025
1772457061771251700,1.869251708984375,-0.03264145588576794,0.07045797632187605,0.03843609537286684
1772457061781320000,1.87931982421875,0.07223229251801967,0.04432897107005119,0.019230002985708414
1772457061791388000,1.889387939453125,0.13744097000956534,0.02527005033493042,0.04875290672583505
1772457061801455600,1.89945556640625,0.18276245924830437,0.011655658741295337,0.08185553211625665
1772457061811523600,1.909523681640625,0.18815642724633216,0.005350128856301308,0.05288927587820217
1772457061821591800,1.919591796875,0.10263795217573642,0.022470775005221367,-0.005961374356132
1772457061831659800,1.92965966796875,0.03526537464857101,0.035092356169223786,-0.05026188651667907
1772457061841727700,1.939727783203125,0.03231529267132282,0.00841477712392807,-0.09439343531848862
1772457061851797000,1.949796875,0.0700835900515318,-0.015865969912707806,-0.07264814330991357
1772457061861864700,1.95986474609375,0.13922317725121974,-0.016611527583003043,-0.016715207153186203
1772457061871932700,1.9699326171875,0.17393384062647818,-0.018798808494210242,0.038348544953577215
1772457061882000600,1.980000732421875,0.18171674958765505,-0.020048224033415316,0.025092355680465698
1772457061892068900,1.99006884765625,0.10482289499938488,-0.0070972647845745085,-0.03789650860344991
1772457061902136800,2.00013671875,0.06110591834783554,0.01591711557805538,-0.06072037136266008
1772457061912204800,2.010204833984375,0.05017652805447578,0.01579816537350416,-0.025950324216671285
1772457061922272800,2.020272705078125,0.13092588902711869,-0.0025751111850142476,0.01050674443449825
1772457061932341800,2.030341796875,0.16373159556388853,-0.014611878198385237,0.05791647465676069
1772457061942409700,2.04040966796875,0.09229016116261482,-0.004418693225085735,0.0221138878589496
1772457061952477700,2.050477783203125,0.0052151042997837065,0.03267302006781101,-0.054151404768507924
1772457061962546000,2.0605458984375,-0.0099906481385231,0.03917319574207067,-0.07245198141699656
1772457061972614000,2.07061376953125,0.055603813800215715,0.033302257882058615,0.0010997962017543614
1772457061982681900,2.080681884765625,0.1343190385967493,0.0492301871150732,0.09668077907068655
1772457061992749600,2.09074951171875,0.20987726066708565,0.05762801310420036,0.1560785235274583
1772457062002817500,2.100817626953125,0.2431839024633169,0.04506225378066301,0.1922952988830395
1772457062012885500,2.110885498046875,0.16408523130714892,0.031190380294620988,0.0816381082396023
1772457062022954500,2.12095458984375,-0.0033960721790790554,0.04972936880886555,-0.017076058088522403
1772457062033022700,2.131022705078125,-0.06406827528476715,0.03434504493325948,-0.05806282432489097
1772457062043090700,2.141090576171875,-0.00315232655107975,0.003233575093746185,-0.02130339345997199
1772457062053158400,2.151158447265625,0.14469488666057587,-0.013091536763310431,0.01677793365847319
1772457062063226400,2.161226318359375,0.26371172670722004,-0.03227349935621023,0.06620961642870679
1772457062073294600,2.171294677734375,0.2298030273646116,-0.009431552951037883,0.07123261395618319
1772457062083362600,2.181362548828125,0.07069792255759239,0.021531448328495024,0.05266133060753345
1772457062093430500,2.191430419921875,-0.03929273046851158,0.05885960072576999,0.057947436050605025
1772457062103498500,2.20149853515625,-0.015578677403926848,0.06115384914278984,0.04860726944375783
1772457062113566700,2.211566650390625,0.01618599564731121,0.03242313695997,0.028669702710583805
1772457062123635500,2.221635498046875,0.017705752560496328,0.04152092791199684,0.03341324397586286
1772457062133703400,2.231703369140625,0.00849836375415325,0.051120530906319614,0.034268563897255806
1772457062143771600,2.241771728515625,-0.03901683613657951,0.0802802821561694,-0.001688775070849806
1772457062153839600,2.251839599609375,-0.07982640090882778,0.07735358105450868,-0.03432407521046698
1772457062163907600,2.261907470703125,-0.06459960568249225,0.08899901066273451,-0.018523809211421757
1772457062173975600,2.2719755859375,0.05653612621426582,0.03997457525283098,0.03513456960944459
1772457062184043500,2.28204345703125,0.14936521655917168,0.01654810695797205,0.060204549061320715
1772457062194111500,2.292111572265625,0.13878712392151354,0.012337211264669894,0.02901882667550817
1772457062204180500,2.302180419921875,0.10824000996649265,-0.0024450550645589825,0.005924768672790378
1772457062214248400,2.31224853515625,0.10976678114235401,-0.0030620179191231727,-0.017943616436980662
1772457062224316700,2.322316650390625,0.15816636265218256,-0.019660393759608267,-0.013164127075485884
1772457062234384600,2.332384521484375,0.1383101540595293,-0.03972060049176216,-0.02267628924837336
1772457062244452400,2.342452392578125,0.07614508204758166,-0.04446662597507238,-0.04722578849010169
1772457062254520300,2.352520263671875,0.049026188975572586,-0.02431581835001707,-0.0457605565094389
1772457062264588500,2.362588623046875,0.07231704819202422,-0.02549392221868038,-0.040124139791354534
1772457062274656500,2.372656494140625,0.09086275870800017,-0.023755261857807634,-0.025699801788013427
1772457062284724500,2.382724365234375,0.08962181873619555,0.000263034850358963,-0.013881974754948168
1772457062294793700,2.392793701171875,0.05775310078859329,-0.0013543372184038162,-0.0014585282452404499
1772457062304861400,2.402861328125,0.041915480187535284,-0.0151341485068202,-0.014235994090698659
1772457062314929400,2.412929443359375,-0.002429272973537445,-0.0035498014360666272,-0.061894146116077894
1772457062324997400,2.422997314453125,-0.056619712844491,0.017740823873877525,-0.10870457700463011
1772457062335065600,2.433065673828125,-0.017487725895643232,0.020107553005218503,-0.08312772574285045
1772457062345133600,2.443133544921875,-0.023676059141755103,0.0396337989911437,-0.029531890764180568
1772457062355201500,2.453201416015625,0.03953530705273151,0.033866613766551014,0.025654811868816612
1772457062365269500,2.46326953125,0.10053718050420284,0.024299451737105845,0.039812388694752
1772457062375337700,2.473337646484375,0.097196637904644,0.03940145153999328,0.0226671195612289
1772457062385406500,2.483406494140625,0.14190613272488117,0.056743339224159715,0.04042418218385428
1772457062395474400,2.493474365234375,0.15820260300934313,0.0511865818798542,0.07986981992544606
1772457062405542700,2.503542724609375,0.17881109127402303,0.06813304050564765,0.0782313502697274
1772457062415610600,2.513610595703125,0.23292612782120703,0.052667760348320006,0.08595617236811667
1772457062425678600,2.5236787109375,0.24175240835547446,0.06944675345271825,0.11411639118660241
1772457062435746300,2.533746337890625,0.24068916303813456,0.05544160897582769,0.11229492964679375
1772457062445814500,2.543814453125,0.18861819953918457,0.05656242969930172,0.07860579133899882
1772457062455882500,2.553882568359375,0.08821545906960963,0.0615019319280982,0.044306083384808154
1772457062465950500,2.563950439453125,0.01680909598171711,0.08825345299243927,0.006296798589266836
1772457062476019700,2.574019775390625,0.02894084780216217,0.06299129370301962,0.02410560966543853
1772457062486087700,2.584087646484375,0.009933364993333816,0.035734745725989336,0.0048863838020712135
1772457062496155400,2.5941552734375,-0.05149520943760871,0.04142068240791559,-0.07386363831320777
1772457062506223400,2.604223388671875,-0.04323123896121978,0.03760170864164829,-0.07794029490128158
1772457062516291600,2.61429150390625,0.027141104903817177,0.041132513116300104,-0.04726692421808838
1772457062526359600,2.624359619140625,0.06624678836762905,0.0330807240858674,0.012968184378277509
1772457062536427500,2.634427490234375,0.0747492437750101,0.03931494230031967,0.03005178645243868
1772457062546495500,2.64449560546875,0.09672843587100505,0.053100891068577766,0.025547314640041438
1772457062556563700,2.654563720703125,0.11850479887127875,0.03177431766241789,0.016260759650263936
1772457062566632400,2.664632568359375,0.10290624772310257,0.029361411301791665,-0.01830852249292657
1772457062576700400,2.674700439453125,0.11197218223214149,0.03117372142076492,-0.03879406023137271
1772457062586768600,2.6847685546875,0.17301672578155994,0.03639788580983877,0.003169624745752662
1772457062596836600,2.694836669921875,0.16891747376918792,0.04051934965401888,0.03925723903002217
1772457062606904600,2.704904541015625,0.15024316843748092,0.040268005241453644,0.008259294301271439
1772457062616972500,2.71497265625,0.1602788247615099,0.014898586185276508,0.008657956496346741
1772457062627040500,2.72504052734375,0.1765168428570032,0.0049319034442305565,-0.028725341887958347
1772457062637108500,2.7351083984375,0.1269295128673315,-0.007060439905524254,-0.017730174615699798
1772457062647176400,2.745176513671875,0.12688216659426688,0.0018146482065320014,0.007727141919638961
1772457062657245700,2.75524560546875,0.14205635485053061,-0.032228491170704365,0.018336214217450467
1772457062667313700,2.765313720703125,0.135239076051116,-0.028801731592416762,0.04347125826217234
1772457062677381600,2.775381591796875,0.08409341070353984,-0.022509061188995837,-0.015615520549286156
1772457062687449300,2.785449462890625,-0.04404664699733257,0.004130231672525406,-0.11364367737462744
1772457062697517600,2.795517578125,-0.13618249438107013,0.0231643102273345,-0.13505060427431018
1772457062707585500,2.80558544921875,-0.13423311387896536,0.04338935213238001,-0.0554153420234099
1772457062717653500,2.815653564453125,-0.0773328305274248,0.039382162317633626,0.03439951506685465
1772457062727721500,2.825721435546875,0.03383388054072857,0.05070756619125604,0.14690226051174105
1772457062737789700,2.835789794921875,0.11052256794571876,0.06097060153037309,0.17185036714961752
1772457062747858400,2.8458583984375,0.14563245977163314,0.07407032160013914,0.14800872391629963
1772457062757926400,2.855926513671875,0.11268822154700756,0.09041793754994869,0.09383649555547162
1772457062767994600,2.86599462890625,-0.009978957700729369,0.10392799198627471,0.04586005309484899
1772457062778062600,2.8760625,-0.07203998481631278,0.07663724947869777,-0.005370294861495494
1772457062788130600,2.886130615234375,0.015059037443995475,0.009969897611439228,-0.00641658904403448
1772457062798198500,2.896198486328125,0.1746300061970949,-0.03162117292732,0.016368457808438687
1772457062808266800,2.906266845703125,0.2759136211544275,-0.039549627839028836,0.06199985324656591
1772457062818334500,2.91633447265625,0.3204688021957874,-0.041241526448726654,0.12248460748875513
1772457062828403500,2.926403564453125,0.27081016053557394,-0.006829846020042896,0.12942231606375426
1772457062838471700,2.9364716796875,0.16593290500044822,0.03549830662161112,0.06467906412687152
1772457062848539600,2.94653955078125,0.05582827020585537,0.05762888988703489,0.006811871971935033
1772457062858607600,2.956607666015625,-0.016145663636922835,0.060468497227132316,-0.025199871175549924
1772457062868675600,2.966675537109375,0.020826514929533003,0.03992664445787668,-0.0230323361444287
1772457062878743600,2.97674365234375,0.09928279652893543,0.024089316117763517,-0.012853618087898939
1772457062888811500,2.9868115234375,0.11889292140603065,0.01983370449990034,0.013382701729610562
1772457062898879500,2.99687939453125,0.09671499186754226,0.027307693642377853,0.04747132421638817
1772457062908947500,3.006947509765625,0.08733107745051384,0.030357144340872763,0.03307349062748253
1772457062919016700,3.0170166015625,0.02150806745290756,0.03326572526395321,-0.008444058017339558
1772457062929084400,3.02708447265625,-0.027058687317371367,0.05385433978438377,-0.023620529562234878
1772457062939152400,3.03715234375,0.027945407024025915,0.017771219012141227,-0.05116420565126464
1772457062949220400,3.047220458984375,0.08922668193876743,-0.008617021697759629,-0.015598697278648615
1772457062959288600,3.05728857421875,0.1366197167545557,-0.04298749333322048,0.00463218984529376
1772457062969356500,3.0673564453125,0.10719839195907116,-0.03640168520212173,-0.022044055759441107
1772457062979424500,3.077424560546875,0.013396657189726829,-0.03336012554913759,-0.048418980330042535
1772457062989492500,3.087492431640625,-0.006464812099933624,-0.015291092634201049,-0.053707606523763385
1772457062999560400,3.097560546875,-0.018192074772715568,-0.017825579547882078,-0.04142309356071055
1772457063009629200,3.107629150390625,-0.01997486653625965,-0.008372691547870636,-0.030684896724205463
1772457063019697200,3.117697265625,-0.0016880992174148558,-0.02440934185236692,0.02471899232342839
1772457063029765400,3.127765380859375,0.019712416207790375,-0.04078852198421955,0.01526031390344724
1772457063039833300,3.137833251953125,-0.018779519271850585,-0.030327333724498747,-0.0200015353474766
1772457063049901300,3.1479013671875,-0.001000116953253746,-0.04365735541880131,-0.009340787661354988
1772457063059969300,3.15796923828125,0.07027882036268711,-0.04894844756424427,0.0018025924425572155
1772457063070037200,3.168037353515625,0.11075228504836558,-0.0270791455835104,0.03690395390214398
1772457063080105200,3.178105224609375,0.16799802083671092,-0.004472761499881744,0.04248898749286309
1772457063090174200,3.18817431640625,0.17196692446768283,0.004194236819446087,0.043193829560279846
1772457063100242400,3.198242431640625,0.1361924312531948,0.02816226464509964,0.03480468006795272
1772457063110310400,3.208310302734375,0.08394260405600071,0.03498948031663895,0.014281458933930843
1772457063120378400,3.21837841796875,0.06255494811236859,0.04363075967282057,-0.013273560533020645
1772457063130446000,3.228446044921875,0.03248071236610412,0.028426760800182818,-0.026074608183465898
1772457063140514300,3.238514404296875,0.04350187259614467,0.021808219443261622,-0.01386774530019611
1772457063150582300,3.248582275390625,0.05499708007872104,0.0431260250210762,-0.0029850436927750705
1772457063160650200,3.258650146484375,0.13113047168850897,0.046022623245418066,0.045524537530168885
1772457063170718200,3.26871826171875,0.1381575938463211,0.03750847740024328,0.04618236211808398
1772457063180787200,3.278787109375,0.12634206836819648,0.04667874906659126,0.026071740372944623
1772457063190855200,3.288855224609375,0.12684767980277536,0.049662148791551584,0.02128907267367467
1772457063200923100,3.298923095703125,0.1088689555197954,0.05056903450340032,0.0029028453020378945
1772457063210991400,3.308991455078125,0.0445855761796236,0.06796002202630043,0.0026808000491932034
1772457063221059300,3.319059326171875,-0.007817980274558068,0.0722811000958085,0.007105137563776225
1772457063231127300,3.329127197265625,0.037672435790300364,0.05957739360630512,0.028665720655210315
1772457063241195300,3.3391953125,0.08463409345149993,0.027000819650292395,0.053600639017950744
1772457063251263500,3.349263427734375,0.10723346327245235,-0.004356149382889271,0.036866380104422565
1772457063261331200,3.359331298828125,0.13559095822870731,-0.003257248230278492,0.0017136537837795912
1772457063271400200,3.369400146484375,0.15219839415848255,-0.011531155578792094,-0.028872696203086523
1772457063281468400,3.379468505859375,0.16199615007340906,-0.02206014837771654,-0.03073969565136358
1772457063291536400,3.389536376953125,0.09796469966769218,-0.019667408022284505,-0.021172168295737356
1772457063301604400,3.399604248046875,-0.011948211947083473,0.010912731419503689,-0.017541848969366402
1772457063311672300,3.40967236328125,-0.013746785801649094,0.026566519886255264,-0.004794906126335263
1772457063321740300,3.419740234375,0.06620236470401286,0.003895253872871399,0.05210656453529373
1772457063331808300,3.429808349609375,0.14671908596456051,0.00348433498442173,0.08941740047158672
1772457063341876200,3.439876220703125,0.17520868286788463,0.008473521573841571,0.11078808701410889
1772457063351944200,3.449944091796875,0.12195640062987803,0.037269992469251154,0.059335766870155925
1772457063362013400,3.460013427734375,-0.02090776347219944,0.05834083754867315,-0.03782886846102774
1772457063372081200,3.4700810546875,-0.1026081415593624,0.08402385259866714,-0.0863914402465336
1772457063382149000,3.480149169921875,-0.04521569077670574,0.03764408647865057,-0.07538151379656047
1772457063392217300,3.49021728515625,0.0815203453451395,0.025792905165255068,0.004211461948882788
1772457063402285300,3.500285400390625,0.1748661530405283,0.007756020954251289,0.060766311129927635
1772457063412353300,3.510353271484375,0.2210544882416725,0.0031280688926577566,0.09448361608628184
1772457063422421200,3.520421142578125,0.22612696920037267,0.01622866574525833,0.06151449914872646
1772457063432489500,3.530489501953125,0.15557576163709164,0.030810148805379866,-0.014864556051511317
1772457063442558200,3.54055810546875,0.10458850172162056,0.04770663080960512,-0.060271495083998886
1772457063452626200,3.550626220703125,0.14369535422921179,0.016935060448944567,-0.11478694739192724
1772457063462694100,3.560694091796875,0.1755927137494087,-0.007831132017076015,-0.11345215512420981
1772457063472762400,3.570762451171875,0.17167349447906016,-0.0010784428864717482,-0.06851959213782101
1772457063482830300,3.580830322265625,0.15872516557872293,-0.005572831696271896,-0.012434753355011343
1772457063492898300,3.590898193359375,0.18383505691587923,-0.001692190870642662,-0.0012799202753230928
1772457063502966300,3.60096630859375,0.13952479054629802,-0.020931436608731747,-0.03845664497055113
1772457063513034200,3.6110341796875,0.05612812993526459,0.003379705566167831,-0.10151813609926029
1772457063523102200,3.621102294921875,0.0019908815562725067,0.010413549725711345,-0.11496727239489554
1772457063533171200,3.631171142578125,-0.004208557605743408,0.008687748846411705,-0.07873422175794839
1772457063543239400,3.641239501953125,-0.00995323873758316,0.016580547922849655,-0.03340409255502745
1772457063553307400,3.651307373046875,0.05204758262336254,-0.00395925901979208,0.015430628969054668
1772457063563375400,3.661375244140625,0.12302841377556323,-0.0348804669842124,0.042034448658395555
1772457063573443000,3.671443115234375,0.14580255564153194,-0.03337766120582819,0.03249576380476355
1772457063583511300,3.68151123046875,0.14780921928882598,-0.04085340391397476,0.033929632532782854
1772457063593579300,3.691579345703125,0.07118424476981162,0.00912497121989727,0.040557964631356296
1772457063603647200,3.701647216796875,0.04106792344748974,0.050667526441812515,0.05611433887192979
1772457063613716500,3.711716552734375,0.07557458868324757,0.06055033029168844,0.08748738225707783
1772457063623784200,3.7217841796875,0.09269815744161605,0.061136021225154394,0.10741957869539037
1772457063633852200,3.73185205078125,0.06760229462981224,0.06541764406710862,0.08676195405935869
1772457063643920100,3.741920166015625,0.026036943054199218,0.08902239153832196,0.0441484451376833
1772457063653988400,3.75198828125,0.005695581293106078,0.09969079280793666,0.022203557170089334
1772457063664056300,3.762056396484375,0.015598551148176192,0.10774871931821108,0.019253840519022195
1772457063674124300,3.772124267578125,0.03698211543858051,0.0913914587572217,0.027695213388931005
1772457063684192300,3.782192138671875,0.09643617492616176,0.05848053828030824,0.019414109114650635
1772457063694260500,3.792260498046875,0.14462591307759284,0.048880935285985465,0.013353694830834865
1772457063704329200,3.8023291015625,0.10575988358855247,0.014024141438305377,-0.013559976258967071
1772457063714397200,3.812397216796875,0.06158405725359916,0.00856675281524658,-0.04052031776839867
1772457063724465400,3.82246533203125,0.053963060855865476,-0.03310615078806877,-0.045432895457651466
1772457063734533400,3.832533447265625,0.07743103020489216,-0.056390288002789016,-0.043239020408876234
1772457063744601300,3.842601318359375,0.05970365033447742,-0.060112523396313185,-0.04847383405612781
1772457063754669300,3.85266943359375,0.042542087653279305,-0.03344838835448027,-0.02427985198749229
1772457063764737300,3.8627373046875,0.07800912235379219,-0.033538404725492,-0.001113733395561576
1772457063774805200,3.87280517578125,0.08952595714628696,-0.04292991792708635,0.005270926140248775
1772457063784874200,3.882874267578125,0.04489595730304718,-0.0264843945607543,-0.023125804847851393
1772457063794942500,3.8929423828125,0.030637714847922323,-0.028528759869933126,-0.06446215170687064
1772457063805010400,3.903010498046875,0.0565589225679636,-0.04551555050611496,-0.08278789932923392
1772457063815078100,3.913078125,0.045913025391101835,-0.020602935306727885,-0.06396399292638524
1772457063825146000,3.92314599609375,0.0670680416226387,-0.00033610008656978605,0.01024555448135361
1772457063835214300,3.93321435546875,0.15181319423317907,0.024059797762334346,0.07904379916377365
1772457063845282300,3.9432822265625,0.10765081190168857,0.04920271458625793,0.12613227980872616
1772457063855350300,3.953350341796875,0.06099369014501571,0.09716858085393905,0.09504800850339233
1772457063865418200,3.963418212890625,0.026487609431147575,0.08421703708320856,0.03287095379270613
1772457063875487200,3.9734873046875,-0.005790273839235306,0.06042407356351614,-0.03286382993217558
1772457063885555200,3.98355517578125,-0.09956921225488186,0.06397562856525182,-0.09582651859521865
1772457063895623200,3.993623046875,-0.12090601479411124,0.07809037089645862,-0.0643224692415446
1772457063905691400,4.00369140625,-0.014517770174145697,0.07479892813563346,0.022995712194778025
1772457063915759400,4.01375927734375,0.16533493910729885,0.038839141482114786,0.0935571488911286
1772457063925827300,4.023827392578125,0.24865093569755553,-0.0019514263287186621,0.10243172554653138
1772457063935895300,4.033895263671875,0.2536515204638243,0.011308744999766349,0.09562253872202708
1772457063945963300,4.04396337890625,0.2165706208258867,0.006401975996792316,0.03349189870264381
1772457063956031200,4.05403125,0.11362053396105766,0.013892916274070738,-0.0696724884999916
1772457063966100200,4.064100341796875,0.09813771814703941,0.029299451981484887,-0.06641998951006681
1772457063976168400,4.07416845703125,0.15009411535561085,0.005026888251304626,-0.01503916369974613
1772457063986236400,4.084236328125,0.173742117446661,-0.005230301868915557,0.05134805605188012
1772457063996304600,4.0943046875,0.17584347364008426,0.0158531104311347,0.06524055220084264
1772457064006372400,4.104372314453125,0.15403203932642937,0.01008475616276264,0.046189741706941276
1772457064016440300,4.1144404296875,0.0679740505516529,0.00039952071160078047,-0.00021026348350569604
1772457064026508500,4.124508544921875,0.006257891350984573,0.03793897777199745,-0.05353272488089278
1772457064036576500,4.134576416015625,-0.04425824392139911,0.06258329742401839,-0.07208024376146495
1772457064046645500,4.1446455078125,-0.050177697098255154,0.0453024922773242,-0.04451665739556774
1772457064056713200,4.154713134765625,-0.023665537747740745,0.03575111233890056,-0.011039718800038099
1772457064066781400,4.164781494140625,0.00684182871878147,0.04522445860505104,0.057219541901163753
1772457064076849400,4.174849365234375,0.06797755768299102,0.0443655036881566,0.0932564306451939
1772457064086917400,4.18491748046875,0.08146423124372959,0.03061871788650751,0.03267389685064554
1772457064096985300,4.1949853515625,0.027630934247374533,0.026493454650044438,-0.006951682301424443
1772457064107053600,4.205053466796875,0.0018342296898365019,0.01490501592606306,-0.04728486173357814
1772457064117121500,4.21512158203125,0.008587211081385613,0.023824235440790653,-0.059567968190833924
1772457064127189500,4.225189453125,0.05211129550933838,0.008165478537976742,-0.0007333192432299256
1772457064137258500,4.235258544921875,0.12434534159302711,0.014986848990619181,0.07039638232775032
1772457064147326500,4.245326416015625,0.20141572179198264,0.007259761869907379,0.10263535835985094
1772457064157394400,4.25539453125,0.24587913289666175,0.021093641433119772,0.10324534348435699
1772457064167462400,4.26546240234375,0.228875391125679,0.0037555531412363052,0.06188985353345051
1772457064177530600,4.275530517578125,0.20173428622186182,0.018090660224854945,0.028467512935679406
1772457064187598600,4.2855986328125,0.10085457589030265,0.01717588346749544,-0.04366966691110283
1772457064197666300,4.295666259765625,0.054364627394080156,0.03509732460528612,-0.04348747874461114
1772457064207734300,4.305734375,0.09282558321356772,0.014525661219656467,-0.0055132652624510226
1772457064217803500,4.315803466796875,0.10704992339909077,0.02930938885360956,0.04385386437159031
1772457064227871500,4.32587158203125,0.11029401988685131,0.05216974769830703,0.06465482473475859
1772457064237939500,4.335939453125,0.1379740539729595,0.0424199225783348,0.042224527870398015
1772457064248007400,4.34600732421875,0.09623626843988894,0.034684944412112236,-0.01879115491071716
1772457064258075400,4.356075439453125,0.02897124294042587,0.04792202712595463,-0.08318599526872858
1772457064268143400,4.366143310546875,-0.07799860095977783,0.06153846454620361,-0.08805413102805613
1772457064278211300,4.37621142578125,-0.07593699225485324,0.057551440736651416,-0.0951653147401288
1772457064288279600,4.386279541015625,-0.04134557134509086,0.046482057450711725,-0.08456309230821207
1772457064298348500,4.3963486328125,0.016664134553074837,0.006288578750193119,-0.027745171744190156
1772457064308416300,4.406416259765625,0.12443360439836978,-0.008271861521899699,0.018394520275946704
1772457064318484500,4.416484375,0.19471534737050533,-0.027112755592167376,0.049546084663830696
1772457064328552400,4.426552490234375,0.19673136336803435,-0.015869184783101082,-0.017329265664611012
1772457064338620400,4.436620361328125,0.12325754635632037,-0.010908055244386195,-0.06682657928327099
1772457064348688400,4.4466884765625,0.09810615396499633,0.028463585679233072,-0.06867668239567429
1772457064358756600,4.456756591796875,0.1100374147772789,-0.00023819267004728315,-0.014836590332351624
1772457064368824600,4.466824462890625,0.11027765327394008,0.015035948829352854,0.003805328833404928
1772457064378892500,4.476892578125,0.12866145122647285,0.03229951058030128,0.0250096640993841
1772457064388961500,4.48696142578125,0.11274141303896903,0.04848609074950218,0.057374531533475964
1772457064399029500,4.497029541015625,0.07945230689942837,0.07405337046533822,0.05690570844532922
1772457064409097500,4.507097412109375,0.0634387452095747,0.08295593110620975,0.0572705049034208
1772457064419165400,4.51716552734375,0.06104980424642562,0.09225245950073004,0.0628365780653432
1772457064429233700,4.527233642578125,0.1097714573174715,0.08202420321404934,0.06672131054420023
1772457064439301400,4.53730126953125,0.11414426557421684,0.06392156029045581,0.056990372787788506
1772457064449369300,4.547369384765625,0.09448620990216731,0.06193593943119049,0.02994607932195067
1772457064459437300,4.557437255859375,0.03517944993078709,0.042221769657731056,0.0013560542514547704
1772457064469506600,4.567506591796875,0.031051556345820425,0.00063917468637228,-0.04619845473635942
1772457064479574500,4.577574462890625,0.026385902622342108,-0.01667787081748247,-0.06805498856706545
1772457064489642500,4.587642578125,0.01225157880783081,-0.02690641936510801,-0.07195851707793771
1772457064499710500,4.59771044921875,0.05578618462979793,-0.056800037847459316,-0.01992843357864767
1772457064509778400,4.6077783203125,0.09398878177404403,-0.04437076438516378,0.015207779998611658
1772457064519846400,4.617846435546875,0.06284720905721188,-0.028037469221651554,0.03200849174447357
1772457064529914400,4.627914306640625,0.07371171742081642,-0.024186346751451492,-0.0006516140428371727
1772457064539982600,4.637982666015625,0.027868834656476972,-0.016045125871896743,-0.022449914880283174
1772457064550050600,4.648050537109375,0.027476035946607587,-0.02003419550806284,-0.04935054382542148
1772457064560119300,4.658119384765625,0.03423661612272262,-0.04167962560504675,-0.07928612001966684
1772457064570187500,4.6681875,0.005750526350736617,-0.035956279522180556,-0.08379349617520347
1772457064580255500,4.67825537109375,0.00647241088449955,-0.01156096619516611,-0.04247934288168326
1772457064590323500,4.688323486328125,0.04761106148064136,-0.009914660292863845,-0.014114139543008058
1772457064600391400,4.698391357421875,0.13472294322252273,-0.015354513259232044,0.04976465931795537
1772457064610459600,4.708459716796875,0.16033669242858886,0.0009171148449182509,0.09332080111829563
1772457064620527600,4.718527587890625,0.15787643979489802,0.017101649187505244,0.08796482704309747
1772457064630595300,4.72859521484375,0.13379355341792107,0.035763679559528826,0.06692357338434085
1772457064640664300,4.738664306640625,0.032497663500905036,0.028611177456378936,-0.018576507513038812
1772457064650732500,4.748732666015625,-0.017701076385378836,0.05122486806362867,-0.03881070083891973
1772457064660800500,4.758800537109375,0.08050269273519516,0.01694324375540018,-0.02435463425675407
1772457064670868500,4.768868408203125,0.20586276432871817,-0.010899871937930584,0.04462181653678417
1772457064680936400,4.7789365234375,0.22119301992952822,-0.03737637545317411,0.08904447550596668
1772457064691004400,4.78900439453125,0.17850655536949633,0.0002887538135051727,0.08934309312636032
1772457064701072400,4.799072265625,0.11777473103106022,0.013493980084359645,0.06566812996314839
1772457064711140400,4.809140380859375,0.04018763348162174,0.02486906831860542,-0.004931939976848662
1772457064721208300,4.819208251953125,-0.027622166419029235,0.028114626111090182,-0.05892559690037742
1772457064731277600,4.829277587890625,-0.03852700679302215,0.03156710465252399,-0.04178810921451077
1772457064741345300,4.83934521484375,0.009012158495187758,0.03261515240073204,0.0231960570724681
1772457064751413200,4.849413330078125,0.05195172103345394,0.03476005547493696,0.08926381734507158
1772457064761481500,4.8594814453125,0.0901256766051054,0.029445874714851376,0.10759601297453045
1772457064771549400,4.869549560546875,0.11395604952573776,0.03772767310887575,0.10212395650530233
1772457064781617400,4.879617431640625,0.06139701024889946,0.050585108855366705,0.03413282695468515
1772457064791685400,4.889685302734375,-0.04630056340396404,0.064279287686944,-0.037350053701829165
1772457064801753600,4.899753662109375,-0.07080956623852253,0.08368950607776642,-0.07222451107036322
1772457064811822300,4.909822265625,0.026309914776682854,0.04411269797086716,-0.026516561530996113
1772457064821890300,4.919890380859375,0.12438742716908455,0.028371523481607437,0.028109712473955002
1772457064831958500,4.92995849609375,0.16508067208528518,0.02944353662729263,0.0814602491883561
1772457064842026500,4.940026611328125,0.15622048928141594,0.04943798464685678,0.12893511706870048
1772457064852094500,4.950094482421875,0.09249883547723292,0.07764496521651744,0.09199075809093192
1772457064862162400,4.960162353515625,-0.0015028057783842085,0.09556815991997718,0.024027265465911475
1772457064872230700,4.970230712890625,0.02377367429733276,0.07639350385069847,-0.003793674928229302
1772457064882298400,4.98029833984375,0.09605155952274799,0.05368190582692623,0.0035649442062713203
1772457064892367400,4.990367431640625,0.16871990537047385,0.029265549711883065,0.03243754907781258
1772457064902435600,5.000435546875,0.24140695591866967,0.02392798807621002,0.08761533775199204
1772457064912503600,5.010503662109375,0.2419125673532486,0.015048223789036273,0.1261193655282259
1772457064922571500,5.020571533203125,0.18090952485799788,0.00973755016028881,0.10304273358434438
1772457064932639500,5.030639404296875,0.13224340136647222,0.010430793121457099,0.04891363197918981
1772457064942707500,5.04070751953125,0.07981821760237216,-0.005620470230281353,-0.04021987351709977
1772457064952775400,5.050775390625,0.04209492840766906,-0.03522971881330013,-0.08241413411339744
1772457064962843400,5.060843505859375,0.0708148269355297,-0.044645197412371634,-0.10000932070519775
1772457064972911400,5.070911376953125,0.1157581305116415,-0.0540314499169588,-0.05705835999008268
1772457064982980600,5.080980712890625,0.1085866314470768,-0.035465281134843825,-0.014334303366020321
1772457064993048300,5.09104833984375,0.08328969310522079,-0.004437397925555706,0.016357790283951908
1772457065003116300,5.1011162109375,0.044832828938961025,0.0022074469164013863,-0.00807918849401176
1772457065013184300,5.111184326171875,0.004729951131343842,0.03258125013113022,-0.006822831757366657
1772457065023252500,5.12125244140625,0.023740356549620627,0.061248833949863905,0.0032336116263642907
1772457065033320400,5.131320556640625,0.09120821114480494,0.04177402589023113,0.020811134697310624
1772457065043388400,5.141388427734375,0.1258008010983467,0.037412323549389837,0.006897230434138328
1772457065053456400,5.151456298828125,0.11856558914780616,0.04015460799485445,0.010850845164433121
1772457065063525400,5.161525390625,0.09882277780175208,0.043916590876877305,-0.027771456962917
1772457065073593300,5.17159326171875,-0.00753682524561882,0.0531666497811675,-0.09959544267468154
1772457065083661300,5.181661376953125,-0.03689326811134815,0.05126695363968611,-0.10024848148962483
1772457065093729500,5.1917294921875,0.03453706037402153,0.04405599934756756,-0.03665182403828948
1772457065103797500,5.201797607421875,0.17374328649044035,0.029710370869934558,0.026034111776296047
1772457065113865500,5.211865478515625,0.2969856352776289,0.009284253434836864,0.10363140192618593
1772457065123933400,5.221933349609375,0.2774783862531185,0.028911913968622683,0.1164650001393631
1772457065134001400,5.23200146484375,0.17341186257898805,0.04993132112175226,0.06054298723544925
1772457065144070400,5.2420703125,0.08814999261796475,0.07600128966271877,0.02368941181367263
1772457065154138400,5.252138427734375,0.06317220322787762,0.06588555383980274,0.013899455612711607
1772457065164206600,5.26220654296875,0.09216799608767032,0.03780307643264532,0.009032507163472474
1772457065174274600,5.272274658203125,0.1232131226927042,0.014898586185276508,0.004725914277043193
1772457065184342300,5.28234228515625,0.14755612131059168,0.028925357972085473,0.01389649647064507
1772457065194410200,5.29241015625,0.12462825018763542,0.03288841638416052,0.02177276453739032
1772457065204478500,5.302478515625,0.045479310148954386,0.0622796383023262,0.028573494060803204
1772457065214546400,5.31254638671875,-0.011722586497664451,0.06794248636960983,0.02004365745615214
1772457065224614400,5.322614501953125,-0.01891571287214756,0.07619681223481893,0.02475545187629759
1772457065234683400,5.332683349609375,0.037431612771749494,0.06517477522194386,0.03853789351321757
1772457065244751400,5.34275146484375,0.06074351477622986,0.026719664621353147,0.043636002103518694
1772457065254819300,5.3528193359375,0.09642740709781646,0.018118132753670215,0.05401661767400801
1772457065264887300,5.36288720703125,0.06900573168694972,0.012096972768008708,0.03024743688870221
1772457065274955500,5.37295556640625,0.008394903379678726,-0.0005295768320560455,-0.0236567881857045
1772457065285023500,5.3830234375,0.0036433249384164807,-0.008885024984180926,-0.036854360873065886
1772457065295091500,5.393091552734375,0.013712299010157584,0.010715747542679309,-0.031813919020444156
1772457065305159400,5.403159423828125,0.04017769660949707,0.021361060197651386,0.018949779538530855
1772457065315228400,5.413228515625,0.061520344367623325,0.030478724893927573,0.04024427730599418
1772457065325296400,5.42329638671875,0.040511458608508105,0.029667700771987437,-0.0018559665976092218
1772457065335364400,5.4333642578125,0.004127893584966659,0.013402794669568539,-0.029965532941091805
1772457065345432600,5.4434326171875,0.057443304187059396,-0.012780863378942011,-0.04095896491399035
1772457065355500500,5.45350048828125,0.11405483372509478,-0.02037789437919855,-0.019219755586329847
1772457065365568500,5.463568603515625,0.1043728131443262,0.005798457145690918,0.0036278899072669443
1772457065375636200,5.47363623046875,0.12530161940455437,0.03920417540222406,0.04358513043280691
1772457065385704400,5.483704345703125,0.15733517252504825,0.060899582120776174,0.03947773164659738
1772457065395773400,5.4937734375,0.07974339880049228,0.06741700119078159,0.006647456924151629
1772457065405841400,5.50384130859375,0.07447977918386459,0.08868629145175218,-0.009538885783031583
1772457065415909400,5.513909423828125,0.08423252691328525,0.076276891733706,0.00003686141166836023
1772457065425977300,5.523977294921875,0.10766834755837917,0.05934972233027219,0.03608536752825603
1772457065436045300,5.53404541015625,0.11687632088661193,0.06392156029045581,0.02026405874118209
1772457065446113300,5.54411328125,0.06475918015837669,0.05184036961346864,0.001712977930344641
1772457065456181500,5.554181396484375,0.0457750782251358,0.05259937128722667,-0.014104933323245495
1772457065466249500,5.56424951171875,0.08688976342380046,-0.005213058473169803,-0.021132384274620563
1772457065476318500,5.574318359375,0.10839140113592147,-0.00417056368291378,-0.00047833983516320583
1772457065486386200,5.58438623046875,0.10198621026873587,0.04020020070225,0.040484168742783364
1772457065496454400,5.594454345703125,0.10420213275253772,0.036380350153148173,0.08233573511494323
1772457065506522400,5.6045224609375,0.1055190605700016,0.036001579968631264,0.07870842972956597
1772457065516590300,5.61459033203125,0.0747539199501276,0.031929508224129675,0.05312472860189155
1772457065526658300,5.624658203125,0.03491524603664875,0.016040157435834406,-0.015015289633814245
1772457065536726500,5.6347265625,-0.03276888165771961,0.030974107195436952,-0.07942876162705942
1772457065546794500,5.64479443359375,-0.07194646131396293,0.02747077524960041,-0.09681324634393676
1772457065556862500,5.654862548828125,-0.05842530096173286,0.026178105090558526,-0.052011524929292494
1772457065566931500,5.664931396484375,0.01435819569826126,0.015814239725470542,0.0004405103091150522
1772457065576999400,5.67499951171875,0.04756956042647362,-0.0001344400346279144,0.03182111594621092
1772457065587067400,5.6850673828125,0.12794774999916553,0.0016422142490744589,0.038877811258379365
1772457065597135400,5.69513525390625,0.14871815082728862,0.003972703023254871,0.03179099480258301
1772457065607203600,5.70520361328125,0.08218845386505126,-0.003824526724219322,-0.043412221551313995
1772457065617271300,5.715271240234375,0.01535071386694908,0.02716390125751495,-0.0963168959280476
1772457065627339300,5.72533935546875,0.006363105291128158,0.02679974412024021,-0.09341911039361729
1772457065637408500,5.735408447265625,0.04209902006089687,0.02342120759785175,-0.08089790259785949
1772457065647476500,5.7454765625,0.062194882628321645,0.035094109734892846,-0.013173461159411816
1772457065657544400,5.75554443359375,0.1350865158379078,0.03419803767800331,0.030487529254890976
1772457065667612400,5.7656123046875,0.1792828004390001,0.020023381853103636,0.04768173383036628
1772457065677680400,5.775680419921875,0.2007557965785265,0.008671674494445324,0.038994843500480054
1772457065687748400,5.785748291015625,0.19698387682437896,0.018127192842960358,-0.0006088708796538413
1772457065697816300,5.79581640625,0.14590367792844772,-0.002385433831810951,-0.05685244388813153
1772457065707884300,5.80588427734375,0.06479600503742694,-0.021215806508064268,-0.11323544363360852
1772457065717952500,5.815952392578125,0.0872545050829649,-0.008048281899094581,-0.0732379806955345
1772457065728021500,5.826021484375,0.10565291608273983,-0.022768296647071837,-0.005426956952176988
1772457065738089200,5.836089111328125,0.11628420021235943,-0.016515958254039287,0.03589187251646071
1772457065748157400,5.846157470703125,0.12132277890145778,-0.010271218645572662,0.042157874108664686
1772457065758225400,5.856225341796875,0.06814765355288982,0.03373568086326122,0.019413780321087686
1772457065768293400,5.86629345703125,0.02144143195748329,0.028904022923111915,-0.00927727570477873
1772457065778361300,5.876361328125,-0.0035649990051984785,0.039134617297351355,-0.03670280530685559
1772457065788429600,5.8864296875,-0.03130933049917221,0.0624234306871891,-0.009238496330659835
1772457065798497500,5.89649755859375,-0.028975919115543362,0.03740297119915485,0.01741626809462905
1772457065808566300,5.906566162109375,0.0033346973806619644,0.046147710929811,0.04412294537024572
1772457065818634500,5.916634521484375,-0.01006429789662361,0.06284048705548048,0.04323087363503873
1772457065828702500,5.926702392578125,-0.010403905114531516,0.05919160915911197,0.06791797298286109
1772457065838770400,5.9367705078125,0.03811901051402092,0.05318564674258232,0.05841132723530754
1772457065848838400,5.94683837890625,0.06334931336045264,0.033796178878843786,0.0463711809547618
1772457065858906600,5.95690673828125,0.05359715015292167,0.02069032132923603,0.026064799175504593
1772457065868974300,5.966974365234375,0.05332359390854835,0.02208966673314571,0.01013794765472412
1772457065879042300,5.977042236328125,0.14871873534917832,0.010527823755145072,0.006993402551300824
1772457065889111600,5.987111572265625,0.20730185722112654,-0.011727262672781943,0.013627287607826291
1772457065899179500,5.997179443359375,0.17382102790176868,0.0042430443972349165,0.05001134582171216
1772457065909247500,6.00724755859375,0.20326982522606848,0.019567162518203257,0.089964732156042
1772457065919315500,6.0173154296875,0.1643435899823904,0.047365562286972994,0.12382285208888351
1772457065929383400,6.027383544921875,0.06730068133473396,0.07028320427685976,0.08755253818146884
1772457065939451400,6.037451416015625,0.06347498556673527,0.10891513274908066,0.0550588932685554
1772457065949519400,6.047519287109375,0.02628127320408821,0.08279255723804235,0.0019648155332542953
1772457065959587300,6.05758740234375,-0.024938626423478126,0.07327946348339319,-0.06387224125601351
1772457065969656600,6.067656494140625,-0.056847091859579084,0.08727116395682095,-0.05500878878282383
1772457065979724300,6.077724365234375,-0.020085341173410414,0.08372428513020276,-0.005040003461204469
1772457065989792300,6.087792236328125,0.04806465046703815,0.06199176127165556,0.04779714037096128
1772457065999860000,6.09785986328125,0.11734861457347869,0.047586803822219366,0.07051896752780303
1772457066009928200,6.10792822265625,0.15823416719138622,0.04449439076483249,0.05522719904016703
1772457066019996200,6.11799609375,0.13234335460960864,0.032165655067563054,0.015319149684906004
1772457066030064000,6.128064208984375,0.058529345858097076,0.033167817847430704,-0.02760221960954368
1772457066040132000,6.138132080078125,0.01501344473659992,0.03289338482022285,-0.050577966728527095
1772457066050201000,6.148201171875,0.05203238505423069,0.012463467992842196,-0.030593893972504883
1772457066060269000,6.15826904296875,0.14295184238553046,-0.01054535941183567,0.005969374999497085
1772457066070337000,6.1683369140625,0.23653379692435264,-0.028274200586974618,0.05246951609617099
1772457066080405200,6.1784052734375,0.2727595410376787,-0.04538607890754938,0.06062903981739655
1772457066090473200,6.18847314453125,0.25261867028474805,-0.05014057995826006,0.015577581425383687
1772457066100541200,6.198541259765625,0.22325872028768062,-0.04831161096543073,-0.051010677323676645
1772457066110609200,6.208609130859375,0.17319792756736277,-0.06977145536243916,-0.1185966236068867
1772457066120677000,6.218677001953125,0.1937269208550453,-0.09404898752868175,-0.13452221475234255
1772457066130746000,6.22874609375,0.24126842423081396,-0.1029179381608963,-0.11883982124561443
1772457066140814000,6.23881396484375,0.190402160346508,-0.08921995993703603,-0.04649756554709747
1772457066150882300,6.24888232421875,0.0838683697760105,-0.020623978094756603,0.012237385885696858
1772457066160950300,6.2589501953125,-0.02879647089540958,0.020431378132104872,0.02165333940880373
1772457066171018200,6.269018310546875,-0.13600129259526728,0.03767711196541786,0.012008490766957402
1772457066181086000,6.2790859375,-0.1694856290459633,0.06011456922292709,0.008431582128256558
1772457066191154200,6.289154296875,-0.14396715690791606,0.03791033619940281,-0.0045878575132228434
1772457066201223200,6.29922314453125,-0.09197218125462532,0.04865384853184223,-0.01239098727852106
1772457066211291100,6.309291015625,-0.04258183514177799,0.05437661009281873,0.03081632281783968
1772457066221359400,6.319359375,-0.005178279420733452,0.06403057362288236,0.07800674773361534
1772457066231427000,6.329427001953125,0.024815292304754256,0.10827829615026711,0.13140693227602168
1772457066241495000,6.3394951171875,0.00475917722582817,0.10802782852053641,0.15989994497913868
1772457066251563000,6.34956298828125,-0.001423310801386833,0.1052376132801175,0.16522656509568914
1772457066261631200,6.35963134765625,0.008263385954499243,0.061729018682241434,0.1301148101062514
1772457066271699200,6.36969921875,0.06621990036070347,0.03360065630674362,0.08671287248693406
1772457066281768200,6.379768310546875,0.12210896084308624,0.020791151355206965,0.0813124747481197
1772457066291836200,6.389836181640625,0.1875491090029478,0.004827274025976658,0.08099124343711882
1772457066301904100,6.399904052734375,0.2490478260606527,-0.008156126187741756,0.10148454435691237
1772457066311972000,6.40997216796875,0.2888537667483091,-0.021318390099704265,0.09396306281089782
1772457066322040000,6.4200400390625,0.2751221785157919,-0.0322355054333806,0.04079031208250671
1772457066332108300,6.4301083984375,0.22976211083233355,-0.034302959357202054,-0.0019998868466354906
1772457066342176300,6.44017626953125,0.16394845318496226,-0.04866466218680143,-0.056244194062985475
1772457066352244200,6.450244140625,0.0826619165956974,-0.039268472810089584,-0.0877540886355564
1772457066362313200,6.460313232421875,0.07750467996299266,-0.04279401658773422,-0.1083288207611069
1772457066372381200,6.470381103515625,0.06512976703643798,-0.04701221880465745,-0.06661593220727517
1772457066382449200,6.48044921875,0.06116495505869388,-0.03388970238119363,-0.05723599984562024
1772457066392517000,6.49051708984375,0.021214637464284897,-0.0059486792713403696,-0.06307482553431763
1772457066402585300,6.50058544921875,0.037409985461831094,0.014280162025988101,-0.04321492714723572
1772457066412653300,6.5106533203125,0.04782558101415634,0.029260873536765573,-0.0369772931329906
1772457066422721000,6.520720947265625,0.011570610806345938,0.028681320083141327,-0.0314837554843165
1772457066432789000,6.5307890625,-0.01058452237844467,0.04775368482172489,-0.0005568118988536298
1772457066442858200,6.540858154296875,0.019922259566187858,0.04734539628177881,0.0032289537175558504
1772457066452926200,6.55092626953125,0.07942834150195122,0.034489129579067225,0.02362918779272586
1772457066462994200,6.560994140625,0.1292740301668644,0.03758475750684738,0.056851311376970255
1772457066473062400,6.5710625,0.13487433439195154,0.03583528349101543,0.06572680134782567
1772457066483130000,6.581130126953125,0.09584580781757832,0.028863398651778695,0.0367886569594033
1772457066493198000,6.591197998046875,0.12597732670903206,0.016918693836033342,0.03086715795593336
1772457066503266000,6.60126611328125,0.15650573596358297,-0.012448270423710345,0.02119598756274208
1772457066513334300,6.611334228515625,0.13787643881738185,-0.009400865551829337,0.04755785172237083
1772457066523403300,6.6214033203125,0.1290945819467306,0.002641454419493675,0.042888471671845764
1772457066533471200,6.63147119140625,0.07435527602136134,0.0038914544805884357,0.023958054420910774
1772457066543539000,6.6415390625,-0.010662848311662674,0.004402034351229668,-0.012701112673617898
1772457066553607200,6.651607177734375,0.0055085342884063715,-0.00052110126465559,-0.042254649014025925
1772457066563675100,6.661675048828125,0.07156243043243884,0.015059621965885162,-0.025415030029881745
1772457066573743000,6.6717431640625,0.0740916566491127,0.029576223096251485,0.06769501441456377
1772457066583811000,6.68181103515625,0.11653671366870402,0.058227732563018796,0.10521876244917511
1772457066593880000,6.691880126953125,0.1345142689079046,0.07827741790115833,0.07844071870408952
1772457066603948000,6.701947998046875,0.05486673169732093,0.07810293811708688,0.04724573529958725
1772457066614016000,6.71201611328125,-0.02786123587191105,0.077352996532619,-0.04762748289247974
1772457066624084200,6.722084228515625,-0.05249474186897277,0.05990501812547445,-0.1063308336106129
1772457066634152200,6.732152099609375,-0.009630582654476165,0.02577361594289541,-0.06885006620120257
1772457066644220200,6.74222021484375,0.1141939499348402,-0.013477321210503577,0.024455226820707318
1772457066654288100,6.7522880859375,0.2456453241407871,-0.030112521930038928,0.0789016872793436
1772457066664356400,6.7623564453125,0.32961715429127214,-0.03820581201463938,0.06550899387868121
1772457066674425000,6.772425048828125,0.2853641710668802,-0.03839461258500814,0.009819693752098829
1772457066684493000,6.7824931640625,0.12731938896775244,0.000587152238190174,-0.013862265407480298
1772457066694561300,6.792561279296875,0.005960954231023788,0.042808629634976385,-0.022658424798119813
1772457066704629200,6.802629150390625,0.023251111727952956,0.01855798547565937,-0.039132845465373246
1772457066714697200,6.812697265625,0.04850654901564121,0.04153787904679775,-0.01776104467799887
1772457066724765200,6.82276513671875,0.046782209441065786,0.06074234573245048,0.04985473048789427
1772457066734833200,6.832833251953125,0.10256430241763591,0.03964198229759931,0.05794582861540839
1772457066744902100,6.842902099609375,0.059930444827675816,0.051501931439340114,0.004229088937118649
1772457066754970000,6.85297021484375,-0.06734919665157794,0.07645370960533618,-0.051520855335518714
1772457066765038300,6.863038330078125,-0.04184475303888321,0.07122399225831032,-0.046139673753827805
1772457066775106300,6.873106201171875,0.055151393857598305,0.06191957281827926,0.0016964286543428896
1772457066785174000,6.883174072265625,0.13100655304789544,0.06144961721897125,0.06444878076864406
1772457066795242000,6.893241943359375,0.15448095213770865,0.06738689831346273,0.05986896043140441
1772457066805310200,6.903310302734375,0.09738953012824057,0.05684592281579971,0.057920548043679444
1772457066815379200,6.913379150390625,0.023497195443511008,0.03566314179450273,-0.007312003513798117
1772457066825447200,6.923447265625,0.012336919003725052,0.02730857042521238,-0.04323735817475244
1772457066835515100,6.93351513671875,0.030923546051979063,0.005360942511260509,-0.0366904024830088
1772457066845583000,6.9435830078125,0.08297463580667971,-0.004676175117492676,-0.016795359717309475
1772457066855651000,6.953651123046875,0.0965349591255188,0.001322188514471054,-0.000776939189247787
1772457066865719000,6.963718994140625,0.07532733592391014,-0.005641220757365227,0.005123078634776175
1772457066875787300,6.973787353515625,0.06008300504088401,0.001197977612912655,0.01874713310590014
1772457066885855200,6.983855224609375,0.03750233992040157,-0.0003875380128622055,-0.01140758399805054
1772457066895924000,6.993924072265625,-0.0035842882275581357,0.0019900047734379765,-0.04480393163803965
1772457066905992200,7.0039921875,-0.010025719451904296,-0.0053171033695340155,-0.07510655104639008
1772457066916060200,7.01406005859375,0.036676995012164114,-0.024938918684422967,-0.060949558742344374
1772457066926128000,7.024128173828125,0.05663023423850536,-0.0075260115906596176,-0.0391642635169439
1772457066936196000,7.034196044921875,0.10128770661056041,0.007927578128874301,-0.004316895084735006
1772457066946264300,7.044264404296875,0.09699380880892276,0.012058978845179081,-0.02530786159466952
1772457066956332300,7.054332275390625,0.03577507773637771,0.05137713601589203,-0.042448144025821234
1772457066966400300,7.064400146484375,0.032055764952301974,0.06592617811113595,0.012539291441719978
1772457066976469200,7.07446923828125,0.10111819526255131,0.059606035178899765,0.04022829428557306
1772457066986537200,7.084537109375,0.17808277699947356,0.0478469160631299,0.0712714663955383
1772457066996605200,7.094605224609375,0.21578326984047888,0.06994447384178638,0.057171209247410294
1772457067006673700,7.104673583984375,0.18158230955302715,0.06613689825236797,0.03116022261837497
1772457067016741600,7.11474169921875,0.0722445674777031,0.0942141149625182,-0.022314196204021572
1772457067026809300,7.124809326171875,0.037681203618645666,0.0849362912684679,-0.05958175925416872
1772457067036877600,7.134877685546875,0.04526011444032192,0.06920096199810505,-0.01416099262572825
1772457067046946600,7.144946533203125,0.10877952367067337,0.06425444550663233,0.049620428541675206
1772457067057014500,7.1550146484375,0.12403028429448604,0.06005085633695125,0.10876059977449476
1772457067067082800,7.165082763671875,0.12222586522102355,0.05691986483484506,0.09241504791760817
1772457067077150500,7.175150390625,0.08742050929963588,0.06180442200601101,0.05244531323667615
1772457067087218400,7.185218505859375,0.0197591779589653,0.0382309464558959,-0.04351778255132958
1772457067097286400,7.195286376953125,0.005879121166467666,0.0330307474642992,-0.08667891541840508
1772457067107354600,7.205354736328125,0.04325871149003505,0.01603957291394472,-0.08069969487832859
1772457067117422600,7.215422607421875,0.07798048078119754,0.009381868590414524,-0.04165575153911486
1772457067127491600,7.22549169921875,0.04061667254865169,0.02072422359883785,0.00919991788594052
1772457067137559600,7.2355595703125,0.027206571355462072,0.030303952848911284,-0.0040602534425444895
1772457067147627500,7.24562744140625,0.016536124259233474,0.008577566470205784,-0.02509250181093812
1772457067157695500,7.255695556640625,0.05615910959541797,-0.001795358984172344,-0.03649513563923538
1772457067167763500,7.265763427734375,0.08838555493950843,-0.022245149555802344,-0.039232908306363966
1772457067177831700,7.275831787109375,0.1318570323973894,0.011231295849382877,-0.04527441696031019
1772457067187899600,7.285899658203125,0.1651093136578798,0.03961714011728763,0.003576378915738314
1772457067197968400,7.295968505859375,0.15570260288715362,0.03386222985237836,-0.02188517540330067
1772457067208036400,7.306036376953125,0.05348959812521934,0.049395899070799346,-0.079791822785791
1772457067218104600,7.3161044921875,0.0036316345006227493,0.0708133656308055,-0.057700822612084444
1772457067228172500,7.326172607421875,0.02370879236757755,0.04930909757018089,-0.038919860301818696
1772457067238240500,7.336240478515625,0.09271101692318916,0.0407929058983922,-0.013183653759863226
1772457067248308500,7.34630859375,0.1631236927986145,0.021228081467747687,0.03140108216954395
1772457067258376700,7.356376708984375,0.17977672143578527,0.020834698235988616,0.10131085002413019
1772457067268445400,7.366445556640625,0.146126965290308,0.016444062061607836,0.08327040388286114
1772457067278513400,7.376513427734375,0.08562836518585681,0.024991233393549916,-0.018695804777462036
1772457067288581600,7.38658154296875,0.0254974293500185,0.014267302544414997,-0.06179364488366991
1772457067298649600,7.396649658203125,0.021233926686644554,0.012940730115771293,-0.04473185278251767
1772457067308717600,7.406717529296875,0.07099076802432537,-0.008661153100430965,-0.03199860967127606
1772457067318785500,7.41678564453125,0.11200842258930206,0.003035422173142433,0.027992862894944844
1772457067328853500,7.426853515625,0.1673895335495472,0.01626402931958437,0.09394092404432594
1772457067338921500,7.43692138671875,0.1988070005983114,0.015083295102417469,0.12653125253105535
1772457067348990500,7.446990478515625,0.19832593908309937,0.028777181673049924,0.09401539578633382
1772457067359058700,7.45705859375,0.15827625276744364,0.031151801849901673,0.05303372585019096
1772457067369126700,7.467126708984375,0.13024609006941318,0.029101883582770823,0.0006503902001306414
1772457067379194600,7.477194580078125,0.05707037922143936,0.03369885598421097,-0.023711988971661775
1772457067389262300,7.487262451171875,0.0016577040791511534,0.04138268848508596,-0.025868308489024636
1772457067399330600,7.49733056640625,0.0007335749715566634,0.061928340646624565,0.03225254789972678
1772457067409398500,7.5073984375,-0.015150222858786581,0.051718789060413835,0.061843639771547165
1772457067419467500,7.517467529296875,-0.04422024999856949,0.028400457315146923,0.0378903711236082
1772457067429535700,7.52753564453125,-0.05639467191696167,0.020483108319342136,0.010130476734321563
1772457067439603500,7.537603515625,0.04992401459813118,-0.021398177337646485,-0.0007160758474841713
1772457067449671400,7.54767138671875,0.19982348416447637,-0.0855289964646101,-0.008115392318554222
1772457067459739400,7.557739501953125,0.2258656879156828,-0.08285860821157694,-0.01442313242694363
1772457067469807600,7.5678076171875,0.17643150266110896,-0.0648544572263956,0.03276363922702148
1772457067479875600,7.57787548828125,0.15708090550303458,-0.014542320093512534,0.0830245028303936
1772457067489943600,7.587943603515625,0.13027005546689033,0.006363105291128158,0.08913708569286391
1772457067500012500,7.598012451171875,0.05737433060407638,0.03852905261963606,0.08485511579103767
1772457067510080500,7.60808056640625,0.03248538854122162,0.04571721055805683,0.010379921450745313
1772457067520148500,7.6181484375,0.04551905763745308,0.01544569867402315,-0.01689491110164672
1772457067530216400,7.628216552734375,0.07597147904634476,0.014700141003727912,-0.04745831860434264
1772457067540284700,7.63828466796875,0.10272563045918941,0.02404313888847828,-0.023420550010725856
1772457067550352600,7.6483525390625,0.08858487690389155,0.050911564330756665,0.02925722027495503
1772457067560420600,7.658420654296875,0.051584056764841076,0.08185819899737834,0.034010113890469075
1772457067570489600,7.668489501953125,-0.03674947572648525,0.0974471055343747,0.0054042153974063695
1772457067580557600,7.6785576171875,-0.042620998108386994,0.07587035675942898,-0.005802713195700198
1772457067590625500,7.68862548828125,0.0039344168394804,0.04770049332976341,-0.0013444916778244077
1772457067600693500,7.698693603515625,0.03965864117145538,0.024610125121474265,0.0056936815969645975
1772457067610761700,7.70876171875,0.05043780933916568,0.029313480506837367,0.022921770175732673
1772457067620829700,7.71882958984375,0.061979778572916984,-0.00014992986470460892,0.0623633710630238
1772457067630897400,7.7288974609375,0.05686287395060062,-0.012904489758610724,0.036621118372771884
1772457067640966400,7.73896630859375,-0.030102292796969413,-0.011066752937436104,-0.03949764192346483
1772457067651034600,7.74903466796875,-0.0847965905368328,-0.01289250705987215,-0.08850205745864659
1772457067661102600,7.7591025390625,-0.05697042597830295,-0.015020751260221003,-0.08521287972014396
1772457067671170600,7.769170654296875,0.012048749712109565,-0.013494272345304488,-0.08412795229395852
1772457067681238500,7.779238525390625,0.12423778956532477,-0.059497021846473215,-0.04420903448481112
1772457067691306500,7.789306396484375,0.22781565293967723,-0.07453910815566778,0.008494673959724605
1772457067701374500,7.79937451171875,0.25236381874084474,-0.06899725611954927,0.04632732354672625
1772457067711442400,7.8094423828125,0.2302390806943178,-0.027018355306982992,0.00738101362939924
1772457067721511700,7.81951171875,0.19419103123545645,0.00025339023917913433,-0.06339994756914674
1772457067731579600,7.82957958984375,0.14823241313695906,-0.016966040109097958,-0.1425018701283261
1772457067741647400,7.8396474609375,0.09775251822173595,-0.005036825123429298,-0.12594649317935108
1772457067751715300,7.84971533203125,0.04995967043340206,0.011147416958212851,-0.07921979505149647
1772457067761783600,7.859783447265625,0.08166355320811271,0.01648264050632715,0.007947963329777121
1772457067771851500,7.8698515625,0.11817980470061301,0.021390870814025402,0.04820356574738398
1772457067781919500,7.87991943359375,0.11436287676095962,0.03000993833839893,0.047725098048057406
1772457067791988700,7.88998876953125,0.10143032995164394,0.045398061606287954,0.037561760223750025
1772457067802056400,7.900056396484375,0.09918167424201965,0.044237785655260084,0.032640487771388144
1772457067812124400,7.91012451171875,0.08896481613218783,0.035120705480873586,-0.005282306050788611
1772457067822192400,7.9201923828125,0.015598551148176192,0.07598375400602816,-0.0002063362270593643
1772457067832260600,7.930260498046875,-0.05652794290781021,0.09413578902930021,0.0019152955694124103
1772457067842328600,7.94032861328125,-0.06735796447992325,0.0794619515106082,0.04864376552924513
1772457067852396500,7.950396484375,-0.026287118422985076,0.0719192810460925,0.06943584846621378
1772457067862465500,7.960465576171875,0.008360416588187217,0.1011444987475872,0.0992707590312697
1772457067872533500,7.970533447265625,0.04938742350339889,0.0892582461208105,0.11206685651196166
1772457067882601500,7.9806015625,0.08346212706267833,0.09491349540352821,0.1398342035553418
1772457067892669400,7.99066943359375,0.014250059148669243,0.09199439308643341,0.07380723195085302
1772457067902737700,8.000737548828125,-0.04598258349597454,0.0868994080349803,-0.02100945201469585
1772457067912805600,8.0108056640625,-0.0664794280797243,0.06226093360185623,-0.035757943938486275
1772457067922873600,8.02087353515625,-0.04093640602231025,0.03302110285311937,-0.0176397198532708
1772457067932941300,8.03094140625,0.006819616886973381,0.020487199972569942,-0.004077697767689824
1772457067943010600,8.041010498046875,0.08040858471095562,-0.012131459559500216,0.0159644983837381
1772457067953078500,8.05107861328125,0.11702420492470264,-0.03298018632084131,0.008613898158911615
1772457067963146500,8.061146484375,0.13081073821485042,-0.02893207997381687,-0.02584704650528729
1772457067973214700,8.071214599609375,0.15086977590322492,-0.040562896534800524,-0.04313254609340802
1772457067983282700,8.08128271484375,0.15620704527795315,-0.016155308248102664,-0.05067391964998096
1772457067993350400,8.091350341796876,0.1550496919363737,0.01810088935792446,-0.08108041955791413
1772457068003418000,8.101418212890625,0.15811317116022108,0.014954700286686419,-0.07609832029640674
1772457068013487000,8.111487060546875,0.1535591611176729,0.023566169026494024,-0.04623949913280084
1772457068023555300,8.121555419921876,0.10639058270752429,0.0344990664511919,-0.05294445839785039
1772457068033623300,8.131623291015625,0.10722761805355548,0.01908990039527416,-0.043541163426917044
1772457068043691300,8.141691162109375,0.08727847048044204,0.010276771603524684,-0.06355104647763073
1772457068053759000,8.151759033203126,0.07191139000058173,0.022187281888723372,-0.06182137314081192
1772457068063827200,8.1618271484375,0.11508125416338442,0.006381517730653286,-0.02675937557723373
1772457068073895200,8.171895263671875,0.1688175205260515,0.0119470429033041,0.029147184029221535
1772457068083964200,8.181964111328124,0.15963117450773714,0.022637656004726885,0.038234965043887494
1772457068094032400,8.192032470703126,0.10756138005256652,0.04258738809973001,0.04889850747529417
1772457068104100400,8.202100341796875,0.05268588052690029,0.04797667992264032,0.01271576225347817
1772457068114168000,8.21216796875,0.013088614153861998,0.022533026586472986,-0.025111772766988723
1772457068124236000,8.222236083984376,-0.0068014967083930965,0.0141059745028615,-0.023917758943140504
1772457068134304300,8.23230419921875,0.010985504394769668,0.014726444488763809,-0.01699893773170188
1772457068144372200,8.242372314453124,0.08014262725114822,0.014881635050475597,0.04076125038480386
1772457068154440200,8.252440185546876,0.056771688535809516,0.049938335384428496,0.06058193100634962
1772457068164509200,8.26250927734375,0.04651099128425121,0.06939414648264645,0.0963399480100721
1772457068174577200,8.2725771484375,0.043614685320854184,0.07735504235923289,0.11503173419954255
1772457068184645000,8.28264501953125,0.03375672365128994,0.09104308371096849,0.11240944113824516
1772457068194713000,8.292713134765625,0.07496610139608383,0.06532265926003455,0.09401249144319444
1772457068204781300,8.30278125,0.13345394620001316,0.05208206941485405,0.07748453222410753
1772457068214849300,8.312849365234374,0.15352525884807108,0.05472820000946521,0.05344402368413284
1772457068224917200,8.322917236328125,0.09712181910276413,0.049825230398774144,0.023720482805371285
1772457068234986200,8.332986328125,0.06365034213364124,0.06330021352171898,-0.004056161789316684
1772457068245054200,8.34305419921875,0.08577040400505065,0.06319792219102383,0.03934623248772695
1772457068255122200,8.3531220703125,0.17605214795470236,0.024611878687143325,0.06289996215775609
1772457068265190100,8.363190185546875,0.23786183065772054,0.015564941139519214,0.07355075470544398
1772457068275258400,8.37325830078125,0.21539164017438886,-0.009920505511760712,0.0445585420422256
1772457068285326300,8.383326416015626,0.2249450659394264,0.0023579613029956815,0.05414528555497527
1772457068295394300,8.393394287109375,0.19129881692528725,0.01072568441480398,0.06505335906567052
1772457068305463300,8.40346337890625,0.1257914487481117,0.019849486590921877,0.04607528501441702
1772457068315531300,8.41353125,0.05686112038493156,0.045723348037898535,-0.028496355437673627
1772457068325599200,8.42359912109375,-0.03882920460999012,0.05193856929093599,-0.06545616771290079
1772457068335667200,8.433667236328125,-0.053044776967167855,0.04136398378461599,-0.05203298784242943
1772457068345735400,8.4437353515625,-0.008788286611437797,0.037089667466282845,-0.03442461297549307
1772457068355803100,8.45380322265625,0.012594693157076835,0.026133389165997504,-0.040943767344858495
1772457068365871000,8.46387109375,0.08325286822617053,0.01655161408931017,-0.011616221780050544
1772457068375939000,8.47393896484375,0.1530196474134922,-0.00993102690577507,0.016864351566601543
1772457068386008300,8.48400830078125,0.14238660971820355,0.004358195209503174,0.007913275608886033
1772457068396076300,8.494076171875,0.07836451166272163,0.03953706061840057,-0.020464823743980377
1772457068406144300,8.504144287109375,0.047296004182100296,0.028156711687147614,-0.016333203831966965
1772457068416212000,8.5142119140625,0.07239069795012473,-0.0036629064217209815,-0.006020648529008031
1772457068426280200,8.5242802734375,0.0844219120055437,-0.014090192411839961,0.009520692539215087
1772457068436348200,8.53434814453125,0.08896189352273941,-0.02675736628323793,0.0050668366692028935
1772457068446416100,8.544416015625,0.15207447551786898,-0.03334901963323354,0.008940280569065361
1772457068456485400,8.5544853515625,0.139729957729578,0.015416180318593977,0.005636106190830469
1772457068466553000,8.564552978515625,0.11398644466400146,0.013281798638403414,0.007009714365284889
1772457068476621000,8.57462109375,0.10176818360388279,0.023901684591174123,0.0087322821078822
1772457068486689000,8.58468896484375,0.013965396988391875,0.015067805272340773,-0.016236008801497517
1772457068496757200,8.59475732421875,-0.00985036288499832,0.008150573229789734,-0.023771171812992542
1772457068506825200,8.6048251953125,-0.0008744447469711303,-0.014974574030935764,-0.040574824434611946
1772457068516893200,8.61489306640625,0.029418986707925796,-0.01624561688005924,-0.01796533507844433
1772457068526962200,8.624962158203125,0.03396422892212868,-0.00345773923844099,0.01797302519455552
1772457068537030100,8.635030029296875,0.07019874086380004,0.01146159747391939,0.021801333044748752
1772457068547098000,8.64509814453125,0.05688450126051903,0.011313713435828685,-0.0043446781408041715
1772457068557166000,8.655166015625,-0.015202245306968688,0.02755231605321169,-0.0334999724112451
1772457068567234300,8.665234375,-0.0072761284828186034,0.03131839058846235,-0.017742339977528897
1772457068577302300,8.67530224609375,0.057789925667643544,0.024063889415562152,0.00011043810453265905
1772457068587370200,8.685370361328125,0.06330021352171898,0.04409077840000391,0.014655845204275101
1772457068597438200,8.695438232421875,0.07885200291872024,0.04673018699288368,0.008768906057532876
1772457068607507200,8.705507080078124,0.14090776933729648,0.04044365406930446,0.0336960612389259
1772457068617575200,8.7155751953125,0.17242285154163836,0.03653934010714292,0.03636327115418389
1772457068627643100,8.72564306640625,0.1472726281940937,0.045317689846456045,0.062111935318913306
1772457068637711400,8.73571142578125,0.14686580095887183,0.053743865147233005,0.04308297133063897
1772457068647779300,8.745779296875,0.15837562148869036,0.0528358103916049,0.059264984922576695
1772457068657847000,8.755846923828125,0.17436171064972877,0.048857846671342846,0.08873345506172627
1772457068667915000,8.7659150390625,0.18680150550603866,0.0487576011672616,0.08430816769907251
1772457068677984300,8.775984375,0.12669804219901562,0.05624649561792612,0.029252799828164276
1772457068688052200,8.78605224609375,0.04694646009206772,0.06510024868100882,-0.007652779775485396
1772457068698120200,8.7961201171875,0.0324164149582386,0.04018587991595268,-0.00524935362925753
1772457068708188400,8.8061884765625,0.03348258288502693,0.023716975674033164,-0.015407430756557731
1772457068718256000,8.816256103515625,0.05522504361569881,0.026510113523900508,-0.003863141701556742
1772457068728324000,8.826323974609375,0.05017068283557891,-0.009322831879556178,-0.0006333294674754142
1772457068738392000,8.83639208984375,0.022564298507571218,0.0063213119760155674,-0.029999362145457415
1772457068748461300,8.84646142578125,0.059063014343380925,-0.007277882048487663,-0.025506051047891377
1772457068758529300,8.856529296875,0.06902326734364032,0.01081336269825697,0.004959485570900142
1772457068768597200,8.86659716796875,0.043887072521448134,0.01024608420431614,-0.0012747874424792825
1772457068778665200,8.876665283203126,0.06482990730702877,0.0013426467806100845,0.0016391272428445517
1772457068788733200,8.886733154296875,0.082796941152215,-0.005105506445467472,0.009518317919038236
1772457068798801200,8.89680126953125,0.11593874777555466,0.00013590133935213088,0.01897330654459074
1772457068808869000,8.906869140625,0.12195581610798835,0.009135492613911628,0.03255682807592675
1772457068818938400,8.9169384765625,0.1155056170552969,0.022100772649049756,0.015952515684999526
1772457068829006000,8.927006103515625,0.10147416909337043,0.034119419483840466,0.02621200736016035
1772457068839074000,8.937073974609374,0.08439794660806656,0.04543459422439337,0.036517493601515884
1772457068849142300,8.947142333984376,0.09776713126897811,0.03289133899360895,0.06046261547561735
1772457068859210200,8.957210205078125,0.1449637667298317,-0.00020019874721765516,0.08449185370290652
1772457068869278200,8.9672783203125,0.11393617578148842,-0.01699818881303072,0.06351383800609037
1772457068879346200,8.97734619140625,0.06855097365677357,0.0018470891714096069,0.015080628221295774
1772457068889414400,8.987414306640625,0.041105917370319364,-0.012001987960934638,-0.024640355862956494
1772457068899483100,8.997483154296875,0.0022948329389095305,-0.01878185735940933,-0.017343586450908333
1772457068909551000,9.007551025390624,0.03593406769037247,0.0033396658167243,-0.01410727141080424
1772457068919619000,9.017619140625,0.06766191586256026,0.016810849547386167,0.05292496824609116
1772457068929687300,9.027687255859375,0.08684358619451522,0.006673778675496578,0.06595408903136848
1772457068939755300,9.03775537109375,0.09814882406294345,0.006108546008169651,0.029432448977697638
1772457068949823200,9.0478232421875,0.06396656847596169,0.022806582830846307,-0.006726038585696369
1772457068959891200,9.05789111328125,0.01649929938018322,0.03885843070447444,-0.004342157390154898
1772457068969960200,9.067960205078125,0.04732815288603306,0.040425241629779333,0.030242852045129984
1772457068980028200,9.078028076171876,0.0994061306476593,0.020551497380435466,0.053350153121910986
1772457068990096100,9.08809619140625,0.05872106903791427,0.0369455828204751,0.07974858643226325
1772457069000164400,9.098164306640625,0.028841479080915448,0.050065176634490484,0.08219102941462769
1772457069010232600,9.108232666015626,0.03184650611579418,0.026657120779156683,0.05143575260164216
1772457069020300500,9.118300537109375,0.010714870759844779,0.04065846586376429,0.02112710531130433
1772457069030368500,9.128368408203125,0.02523088736832142,0.05265197825729847,0.01282216350371018
1772457069040437800,9.138437744140624,0.12566285393238066,0.017191957819461822,0.015795078367274253
1772457069050505700,9.148505615234376,0.18742869749367236,0.008543079678714274,0.027400870084855703
1772457069060573700,9.15857373046875,0.19527648838460443,0.01999240219295025,-0.0009686441027559339
1772457069070641700,9.1686416015625,0.15544365969002247,0.035246085426211354,-0.0013978110339492558
1772457069080709600,9.178709716796876,0.06202712484598159,0.04825169747173786,-0.012277681363467127
1772457069090777600,9.188777587890625,0.03749824826717377,0.03763999482542276,-0.03548557500420138
1772457069100845600,9.198845458984374,0.06436112075150012,0.028751170448958873,-0.025435396964475512
1772457069110913800,9.208913818359376,0.04465805689394474,0.04020926079154014,-0.005463617434445768
1772457069120982500,9.218982421875,0.06137596746087074,0.04682108014672994,-0.01703872175281867
1772457069131050500,9.229050537109375,0.09471183535158634,0.048896717377007,-0.05098207228370011
1772457069141118700,9.23911865234375,0.11717208896279334,0.04039601553529501,-0.04055095036868006
1772457069151186700,9.249186767578125,0.18449615117311477,0.02983750438094139,-0.002426094635762274
1772457069161254700,9.259254638671875,0.19689035332202912,0.021858196064829825,-0.022775091714039443
1772457069171322600,9.269322509765624,0.12191256148815155,0.02093698956668377,-0.03448090973999351
1772457069181390800,9.279390869140625,0.08260463345050811,0.01050356609672308,-0.05764116484671831
1772457069191459600,9.28945947265625,0.06747603790163993,0.010556757588684558,-0.06275237038061023
1772457069201527600,9.299527587890625,0.09709083944261074,-0.0017997428983449935,-0.055409040146786714
1772457069211595800,9.309595703125,0.09513678276538848,-0.00682137045264244,-0.004125993888825178
1772457069221663700,9.319663818359375,0.11214812332093715,0.00016366612911224363,-0.016877448510192333
1772457069231731700,9.329731689453125,0.11331892066597937,-0.008261047866940497,-0.02901895453967154
1772457069241799700,9.339799560546876,0.061014148411154746,-0.021563597032427786,-0.049806525698304176
1772457069251867600,9.34986767578125,-0.025972645646333694,-0.004918751701712608,-0.04667540633203462
1772457069261936600,9.3599365234375,0.005111643925309181,-0.027270576502382755,-0.03609702143343165
1772457069272004600,9.370004638671874,0.034089316606521605,-0.01193915185779333,0.022938684777915476
1772457069282072600,9.380072509765625,0.06424655446112155,-0.014307342293858527,0.0759718078399077
1772457069292140800,9.390140869140625,0.10344225429594515,-0.011345569878816604,0.04170399286132306
1772457069302208800,9.400208740234374,0.11591419785618781,0.0047828503623604775,0.0561056075762026
1772457069312276500,9.4102763671875,0.09430559263825417,0.002237257532775402,0.04618415221637115
1772457069322344400,9.420344482421875,0.08810439991056919,0.0036509237229824065,0.010972443983796983
1772457069332413700,9.43041357421875,0.07543313438594342,0.04168663986772299,0.01679298509713262
1772457069342481700,9.440481689453126,0.11156593951880932,0.04591770156621933,0.04762793955020606
1772457069352549600,9.450549560546875,0.12128069332540034,0.05655833804607391,0.045243473832774904
1772457069362617900,9.460617919921875,0.08765256448984146,0.07788461919128895,0.021239881503395733
1772457069372685600,9.470685546875,0.04649930084645748,0.09616261868178844,0.013769308160711079
1772457069382753500,9.48075341796875,0.06234218214452266,0.06857756940275431,0.0027631080377846953
1772457069392821500,9.490821533203125,0.04168985473811626,0.06382599096149205,-0.028090478050522505
1772457069402890800,9.500890869140624,0.07705810523927212,0.06075812782347202,0.00003119885586202145
1772457069412958700,9.510958740234376,0.12716624423265457,0.05515197837948799,0.03909357290090993
1772457069423026700,9.521026611328125,0.13991349760293958,0.03717705348879099,0.030420163107104596
1772457069433094700,9.5310947265625,0.14846154571771622,0.030258067880570887,0.03626876127114519
1772457069443162600,9.54116259765625,0.17876257595717907,0.022798107263445853,0.03208729260172695
1772457069453230600,9.551230712890625,0.17484511025249957,0.008354571369290352,0.031239151339791712
1772457069463298600,9.561298583984374,0.14697335298657416,0.006960778923332691,0.027007760847732425
1772457069473367800,9.571367919921874,0.10738660800755023,0.03677227208018303,0.027205164849665016
1772457069483435500,9.581435546875,0.047048751422762866,0.04988952780663967,0.02862990042315796
1772457069493503500,9.59150341796875,0.022807459613680837,0.034326632493734355,0.012212160112895071
1772457069503571700,9.60157177734375,0.02016951232552528,0.015239362446963787,-0.010738817891012876
1772457069513639700,9.6116396484375,-0.00455050291121006,0.006460135924816131,-0.027348646707274018
1772457069523707600,9.621707763671875,-0.005714870515465736,-0.012206278361380099,-0.04785296221142635
1772457069533775600,9.631775634765624,0.02656359727680683,-0.0013467384338378906,-0.026822430876083672
1772457069543843800,9.64184375,0.06858370688259602,-0.0007587094128131866,-0.0174240495422855
1772457069553912600,9.65191259765625,0.11129530588388442,0.006119944185018539,0.0005783661435358226
1772457069563980500,9.66198046875,0.10914075819849968,0.02108721169233322,0.017786562711745498
1772457069574048800,9.672048828125,0.059763856089115136,0.032902444909512996,0.04970571393864229
1772457069584116700,9.68211669921875,0.07502338454127311,0.03785480661988258,0.04878114643963054
1772457069594184700,9.692184814453125,0.08203355556428432,0.04782324292659759,0.026145463196281343
1772457069604252700,9.702252685546876,0.027151041775941846,0.033951953962445255,-0.019535287808906284
1772457069614320600,9.712320556640625,-0.007761281651258468,0.021380349420011043,-0.06170222200686112
1772457069624389600,9.7223896484375,0.05314589925408363,0.005913023436069489,-0.052084955491684376
1772457069634457600,9.73245751953125,0.11451076079905033,0.016577917574346065,-0.01851708720969036
1772457069644525800,9.74252587890625,0.14437807579636572,0.012948328900337218,0.026166049326583743
1772457069654593800,9.75259375,0.14028525352478027,0.034626492223143575,0.07651170513657853
1772457069664661800,9.762661865234374,0.1439005214124918,0.024338614703714845,0.11523270013174042
1772457069674729500,9.7727294921875,0.1283674367159605,0.03316314167231321,0.06951132485521958
1772457069684797700,9.782797607421875,0.09209668441712855,0.04414221632629633,0.03391459936043247
1772457069694866700,9.79286669921875,0.09242284763157367,0.01617372068762779,0.025369145061541348
1772457069704934700,9.8029345703125,0.10332651896178721,-0.004596387879550457,-0.014634181361738592
1772457069715003000,9.8130029296875,0.042646132549643515,0.01938537621051073,-0.039096659907139834
1772457069725070600,9.823070556640625,-0.01946516344845295,0.026426526893675327,-0.006878215206414461
1772457069735138600,9.833138671875,-0.014933949759602546,0.03482961357980966,-0.016120127336867154
1772457069745206500,9.84320654296875,0.010894903501868248,0.04238718935251236,0.013265925215836614
1772457069755274800,9.853274658203125,0.03597264613509178,0.04563946914672851,0.056828167963400476
1772457069765342700,9.8633427734375,0.06572364127635956,0.060062546774744985,0.09599975627027452
1772457069775411700,9.87341162109375,0.09534194994866847,0.057443596448004244,0.09633865110212936
1772457069785479400,9.8834794921875,0.05494155049920082,0.043400165787339205,0.04040198861835524
1772457069795547600,9.893547607421874,0.08296645250022411,0.03688450028300285,0.011475032344227656
1772457069805615600,9.90361572265625,0.11686755305826663,0.01968728176653385,-0.01833170243911445
1772457069815683600,9.91368359375,0.0418406613856554,0.019523615637421606,-0.044957131172064686
1772457069825751600,9.92375146484375,-0.018315993413329124,0.021141864489018915,-0.037074031505733726
1772457069835819800,9.93381982421875,0.08279752567410469,0.009065934509038925,0.007500073431804775
1772457069845888500,9.943888427734375,0.1768821690380573,-0.04816752631962299,0.035643231517635286
1772457069855956500,9.95395654296875,0.19481530061364172,-0.043806700761616225,0.04081398521903902
1772457069866024700,9.964024658203124,0.20638591141998766,-0.03763093473613262,0.04127833306146785
1772457069876092700,9.9740927734375,0.19832184742987155,-0.014382453356683254,0.05485947997262701
1772457069886160600,9.98416064453125,0.13980711461901663,0.011817279043793677,0.04008501335736364
1772457069896228600,9.994228515625,0.0236368961751461,0.05611614723652601,0.02796332627320662
1772457069906296800,10.004296875,-0.045672202372550964,0.09075696024596691,0.02937417945181951
1772457069916365600,10.014365478515625,-0.06924538566172123,0.09673428108990192,0.021819800283201036
1772457069926433500,10.02443359375,-0.059418988174200056,0.10466858122050761,0.045141630026651544
1772457069936501800,10.034501708984376,-0.037761867639422415,0.09761194070726632,0.04523444114294834
1772457069946569700,10.04456982421875,-0.03607786007523536,0.10221621963232755,0.011032768469443545
1772457069956637700,10.0546376953125,-0.028297873723506926,0.09977642526477574,-0.01315672922031954
1772457069966705700,10.06470556640625,0.014932780715823173,0.078067282281816,0.01444098774404265
1772457069976773600,10.074773681640625,0.06448211678266524,0.0780544228002429,0.022137844123272223
1772457069986842600,10.084842529296875,0.08558511056602,0.07182341945618391,0.012763117659697308
1772457069996910600,10.09491064453125,0.11399579701423644,0.056558630307018756,0.03230853413697332
1772457070006978600,10.104978515625,0.13268822252452372,0.017929039922356605,0.021214263004949316
1772457070017046500,10.115046630859375,0.10857260292172431,-0.0007139934882521629,-0.016041819669958202
1772457070027114500,10.125114501953124,0.07982698543071746,-0.0009057166680693626,-0.04421263294769451
1772457070037182200,10.13518212890625,0.11981821955740452,-0.01640080744177103,-0.05266339470045641
1772457070047250400,10.14525048828125,0.09876023395955562,-0.035166298188269135,-0.03682058646762743
1772457070057319400,10.1553193359375,0.09715805945992469,-0.009746025727689265,0.001664033355237916
1772457070067387400,10.165387451171876,0.08744213660955429,-0.009338906231522559,0.024650795058580113
1772457070077455600,10.17545556640625,0.0001344400346279144,-0.016370120042562483,-0.01894055505245924
1772457070087523600,10.185523681640625,0.02929974424242973,0.010481646525859832,-0.06245999070475809
1772457070097591300,10.19559130859375,0.10969546947181225,-0.02249240231513977,-0.05189000830831937
1772457070107659300,10.2056591796875,0.14123919324874878,-0.05059299990087747,-0.07079676155587658
1772457070117727500,10.2157275390625,0.13211597559452057,-0.04549655354470014,-0.09474064132096245
1772457070127796500,10.22579638671875,0.1471335119843483,-0.02314063709080219,-0.05857683826163411
1772457070137864400,10.235864501953126,0.16523849299550056,-0.014076748408377169,-0.00728542603412643
1772457070147932400,10.245932373046875,0.16848317400515078,0.0070353054642677305,0.010667698016716166
1772457070158000400,10.25600048828125,0.12359306192100047,0.02796265041977167,0.040528738536871965
1772457070168068400,10.266068359375,0.06001578502357006,0.08039747879505157,0.03482093708300963
1772457070178136300,10.27613623046875,0.039841012001037596,0.09868132350444793,0.036548902519932015
1772457070188204500,10.28620458984375,0.03960720324516296,0.10411445446908474,0.0026312435527332126
1772457070198272500,10.2962724609375,0.006644844841957092,0.11443477295339106,-0.00520182469310239
1772457070208341200,10.30634130859375,0.04379004188776016,0.11051935307532548,-0.004085497481655329
1772457070218409200,10.3164091796875,0.09724281513392925,0.08846212730705738,0.04813675672202371
1772457070228477400,10.3264775390625,0.0891799201875925,0.07203764672875404,0.06269088598433882
1772457070238545400,10.33654541015625,0.046188335201144216,0.07133768176585435,0.06881842895392327
1772457070248613400,10.34661328125,0.05978548339903354,0.0650596244096756,0.09199572652699425
1772457070258681300,10.356681396484374,0.0763221921801567,0.04644318674504757,0.08284595879255793
1772457070268749600,10.36674951171875,0.07131050149798393,0.047618368004262446,0.07223779067704454
1772457070278818300,10.376818359375,0.06609831980764866,0.07261544661670923,0.10378400780516676
1772457070288886300,10.38688623046875,-0.0215630125105381,0.06284457870870828,0.1527853728667367
1772457070298954500,10.39695458984375,-0.15009294631183145,0.08117518516927957,0.11155019396040589
1772457070309022500,10.4070224609375,-0.2690431508630514,0.12209259423017502,0.05952344406251795
1772457070319090400,10.41709033203125,-0.21011516107618808,0.12062164489477872,0.022942721632216126
1772457070329158400,10.427158447265626,-0.08626783213317393,0.09546323824077844,0.05182550083789974
1772457070339226400,10.437226318359375,-0.04238835839629173,0.05167494991868734,0.06513024652705061
1772457070349295400,10.44729541015625,0.041780455631017684,0.0326148601397872,0.03311260336174164
1772457070359363300,10.45736328125,0.03920622122883796,-0.005300736756622791,0.018130553843826055
1772457070369431600,10.467431640625,0.052121816903352734,0.01328589029163122,-0.0406692658189917
1772457070379499500,10.47749951171875,0.15392740990817547,-0.03336538624614477,-0.05792031514823902
1772457070389567500,10.4875673828125,0.24078210201859473,-0.05543196436464786,-0.061429752607876434
1772457070399635200,10.49763525390625,0.3335474794775247,-0.029550504133105275,-0.07010843223184347
1772457070409703400,10.507703369140625,0.3253232564896345,-0.04758241990804672,-0.05754663213079329
1772457070419772400,10.5177724609375,0.24713234782814977,-0.007297463531792164,-0.09834989959299564
1772457070429840400,10.52784033203125,0.23555238467156886,-0.009534721064567566,-0.10761326550343073
1772457070439908600,10.53790869140625,0.23520751675665377,-0.0375491016715765,-0.08844619908556342
1772457070449976300,10.547976318359375,0.2820937710940838,-0.05899637884795665,-0.08820554046379402
1772457070460044300,10.558044189453126,0.35261458351910113,-0.06580868921130895,-0.06567257324282545
1772457070470112300,10.5681123046875,0.3448258293390274,-0.06943038683980703,-0.05127561187017709
1772457070480180500,10.578180419921875,0.28163199880123135,-0.04230974020212888,-0.061197505621425806
1772457070490249500,10.58824951171875,0.2199129169911146,-0.027975509901344776,-0.05643837862794753
1772457070500317400,10.5983173828125,0.13547113124132157,-0.009063011899590492,-0.0491328002883587
1772457070510385400,10.608385498046875,0.05913666410148143,0.007247779171168804,-0.030050311447982675
1772457070520453400,10.618453369140624,-0.0063923313856124875,0.04080108920484781,-0.004920404802681878
1772457070530521300,10.628521240234376,-0.04921382050216198,0.05725684170424938,-0.00897108669928275
1772457070540589300,10.63858935546875,-0.07858662998080253,0.03620762393474579,-0.014825927374442107
1772457070550657500,10.648657470703125,-0.08193594040870666,0.041781624674797055,-0.02775103066281881
1772457070560726500,10.6587265625,-0.10632686982154846,0.036007425187528135,-0.015721086115879006
1772457070570794200,10.668794189453125,-0.08551146080791949,0.051963119210302826,0.0124229030870134
1772457070580862500,10.678862548828125,0.007478373056650161,0.03435089015215635,0.03356295007828157
1772457070590930400,10.688930419921874,-0.030506197422742843,0.021364567328989503,0.03142584215146489
1772457070600998400,10.698998291015625,-0.0725099404156208,0.019791618923842905,0.011741053736116737
1772457070611066400,10.70906640625,-0.04744564178586006,0.02261310608536005,-0.007989793177507818
1772457070621134600,10.719134521484374,-0.05083060804903507,0.007100187394022941,-0.015071239338442682
1772457070631203300,10.729203369140626,0.049780806735157966,-0.028343758691847323,-0.003380454484838992
1772457070641271300,10.739271240234375,0.2267933241546154,-0.08562368901073932,-0.033881637805746864
1772457070651339300,10.74933935546875,0.30052082366645333,-0.09097849404215812,0.0121922772354912
1772457070661407500,10.759407470703126,0.38449148477315903,-0.09385784887075424,0.040504901003558184
1772457070671475500,10.769475341796875,0.32028233971297737,-0.03019610856026411,0.07866811598548665
1772457070681543400,10.77954345703125,0.26394319737553595,0.035331425622105596,0.12425730711654759
1772457070691611600,10.789611572265626,0.20164134724140165,0.06413081912696361,0.09832657351633534
1772457070701680400,10.799680419921875,0.09803367325067519,0.10456541310697794,0.049730747915199026
1772457070711748400,10.809748291015625,0.04079962790012359,0.09750964937657117,-0.055881589561980215
1772457070721816300,10.81981640625,-0.0656821402221918,0.09105243606120347,-0.107056937661767
1772457070731884500,10.829884521484376,-0.1224111586600542,0.07970745070427655,-0.15004739927020855
1772457070741952500,10.839952392578125,-0.048399581509828565,0.053040685313940045,-0.0982003441876266
1772457070752020500,10.8500205078125,0.00376665905714035,0.041352585607767105,-0.031717929566372184
1772457070762088200,10.860088134765626,0.0526765281766653,0.027903613708913325,0.02067401864840649
1772457070772157400,10.870157470703125,0.12148001528978347,0.02305880402624607,0.06214628511308692
1772457070782225400,10.880225341796875,0.10971651225984096,0.024752748462557792,0.044618574266927315
1772457070792293400,10.89029345703125,0.05561667328178882,0.010592121163010596,-0.03158615641286597
1772457070802361600,10.900361572265625,0.030522564035654065,0.00341243879199028,-0.10290709710647351
1772457070812429300,10.91042919921875,0.04511690657734871,-0.031166707158088683,-0.11889042805484495
1772457070822497300,10.920497314453126,0.11789338897466659,-0.05043693255633115,-0.07368669257741421
1772457070832565200,10.930565185546875,0.16871990537047385,-0.04179448415637016,-0.01617049668407999
1772457070842634500,10.940634521484375,0.13177578385472297,-0.01958615947961807,0.027274878218164666
1772457070852702500,10.950702392578124,0.010447159734368324,0.013659107518196106,-0.008415891368780284
1772457070862770400,10.9607705078125,-0.028837387427687645,0.013776596418023108,-0.06074046430261805
1772457070872838400,10.97083837890625,-0.013466799816489218,0.035058161638677116,-0.11131063131717964
1772457070882906400,10.98090625,0.016983868026733396,0.0022030630022287366,-0.08274763125092723
1772457070892974300,10.990974365234376,0.11402443858683109,-0.003923895445466041,0.010939098836621268
1772457070903042300,11.001042236328125,0.18650398386418818,-0.007135550968348979,0.043539327662857244
1772457070913111600,11.011111572265625,0.18604864131212234,0.00182516960054636,0.06395451271198689
1772457070923179300,11.02117919921875,0.15379180082976818,0.03362462170422077,0.05897586578289046
1772457070933247200,11.031247314453125,0.12102350369393824,0.02937865469753742,0.04022613886110484
1772457070943315500,11.0413154296875,0.10208850159943103,0.04031067533940077,-0.00179276516828686
1772457070953383400,11.051383544921874,0.10600129112899302,0.03523731759786606,-0.018607980363536624
1772457070963451400,11.061451416015625,0.06208265442550182,0.024085516725480555,-0.066586760911718
1772457070973519400,11.071519287109375,0.054503743603825566,0.04814385318309068,-0.052955829175235704
1772457070983587600,11.081587646484374,0.044182256075739855,0.014516308869421481,-0.06877252571927384
