time,seconds_elapsed,z,y,x
1772457059969059000,0.06705908203125,-0.015979772433638573,-0.029281817376613617,0.003641082439571619
1772457059979127000,0.077126953125,-0.008178841322660446,-0.028179269284009933,-0.007444858085364103
1772457059989194800,0.08719482421875,0.00032308720983564854,-0.01016339473426342,-0.003615438472479582
1772457059999264000,0.097263916015625,-0.0004260600544512272,-0.002814135979861021,0.005169796757400036
1772457060009332000,0.10733203125,-0.006123906001448631,-0.010905448347330093,0.019668828696012497
1772457060019400200,0.117400146484375,0.0031268501188606024,-0.023841487243771553,0.0425400547683239
1772457060029468200,0.12746826171875,0.015728794038295746,-0.04066399857401848,0.047657374292612076
1772457060039535900,0.137535888671875,0.026921793818473816,-0.058153510093688965,0.032549258321523666
1772457060049603800,0.147603759765625,0.03513993322849274,-0.06513280421495438,0.017036326229572296
1772457060059672000,0.157672119140625,0.036093879491090775,-0.02094004489481449,0.008564544841647148
1772457060069740000,0.167739990234375,0.03360755369067192,0.015311435796320438,0.005649715196341276
1772457060079808000,0.17780810546875,0.028985904529690742,0.01679268479347229,0.0033354279585182667
1772457060089876000,0.1878759765625,0.02226516418159008,-0.0005811476148664951,0.0037927087396383286
1772457060099945000,0.197945068359375,0.022609511390328407,-0.032932959496974945,0.005026018712669611
1772457060110013000,0.208012939453125,0.02125776931643486,-0.052667491137981415,0.005931482650339603
1772457060120081000,0.218080810546875,0.017987143248319626,-0.04819205403327942,0.006651335395872593
1772457060130149000,0.228149169921875,0.0074582286179065704,-0.02074706368148327,0.012695624493062496
1772457060140217000,0.238217041015625,-0.0006052907556295395,0.007296022027730942,0.023064110428094864
1772457060150285000,0.24828515625,-0.00916700717061758,0.01215365156531334,0.02967832423746586
1772457060160353000,0.25835302734375,-0.010225879959762096,-0.0004004891961812973,0.029739579185843468
1772457060170421200,0.268421142578125,-0.009065620601177216,-0.014840438961982727,0.026513703167438507
1772457060180489000,0.278489013671875,-0.009891733527183533,-0.02027195505797863,0.025903571397066116
1772457060190558000,0.288557861328125,-0.008704016916453838,-0.01907229796051979,0.01695059984922409
1772457060200626200,0.298626220703125,-0.007833429612219334,-0.021158618852496147,0.017037685960531235
1772457060210694100,0.308694091796875,-0.012267686426639557,-0.015304312109947205,0.016174549236893654
1772457060220762000,0.31876220703125,-0.013228554278612137,-0.014706432819366455,0.023030059412121773
1772457060230830000,0.328830078125,-0.015521401539444923,-0.013921212404966354,0.023206308484077454
1772457060240898000,0.33889794921875,-0.01255251094698906,-0.016772126778960228,0.01806028187274933
1772457060250966000,0.348966064453125,-0.007642760872840881,-0.014047009870409966,0.008406896144151688
1772457060261034000,0.359033935546875,-0.0022748929914087057,-0.017545871436595917,-0.004948590416461229
1772457060271102000,0.36910205078125,-0.004426353611052036,-0.013700075447559357,-0.020930834114551544
1772457060281171200,0.379171142578125,-0.002611409639939666,0.004780399147421122,-0.024068303406238556
1772457060291239000,0.389239013671875,0.0014313620049506426,0.01745743304491043,-0.02552025392651558
1772457060301307000,0.399306884765625,0.003372273873537779,0.02113019861280918,-0.020862918347120285
1772457060311375000,0.409375,0.0031934159342199564,0.010917726904153824,-0.016646316275000572
1772457060321443000,0.419443115234375,0.003471183590590954,-0.014756478369235992,-0.014098736457526684
1772457060331511000,0.429510986328125,-0.0014229877851903439,-0.03377386927604675,-0.01327128242701292
1772457060341579000,0.4395791015625,0.0004068703856319189,-0.032642826437950134,-0.015853749588131905
1772457060351647200,0.449647216796875,0.007546192966401577,-0.02038618177175522,-0.016014328226447105
1772457060361715200,0.459715087890625,0.009922265075147152,-0.010985488072037697,-0.015934698283672333
1772457060371784000,0.469783935546875,0.015043165534734726,-0.012650379911065102,-0.0210584569722414
1772457060381852200,0.47985205078125,0.015258881263434887,-0.01486719585955143,-0.014989378862082958
1772457060391920000,0.489920166015625,0.01509444322437048,-0.020597541704773903,-0.01625644788146019
1772457060401988000,0.499988037109375,0.01139158383011818,-0.03145311772823334,-0.012264903634786606
1772457060412056000,0.51005615234375,0.009808242321014404,-0.02594182826578617,-0.007204369641840458
1772457060422124000,0.5201240234375,0.009884408675134182,-0.003840519580990076,-0.007023008540272713
1772457060432192000,0.53019189453125,0.015053230337798595,0.012056762352585793,-0.003379988484084606
1772457060442260000,0.540260009765625,0.021024569869041443,0.009437276981770992,-0.008152373135089874
1772457060452328000,0.550327880859375,0.024565668776631355,0.006171757355332375,-0.0077723609283566475
1772457060462397200,0.560397216796875,0.01821855828166008,0.008402687497437,-0.009771596640348434
1772457060472465200,0.570465087890625,0.01314169354736805,0.007244454231113195,-0.012049119919538498
1772457060482532900,0.580532958984375,0.005296287126839161,0.009084166027605534,-0.006275121122598648
1772457060492600800,0.590600830078125,-0.00180836021900177,-0.00016700336709618568,-0.0016876114532351494
1772457060502669000,0.6006689453125,-0.00866520032286644,-0.020359890535473824,-0.0009978527668863535
1772457060512737000,0.610737060546875,-0.009167380630970001,-0.02707093581557274,-0.002954206196591258
1772457060522805000,0.620804931640625,-0.010742373764514923,-0.008618423715233803,-0.0007784035988152027
1772457060532873200,0.630873291015625,-0.004808598197996616,0.005494101904332638,-0.004195787012577057
1772457060542941200,0.640941162109375,-0.0018911049701273441,0.009833989664912224,-0.015277733094990253
1772457060553010000,0.651010009765625,-0.0012125978246331215,-0.0004047257825732231,-0.023847758769989014
1772457060563078000,0.661077880859375,-0.004501335322856903,-0.001531775575131178,-0.020370470359921455
1772457060573146000,0.67114599609375,-0.0062768650241196156,-0.0017054136842489243,-0.014460383914411068
1772457060583214000,0.681214111328125,-0.012112116441130638,-0.006064209621399641,-0.0022537847980856895
1772457060593282000,0.691281982421875,-0.01603841595351696,-0.005268190521746874,0.0016996779013425112
1772457060603350000,0.70135009765625,-0.024844156578183174,0.00032205088064074516,0.0015292356256395578
1772457060613418000,0.71141796875,-0.02231568470597267,0.0016295891255140305,-0.013239881955087185
1772457060623486000,0.72148583984375,-0.019318297505378723,0.003870905376970768,-0.030466806143522263
1772457060633554000,0.731553955078125,-0.008543401956558228,0.008953911252319813,-0.041939686983823776
1772457060643623200,0.741623046875,-0.002091627102345228,0.015425126999616623,-0.047182921320199966
1772457060653691100,0.751691162109375,0.002752130152657628,0.02196585014462471,-0.04979761317372322
1772457060663759000,0.761759033203125,0.006492273416370153,0.02473127655684948,-0.04255994036793709
1772457060673826800,0.771826904296875,0.005396741908043623,0.020425066351890564,-0.032660432159900665
1772457060683895000,0.78189501953125,0.0032361194025725126,0.009908510372042656,-0.023864010348916054
1772457060693963000,0.791962890625,0.008294686675071716,0.013550430536270142,-0.008091192692518234
1772457060704031000,0.802031005859375,0.013052424415946007,0.007681888993829489,0.0017896678764373064
1772457060714099000,0.812098876953125,0.018263619393110275,-0.004970014560967684,0.009838016703724861
1772457060724167200,0.822167236328125,0.018819421529769897,-0.01770072430372238,0.007696036249399185
1772457060734236000,0.83223583984375,0.022088464349508286,-0.02550927922129631,0.004254714585840702
1772457060744303900,0.842303955078125,0.020837843418121338,-0.017095820978283882,-0.004431185312569141
1772457060754372000,0.8523720703125,0.014981778338551521,0.01501388568431139,-0.005509011447429657
1772457060764440000,0.862440185546875,0.009191000834107399,0.025495821610093117,-0.012185555882751942
1772457060774508000,0.872508056640625,0.0032680106814950705,0.011124582961201668,-0.01986737735569477
1772457060784576000,0.882575927734375,0.004080275073647499,-0.002278574276715517,-0.01787027344107628
1772457060794644200,0.892644287109375,0.006991629488766193,-0.014029070734977722,-0.01463374961167574
1772457060804712000,0.9027119140625,0.004942326806485653,-0.015322035178542137,-0.01397381816059351
1772457060814780000,0.91277978515625,0.005726681090891361,-0.003677268046885729,-0.006898106075823307
1772457060824849200,0.92284912109375,0.004880861379206181,0.011445226147770882,-0.007981746457517147
1772457060834917000,0.932917236328125,0.0022236788645386696,0.017609162256121635,-0.010494403541088104
1772457060844985000,0.942985107421875,-0.002662688959389925,0.020203612744808197,-0.01401670090854168
1772457060855053000,0.953052978515625,-0.009846885688602924,0.019119609147310257,-0.009577969089150429
1772457060865121000,0.96312109375,-0.01340406946837902,0.0023771158885210752,-0.00006995117291808128
1772457060875189000,0.97318896484375,-0.021607443690299988,-0.00895705632865429,0.004773493856191635
1772457060885257000,0.983257080078125,-0.02168787084519863,-0.00947104673832655,0.016919106245040894
1772457060895325000,0.993324951171875,-0.017382405698299408,0.0025119197089225054,0.015565180219709873
1772457060905393200,1.00339306640625,-0.009075207635760307,0.008176729083061218,0.01727120205760002
1772457060915461000,1.013461181640625,-0.0024403282441198826,0.01768762804567814,0.013439410366117954
1772457060925529900,1.02352978515625,0.003527283202856779,0.017770186066627502,0.008062221109867096
1772457060935598000,1.03359814453125,0.002764034317806363,0.008401814848184586,0.0031495026778429747
1772457060945666000,1.043666015625,-0.0016557476483285427,-0.003475350793451071,0.0005401375237852335
1772457060955734000,1.053734130859375,-0.009207873605191708,-0.007304250728338957,0.0033486823085695505
1772457060965802000,1.063802001953125,-0.013179180212318897,0.016990702599287033,0.0027840922120958567
1772457060975870200,1.0738701171875,-0.011696144938468933,0.031571753323078156,-0.001389870187267661
1772457060985938200,1.083938232421875,-0.01395636796951294,0.024866443127393723,-0.0045648906379938126
1772457060996006700,1.094006591796875,-0.013843371532857418,0.011363709345459938,-0.009932502172887325
1772457061006074600,1.10407470703125,-0.011281144805252552,-0.0009113326668739319,-0.02069087326526642
1772457061016144000,1.114143798828125,-0.0038210705388337374,-0.010211694985628128,-0.0207425095140934
1772457061026211800,1.1242119140625,-0.0001989053562283516,-0.013693511486053467,-0.022106580436229706
1772457061036279600,1.134279541015625,-0.0031458663288503885,-0.005564358551055193,-0.02615085244178772
1772457061046347800,1.14434765625,-0.0067429980263113976,0.021172447130084038,-0.027739161625504494
1772457061056415700,1.154415771484375,-0.008228428661823273,0.03550134226679802,-0.027114393189549446
1772457061066483700,1.164483642578125,-0.013419995084404945,0.024736313149333,-0.026093868538737297
1772457061076551700,1.1745517578125,-0.006653009448200464,0.0025636807549744844,-0.02550346776843071
1772457061086620000,1.184619873046875,-0.005717707332223654,-0.013142311945557594,-0.017337683588266373
1772457061096687900,1.19468798828125,-0.008494519628584385,-0.005067121237516403,-0.005140326917171478
1772457061106756600,1.204756591796875,-0.00782793015241623,0.006493127904832363,0.007915553636848927
1772457061116824800,1.214824951171875,-0.014189289882779121,0.01255167368799448,0.016664784401655197
1772457061126892800,1.224892822265625,-0.015973340719938278,0.010842723771929741,0.020071767270565033
1772457061136960800,1.234960693359375,-0.021253429353237152,0.0018138557206839323,0.014160859398543835
1772457061147028700,1.24502880859375,-0.021226266399025917,-0.005789469461888075,0.009339473210275173
1772457061157097000,1.255096923828125,-0.014337733387947083,-0.01894575171172619,-0.00273716333322227
1772457061167165000,1.2651650390625,-0.007605528924614191,-0.024806037545204163,-0.01436053030192852
1772457061177232600,1.275232666015625,-0.001917470246553421,-0.010899785906076431,-0.023606503382325172
1772457061187300600,1.285300537109375,-0.005098349414765835,0.010432401672005653,-0.024143662303686142
1772457061197369900,1.295369873046875,-0.006342378910630941,0.026500657200813293,-0.0270219799131155
1772457061207437800,1.305437744140625,-0.014270076528191566,0.02280871756374836,-0.02892960235476494
1772457061217505800,1.315505859375,-0.022222861647605896,0.015872418880462646,-0.031087787821888924
1772457061227573800,1.32557373046875,-0.021174108609557152,0.01691477932035923,-0.023737464100122452
1772457061237641700,1.335641845703125,-0.019146496430039406,0.0008273734711110592,-0.013056359253823757
1772457061247709700,1.345709716796875,-0.022149743512272835,-0.01870398223400116,-0.005648510530591011
1772457061257777700,1.355777587890625,-0.026908226311206818,-0.015613023191690445,0.0011326558887958527
1772457061267846000,1.365845947265625,-0.02487996220588684,0.002255722414702177,0.0007425025105476379
1772457061277913900,1.375913818359375,-0.025912471115589142,0.01673692651093006,0.0025515882298350334
1772457061287981800,1.38598193359375,-0.02042209729552269,0.02082754112780094,-0.0015049389330670238
1772457061298050800,1.39605078125,-0.019745562225580215,0.019808471202850342,0.0008450397290289402
1772457061308118800,1.406118896484375,-0.01300137396901846,0.010226684622466564,0.007325575686991215
1772457061318186800,1.416186767578125,-0.012958402745425701,0.0035148407332599163,0.008292840793728828
1772457061328254700,1.426254638671875,-0.01629401370882988,-0.007598530035465956,0.005228074267506599
1772457061338323000,1.436322998046875,-0.020458171144127846,-0.009599361568689346,-0.0012321651447564363
1772457061348391000,1.446390869140625,-0.017157182097434998,-0.012341884896159172,-0.004739814437925816
1772457061358459000,1.456458984375,-0.006349489558488131,-0.015599368140101433,-0.011803890578448772
1772457061368526600,1.466526611328125,-0.001374437939375639,-0.014641163870692253,-0.011178580112755299
1772457061378594800,1.4765947265625,0.005086350720375776,-0.005658052861690521,-0.006211195141077042
1772457061388663800,1.486663818359375,0.010093891993165016,0.010559532791376114,0.005851859226822853
1772457061398731800,1.496731689453125,0.0067958468571305275,0.02757163718342781,0.022101152688264847
1772457061408800000,1.506800048828125,0.0023153447546064854,0.022841863334178925,0.032929833978414536
1772457061418867700,1.51686767578125,0.00015197950415313244,0.004039096180349588,0.03428981453180313
1772457061428935700,1.526935791015625,0.004469229839742184,-0.008765382692217827,0.024877406656742096
1772457061439003600,1.537003662109375,0.004838117398321629,-0.007047351915389299,0.009990380145609379
1772457061449071900,1.54707177734375,0.010503726080060005,0.011888789013028145,-0.00046332599595189095
1772457061459139800,1.557139892578125,0.010673049837350845,0.025190090760588646,-0.007410508114844561
1772457061469207800,1.567207763671875,0.008129199035465717,0.030857030302286148,-0.00570928119122982
1772457061479276800,1.57727685546875,0.009154940955340862,0.01219074334949255,-0.002478785114362836
1772457061489344800,1.5873447265625,0.009580248035490513,-0.0030111130326986313,-0.0024947640486061573
1772457061499412700,1.597412841796875,0.011071698740124702,-0.005155465565621853,0.00002883654087781906
1772457061509480700,1.607480712890625,0.005179454572498798,-0.0018611354753375053,-0.004772842861711979
1772457061519549000,1.617548828125,-0.002235571388155222,0.007195040583610535,-0.003436719300225377
1772457061529617000,1.627616943359375,-0.008639141917228699,0.009198537096381187,-0.00395736750215292
1772457061539684900,1.637684814453125,-0.012012235820293427,0.009869313798844814,-0.0021254047751426697
1772457061549752800,1.6477529296875,-0.01017012633383274,0.01516607403755188,0.004243278875946999
1772457061559820800,1.65782080078125,-0.006389862857758999,0.012785088270902634,0.012154991738498211
1772457061569889800,1.667889892578125,-0.005817549303174019,0.00021123886108398438,0.015881553292274475
1772457061579957800,1.677957763671875,-0.006907128728926182,-0.006115923170000315,0.011948873288929462
1772457061590026000,1.68802587890625,-0.003932378254830837,-0.006497554015368223,0.00792909786105156
1772457061600094000,1.698093994140625,-0.009776205755770206,-0.006481671240180731,0.0038313353434205055
1772457061610161700,1.70816162109375,-0.010337067767977715,-0.005393503699451685,-0.0007471712306141853
1772457061620229600,1.718229736328125,-0.009187246672809124,-0.005001366604119539,-0.00702722417190671
1772457061630297900,1.7282978515625,-0.010006168857216835,-0.007157993968576193,-0.013225997798144817
1772457061640365800,1.73836572265625,-0.009720132686197758,-0.008619972504675388,-0.011750324629247189
1772457061650433800,1.748433837890625,-0.010340382345020771,-0.014341507107019424,-0.016916323453187943
1772457061660502800,1.758502685546875,-0.011386312544345856,-0.014266625046730042,-0.02320673316717148
1772457061670570800,1.76857080078125,-0.014354672282934189,0.008363054133951664,-0.02843558043241501
1772457061680638700,1.778638671875,-0.01404715795069933,0.03895904868841171,-0.021012701094150543
1772457061690706700,1.788706787109375,-0.012867909856140614,0.04459855705499649,-0.015401153825223446
1772457061700774700,1.798774658203125,-0.01264157984405756,0.02743789553642273,-0.0056943525560200214
1772457061710843000,1.8088427734375,-0.012352361343801022,0.0069523281417787075,0.001138786319643259
1772457061720910800,1.818910888671875,-0.007639298215508461,-0.017238276079297066,0.0014139676932245493
1772457061730978800,1.828978759765625,0.0007608444429934025,-0.025616846978664398,0.008255362510681152
1772457061741046800,1.839046875,0.009089307859539986,-0.016636958345770836,0.008355716243386269
1772457061751115800,1.84911572265625,0.012351147830486298,0.0005620014853775501,0.013907608576118946
1772457061761183700,1.859183837890625,0.016495665535330772,0.015628786757588387,0.013881796039640903
1772457061771251700,1.869251708984375,0.015479137189686298,0.015143292024731636,0.015201925300061703
1772457061781320000,1.87931982421875,0.01855463534593582,0.005841161590069532,0.012940624728798866
1772457061791388000,1.889387939453125,0.019531482830643654,-0.00623787147924304,0.007449452765285969
1772457061801455600,1.89945556640625,0.0196443609893322,-0.011603901162743568,-0.005202205386012793
1772457061811523600,1.909523681640625,0.018051525577902794,0.004781464580446482,-0.0021736586932092905
1772457061821591800,1.919591796875,0.019259827211499214,0.02545497938990593,-0.0047177462838590145
1772457061831659800,1.92965966796875,0.013713527470827103,0.029271822422742844,-0.0037273168563842773
1772457061841727700,1.939727783203125,0.007947024889290333,0.022740177810192108,0.007573321461677551
1772457061851797000,1.949796875,0.002113903174176812,0.0029321187175810337,0.009895331226289272
1772457061861864700,1.95986474609375,0.0036437292583286762,-0.018842201679944992,0.005026828497648239
1772457061871932700,1.9699326171875,0.002099894918501377,-0.023255325853824615,0.0010675066150724888
1772457061882000600,1.980000732421875,-0.0035658073611557484,-0.011392928659915924,0.0006107690278440714
1772457061892068900,1.99006884765625,-0.002128233201801777,0.01454226579517126,-0.005323818884789944
1772457061902136800,2.00013671875,0.002896339865401387,0.026432916522026062,-0.011630733497440815
1772457061912204800,2.010204833984375,0.006816246546804905,0.016169894486665726,-0.013401735574007034
1772457061922272800,2.020272705078125,0.005687665659934282,-0.002033684868365526,-0.011442474089562893
1772457061932341800,2.030341796875,0.005525212734937668,-0.0024249032139778137,-0.009714348241686821
1772457061942409700,2.04040966796875,-0.0007523235399276018,0.013026418164372444,-0.004058885388076305
1772457061952477700,2.050477783203125,-0.007689325604587793,0.022788500413298607,-0.0004175452049821615
1772457061962546000,2.0605458984375,-0.011676037684082985,0.019033469259738922,0.0016019763424992561
1772457061972614000,2.07061376953125,-0.011162846349179745,0.009418925270438194,0.000590507872402668
1772457061982681900,2.080681884765625,0.0030614295974373817,-0.007002731319516897,-0.011263248510658741
1772457061992749600,2.09074951171875,0.019661445170640945,-0.020722005516290665,-0.024919405579566956
1772457062002817500,2.100817626953125,0.02528589405119419,-0.009282348677515984,-0.03412378579378128
1772457062012885500,2.110885498046875,0.025207597762346268,0.018698420375585556,-0.02863660827279091
1772457062022954500,2.12095458984375,0.020619984716176987,0.034455955028533936,-0.016622351482510567
1772457062033022700,2.131022705078125,0.014065943658351898,0.03372065722942352,-0.0005709480028599501
1772457062043090700,2.141090576171875,0.009111772291362286,0.009203014895319939,-0.0014878541696816683
1772457062053158400,2.151158447265625,0.0036040886770933867,-0.023259585723280907,-0.009752707555890083
1772457062063226400,2.161226318359375,0.002097778022289276,-0.030523819848895073,-0.02063548006117344
1772457062073294600,2.171294677734375,0.009168203920125961,-0.011112572625279427,-0.026451824232935905
1772457062083362600,2.181362548828125,0.01947646215558052,0.01363884937018156,-0.023773428052663803
1772457062093430500,2.191430419921875,0.023172663524746895,0.013102488592267036,-0.02290390431880951
1772457062103498500,2.20149853515625,0.021188674494624138,0.0041248993948102,-0.012658749707043171
1772457062113566700,2.211566650390625,0.023752499371767044,-0.007130418438464403,-0.00218400452286005
1772457062123635500,2.221635498046875,0.02316058613359928,-0.011224277317523956,0.007685424759984016
1772457062133703400,2.231703369140625,0.020120587199926376,-0.0064188698306679726,0.019048068672418594
1772457062143771600,2.241771728515625,0.020143290981650352,0.00890941359102726,0.030474867671728134
1772457062153839600,2.251839599609375,0.021845582872629166,0.021814294159412384,0.03544965386390686
1772457062163907600,2.261907470703125,0.02774178236722946,0.008499020710587502,0.03592508286237717
1772457062173975600,2.2719755859375,0.027350030839443207,-0.014000428840517998,0.0262580756098032
1772457062184043500,2.28204345703125,0.024997089058160782,-0.013156231492757797,0.02324865572154522
1772457062194111500,2.292111572265625,0.025803493335843086,-0.001542186364531517,0.01831728033721447
1772457062204180500,2.302180419921875,0.02470342069864273,0.006754675414413214,0.015659809112548828
1772457062214248400,2.31224853515625,0.01958509162068367,-0.0015583820641040802,0.0091790072619915
1772457062224316700,2.322316650390625,0.012610034085810184,-0.0025723446160554886,0.0061482531018555164
1772457062234384600,2.332384521484375,0.010732505470514297,-0.003019755706191063,0.005533596035093069
1772457062244452400,2.342452392578125,0.00804981030523777,0.00041746487841010094,0.0012232642620801926
1772457062254520300,2.352520263671875,0.00997687317430973,-0.0009047943167388439,0.0014938414096832275
1772457062264588500,2.362588623046875,0.004902219865471125,-0.010351825505495071,-0.00001190975308418274
1772457062274656500,2.372656494140625,0.0026462560053914785,-0.011562764644622803,0.000564131885766983
1772457062284724500,2.382724365234375,0.002721823053434491,-0.011099833995103836,0.008960573002696037
1772457062294793700,2.392793701171875,0.0033055879175662994,-0.009780504740774632,0.011294567957520485
1772457062304861400,2.402861328125,-0.0031661733519285917,0.0033056391403079033,0.01002235896885395
1772457062314929400,2.412929443359375,-0.010039258748292923,0.018946383148431778,0.011805612593889236
1772457062324997400,2.422997314453125,-0.013347238302230835,0.020799750462174416,0.02459653466939926
1772457062335065600,2.433065673828125,-0.015772845596075058,0.01632004790008068,0.028827235102653503
1772457062345133600,2.443133544921875,-0.015688076615333557,0.005077004432678223,0.037887297570705414
1772457062355201500,2.453201416015625,-0.0159490667283535,-0.006638773716986179,0.03651869669556618
1772457062365269500,2.46326953125,-0.01447153277695179,-0.003508131019771099,0.03902341425418854
1772457062375337700,2.473337646484375,-0.009202999994158745,-0.0007693362422287464,0.030761491507291794
1772457062385406500,2.483406494140625,-0.0030420830007642508,0.001906583085656166,0.02527160383760929
1772457062395474400,2.493474365234375,-0.0015389949548989534,0.007341295946389437,0.015917250886559486
1772457062405542700,2.503542724609375,0.005240454338490963,0.0036093604285269976,0.0033269107807427645
1772457062415610600,2.513610595703125,0.010089804418385029,-0.003117784857749939,-0.009493013843894005
1772457062425678600,2.5236787109375,0.01456089224666357,-0.012108737602829933,-0.02127484418451786
1772457062435746300,2.533746337890625,0.0162179097533226,-0.011748677119612694,-0.028947943821549416
1772457062445814500,2.543814453125,0.015056786127388477,0.0008801287040114403,-0.03274186700582504
1772457062455882500,2.553882568359375,0.018550854176282883,0.013508305884897709,-0.02934420481324196
1772457062465950500,2.563950439453125,0.023460377007722855,0.007478546351194382,-0.023963836953043938
1772457062476019700,2.574019775390625,0.01885763555765152,0.0016185264103114605,-0.013705341145396233
1772457062486087700,2.584087646484375,0.0108732795342803,0.0012445715256035328,0.0030393670313060284
1772457062496155400,2.5941552734375,0.00417702691629529,-0.0007432117126882076,0.014554875902831554
1772457062506223400,2.604223388671875,0.0021453818771988153,-0.009448288008570671,0.018261877819895744
1772457062516291600,2.61429150390625,-0.00213618203997612,-0.016810595989227295,0.018102087080478668
1772457062526359600,2.624359619140625,0.005869612563401461,-0.010615866631269455,0.011075682938098907
1772457062536427500,2.634427490234375,0.011183151043951511,-0.00839052814990282,0.008721714839339256
1772457062546495500,2.64449560546875,0.010608840733766556,-0.007180267013609409,0.003827835898846388
1772457062556563700,2.654563720703125,0.007343539502471685,-0.00597811583429575,0.001914354506880045
1772457062566632400,2.664632568359375,0.002917844569310546,-0.006450657732784748,-0.0005018888041377068
1772457062576700400,2.674700439453125,0.004545834846794605,-0.013676080852746964,-0.003877179231494665
1772457062586768600,2.6847685546875,0.003911696840077639,-0.005266907159239054,-0.01018066331744194
1772457062596836600,2.694836669921875,0.00555779691785574,0.008777804672718048,-0.01787027344107628
1772457062606904600,2.704904541015625,0.00920580793172121,0.016106653958559036,-0.028390010818839073
1772457062616972500,2.71497265625,0.005589501466602087,0.013380910269916058,-0.03483006730675697
1772457062627040500,2.72504052734375,0.0014116012025624514,0.011024205014109612,-0.03000844083726406
1772457062637108500,2.7351083984375,0.0011005441192537546,-0.0070245699025690556,-0.03208543732762337
1772457062647176400,2.745176513671875,-0.00042972201481461525,-0.0215441957116127,-0.028235748410224915
1772457062657245700,2.75524560546875,0.001727971015498042,-0.03136033937335014,-0.029622457921504974
1772457062667313700,2.765313720703125,-0.004599486477673054,-0.019711263477802277,-0.03764795511960983
1772457062677381600,2.775381591796875,-0.010479746386408806,0.013252546079456806,-0.03828205540776253
1772457062687449300,2.785449462890625,-0.01492308359593153,0.04442908614873886,-0.030171329155564308
1772457062697517600,2.795517578125,-0.01664055697619915,0.055405303835868835,-0.01898125745356083
1772457062707585500,2.80558544921875,-0.017059365287423134,0.03401818126440048,-0.004638624843209982
1772457062717653500,2.815653564453125,-0.010379890911281109,0.003182769985869527,0.011598401702940464
1772457062727721500,2.825721435546875,-0.0010763907339423895,-0.019642021507024765,0.010488944128155708
1772457062737789700,2.835789794921875,0.0026336589362472296,-0.030171360820531845,0.005294715519994497
1772457062747858400,2.8458583984375,0.0057317279279232025,-0.01852392964065075,-0.0031754523515701294
1772457062757926400,2.855926513671875,0.012740634381771088,0.017498254776000977,-0.002242014277726412
1772457062767994600,2.86599462890625,0.011705929413437843,0.03958525136113167,0.008651940152049065
1772457062778062600,2.8760625,0.006507972255349159,0.03570795804262161,0.015364703722298145
1772457062788130600,2.886130615234375,0.0025740312412381172,0.016064478084445,0.014021556824445724
1772457062798198500,2.896198486328125,0.0004219308029860258,-0.006278111133724451,0.0045454963110387325
1772457062808266800,2.906266845703125,0.007514460477977991,-0.015491290017962456,-0.014186008833348751
1772457062818334500,2.91633447265625,0.018539149314165115,-0.013965565711259842,-0.03481272608041763
1772457062828403500,2.926403564453125,0.027409233152866364,0.004202567506581545,-0.04894055053591728
1772457062838471700,2.9364716796875,0.03275925666093826,0.027239710092544556,-0.04752960801124573
1772457062848539600,2.94653955078125,0.033394381403923035,0.03431093692779541,-0.03371972218155861
1772457062858607600,2.956607666015625,0.028886979445815086,0.021400462836027145,-0.0186824519187212
1772457062868675600,2.966675537109375,0.021056968718767166,-0.0053468504920601845,-0.004452981520444155
1772457062878743600,2.97674365234375,0.019960545003414154,-0.02218974567949772,0.002164440928027034
1772457062888811500,2.9868115234375,0.01974642649292946,-0.02946576662361622,0.00729475449770689
1772457062898879500,2.99687939453125,0.02686399035155773,-0.02322678081691265,-0.005928905680775642
1772457062908947500,3.006947509765625,0.03136467933654785,0.000987648032605648,-0.012448281049728394
1772457062919016700,3.0170166015625,0.037466250360012054,0.028938589617609978,-0.015331152826547623
1772457062929084400,3.02708447265625,0.03643028065562248,0.0397837832570076,-0.02241942286491394
1772457062939152400,3.03715234375,0.03491760417819023,0.027520455420017242,-0.02518325112760067
1772457062949220400,3.047220458984375,0.027402600273489952,0.0011260113678872585,-0.02109450474381447
1772457062959288600,3.05728857421875,0.01956811361014843,-0.01208593137562275,-0.01508774422109127
1772457062969356500,3.0673564453125,0.01029898226261139,-0.012784743681550026,-0.0054787928238511086
1772457062979424500,3.077424560546875,0.00479635875672102,-0.016440199688076973,0.003977293148636818
1772457062989492500,3.087492431640625,0.003347905585542321,-0.011824142187833786,0.007539478130638599
1772457062999560400,3.097560546875,0.0034147510305047035,-0.00572763429954648,0.011418106034398079
1772457063009629200,3.107629150390625,0.007316973991692066,0.0006871954537928104,0.012583591043949127
1772457063019697200,3.117697265625,0.010751652531325817,0.0006110290996730328,0.011091955006122589
1772457063029765400,3.127765380859375,0.009624856524169445,0.007915157824754715,0.017938287928700447
1772457063039833300,3.137833251953125,0.0074378689751029015,0.0013853530399501324,0.024789536371827126
1772457063049901300,3.1479013671875,-0.0006123878993093967,-0.01738150604069233,0.03537910431623459
1772457063059969300,3.15796923828125,-0.0025801975280046463,-0.03093539923429489,0.0366949737071991
1772457063070037200,3.168037353515625,-0.004155976697802544,-0.0354248583316803,0.026247406378388405
1772457063080105200,3.178105224609375,-0.001447275746613741,-0.025355178862810135,0.01766723394393921
1772457063090174200,3.18817431640625,0.0033418333623558283,-0.008330220356583595,0.011564910411834717
1772457063100242400,3.198242431640625,0.006940030492842197,-0.0026206690818071365,0.011656256392598152
1772457063110310400,3.208310302734375,0.003209660528227687,0.002791916485875845,0.01389758475124836
1772457063120378400,3.21837841796875,0.0008255988359451294,0.00018627941608428955,0.021709701046347618
1772457063130446000,3.228446044921875,-0.0015306859277188778,-0.006977866403758526,0.025881797075271606
1772457063140514300,3.238514404296875,-0.001538675744086504,-0.009266853332519531,0.029891984537243843
1772457063150582300,3.248582275390625,-0.0005713091231882572,-0.014020644128322601,0.027479184791445732
1772457063160650200,3.258650146484375,0.0038814961444586515,-0.018394088372588158,0.02517847903072834
1772457063170718200,3.26871826171875,0.004528937861323357,-0.023849936202168465,0.018096525222063065
1772457063180787200,3.278787109375,0.008196109905838966,-0.0223697517067194,0.015808602795004845
1772457063190855200,3.288855224609375,0.007775237318128347,-0.015009135939180851,0.004593870602548122
1772457063200923100,3.298923095703125,0.005784524604678154,0.003913422115147114,0.005143547430634499
1772457063210991400,3.308991455078125,0.011803122237324715,0.014287790283560753,0.0026909695006906986
1772457063221059300,3.319059326171875,0.01559759397059679,0.014419615268707275,0.010079377330839634
1772457063231127300,3.329127197265625,0.017602847889065742,0.00096910260617733,0.014225365594029427
1772457063241195300,3.3391953125,0.018158916383981705,-0.009990338236093521,0.01886698789894581
1772457063251263500,3.349263427734375,0.01186583936214447,-0.018735796213150024,0.02239149436354637
1772457063261331200,3.359331298828125,0.006311018019914627,-0.015660643577575684,0.018366925418376923
1772457063271400200,3.369400146484375,0.0010137113276869059,-0.016647974029183388,0.0057009132578969
1772457063281468400,3.379468505859375,0.0023242528550326824,-0.0041449652053415775,0.0021700940560549498
1772457063291536400,3.389536376953125,0.000529721612110734,0.01562089566141367,0.00421006977558136
1772457063301604400,3.399604248046875,0.006826233118772507,0.021530982106924057,0.011411257088184357
1772457063311672300,3.40967236328125,0.0068679251708090305,0.012558476999402046,0.012107901275157928
1772457063321740300,3.419740234375,0.008815495297312737,-0.01058998517692089,0.00739703606814146
1772457063331808300,3.429808349609375,0.014212430454790592,-0.022421585395932198,0.005266290623694658
1772457063341876200,3.439876220703125,0.012592163868248463,-0.01883058063685894,0.000428125960752368
1772457063351944200,3.449944091796875,0.013657920993864536,0.008275581523776054,0.007884660735726357
1772457063362013400,3.460013427734375,0.010359329171478748,0.038838550448417664,0.013658660463988781
1772457063372081200,3.4700810546875,0.006129616871476173,0.03683103621006012,0.019405772909522057
1772457063382149000,3.480149169921875,0.006782357580959797,0.018614746630191803,0.01960044912993908
1772457063392217300,3.49021728515625,0.006486720405519009,-0.004103541374206543,0.021258501335978508
1772457063402285300,3.500285400390625,0.010468145832419395,-0.025064216926693916,0.011368054896593094
1772457063412353300,3.510353271484375,0.015915056690573692,-0.020944669842720032,0.0013559435028582811
1772457063422421200,3.520421142578125,0.019881566986441612,-0.003776867873966694,-0.008330772630870342
1772457063432489500,3.530489501953125,0.020628783851861954,0.01631356030702591,-0.010665271431207657
1772457063442558200,3.54055810546875,0.01200706698000431,0.01853357069194317,-0.012743867933750153
1772457063452626200,3.550626220703125,0.003067834535613656,0.010290335863828659,-0.020606134086847305
1772457063462694100,3.560694091796875,-0.0020041558891534805,0.009711630642414093,-0.020054858177900314
1772457063472762400,3.570762451171875,-0.0009925412014126778,-0.0016281320713460445,-0.024278298020362854
1772457063482830300,3.580830322265625,-0.0002002508845180273,-0.013096769340336323,-0.02822110801935196
1772457063492898300,3.590898193359375,0.0009199546184390783,-0.01070336252450943,-0.029973478987812996
1772457063502966300,3.60096630859375,-0.003432982135564089,0.004723796620965004,-0.03168562427163124
1772457063513034200,3.6110341796875,-0.011458124965429306,0.011882035061717033,-0.024454310536384583
1772457063523102200,3.621102294921875,-0.01792028546333313,0.017013415694236755,-0.012744922190904617
1772457063533171200,3.631171142578125,-0.01592336781322956,0.016895193606615067,0.0015053744427859783
1772457063543239400,3.641239501953125,-0.014600575901567936,0.0038635479286313057,0.006165107246488333
1772457063553307400,3.651307373046875,-0.0202681552618742,-0.003954646177589893,0.005171459633857012
1772457063563375400,3.661375244140625,-0.020564565435051918,-0.0001367386430501938,-0.002943990984931588
1772457063573443000,3.671443115234375,-0.01866009831428528,0.007552339695394039,-0.021815210580825806
1772457063583511300,3.68151123046875,-0.013523126021027565,0.023687634617090225,-0.03331447392702103
1772457063593579300,3.691579345703125,-0.005793421994894743,0.03456369414925575,-0.03449977561831474
1772457063603647200,3.701647216796875,0.0023318827152252197,0.02130301669239998,-0.029948433861136436
1772457063613716500,3.711716552734375,0.005100292153656483,-0.0034815967082977295,-0.02051103301346302
1772457063623784200,3.7217841796875,0.005158348940312862,-0.017169445753097534,-0.01109063345938921
1772457063633852200,3.73185205078125,0.005372853018343449,-0.016195211559534073,0.002055566990748048
1772457063643920100,3.741920166015625,0.0073225535452365875,-0.007492001634091139,0.010283935815095901
1772457063653988400,3.75198828125,0.01177061814814806,-0.00040709786117076874,0.014004860073328018
1772457063664056300,3.762056396484375,0.01722743548452854,0.004093111492693424,0.007327517494559288
1772457063674124300,3.772124267578125,0.017233042046427727,0.001733115641400218,0.0017596622928977013
1772457063684192300,3.782192138671875,0.016490019857883453,0.0010098009370267391,-0.009961708448827267
1772457063694260500,3.792260498046875,0.01568290777504444,0.006333847064524889,-0.01436257641762495
1772457063704329200,3.8023291015625,0.013818961568176746,0.012542741373181343,-0.01340144220739603
1772457063714397200,3.812397216796875,0.008658488281071186,0.00789639726281166,-0.003913636785000563
1772457063724465400,3.82246533203125,0.0023060499224811792,-0.007839955389499664,-0.0009599248878657818
1772457063734533400,3.832533447265625,-0.003745198016986251,-0.014848694205284119,0.00020332750864326954
1772457063744601300,3.842601318359375,-0.008427301421761513,-0.013117905706167221,-0.002613231772556901
1772457063754669300,3.85266943359375,-0.003943523392081261,-0.012743441388010979,-0.0069571249186992645
1772457063764737300,3.8627373046875,-0.0037579014897346497,-0.004892442375421524,-0.008126518689095974
1772457063774805200,3.87280517578125,-0.005734458565711975,0.005620119161903858,-0.008180106990039349
1772457063784874200,3.882874267578125,-0.009875673800706863,0.007813764736056328,-0.0012486972846090794
1772457063794942500,3.8929423828125,-0.018824296072125435,0.00276828627102077,0.0013977386988699436
1772457063805010400,3.903010498046875,-0.022002512589097023,0.0019429726526141167,0.0032787295058369637
1772457063815078100,3.913078125,-0.021746022626757622,-0.008659410290420055,0.0021296082995831966
1772457063825146000,3.92314599609375,-0.016603725031018257,-0.022748596966266632,-0.006934193894267082
1772457063835214300,3.93321435546875,-0.004541283473372459,-0.01900847814977169,-0.007741387002170086
1772457063845282300,3.9432822265625,0.001806361135095358,-0.011479988694190979,-0.006601554341614246
1772457063855350300,3.953350341796875,-0.0023297681473195553,-0.012940804474055767,-0.0028182328678667545
1772457063865418200,3.963418212890625,-0.01058210525661707,-0.013243072666227818,0.002577331615611911
1772457063875487200,3.9734873046875,-0.01614364981651306,0.009970683604478836,0.013845081441104412
1772457063885555200,3.98355517578125,-0.0162067674100399,0.03014226444065571,0.025578437373042107
1772457063895623200,3.993623046875,-0.008156297728419304,0.025320345535874367,0.036282479763031006
1772457063905691400,4.00369140625,-0.004459297750145197,-0.002845246344804764,0.03345659747719765
1772457063915759400,4.01375927734375,0.0010746312327682972,-0.024688541889190674,0.027103060856461525
1772457063925827300,4.023827392578125,0.0032067580614238977,-0.03345353901386261,0.014661836437880993
1772457063935895300,4.033895263671875,-0.0002536338288336992,-0.018028169870376587,0.0016354008112102747
1772457063945963300,4.04396337890625,-0.0017191714141517878,0.014699151739478111,-0.004858983680605888
1772457063956031200,4.05403125,-0.006416414864361286,0.02895025908946991,-0.018850497901439667
1772457063966100200,4.064100341796875,-0.005119188688695431,0.02028939314186573,-0.022133909165859222
1772457063976168400,4.07416845703125,0.00034460541792213917,0.0011184578761458397,-0.024596311151981354
1772457063986236400,4.084236328125,0.005482375621795654,-0.013847442343831062,-0.027490634471178055
1772457063996304600,4.0943046875,0.00542590394616127,-0.022184299305081367,-0.027521010488271713
1772457064006372400,4.104372314453125,0.0030602177139371634,-0.016613764688372612,-0.024957718327641487
1772457064016440300,4.1144404296875,-0.003607525723055005,-0.002734603825956583,-0.022614918649196625
1772457064026508500,4.124508544921875,-0.006750055588781834,0.01134686078876257,-0.015461934730410576
1772457064036576500,4.134576416015625,-0.008441496640443802,0.013291306793689728,-0.006351766176521778
1772457064046645500,4.1446455078125,-0.007123231887817383,0.00864036288112402,0.004128571599721909
1772457064056713200,4.154713134765625,-0.00235963542945683,-0.0008098641410470009,0.007494274526834488
1772457064066781400,4.164781494140625,0.003028205828741193,-0.012665191665291786,0.007986427284777164
1772457064076849400,4.174849365234375,0.002428235486149788,-0.011865419335663319,0.011996932327747345
1772457064086917400,4.18491748046875,0.00030463095754384995,-0.0027118688449263573,0.008999012410640717
1772457064096985300,4.1949853515625,-0.0051715075969696045,0.010150689631700516,0.01091534923762083
1772457064107053600,4.205053466796875,-0.01302383840084076,0.01255738828331232,0.014918613247573376
1772457064117121500,4.21512158203125,-0.014536113478243351,0.013317866250872612,0.016305111348628998
1772457064127189500,4.225189453125,-0.006039830856025219,0.01083580031991005,0.014523987658321857
1772457064137258500,4.235258544921875,-0.000666317529976368,0.0006405171006917953,0.00778055377304554
1772457064147326500,4.245326416015625,0.004389960318803787,-0.003057815134525299,-0.0024806063156574965
1772457064157394400,4.25539453125,0.0025308073963969946,-0.006786772981286049,-0.006446053273975849
1772457064167462400,4.26546240234375,0.002387263113632798,0.0011611650697886944,-0.01689496636390686
1772457064177530600,4.275530517578125,-0.0016071326099336147,0.01264394074678421,-0.02077094279229641
1772457064187598600,4.2855986328125,-0.0015884903259575367,0.01829756423830986,-0.02082899957895279
1772457064197666300,4.295666259765625,-0.0017321945633739233,0.01234162412583828,-0.021996771916747093
1772457064207734300,4.305734375,0.0036756203044205904,0.011664382182061672,-0.020194612443447113
1772457064217803500,4.315803466796875,0.008925603702664375,-0.0005847057327628136,-0.01943693682551384
1772457064227871500,4.32587158203125,0.009276341646909714,-0.012378781102597713,-0.026577936485409737
1772457064237939500,4.335939453125,0.004997693467885256,-0.011526666581630707,-0.02856227569282055
1772457064248007400,4.34600732421875,0.0003432868979871273,0.001754783559590578,-0.027399538084864616
1772457064258075400,4.356075439453125,-0.005913835950195789,0.019774602726101875,-0.01931181736290455
1772457064268143400,4.366143310546875,-0.009807910770177841,0.034992970526218414,-0.013939954340457916
1772457064278211300,4.37621142578125,-0.008061249740421772,0.03372804448008537,-0.005137319676578045
1772457064288279600,4.386279541015625,-0.004099265206605196,0.013923978433012962,0.00749938003718853
1772457064298348500,4.3963486328125,-0.003631401341408491,-0.006247990764677525,0.010652229189872742
1772457064308416300,4.406416259765625,-0.005549942143261433,-0.023429641500115395,0.005007126368582249
1772457064318484500,4.416484375,-0.012100612744688988,-0.018922096118330956,-0.007630910258740187
1772457064328552400,4.426552490234375,-0.01711214892566204,0.004332094453275204,-0.013517827726900578
1772457064338620400,4.436620361328125,-0.01619708724319935,0.026520220562815666,-0.02716892585158348
1772457064348688400,4.4466884765625,-0.015356859192252159,0.031872376799583435,-0.03208219259977341
1772457064358756600,4.456756591796875,-0.016490153968334198,0.021033018827438354,-0.03191087767481804
1772457064368824600,4.466824462890625,-0.014836597256362438,0.003164008492603898,-0.030863720923662186
1772457064378892500,4.476892578125,-0.014983724802732468,-0.009154491126537323,-0.023278547450900078
1772457064388961500,4.48696142578125,-0.012547731399536133,-0.01470158901065588,-0.012737488374114037
1772457064399029500,4.497029541015625,-0.008204594254493713,-0.013124369084835052,-0.008263155817985535
1772457064409097500,4.507097412109375,0.0005627984646707773,-0.005370576865971088,-0.009428288787603378
1772457064419165400,4.51716552734375,0.009892543777823448,-0.012747724540531635,-0.01472389418631792
1772457064429233700,4.527233642578125,0.013318167999386787,-0.012464364059269428,-0.01913755014538765
1772457064439301400,4.53730126953125,0.013810453936457634,-0.007447648793458939,-0.02199091948568821
1772457064449369300,4.547369384765625,0.011926800012588501,0.0015671518631279469,-0.02367829903960228
1772457064459437300,4.557437255859375,0.006577800493687391,0.005935510620474815,-0.019861770793795586
1772457064469506600,4.567506591796875,-0.003614383516833186,0.005974392872303724,-0.01773150824010372
1772457064479574500,4.577574462890625,-0.012181026861071587,0.007906685583293438,-0.016627050936222076
1772457064489642500,4.587642578125,-0.01292617991566658,-0.0007392666302621365,-0.01742972806096077
1772457064499710500,4.59771044921875,-0.009354466572403908,-0.01503300853073597,-0.01682032272219658
1772457064509778400,4.6077783203125,-0.0026214634999632835,-0.017284179106354713,-0.01635107398033142
1772457064519846400,4.617846435546875,-0.003561226651072502,-0.017483988776803017,-0.014129494316875935
1772457064529914400,4.627914306640625,-0.002527387347072363,-0.012832777574658394,-0.00967695564031601
1772457064539982600,4.637982666015625,-0.005203437991440296,-0.012101691216230392,-0.004138934426009655
1772457064550050600,4.648050537109375,-0.01425658818334341,-0.008341575041413307,0.004943244159221649
1772457064560119300,4.658119384765625,-0.023184383288025856,-0.0007177665829658508,0.008835198357701302
1772457064570187500,4.6681875,-0.023114608600735664,0.006875171791762114,0.009591536596417427
1772457064580255500,4.67825537109375,-0.02201475016772747,0.008243309333920479,0.01057447586208582
1772457064590323500,4.688323486328125,-0.0194740928709507,-0.0036833910271525383,0.011240532621741295
1772457064600391400,4.698391357421875,-0.019735295325517654,-0.023136088624596596,0.0044225300662219524
1772457064610459600,4.708459716796875,-0.014469694346189499,-0.03123556077480316,0.002984689548611641
1772457064620527600,4.718527587890625,-0.01237087044864893,-0.03740138188004494,0.000896865501999855
1772457064630595300,4.72859521484375,-0.012837189249694347,-0.016734454780817032,0.002461738884449005
1772457064640664300,4.738664306640625,-0.011303608305752277,0.008959311991930008,0.003642261726781726
1772457064650732500,4.748732666015625,-0.01418248564004898,0.002703813137486577,0.00505906343460083
1772457064660800500,4.758800537109375,-0.013818325474858284,-0.019805803894996643,0.0013311924412846565
1772457064670868500,4.768868408203125,-0.009728508070111275,-0.03205607831478119,-0.003848921973258257
1772457064680936400,4.7789365234375,-0.005250962451100349,-0.03092576004564762,-0.011454676277935505
1772457064691004400,4.78900439453125,-0.003070898586884141,-0.019398268312215805,-0.015993235632777214
1772457064701072400,4.799072265625,-0.007908729836344719,-0.0032388130202889442,-0.01692829839885235
1772457064711140400,4.809140380859375,-0.012955153360962868,0.020176498219370842,-0.011285858228802681
1772457064721208300,4.819208251953125,-0.015556756407022476,0.01577644795179367,-0.003246792359277606
1772457064731277600,4.829277587890625,-0.0126336719840765,0.006647930480539799,0.003009771928191185
1772457064741345300,4.83934521484375,-0.007327482104301453,-0.005893475841730833,0.0065741692669689655
1772457064751413200,4.849413330078125,-0.001554814400151372,-0.019519805908203125,0.00698935566470027
1772457064761481500,4.8594814453125,0.008595477789640427,-0.029495496302843094,0.006910538300871849
1772457064771549400,4.869549560546875,0.0072588371112942696,-0.025245625525712967,0.007930794730782509
1772457064781617400,4.879617431640625,0.004723174963146448,0.0008467421866953373,0.01049746759235859
1772457064791685400,4.889685302734375,-0.001431656302884221,0.024337153881788254,0.017223279923200607
1772457064801753600,4.899753662109375,-0.0018352321349084377,0.02353721484541893,0.018587172031402588
1772457064811822300,4.909822265625,-0.004339668899774551,0.0029816057067364454,0.016594860702753067
1772457064821890300,4.919890380859375,0.0036673513241112232,-0.0153950285166502,0.011489265598356724
1772457064831958500,4.92995849609375,0.00754597969353199,-0.02598908357322216,0.013921531848609447
1772457064842026500,4.940026611328125,0.013035686686635017,-0.013056627474725246,0.015317350625991821
1772457064852094500,4.950094482421875,0.01365726813673973,0.01053738221526146,0.015041979029774666
1772457064862162400,4.960162353515625,0.01526632346212864,0.01974639855325222,0.013909036293625832
1772457064872230700,4.970230712890625,0.01335097849369049,0.025546230375766754,0.011382229626178741
1772457064882298400,4.98029833984375,0.015230823308229446,0.018095746636390686,0.004240973386913538
1772457064892367400,4.990367431640625,0.018293991684913635,-0.000029194634407758713,-0.003413750324398279
1772457064902435600,5.000435546875,0.026187360286712646,-0.010368989780545235,-0.010423155501484871
1772457064912503600,5.010503662109375,0.03230490908026695,-0.012166091240942478,-0.016828058287501335
1772457064922571500,5.020571533203125,0.03270133212208748,-0.014546740800142288,-0.017721323296427727
1772457064932639500,5.030639404296875,0.030558019876480103,-0.0009550307877361774,-0.01346612349152565
1772457064942707500,5.04070751953125,0.023732325062155724,0.012554556131362915,-0.010155830532312393
1772457064952775400,5.050775390625,0.011851698160171509,0.012661081738770008,-0.00694698840379715
1772457064962843400,5.060843505859375,0.006115755066275597,0.007995322346687317,-0.010289175435900688
1772457064972911400,5.070911376953125,0.004974856972694397,-0.00012465612962841988,-0.009720589965581894
1772457064982980600,5.080980712890625,0.0040274509228765965,-0.0034030568785965443,-0.009837809950113297
1772457064993048300,5.09104833984375,0.0020734895952045918,-0.0006171236746013165,-0.008510224521160126
1772457065003116300,5.1011162109375,0.002552219433709979,0.011214284226298332,-0.0011050612665712833
1772457065013184300,5.111184326171875,0.002367928624153137,0.01203959807753563,0.00816380511969328
1772457065023252500,5.12125244140625,0.0005031833425164223,-0.0028256350196897984,0.006060440093278885
1772457065033320400,5.131320556640625,0.0016989426221698523,-0.004001686815172434,0.0025360125582665205
1772457065043388400,5.141388427734375,0.0018510355148464441,-0.007523256354033947,-0.0017875954508781433
1772457065053456400,5.151456298828125,0.0010398365557193756,-0.0053493184968829155,-0.007838563993573189
1772457065063525400,5.161525390625,-0.005209044087678194,0.019001003354787827,-0.001848632819019258
1772457065073593300,5.17159326171875,-0.008825883269309998,0.035528846085071564,0.007510514464229345
1772457065083661300,5.181661376953125,-0.012660408392548561,0.032170407474040985,0.011215330101549625
1772457065093729500,5.1917294921875,-0.014627685770392418,0.010994017124176025,0.011560209095478058
1772457065103797500,5.201797607421875,-0.013250552117824554,-0.02225148305296898,0.001689637778326869
1772457065113865500,5.211865478515625,-0.01545724831521511,-0.02984202280640602,-0.014852320775389671
1772457065123933400,5.221933349609375,-0.0040605030953884125,-0.01846596971154213,-0.028604602441191673
1772457065134001400,5.23200146484375,0.00315426685847342,0.009527583606541157,-0.035219091922044754
1772457065144070400,5.2420703125,0.010250246152281761,0.021462175995111465,-0.03844313696026802
1772457065154138400,5.252138427734375,0.008295752108097076,0.018910866230726242,-0.03703165799379349
1772457065164206600,5.26220654296875,0.003868193831294775,0.007152382284402847,-0.03262088820338249
1772457065174274600,5.272274658203125,0.004558218643069267,-0.008286228403449059,-0.02424737438559532
1772457065184342300,5.28234228515625,0.004467964172363281,-0.02010061778128147,-0.02121479995548725
1772457065194410200,5.29241015625,0.0016090607969090343,-0.01810324564576149,-0.011491332203149796
1772457065204478500,5.302478515625,0.007836516946554184,-0.004072938580065966,-0.008848665282130241
1772457065214546400,5.31254638671875,0.014431835152208805,0.006129365414381027,-0.006322390399873257
1772457065224614400,5.322614501953125,0.01759772002696991,0.011042049154639244,-0.009434130974113941
1772457065234683400,5.332683349609375,0.02290513552725315,0.005035023204982281,-0.0152587303891778
1772457065244751400,5.34275146484375,0.02050754427909851,-0.004282455891370773,-0.01332387700676918
1772457065254819300,5.3528193359375,0.019204191863536835,-0.010221305303275585,-0.0063083115965127945
1772457065264887300,5.36288720703125,0.011645476333796978,-0.010117854923009872,0.0011639294680207968
1772457065274955500,5.37295556640625,0.00525042787194252,-0.008756446652114391,0.004449205473065376
1772457065285023500,5.3830234375,0.003836275776848197,-0.007123467978090048,0.005173949524760246
1772457065295091500,5.393091552734375,0.00583231495693326,-0.004298652987927198,-0.0020157869439572096
1772457065305159400,5.403159423828125,0.010480809025466442,0.00112129095941782,-0.00662365835160017
1772457065315228400,5.413228515625,0.012413465417921543,0.015194766223430634,-0.009026361629366875
1772457065325296400,5.42329638671875,0.012561150826513767,0.0235312357544899,-0.007032377645373344
1772457065335364400,5.4333642578125,0.004300558008253574,0.014979558996856213,-0.0033534870017319918
1772457065345432600,5.4434326171875,-0.002853092271834612,0.0005882228724658489,-0.00408271886408329
1772457065355500500,5.45350048828125,-0.003385191783308983,-0.0017399126663804054,-0.0004261988215148449
1772457065365568500,5.463568603515625,0.0032394351437687874,-0.004004326649010181,-0.008361447602510452
1772457065375636200,5.47363623046875,0.009742341935634613,-0.0006391564384102821,-0.014204688370227814
1772457065385704400,5.483704345703125,0.011718499474227428,0.014164702966809273,-0.018309036269783974
1772457065395773400,5.4937734375,0.013166726566851139,0.021947791799902916,-0.018604911863803864
1772457065405841400,5.50384130859375,0.015321769751608372,0.016994409263134003,-0.012898540124297142
1772457065415909400,5.513909423828125,0.012732111848890781,0.004172087647020817,-0.012545671314001083
1772457065425977300,5.523977294921875,0.0116325868293643,-0.004663627129048109,-0.010386374779045582
1772457065436045300,5.53404541015625,0.01588272489607334,0.0007156915962696075,-0.006837446242570877
1772457065446113300,5.54411328125,0.019253581762313843,0.011593228206038475,-0.0021417546086013317
1772457065456181500,5.554181396484375,0.013574923388659954,0.00915190763771534,-0.005433155223727226
1772457065466249500,5.56424951171875,0.011350611224770546,0.003125416347756982,-0.005320023745298386
1772457065476318500,5.574318359375,0.013264358974993229,0.000841223169118166,-0.005719497799873352
1772457065486386200,5.58438623046875,0.019366737455129623,-0.012493393383920193,-0.004265128169208765
1772457065496454400,5.594454345703125,0.022044282406568527,-0.017269238829612732,-0.006155439652502537
1772457065506522400,5.6045224609375,0.026425326243042946,-0.014349399134516716,-0.0068673426285386086
1772457065516590300,5.61459033203125,0.023640193045139313,-0.00392046058550477,-0.011308163404464722
1772457065526658300,5.624658203125,0.01774045266211033,0.016095060855150223,-0.016229355707764626
1772457065536726500,5.6347265625,0.01041276566684246,0.031877219676971436,-0.0054044052958488464
1772457065546794500,5.64479443359375,0.008237228728830814,0.032167237251996994,0.001251899404451251
1772457065556862500,5.654862548828125,0.008709673769772053,0.01222814992070198,0.010998270474374294
1772457065566931500,5.664931396484375,0.009798307903110981,-0.0016202405095100403,0.017379118129611015
1772457065576999400,5.67499951171875,0.010068618692457676,-0.019839990884065628,0.01335215289145708
1772457065587067400,5.6850673828125,0.011705863289535046,-0.023748639971017838,0.009600585326552391
1772457065597135400,5.69513525390625,0.007985693402588367,-0.006944891531020403,0.0024824882857501507
1772457065607203600,5.70520361328125,0.0006930131930857897,0.008987784385681152,0.010453635826706886
1772457065617271300,5.715271240234375,-0.0037259699311107397,0.011305533349514008,0.012550609186291695
1772457065627339300,5.72533935546875,-0.008883567526936531,0.006346437614411116,0.019417915493249893
1772457065637408500,5.735408447265625,-0.005931453313678503,0.002173264045268297,0.024413472041487694
1772457065647476500,5.7454765625,-0.0009563886560499668,-0.011293470859527588,0.019837260246276855
1772457065657544400,5.75554443359375,0.004025320056825876,-0.02032558061182499,0.012447255663573742
1772457065667612400,5.7656123046875,0.007792933844029903,-0.02479354292154312,0.008978274650871754
1772457065677680400,5.775680419921875,0.004633625969290733,-0.022241435945034027,-0.0027673309668898582
1772457065687748400,5.785748291015625,-0.001006443053483963,-0.006483437493443489,-0.012203478254377842
1772457065697816300,5.79581640625,-0.0082680843770504,0.013903326354920864,-0.016544165089726448
1772457065707884300,5.80588427734375,-0.013012425042688847,0.020391609519720078,-0.022981569170951843
1772457065717952500,5.815952392578125,-0.014917119406163692,0.006797770969569683,-0.01959509402513504
1772457065728021500,5.826021484375,-0.013878872618079185,-0.005283974576741457,-0.019499527290463448
1772457065738089200,5.836089111328125,-0.012677254155278206,-0.011021222919225693,-0.022021805867552757
1772457065748157400,5.846157470703125,-0.009547440335154533,-0.005582563113421202,-0.01731405034661293
1772457065758225400,5.856225341796875,-0.008375382982194424,-0.0024954271502792835,-0.012578948400914669
1772457065768293400,5.86629345703125,-0.013022013939917088,0.006579391658306122,-0.0074697211384773254
1772457065778361300,5.876361328125,-0.013266491703689098,0.010821274481713772,-0.000017131445929408073
1772457065788429600,5.8864296875,-0.012049281038343906,0.0023438511416316032,0.0045024799183011055
1772457065798497500,5.89649755859375,-0.014774760231375694,-0.004325769376009703,0.011795279569923878
1772457065808566300,5.906566162109375,-0.011307323351502419,-0.0005832039751112461,0.011220419779419899
1772457065818634500,5.916634521484375,-0.0041868300177156925,-0.0028503527864813805,0.016421839594841003
1772457065828702500,5.926702392578125,0.0024966257624328136,-0.0069778175093233585,0.017751270905137062
1772457065838770400,5.9367705078125,0.004456179682165384,-0.008637499064207077,0.017148330807685852
1772457065848838400,5.94683837890625,-0.002289873780682683,-0.0034216982312500477,0.028000978752970695
1772457065858906600,5.95690673828125,-0.005061425268650055,0.004519581329077482,0.029442014172673225
1772457065868974300,5.966974365234375,-0.010575566440820694,0.003339341375976801,0.022441929206252098
1772457065879042300,5.977042236328125,-0.015463000163435936,0.002196046058088541,0.013341640122234821
1772457065889111600,5.987111572265625,-0.013865236192941666,0.005958414636552334,0.0038466118276119232
1772457065899179500,5.997179443359375,-0.00626404257491231,-0.004302478861063719,-0.010605031624436378
1772457065909247500,6.00724755859375,0.0022100964561104774,-0.003340278286486864,-0.023556716740131378
1772457065919315500,6.0173154296875,0.008811539970338345,0.0035754183772951365,-0.021304214373230934
1772457065929383400,6.027383544921875,0.014389265328645706,0.000929834321141243,-0.014976810663938522
1772457065939451400,6.037451416015625,0.013474468141794205,0.002229723148047924,-0.0026530330069363117
1772457065949519400,6.047519287109375,0.004351956769824028,0.0002213851548731327,0.008786000311374664
1772457065959587300,6.05758740234375,-0.0019208525773137808,0.004182571079581976,0.025886690244078636
1772457065969656600,6.067656494140625,-0.0009067209903150797,0.004156472161412239,0.03144790232181549
1772457065979724300,6.077724365234375,0.006264106370508671,-0.0027664154767990112,0.03331105038523674
1772457065989792300,6.087792236328125,0.014012174680829048,-0.009095828980207443,0.024934284389019012
1772457065999860000,6.09785986328125,0.017904384061694145,-0.015134815126657486,0.017016176134347916
1772457066009928200,6.10792822265625,0.01336449384689331,-0.007035850081592798,0.007432110607624054
1772457066019996200,6.11799609375,0.010246198624372482,0.008848840370774269,0.004327663220465183
1772457066030064000,6.128064208984375,0.007345815654844046,0.02510097622871399,0.004552137106657028
1772457066040132000,6.138132080078125,0.006811852101236582,0.026275962591171265,0.0028301372658461332
1772457066050201000,6.148201171875,0.008921168744564056,0.012111794203519821,-0.005130311474204063
1772457066060269000,6.15826904296875,0.00852249376475811,-0.01202310435473919,-0.008044875226914883
1772457066070337000,6.1683369140625,0.012731339782476425,-0.024030327796936035,-0.01574702188372612
1772457066080405200,6.1784052734375,0.011091365478932858,-0.026141680777072906,-0.020428858697414398
1772457066090473200,6.18847314453125,0.006631210446357727,-0.014087731018662453,-0.028282761573791504
1772457066100541200,6.198541259765625,-0.0029114284552633762,0.002316009486094117,-0.03235074132680893
1772457066110609200,6.208609130859375,-0.01431372668594122,0.010021792724728584,-0.04326833039522171
1772457066120677000,6.218677001953125,-0.027448970824480057,-0.0002955594100058079,-0.052017346024513245
1772457066130746000,6.22874609375,-0.029761139303445816,-0.005467514041811228,-0.06360345333814621
1772457066140814000,6.23881396484375,-0.02654217556118965,-0.01015707477927208,-0.06120660528540611
1772457066150882300,6.24888232421875,-0.0193721204996109,-0.003062510397285223,-0.05403586104512215
1772457066160950300,6.2589501953125,-0.016281522810459137,0.009587503969669342,-0.03996371850371361
1772457066171018200,6.269018310546875,-0.016392802819609642,0.010377688333392143,-0.02126348204910755
1772457066181086000,6.2790859375,-0.016943277791142464,0.008037835359573364,-0.0003779064863920212
1772457066191154200,6.289154296875,-0.02492319978773594,0.0011312896385788918,0.014034676365554333
1772457066201223200,6.29922314453125,-0.024102680385112762,0.0017217122949659824,0.018637685105204582
1772457066211291100,6.309291015625,-0.022558899596333504,0.00012502679601311684,0.022011034190654755
1772457066221359400,6.319359375,-0.013037299737334251,0.003809776622802019,0.024716272950172424
1772457066231427000,6.329427001953125,-0.0023444416001439095,0.010557161644101143,0.026951463893055916
1772457066241495000,6.3394951171875,0.008400614373385906,0.016402533277869225,0.03648184984922409
1772457066251563000,6.34956298828125,0.017788203433156013,0.020143644884228706,0.03500358387827873
1772457066261631200,6.35963134765625,0.019375715404748917,0.01709139533340931,0.03600253537297249
1772457066271699200,6.36969921875,0.02136543020606041,0.013445988297462463,0.03664591908454895
1772457066281768200,6.379768310546875,0.02671651914715767,0.004177922382950783,0.025178616866469383
1772457066291836200,6.389836181640625,0.03071669302880764,-0.005255866330116987,0.019049787893891335
1772457066301904100,6.399904052734375,0.03179021179676056,-0.017106667160987854,0.007389935664832592
1772457066311972000,6.40997216796875,0.03636859729886055,-0.018150649964809418,-0.005379577167332172
1772457066322040000,6.4200400390625,0.03302739933133125,-0.009053025394678116,-0.017834648489952087
1772457066332108300,6.4301083984375,0.032126184552907944,0.0030963378958404064,-0.025431986898183823
1772457066342176300,6.44017626953125,0.023481030017137527,0.008748364634811878,-0.020976783707737923
1772457066352244200,6.450244140625,0.016886882483959198,0.005070734303444624,-0.01074875146150589
1772457066362313200,6.460313232421875,0.01021779514849186,-0.008401931263506413,-0.002643154002726078
1772457066372381200,6.470381103515625,0.006632701493799686,-0.015659213066101074,0.001959537621587515
1772457066382449200,6.48044921875,0.006797817535698414,-0.007711275480687618,0.0034660878591239452
1772457066392517000,6.49051708984375,0.0047823768109083176,-0.008431104943156242,0.005314643494784832
1772457066402585300,6.50058544921875,0.008522520773112774,-0.005092565901577473,0.0009340094402432442
1772457066412653300,6.5106533203125,0.00734222074970603,0.0014884441625326872,-0.00043469201773405075
1772457066422721000,6.520720947265625,0.007626646663993597,0.00497079361230135,0.009478658437728882
1772457066432789000,6.5307890625,0.0049202218651771545,0.0014005356933921576,0.014039933681488037
1772457066442858200,6.540858154296875,0.007067528553307056,-0.0077285137958824635,0.01550254039466381
1772457066452926200,6.55092626953125,0.008756079711019993,-0.01564773917198181,0.018789172172546387
1772457066462994200,6.560994140625,0.010155304335057735,-0.021921081468462944,0.01790820062160492
1772457066473062400,6.5710625,0.011985122226178646,-0.015489037148654461,0.023228608071804047
1772457066483130000,6.581130126953125,0.008409029804170132,-0.017535675317049026,0.0162066500633955
1772457066493198000,6.591197998046875,0.006937033962458372,-0.02364303171634674,0.005925547331571579
1772457066503266000,6.60126611328125,0.009937617927789688,-0.017573688179254532,-0.0031758053228259087
1772457066513334300,6.611334228515625,0.013309447094798088,-0.0026192166842520237,-0.011416561901569366
1772457066523403300,6.6214033203125,0.016839466989040375,0.013096895068883896,-0.01962948404252529
1772457066533471200,6.63147119140625,0.016048094257712364,0.02732299454510212,-0.016149351373314857
1772457066543539000,6.6415390625,0.0032750412356108427,0.020005427300930023,-0.00930396094918251
1772457066553607200,6.651607177734375,0.004746743943542242,0.0006450456567108631,0.00021011312492191792
1772457066563675100,6.661675048828125,0.009711941704154015,-0.014783977530896664,0.011709109880030155
1772457066573743000,6.6717431640625,0.015932952985167503,-0.03243366628885269,0.008579159155488014
1772457066583811000,6.68181103515625,0.02090880274772644,-0.030149206519126892,0.006172460503876209
1772457066593880000,6.691880126953125,0.026703547686338425,-0.008637983351945877,0.0024141694884747267
1772457066603948000,6.701947998046875,0.02445211075246334,0.015263620764017105,-0.00011929543688893318
1772457066614016000,6.71201611328125,0.019077932462096214,0.03280935063958168,0.012707808054983616
1772457066624084200,6.722084228515625,0.010736912488937378,0.030720897018909454,0.022416895255446434
1772457066634152200,6.732152099609375,0.007342992816120386,0.006620452739298344,0.03226634860038757
1772457066644220200,6.74222021484375,0.006971748545765877,-0.0293444711714983,0.024802306666970253
1772457066654288100,6.7522880859375,0.005602511577308178,-0.043351829051971436,0.006844713818281889
1772457066664356400,6.7623564453125,0.0035936888307332993,-0.02953961119055748,-0.020380249246954918
1772457066674425000,6.772425048828125,0.008167281746864319,0.009379777126014233,-0.034021005034446716
1772457066684493000,6.7824931640625,0.014960739761590958,0.038240719586610794,-0.04513011500239372
1772457066694561300,6.792561279296875,0.01623852364718914,0.04057977348566055,-0.04232953488826752
1772457066704629200,6.802629150390625,0.010926582850515842,0.022363487631082535,-0.03135118633508682
1772457066714697200,6.812697265625,0.011793947778642178,0.0036074486561119556,-0.018307063728570938
1772457066724765200,6.82276513671875,0.01385257113724947,-0.019816650077700615,-0.005361170507967472
1772457066734833200,6.832833251953125,0.011195722036063671,-0.0232074111700058,0.001988368108868599
1772457066744902100,6.842902099609375,0.009564002975821495,-0.006604999769479036,0.010168800130486488
1772457066754970000,6.85297021484375,0.006580117158591747,0.009403237141668797,0.013711615465581417
1772457066765038300,6.863038330078125,0.00912050623446703,0.010328685864806175,0.0026621606666594744
1772457066775106300,6.873106201171875,0.015649352222681046,0.007687291130423546,-0.0008008470758795738
1772457066785174000,6.883174072265625,0.01887284219264984,0.0010783905163407326,-0.0072984276339411736
1772457066795242000,6.893241943359375,0.019858239218592644,-0.0012508602812886238,-0.006432469002902508
1772457066805310200,6.903310302734375,0.01790774054825306,0.00472660455852747,-0.0064606983214616776
1772457066815379200,6.913379150390625,0.010043372400105,0.011364946141839027,0.00021843123249709606
1772457066825447200,6.923447265625,0.003646192839369178,0.010605677962303162,-0.0007309855427592993
1772457066835515100,6.93351513671875,0.0010024728253483772,-0.00029224297031760216,0.0010440112091600895
1772457066845583000,6.9435830078125,0.0012711858144029975,-0.00006267847493290901,-0.0007490951102226973
1772457066855651000,6.953651123046875,0.003360355505719781,0.0003295810893177986,-0.009303421713411808
1772457066865719000,6.963718994140625,0.009912797249853611,0.002217496046796441,-0.008673317730426788
1772457066875787300,6.973787353515625,0.01155393011868,0.008999356999993324,-0.006808565929532051
1772457066885855200,6.983855224609375,0.009918749332427979,0.01992231234908104,0.005327459424734116
1772457066895924000,6.993924072265625,0.002294451929628849,0.014068079181015491,0.014199481345713139
1772457066905992200,7.0039921875,-0.0065232738852500916,-0.002146577462553978,0.020933285355567932
1772457066916060200,7.01406005859375,-0.010554034262895584,-0.00685310922563076,0.03045172058045864
1772457066926128000,7.024128173828125,-0.015124551951885223,-0.011268896982073784,0.02202734351158142
1772457066936196000,7.034196044921875,-0.013495029881596565,-0.002183450385928154,0.013534286990761757
1772457066946264300,7.044264404296875,-0.010959700681269169,0.01908455416560173,0.012562233954668045
1772457066956332300,7.054332275390625,-0.005997885018587112,0.026145417243242264,0.012269007042050362
1772457066966400300,7.064400146484375,-0.0009117808658629656,0.016710102558135986,0.01189376786351204
1772457066976469200,7.07446923828125,-0.0023041339591145515,-0.0021406468003988266,0.010355578735470772
1772457066986537200,7.084537109375,-0.0007326027844101191,-0.0191864762455225,0.004399951547384262
1772457066996605200,7.094605224609375,-0.0069015491753816605,-0.01257224939763546,-0.0007665804587304592
1772457067006673700,7.104673583984375,-0.006261858157813549,0.009924538433551788,-0.008941153064370155
1772457067016741600,7.11474169921875,-0.006343337707221508,0.029584333300590515,-0.011666742153465748
1772457067026809300,7.124809326171875,-0.006690880283713341,0.03064347244799137,-0.01108111348003149
1772457067036877600,7.134877685546875,-0.0018399187829345465,0.010857081040740013,-0.011137820780277252
1772457067046946600,7.144946533203125,0.0028837297577410936,-0.009609844535589218,-0.010025417432188988
1772457067057014500,7.1550146484375,0.013989152386784554,-0.02076686918735504,-0.003962140530347824
1772457067067082800,7.165082763671875,0.015547899529337883,-0.017295170575380325,-0.009801387786865234
1772457067077150500,7.175150390625,0.01466737873852253,-0.0007638894021511078,-0.009937994182109833
1772457067087218400,7.185218505859375,0.008064869791269302,0.01041978970170021,-0.005540316924452782
1772457067097286400,7.195286376953125,0.0005507874302566051,0.011130224913358688,-0.010913068428635597
1772457067107354600,7.205354736328125,-0.003355270717293024,-0.001312862616032362,-0.00786321610212326
1772457067117422600,7.215422607421875,-0.0025765360333025455,-0.0025164177641272545,-0.0002803595270961523
1772457067127491600,7.22549169921875,-0.00013521616347134113,-0.005503418855369091,0.005641711875796318
1772457067137559600,7.2355595703125,0.005662991665303707,-0.0008571958169341087,0.00802653469145298
1772457067147627500,7.24562744140625,0.0006405359599739313,-0.007782213389873505,0.009427357465028763
1772457067157695500,7.255695556640625,-0.007816477678716183,-0.014165762811899185,0.009120605885982513
1772457067167763500,7.265763427734375,-0.011478324420750141,-0.018725093454122543,0.005001494660973549
1772457067177831700,7.275831787109375,-0.009500727988779545,-0.02472195029258728,-0.00047033047303557396
1772457067187899600,7.285899658203125,-0.00971378106623888,-0.02133893594145775,-0.008842510171234608
1772457067197968400,7.295968505859375,-0.012409312650561333,0.0008471067994832993,-0.015541648492217064
1772457067208036400,7.306036376953125,-0.012751528061926365,0.024585459381341934,-0.013928571715950966
1772457067218104600,7.3161044921875,-0.012572964653372765,0.029922842979431152,-0.009813125245273113
1772457067228172500,7.326172607421875,-0.01157907210290432,0.0154096819460392,-0.0051568541675806046
1772457067238240500,7.336240478515625,-0.015359949320554733,-0.012857812456786633,-0.0033368305303156376
1772457067248308500,7.34630859375,-0.010610733181238174,-0.03249702602624893,-0.0005122818984091282
1772457067258376700,7.356376708984375,-0.006077220663428307,-0.041708804666996,0.002918155863881111
1772457067268445400,7.366445556640625,-0.0077377017587423325,-0.02382141724228859,-0.004779977723956108
1772457067278513400,7.376513427734375,-0.00784611888229847,0.002301336731761694,-0.008259437046945095
1772457067288581600,7.38658154296875,-0.010272525250911713,0.015630723908543587,-0.01054895669221878
1772457067298649600,7.396649658203125,-0.01492135226726532,0.019184082746505737,-0.010767887346446514
1772457067308717600,7.406717529296875,-0.012828640639781952,0.01096317172050476,-0.005014927126467228
1772457067318785500,7.41678564453125,-0.00831661932170391,-0.009876474738121033,-0.00594436377286911
1772457067328853500,7.426853515625,0.00023745326325297356,-0.02587142027914524,-0.01157375331968069
1772457067338921500,7.43692138671875,0.005965393502265215,-0.02297087386250496,-0.01913657784461975
1772457067348990500,7.446990478515625,0.010385975241661072,-0.013840759173035622,-0.027042705565690994
1772457067359058700,7.45705859375,0.006978180259466171,-0.0033887489698827267,-0.039311643689870834
1772457067369126700,7.467126708984375,0.003175985300913453,0.0038156346417963505,-0.04034361615777016
1772457067379194600,7.477194580078125,-0.0002737138420343399,0.010617395862936974,-0.03346096724271774
1772457067389262300,7.487262451171875,0.0014525470323860645,0.001410582335665822,-0.021725483238697052
1772457067399330600,7.49733056640625,0.007243297062814236,-0.009039854630827904,-0.01573633775115013
1772457067409398500,7.5073984375,0.012862300500273705,-0.005709837656468153,-0.0014799044001847506
1772457067419467500,7.517467529296875,0.009065059944987297,0.006612679921090603,0.012949204072356224
1772457067429535700,7.52753564453125,0.005312399938702583,0.005893359892070293,0.011955313384532928
1772457067439603500,7.537603515625,-0.0075522130355238914,-0.009063653647899628,0.003991610370576382
1772457067449671400,7.54767138671875,-0.012161612510681152,-0.01377638429403305,-0.011958859860897064
1772457067459739400,7.557739501953125,-0.011731725186109543,-0.008345035836100578,-0.024984432384371758
1772457067469807600,7.5678076171875,-0.002740626921877265,-0.004205951001495123,-0.03558221459388733
1772457067479875600,7.57787548828125,0.008303448557853699,0.000993773341178894,-0.04335752874612808
1772457067489943600,7.587943603515625,0.01582181826233864,0.009586196392774582,-0.03516484424471855
1772457067500012500,7.598012451171875,0.01953614316880703,0.009006788954138756,-0.021043946966528893
1772457067510080500,7.60808056640625,0.011239863932132721,-0.004063472617417574,-0.008344931527972221
1772457067520148500,7.6181484375,0.0022247973829507828,-0.018416045233607292,0.000015530269593000412
1772457067530216400,7.628216552734375,-0.0007070763967931271,-0.03243519365787506,0.002710383152589202
1772457067540284700,7.63828466796875,0.0029998039826750755,-0.032817430794239044,0.00014206976629793644
1772457067550352600,7.6483525390625,0.004809421952813864,-0.017353253439068794,-0.006224749609827995
1772457067560420600,7.658420654296875,0.012706160545349121,0.01818987727165222,-0.007329791784286499
1772457067570489600,7.668489501953125,0.01606334000825882,0.03588179126381874,-0.008500517345964909
1772457067580557600,7.6785576171875,0.018989169970154762,0.032594941556453705,-0.00772554986178875
1772457067590625500,7.68862548828125,0.012512627989053726,0.013778375461697578,-0.0032285358756780624
1772457067600693500,7.698693603515625,0.010774382390081882,-0.008155951276421547,0.003693818347528577
1772457067610761700,7.70876171875,0.0097687728703022,-0.022271238267421722,0.010892875492572784
1772457067620829700,7.71882958984375,0.007193231023848057,-0.03596784919500351,0.012612608261406422
1772457067630897400,7.7288974609375,0.005274157039821148,-0.015732355415821075,0.017728008329868317
1772457067640966400,7.73896630859375,0.0006967552471905947,0.018498053774237633,0.017461087554693222
1772457067651034600,7.74903466796875,0.0010711958166211843,0.035478901118040085,0.026796799153089523
1772457067661102600,7.7591025390625,-0.0025877743028104305,0.03853238373994827,0.021515535190701485
1772457067671170600,7.769170654296875,-0.008601725101470947,0.021499071270227432,0.023363769054412842
1772457067681238500,7.779238525390625,-0.0049015823751688,0.0011936803348362446,0.019157228991389275
1772457067691306500,7.789306396484375,-0.004772951826453209,-0.01184595562517643,0.012084937654435635
1772457067701374500,7.79937451171875,-0.004441121593117714,-0.0064692990854382515,0.005333292298018932
1772457067711442400,7.8094423828125,-0.010475312359631062,0.007682738825678825,-0.005188857205212116
1772457067721511700,7.81951171875,-0.020888138562440872,0.0231715627014637,-0.012769481167197227
1772457067731579600,7.82957958984375,-0.03008110262453556,0.0290164016187191,-0.008716415613889694
1772457067741647400,7.8396474609375,-0.032705020159482956,0.022482722997665405,-0.003961601760238409
1772457067751715300,7.84971533203125,-0.027160322293639183,0.005065117031335831,0.0031245374120771885
1772457067761783600,7.859783447265625,-0.02261774241924286,-0.01720564067363739,0.00640745647251606
1772457067771851500,7.8698515625,-0.022063005715608597,-0.0201492328196764,0.0009812654461711645
1772457067781919500,7.87991943359375,-0.016017483547329903,-0.016519125550985336,0.0001306051854044199
1772457067791988700,7.88998876953125,-0.01557699590921402,-0.013949441723525524,-0.002924573142081499
1772457067802056400,7.900056396484375,-0.017613528296351433,-0.00712199229747057,-0.010633112862706184
1772457067812124400,7.91012451171875,-0.02372841350734234,0.008641257882118225,-0.012607313692569733
1772457067822192400,7.9201923828125,-0.019137177616357803,0.019881298765540123,-0.004009778145700693
1772457067832260600,7.930260498046875,-0.018192287534475327,0.012120313942432404,0.002481943229213357
1772457067842328600,7.94032861328125,-0.016089335083961487,0.004032319411635399,0.00986307580024004
1772457067852396500,7.950396484375,-0.012752394191920757,-0.008159365504980087,0.01470283791422844
1772457067862465500,7.960465576171875,-0.004854417406022549,-0.01991993375122547,0.020693112164735794
1772457067872533500,7.970533447265625,0.004060780629515648,-0.02567742019891739,0.021138925105333328
1772457067882601500,7.9806015625,0.005569847766309977,-0.020968105643987656,0.024423182010650635
1772457067892669400,7.99066943359375,0.006647629197686911,-0.002289759460836649,0.03318418189883232
1772457067902737700,8.000737548828125,0.003134173573926091,0.0038774199783802032,0.03673119470477104
1772457067912805600,8.0108056640625,0.00017540180124342442,0.005521655548363924,0.04337524622678757
1772457067922873600,8.02087353515625,0.00004859571345150471,-0.0013876506127417088,0.047643303871154785
1772457067932941300,8.03094140625,0.00026244763284921646,-0.016855556517839432,0.04871522635221481
1772457067943010600,8.041010498046875,0.0021533044055104256,-0.021438783034682274,0.04624050483107567
1772457067953078500,8.05107861328125,-0.0025357233826071024,-0.01676946133375168,0.03901161998510361
1772457067963146500,8.061146484375,-0.004339282400906086,-0.016328103840351105,0.031549472361803055
1772457067973214700,8.071214599609375,-0.009106606245040894,-0.011314436793327332,0.027756068855524063
1772457067983282700,8.08128271484375,-0.012150067836046219,-0.0034786174073815346,0.01876603625714779
1772457067993350400,8.091350341796876,-0.014928542077541351,-0.0005456781946122646,0.010807711631059647
1772457068003418000,8.101418212890625,-0.02185400016605854,-0.00026779016479849815,0.010219958610832691
1772457068013487000,8.111487060546875,-0.02077648602426052,0.0031447845976799726,0.008153611794114113
1772457068023555300,8.121555419921876,-0.02221669629216194,-0.0007046214304864407,0.011353971436619759
1772457068033623300,8.131623291015625,-0.02834249846637249,-0.001922751311212778,0.014570802450180054
1772457068043691300,8.141691162109375,-0.03348710015416145,0.0006896639242768288,0.016629433259367943
1772457068053759000,8.151759033203126,-0.0364658460021019,-0.003120786976069212,0.01119685173034668
1772457068063827200,8.1618271484375,-0.03626643121242523,-0.009466687217354774,-0.0022026547230780125
1772457068073895200,8.171895263671875,-0.033041875809431076,-0.008467735722661018,-0.008211544714868069
1772457068083964200,8.181964111328124,-0.025734132155776024,-0.001103369053453207,-0.010570002719759941
1772457068094032400,8.192032470703126,-0.022959651425480843,0.004751057829707861,-0.01330400351434946
1772457068104100400,8.202100341796875,-0.02616392821073532,0.006439259275794029,-0.0029690146911889315
1772457068114168000,8.21216796875,-0.031720343977212906,0.003873836249113083,0.007887627929449081
1772457068124236000,8.222236083984376,-0.042888008058071136,-0.011392466723918915,0.016224581748247147
1772457068134304300,8.23230419921875,-0.04286297410726547,-0.026362894102931023,0.020358607172966003
1772457068144372200,8.242372314453124,-0.03682537004351616,-0.024938201531767845,0.022418614476919174
1772457068154440200,8.252440185546876,-0.027825752273201942,-0.012716956436634064,0.012176629155874252
1772457068164509200,8.26250927734375,-0.016422202810645103,0.005451711360365152,0.006973051931709051
1772457068174577200,8.2725771484375,-0.004718409851193428,0.0152920912951231,0.011567803099751472
1772457068184645000,8.28264501953125,-0.0009019535500556231,0.013935161754488945,0.008431087248027325
1772457068194713000,8.292713134765625,-0.001506757689639926,-0.0022648461163043976,0.0100601427257061
1772457068204781300,8.30278125,-0.0059752753004431725,-0.015293829143047333,0.010491042397916317
1772457068214849300,8.312849365234374,-0.0060788728296756744,0.0008494541980326176,0.006104283966124058
1772457068224917200,8.322917236328125,-0.0029531202744692564,0.022826125845313072,0.0039678956381976604
1772457068234986200,8.332986328125,0.0008738422766327858,0.036625828593969345,0.003083193674683571
1772457068245054200,8.34305419921875,0.008113485760986805,0.029478920623660088,-0.0010337610729038715
1772457068255122200,8.3531220703125,0.005555253475904465,0.011116690933704376,-0.007853850722312927
1772457068265190100,8.363190185546875,0.003582477103918791,-0.003810738679021597,-0.015945592895150185
1772457068275258400,8.37325830078125,0.005885845050215721,-0.016160881146788597,-0.021104134619235992
1772457068285326300,8.383326416015626,0.00865678396075964,-0.017644019797444344,-0.03020201250910759
1772457068295394300,8.393394287109375,0.013451006263494492,-0.013185622170567513,-0.03784049302339554
1772457068305463300,8.40346337890625,0.010859311558306217,0.0036675147712230682,-0.03502605855464935
1772457068315531300,8.41353125,0.01279915776103735,0.020314134657382965,-0.023847971111536026
1772457068325599200,8.42359912109375,0.011893630027770996,0.01776033267378807,-0.01110682263970375
1772457068335667200,8.433667236328125,0.00903232954442501,0.007722611539065838,0.0033469514455646276
1772457068345735400,8.4437353515625,0.007329211570322514,0.00013880152255296707,0.00961892120540142
1772457068355803100,8.45380322265625,0.008881035260856152,-0.01079507265239954,0.009805876761674881
1772457068365871000,8.46387109375,0.008068172261118889,-0.018541626632213593,0.0031747750472277403
1772457068375939000,8.47393896484375,0.007428213953971863,-0.013631556183099747,-0.005308724474161863
1772457068386008300,8.48400830078125,0.006382271647453308,0.006678218021988869,-0.008354764431715012
1772457068396076300,8.494076171875,0.011378361843526363,0.015430429950356483,-0.013794271275401115
1772457068406144300,8.504144287109375,0.010807367041707039,0.011056357994675636,-0.010271195322275162
1772457068416212000,8.5142119140625,0.005355875939130783,0.000728885643184185,-0.009592089802026749
1772457068426280200,8.5242802734375,0.002890147967264056,-0.004654839634895325,-0.009194206446409225
1772457068436348200,8.53434814453125,0.003950885031372309,-0.01917972043156624,-0.017297938466072083
1772457068446416100,8.544416015625,0.002903570421040058,-0.0097729517146945,-0.021480940282344818
1772457068456485400,8.5544853515625,0.006608293857425451,-0.009758303873240948,-0.02515264041721821
1772457068466553000,8.564552978515625,0.009285836480557919,-0.0018724175170063972,-0.023554477840662003
1772457068476621000,8.57462109375,0.006888991221785545,0.0056230491027235985,-0.0165647454559803
1772457068486689000,8.58468896484375,0.004612321499735117,0.0078299380838871,-0.0077369315549731255
1772457068496757200,8.59475732421875,-0.00035314238630235195,0.004500188399106264,0.0013644213322550058
1772457068506825200,8.6048251953125,-0.005402229726314545,-0.0057881358079612255,0.007921123877167702
1772457068516893200,8.61489306640625,-0.006245652213692665,-0.01744186133146286,0.01293372642248869
1772457068526962200,8.624962158203125,-0.0037239722441881895,-0.02779269590973854,0.013820057734847069
1772457068537030100,8.635030029296875,-0.009530995041131973,-0.021745990961790085,0.01322457566857338
1772457068547098000,8.64509814453125,-0.007345804013311863,-0.00623474782332778,0.018943948671221733
1772457068557166000,8.655166015625,-0.00817458052188158,-0.0007502338849008083,0.018816649913787842
1772457068567234300,8.665234375,-0.005790758412331343,0.00004358123987913132,0.020871050655841827
1772457068577302300,8.67530224609375,-0.00688691483810544,0.0022409551311284304,0.02316190116107464
1772457068587370200,8.685370361328125,-0.0071134306490421295,0.004154728259891272,0.0258588008582592
1772457068597438200,8.695438232421875,-0.007586941123008728,-0.003140202723443508,0.02500792220234871
1772457068607507200,8.705507080078124,-0.008365754969418049,-0.010446513071656227,0.02063511498272419
1772457068617575200,8.7155751953125,-0.002764861099421978,-0.010008156299591064,0.015725310891866684
1772457068627643100,8.72564306640625,-0.0005881537217646837,-0.006260895170271397,0.009645742364227772
1772457068637711400,8.73571142578125,0.003570904955267906,-0.0026728175580501556,0.0035138139501214027
1772457068647779300,8.745779296875,0.010486775077879429,-0.001514463685452938,-0.008291452191770077
1772457068657847000,8.755846923828125,0.012950465083122253,-0.007028538733720779,-0.011890714056789875
1772457068667915000,8.7659150390625,0.010927621275186539,-0.006877150386571884,-0.018046606332063675
1772457068677984300,8.775984375,0.013422470539808273,0.004115313291549683,-0.009420626796782017
1772457068688052200,8.78605224609375,0.011786943301558495,-0.0028257076628506184,-0.007305797655135393
1772457068698120200,8.7961201171875,0.010469477623701096,-0.005079807247966528,0.004327156115323305
1772457068708188400,8.8061884765625,0.006498971022665501,-0.01606614515185356,0.007208430208265781
1772457068718256000,8.816256103515625,0.0054326411336660385,-0.013901794329285622,0.008708588778972626
1772457068728324000,8.826323974609375,0.007558164186775684,0.0004588887095451355,0.008417584002017975
1772457068738392000,8.83639208984375,0.00756455585360527,0.0052765472792088985,0.0036409376189112663
1772457068748461300,8.84646142578125,0.006286943797022104,0.00734490342438221,0.0005111838690936565
1772457068758529300,8.856529296875,0.005140985362231731,0.008173146285116673,0.001997494138777256
1772457068768597200,8.86659716796875,0.004846160300076008,0.008678784593939781,0.004745058249682188
1772457068778665200,8.876665283203126,0.003918847534805536,-0.0018183309584856033,0.007984526455402374
1772457068788733200,8.886733154296875,0.0019679886754602194,-0.01027611829340458,0.006098470184952021
1772457068798801200,8.89680126953125,0.0005642364267259836,-0.012858586385846138,0.003845701925456524
1772457068808869000,8.906869140625,0.00036625703796744347,-0.001785379834473133,0.001807026332244277
1772457068818938400,8.9169384765625,0.0011486937291920185,0.0037044603377580643,0.0011486930307000875
1772457068829006000,8.927006103515625,0.006422658450901508,0.010143669322133064,-0.003741644090041518
1772457068839074000,8.937073974609374,0.010578786954283714,0.012663817964494228,-0.005891880020499229
1772457068849142300,8.947142333984376,0.013018389232456684,0.0059704468585550785,-0.01373892929404974
1772457068859210200,8.957210205078125,0.014489785768091679,0.00032374635338783264,-0.01248111855238676
1772457068869278200,8.9672783203125,0.013481725938618183,0.0005862372927367687,-0.008197905495762825
1772457068879346200,8.97734619140625,0.008024909533560276,0.0008208616636693478,-0.006026363465934992
1772457068889414400,8.987414306640625,0.004852977581322193,0.008775239810347557,-0.0020391044672578573
1772457068899483100,8.997483154296875,0.009694604203104973,0.009380309842526913,0.0030885457526892424
1772457068909551000,9.007551025390624,0.01079648733139038,0.000648748129606247,0.007395475171506405
1772457068919619000,9.017619140625,0.010617523454129696,-0.0092568788677454,0.01077129878103733
1772457068929687300,9.027687255859375,0.01010676845908165,-0.012379700317978859,0.012802686542272568
1772457068939755300,9.03775537109375,0.0034062552731484175,-0.0010703210718929768,0.00920768454670906
1772457068949823200,9.0478232421875,0.0012002927251160145,0.021350372582674026,0.005705393385142088
1772457068959891200,9.05789111328125,0.005249362904578447,0.024055344983935356,0.00284515880048275
1772457068969960200,9.067960205078125,0.008646118454635143,0.015980688855051994,-0.005101207178086042
1772457068980028200,9.078028076171876,0.014335162937641144,0.01662410795688629,-0.001964269671589136
1772457068990096100,9.08809619140625,0.023129094392061234,0.011834291741251945,-0.0019237961387261748
1772457069000164400,9.098164306640625,0.02665671706199646,0.005567341577261686,0.006244385614991188
1772457069010232600,9.108232666015626,0.026342451572418213,0.00695448461920023,0.020334351807832718
1772457069020300500,9.118300537109375,0.021013466641306877,0.003802367253229022,0.02986287698149681
1772457069030368500,9.128368408203125,0.01790034957230091,-0.0025396361015737057,0.024035125970840454
1772457069040437800,9.138437744140624,0.015297110192477703,-0.003239248413592577,0.012797119095921516
1772457069050505700,9.148505615234376,0.01445818692445755,-0.0005091694183647633,-0.0023563066497445107
1772457069060573700,9.15857373046875,0.016128787770867348,0.010846816003322601,-0.008008599281311035
1772457069070641700,9.1686416015625,0.021574433892965317,0.023872988298535347,-0.013157667592167854
1772457069080709600,9.178709716796876,0.0220644548535347,0.02406260371208191,-0.00880393199622631
1772457069090777600,9.188777587890625,0.018871579319238663,0.013373889029026031,0.00042376737110316753
1772457069100845600,9.198845458984374,0.018199928104877472,0.0027015376836061478,0.012941690161824226
1772457069110913800,9.208913818359376,0.017950257286429405,-0.007267594803124666,0.021536309272050858
1772457069120982500,9.218982421875,0.01660216599702835,-0.005537339020520449,0.023034602403640747
1772457069131050500,9.229050537109375,0.016206273809075356,0.001216750591993332,0.015431590378284454
1772457069141118700,9.23911865234375,0.018550654873251915,0.000048688147217035294,0.006508137099444866
1772457069151186700,9.249186767578125,0.018419014289975166,-0.00010875100269913673,-0.004149419255554676
1772457069161254700,9.259254638671875,0.016491951420903206,0.00644475594162941,-0.00995111558586359
1772457069171322600,9.269322509765624,0.011660750955343246,0.009567069821059704,-0.01211540773510933
1772457069181390800,9.279390869140625,0.007120060734450817,0.007489804178476334,-0.008339045569300652
1772457069191459600,9.28945947265625,0.0010695583187043667,0.00012517068535089493,-0.007656711153686047
1772457069201527600,9.299527587890625,-0.0008079702965915203,-0.0032378691248595715,-0.005848424509167671
1772457069211595800,9.309595703125,-0.0017360288184136152,-0.005844740197062492,-0.006230907514691353
1772457069221663700,9.319663818359375,-0.004303316585719585,-0.007030379958450794,-0.012462170794606209
1772457069231731700,9.329731689453125,-0.009038496762514114,0.006889672949910164,-0.017937084659934044
1772457069241799700,9.339799560546876,-0.009082971140742302,0.019587624818086624,-0.0117108803242445
1772457069251867600,9.34986767578125,-0.010052281431853771,0.01787896454334259,-0.00710229342803359
1772457069261936600,9.3599365234375,-0.010987849906086922,0.0055559859611094,0.010759793221950531
1772457069272004600,9.370004638671874,-0.009896567091345787,-0.007383805233985186,0.0199450496584177
1772457069282072600,9.380072509765625,-0.012716853991150856,-0.020588289946317673,0.015146564692258835
1772457069292140800,9.390140869140625,-0.010565766133368015,-0.014232559129595757,0.004985756240785122
1772457069302208800,9.400208740234374,-0.007316709496080875,-0.003775124903768301,-0.001676674117334187
1772457069312276500,9.4102763671875,-0.00885808002203703,0.008741682395339012,-0.00925539992749691
1772457069322344400,9.420344482421875,-0.005413814447820187,0.01020748633891344,-0.011400843039155006
1772457069332413700,9.43041357421875,-0.0020311600528657436,-0.0018615475855767727,-0.007505975663661957
1772457069342481700,9.440481689453126,-0.004469283856451511,-0.013523796573281288,-0.009651152417063713
1772457069352549600,9.450549560546875,-0.0028077512979507446,-0.011528654024004936,-0.0001998799853026867
1772457069362617900,9.460617919921875,0.000002948800101876259,-0.002796147484332323,0.0005982695147395134
1772457069372685600,9.470685546875,0.0022168480791151524,-0.003336139488965273,0.00146355084143579
1772457069382753500,9.48075341796875,0.002620317041873932,0.007243267260491848,0.0017647540662437677
1772457069392821500,9.490821533203125,0.004242128226906061,0.005541387479752302,0.0007550709415227175
1772457069402890800,9.500890869140624,0.005063180811703205,-0.002690443303436041,0.003606517566367984
1772457069412958700,9.510958740234376,0.004016305785626173,-0.007945828139781952,-0.00047662178985774517
1772457069423026700,9.521026611328125,0.0029270730447024107,-0.013282537460327148,-0.0004896712489426136
1772457069433094700,9.5310947265625,0.0029609615448862314,-0.01979244127869606,-0.005804573651403189
1772457069443162600,9.54116259765625,0.004036079626530409,-0.019947169348597527,-0.01689024828374386
1772457069453230600,9.551230712890625,0.00722177978605032,-0.015345034189522266,-0.02571805566549301
1772457069463298600,9.561298583984374,0.010038338601589203,-0.01121820043772459,-0.03166995570063591
1772457069473367800,9.571367919921874,0.017242763191461563,0.001063522882759571,-0.027890337631106377
1772457069483435500,9.581435546875,0.02010752633213997,0.005654280073940754,-0.024210646748542786
1772457069493503500,9.59150341796875,0.015187853947281837,-0.0007896008901298046,-0.013958295807242393
1772457069503571700,9.60157177734375,0.009962465614080429,-0.004841334652155638,-0.004490491934120655
1772457069513639700,9.6116396484375,0.004341650754213333,-0.008804285898804665,-0.00184496003203094
1772457069523707600,9.621707763671875,-0.0018360840622335672,-0.017728272825479507,0.006415899842977524
1772457069533775600,9.631775634765624,-0.0030041327700018883,-0.01775507442653179,0.001418496947735548
1772457069543843800,9.64184375,-0.0067738378420472145,-0.019040580838918686,-0.0011157672852277756
1772457069553912600,9.65191259765625,-0.005912411492317915,-0.02111114002764225,-0.007140129804611206
1772457069563980500,9.66198046875,0.002453642664477229,-0.008951147086918354,-0.009372657164931297
1772457069574048800,9.672048828125,0.011943391524255276,-0.00979967974126339,-0.012972692027688026
1772457069584116700,9.68211669921875,0.007695382926613092,-0.006784181576222181,-0.01137346401810646
1772457069594184700,9.692184814453125,0.007939554750919342,0.005572084337472916,-0.004323737695813179
1772457069604252700,9.702252685546876,0.001236645272001624,0.010729562491178513,0.0015184388030320406
1772457069614320600,9.712320556640625,-0.00562259228900075,0.005516157951205969,0.00713078398257494
1772457069624389600,9.7223896484375,-0.014173734933137894,-0.00306587852537632,0.0060945479199290276
1772457069634457600,9.73245751953125,-0.011895655654370785,-0.010676318779587746,0.002147365128621459
1772457069644525800,9.74252587890625,-0.005881438963115215,-0.01251150295138359,-0.007593412883579731
1772457069654593800,9.75259375,0.001968787517398596,-0.013494815677404404,-0.012249378487467766
1772457069664661800,9.762661865234374,0.00893242098391056,-0.010346692055463791,-0.016086194664239883
1772457069674729500,9.7727294921875,0.01065579243004322,0.003612799569964409,-0.01847219094634056
1772457069684797700,9.782797607421875,0.011062723584473133,-0.0015816963277757168,-0.025644881650805473
1772457069694866700,9.79286669921875,0.007427575532346964,-0.0034920317120850086,-0.02550709992647171
1772457069704934700,9.8029345703125,0.0046307239681482315,0.005711053963750601,-0.014692535623908043
1772457069715003000,9.8130029296875,0.0015732689062133431,0.008959358558058739,-0.011768870986998081
1772457069725070600,9.823070556640625,-0.0009522070176899433,0.005746521055698395,-0.0038827182725071907
1772457069735138600,9.833138671875,0.00002421485260128975,0.0008747526444494724,0.001757618272677064
1772457069745206500,9.84320654296875,0.0027968320064246655,-0.008110753260552883,0.004756604321300983
1772457069755274800,9.853274658203125,0.006925063673406839,-0.011137507855892181,0.005180012434720993
1772457069765342700,9.8633427734375,0.015447178855538368,-0.013974040746688843,0.003624992212280631
1772457069775411700,9.87341162109375,0.01821962371468544,-0.0013758367858827114,0.002504607429727912
1772457069785479400,9.8834794921875,0.02045161835849285,0.0010052956640720367,-0.00004377146251499653
1772457069795547600,9.893547607421874,0.013205116614699364,0.0013877029996365309,-0.0028619887307286263
1772457069805615600,9.90361572265625,0.007222592364996672,0.010430732741951942,0.007190112490206957
1772457069815683600,9.91368359375,0.004414302296936512,0.023211872205138206,0.016238756477832794
1772457069825751600,9.92375146484375,0.005570380482822657,0.014138216152787209,0.021892379969358444
1772457069835819800,9.93381982421875,0.0032278639264404774,-0.0008018515072762966,0.013512742705643177
1772457069845888500,9.943888427734375,-0.002461979864165187,-0.005427229683846235,0.005895836278796196
1772457069855956500,9.95395654296875,0.0023384476080536842,-0.007448544725775719,-0.013506904244422913
1772457069866024700,9.964024658203124,0.0054325079545378685,-0.008426190353929996,-0.027857612818479538
1772457069876092700,9.9740927734375,0.008631857112050056,0.00024864450097084045,-0.03622739017009735
1772457069886160600,9.98416064453125,0.010738417506217957,0.00848313793540001,-0.033049438148736954
1772457069896228600,9.994228515625,0.016519248485565186,0.02041451260447502,-0.02516009844839573
1772457069906296800,10.004296875,0.019047653302550316,0.006822536699473858,-0.0051009017042815685
1772457069916365600,10.014365478515625,0.017270099371671677,-0.006527672056108713,0.015740757808089256
1772457069926433500,10.02443359375,0.017497533932328224,-0.02027437649667263,0.028838451951742172
1772457069936501800,10.034501708984376,0.017108751460909843,-0.016261259093880653,0.036558348685503006
1772457069946569700,10.04456982421875,0.01823979616165161,-0.0027872612699866295,0.03148049861192703
1772457069956637700,10.0546376953125,0.02116428129374981,0.002678293501958251,0.027669347822666168
1772457069966705700,10.06470556640625,0.02525489591062069,0.008819010108709335,0.02040344662964344
1772457069976773600,10.074773681640625,0.025382699444890022,0.0039018234238028526,0.0199301615357399
1772457069986842600,10.084842529296875,0.027684470638632774,-0.0034985686652362347,0.022509433329105377
1772457069996910600,10.09491064453125,0.02515099197626114,-0.014336665160953999,0.022213803604245186
1772457070006978600,10.104978515625,0.0222790390253067,-0.010125408880412579,0.019487792626023293
1772457070017046500,10.115046630859375,0.014997610822319984,-0.002489617560058832,0.01275746338069439
1772457070027114500,10.125114501953124,0.011330971494317055,-0.002888027112931013,0.012742284685373306
1772457070037182200,10.13518212890625,0.014990326948463917,-0.004173122346401215,0.005947221536189318
1772457070047250400,10.14525048828125,0.018138982355594635,-0.022284217178821564,0.010393636301159859
1772457070057319400,10.1553193359375,0.019382771104574203,-0.04079439491033554,0.0226412545889616
1772457070067387400,10.165387451171876,0.017666097730398178,-0.027778994292020798,0.036368515342473984
1772457070077455600,10.17545556640625,0.013762209564447403,-0.01081945188343525,0.02890120819211006
1772457070087523600,10.185523681640625,0.007194056175649166,-0.008335787802934647,0.025544825941324234
1772457070097591300,10.19559130859375,0.0015996602596715093,-0.0016739391721785069,0.011940627358853817
1772457070107659300,10.2056591796875,-0.006503273732960224,0.00894435029476881,0.007307792082428932
1772457070117727500,10.2157275390625,-0.010785689577460289,0.012437520548701286,-0.0024169546086341143
1772457070127796500,10.22579638671875,-0.005991999059915543,0.009456378407776356,-0.009585651569068432
1772457070137864400,10.235864501953126,-0.006306998431682587,0.0030366601422429085,-0.01684681326150894
1772457070147932400,10.245932373046875,-0.00446089543402195,-0.006190926302224398,-0.01376926340162754
1772457070158000400,10.25600048828125,0.00014731870032846928,-0.005107311997562647,-0.008253505453467369
1772457070168068400,10.266068359375,0.0013864876236766577,-0.006366454530507326,-0.0011186304036527872
1772457070178136300,10.27613623046875,0.0036800687666982412,-0.00848214142024517,0.008489222265779972
1772457070188204500,10.28620458984375,0.00156977993901819,-0.0008889366872608662,0.013508216477930546
1772457070198272500,10.2962724609375,0.0031935228034853935,0.0008565951138734818,0.012373728677630424
1772457070208341200,10.30634130859375,0.004036945756524801,-0.010784082114696503,0.006110240705311298
1772457070218409200,10.3164091796875,0.005856483243405819,-0.01326808426529169,0.008132612332701683
1772457070228477400,10.3264775390625,0.010085050947964191,-0.012790578417479992,0.014110874384641647
1772457070238545400,10.33654541015625,0.010017979890108109,-0.014875277876853943,0.014774862676858902
1772457070248613400,10.34661328125,0.013072892092168331,-0.022351836785674095,0.01301850751042366
1772457070258681300,10.356681396484374,0.016534680500626564,-0.025639628991484642,0.008912898600101471
1772457070268749600,10.36674951171875,0.02662619762122631,-0.05054764449596405,0.015004348009824753
1772457070278818300,10.376818359375,0.030477209016680717,-0.07721781730651855,0.032404497265815735
1772457070288886300,10.38688623046875,0.028220178559422493,-0.08656924217939377,0.06050191447138786
1772457070298954500,10.39695458984375,0.02491081692278385,-0.06268340349197388,0.08533503860235214
1772457070309022500,10.4070224609375,0.026606982573866844,-0.03935997188091278,0.09269148856401443
1772457070319090400,10.41709033203125,0.03760988637804985,-0.029447320848703384,0.09045597910881042
1772457070329158400,10.427158447265626,0.03954307734966278,-0.018243666738271713,0.08459249883890152
1772457070339226400,10.437226318359375,0.0422070175409317,-0.026906760409474373,0.08599143475294113
1772457070349295400,10.44729541015625,0.04154469072818756,-0.017873849719762802,0.08291362226009369
1772457070359363300,10.45736328125,0.03921132534742355,-0.008885560557246208,0.08502844721078873
1772457070369431600,10.467431640625,0.03179015964269638,-0.008374767377972603,0.07673349976539612
1772457070379499500,10.47749951171875,0.024485882371664047,-0.004017207771539688,0.06470835953950882
1772457070389567500,10.4875673828125,0.022560682147741318,-0.017345529049634933,0.047103527933359146
1772457070399635200,10.49763525390625,0.01713293418288231,-0.018459796905517578,0.035109639167785645
1772457070409703400,10.507703369140625,0.01521093025803566,0.004314492456614971,0.019355179741978645
1772457070419772400,10.5177724609375,0.013875541277229786,0.02221330627799034,0.009148361161351204
1772457070429840400,10.52784033203125,0.010311699472367764,0.029989471659064293,-0.0026148208416998386
1772457070439908600,10.53790869140625,0.008708995766937733,0.021741829812526703,-0.010606454685330391
1772457070449976300,10.547976318359375,-0.0000069981906563043594,0.009132295846939087,-0.022855663672089577
1772457070460044300,10.558044189453126,-0.003329451195895672,0.003562246449291706,-0.03900877386331558
1772457070470112300,10.5681123046875,-0.007937785238027573,0.004879978485405445,-0.052380505949258804
1772457070480180500,10.578180419921875,-0.007985829375684261,0.013276973739266396,-0.06085098162293434
1772457070490249500,10.58824951171875,-0.007441745139658451,0.007882208563387394,-0.06718797236680984
1772457070500317400,10.5983173828125,-0.01130713615566492,0.0047255391255021095,-0.05804985761642456
1772457070510385400,10.608385498046875,-0.010998742654919624,0.006159651558846235,-0.0491839274764061
1772457070520453400,10.618453369140624,-0.005286861211061478,0.0021591228432953358,-0.04266873747110367
1772457070530521300,10.628521240234376,-0.007165987975895405,0.0023860239889472723,-0.02896996960043907
1772457070540589300,10.63858935546875,-0.008642750792205334,0.007394608575850725,-0.022870590910315514
1772457070550657500,10.648657470703125,-0.008622244000434875,0.012478049844503403,-0.009715907275676727
1772457070560726500,10.6587265625,-0.00958043709397316,0.011456025764346123,-0.001914955792017281
1772457070570794200,10.668794189453125,-0.009172972291707993,-0.00026747630909085274,-0.0017282682238146663
1772457070580862500,10.678862548828125,-0.009251176379621029,0.005989475641399622,0.004546944983303547
1772457070590930400,10.688930419921874,-0.005630875006318092,0.01691802404820919,0.008133957162499428
1772457070600998400,10.698998291015625,-0.0006585668306797743,0.03419153019785881,0.018455050885677338
1772457070611066400,10.70906640625,0.003971072379499674,0.05926332622766495,0.028304219245910645
1772457070621134600,10.719134521484374,-0.0010729816276580095,0.051920533180236816,0.028927359730005264
1772457070631203300,10.729203369140626,-0.013386638835072517,0.031689826399087906,0.022798892110586166
1772457070641271300,10.739271240234375,-0.022136881947517395,0.008873945102095604,0.006694251671433449
1772457070651339300,10.74933935546875,-0.02325807325541973,-0.011904571205377579,-0.011816581711173058
1772457070661407500,10.759407470703126,-0.015443213284015656,-0.004213868640363216,-0.029108233749866486
1772457070671475500,10.769475341796875,-0.0009154023136943579,-0.002210638951510191,-0.04956823214888573
1772457070681543400,10.77954345703125,0.01215125061571598,0.005881423130631447,-0.05380900576710701
1772457070691611600,10.789611572265626,0.01761552505195141,0.013315903022885323,-0.04839799553155899
1772457070701680400,10.799680419921875,0.013401378877460957,0.009434347972273827,-0.03935210779309273
1772457070711748400,10.809748291015625,0.002827297430485487,0.024891600012779236,-0.02247006446123123
1772457070721816300,10.81981640625,-0.004542254377156496,0.02918798103928566,-0.0026923122350126505
1772457070731884500,10.829884521484376,-0.007972139865159988,0.019888754934072495,0.00709853321313858
1772457070741952500,10.839952392578125,-0.006708164233714342,0.012423649430274963,0.011459121480584145
1772457070752020500,10.8500205078125,-0.0031262123957276344,0.005478391889482737,0.011487883515655994
1772457070762088200,10.860088134765626,0.005771009251475334,-0.004324027337133884,0.004413793794810772
1772457070772157400,10.870157470703125,0.009333786554634571,-0.0032438496127724648,-0.00570701714605093
1772457070782225400,10.880225341796875,0.008512148633599281,0.011691858991980553,-0.013064212165772915
1772457070792293400,10.89029345703125,0.0003479616716504097,0.03381447121500969,-0.016343628987669945
1772457070802361600,10.900361572265625,-0.006387932226061821,0.047996871173381805,-0.02040662243962288
1772457070812429300,10.91042919921875,-0.016903424635529518,0.03691332787275314,-0.02360294759273529
1772457070822497300,10.920497314453126,-0.0179457850754261,0.014335048384964466,-0.026415245607495308
1772457070832565200,10.930565185546875,-0.014974495396018028,0.006004946306347847,-0.02372651733458042
1772457070842634500,10.940634521484375,-0.012016084045171738,0.020558733493089676,-0.01753520779311657
1772457070852702500,10.950702392578124,-0.01317588984966278,0.030352510511875153,-0.0034231168683618307
1772457070862770400,10.9607705078125,-0.023912915959954262,0.041376952081918716,0.012375347316265106
1772457070872838400,10.97083837890625,-0.024370446801185608,0.038180626928806305,0.016742665320634842
1772457070882906400,10.98090625,-0.02138720266520977,0.013735545799136162,0.02126041054725647
1772457070892974300,10.990974365234376,-0.022866055369377136,-0.01997288316488266,0.022496383637189865
1772457070903042300,11.001042236328125,-0.021304309368133545,-0.036197975277900696,0.017996542155742645
1772457070913111600,11.011111572265625,-0.015501814894378185,-0.03575615584850311,0.00476063322275877
1772457070923179300,11.02117919921875,-0.011987453326582909,-0.022700443863868713,-0.008626067079603672
1772457070933247200,11.031247314453125,-0.006713862530887127,-0.0058226617984473705,-0.023784780874848366
1772457070943315500,11.0413154296875,-0.010542276315391064,0.0076920343562960625,-0.03351229056715965
1772457070953383400,11.051383544921874,-0.012376128695905209,0.0215415358543396,-0.030816636979579926
1772457070963451400,11.061451416015625,-0.019704151898622513,0.01444321870803833,-0.02915079891681671
1772457070973519400,11.071519287109375,-0.029382877051830292,0.00045043881982564926,-0.016121281310915947
1772457070983587600,11.081587646484374,-0.03508291766047478,-0.0065678139217197895,0.005265247076749802
