time,seconds_elapsed,z,y,x
1772458607247278300,0.0642783203125,-0.08846355229616165,-0.24611176550388336,-0.9805415272712708
1772458607257346600,0.0743466796875,-0.13734453916549683,-0.23087875545024872,-0.9889882802963257
1772458607267414500,0.08441455078125,-0.19421795010566711,-0.15881121158599854,-0.9621391296386719
1772458607277482500,0.094482421875,-0.2603897750377655,-0.10012819617986679,-0.9186353087425232
1772458607287550700,0.10455078125,-0.3334954082965851,-0.1001385822892189,-0.8830394744873047
1772458607297618700,0.11461865234375,-0.391631156206131,-0.15595337748527527,-0.8378480672836304
1772458607307686700,0.124686767578125,-0.4289233982563019,-0.22830374538898468,-0.7886743545532227
1772458607317754600,0.134754638671875,-0.42817556858062744,-0.2796020805835724,-0.7258384227752686
1772458607327822600,0.144822509765625,-0.3911842703819275,-0.2998458445072174,-0.6358851194381714
1772458607337889800,0.154889892578125,-0.30813464522361755,-0.2850501239299774,-0.519727349281311
1772458607347957500,0.16495751953125,-0.19238968193531036,-0.2626633048057556,-0.40142786502838135
1772458607358025500,0.175025390625,-0.056406017392873764,-0.24305899441242218,-0.3024219274520874
1772458607368093400,0.185093505859375,0.07820558547973633,-0.22201842069625854,-0.23779524862766266
1772458607378161700,0.19516162109375,0.20125135779380798,-0.2019195407629013,-0.1925572007894516
1772458607388229600,0.205229736328125,0.30472156405448914,-0.21374264359474182,-0.15393923223018646
1772458607398297600,0.215297607421875,0.38593730330467224,-0.25057628750801086,-0.12694090604782104
1772458607408365600,0.225365478515625,0.43057721853256226,-0.29043447971343994,-0.09545648097991943
1772458607418433800,0.235433837890625,0.45185187458992004,-0.3322080373764038,-0.07236527651548386
1772458607428501500,0.24550146484375,0.4375917315483093,-0.36819854378700256,-0.04590597376227379
1772458607438569500,0.255569580078125,0.3953872621059418,-0.3385586142539978,-0.016469787806272507
1772458607448637400,0.265637451171875,0.33495667576789856,-0.2661946713924408,-0.00299286050722003
1772458607458705700,0.27570556640625,0.2759801745414734,-0.19526030123233795,-0.000529436394572258
1772458607468773600,0.285773681640625,0.21909959614276886,-0.13617168366909027,-0.003861050819978118
1772458607478841600,0.295841552734375,0.16116757690906525,-0.09321356564760208,-0.006903978530317545
1772458607488909600,0.30590966796875,0.1119995042681694,-0.06631936877965927,-0.013542440719902515
1772458607498977500,0.3159775390625,0.07685296982526779,-0.034700457006692886,-0.004276770167052746
1772458607509045200,0.326045166015625,0.054182011634111404,-0.0010069411946460605,0.004013916477560997
1772458607519113200,0.33611328125,0.046057507395744324,0.026761040091514587,0.022062957286834717
1772458607529181200,0.34618115234375,0.0417674221098423,0.053876280784606934,0.0503595769405365
1772458607539249200,0.356249267578125,0.030484406277537346,0.07631634175777435,0.09033895283937454
1772458607549317000,0.366317138671875,0.007459514308720827,0.09125960618257523,0.13962367177009583
1772458607559385300,0.37638525390625,-0.026911508291959763,0.0758497565984726,0.19288583099842072
1772458607569453300,0.386453369140625,-0.06986350566148758,0.028142688795924187,0.24501721560955048
1772458607579520300,0.396520263671875,-0.11227088421583176,-0.041121602058410645,0.2940257787704468
1772458607589588200,0.406588134765625,-0.16288745403289795,-0.10983116179704666,0.3429107367992401
1772458607599656200,0.41665625,-0.21193355321884155,-0.17310254275798798,0.373703271150589
1772458607609724200,0.42672412109375,-0.2585551142692566,-0.24007545411586761,0.3807537257671356
1772458607619792100,0.436792236328125,-0.2906792461872101,-0.2926931083202362,0.3798051178455353
1772458607629860000,0.446860107421875,-0.30928513407707214,-0.303242951631546,0.38010019063949585
1772458607639928000,0.456927978515625,-0.3210368752479553,-0.2664753496646881,0.3873554468154907
1772458607649996300,0.466996337890625,-0.323714941740036,-0.2191946655511856,0.3931899070739746
1772458607660064300,0.477064208984375,-0.3145747184753418,-0.1710364669561386,0.38263899087905884
1772458607670132200,0.48713232421875,-0.3011084496974945,-0.11390978842973709,0.36346662044525146
1772458607680200200,0.4972001953125,-0.28640511631965637,-0.051244545727968216,0.3328882157802582
1772458607690268200,0.50726806640625,-0.2694133520126343,0.003721234854310751,0.27953416109085083
1772458607700336000,0.517336181640625,-0.25265195965766907,0.0382203571498394,0.22335612773895264
1772458607710404000,0.527404052734375,-0.2297104299068451,0.040638506412506104,0.14919640123844147
1772458607720472000,0.53747216796875,-0.21617411077022552,-0.0006495449924841523,0.06721791625022888
1772458607730540300,0.547540283203125,-0.20967918634414673,-0.059835102409124374,-0.00780519237741828
1772458607740608300,0.557608154296875,-0.2132699340581894,-0.12074212729930878,-0.0748894214630127
1772458607750676200,0.56767626953125,-0.21538129448890686,-0.1722082495689392,-0.11753568798303604
1772458607760744200,0.577744140625,-0.21627770364284515,-0.20101645588874817,-0.13511520624160767
1772458607770812200,0.587812255859375,-0.20171873271465302,-0.19483712315559387,-0.13424941897392273
1772458607780880100,0.597880126953125,-0.180386021733284,-0.1604005992412567,-0.10465157777070999
1772458607790948000,0.607947998046875,-0.156960591673851,-0.09100660681724548,-0.04260125756263733
1772458607801016000,0.61801611328125,-0.13733282685279846,0.018616294488310814,0.0550139844417572
1772458607811083000,0.6280830078125,-0.12242311984300613,0.15108032524585724,0.17871221899986267
1772458607821151200,0.638151123046875,-0.10939893126487732,0.2467661052942276,0.30773597955703735
1772458607831219200,0.64821923828125,-0.0876169353723526,0.26491713523864746,0.4196454882621765
1772458607841287200,0.658287109375,-0.07279031723737717,0.23716861009597778,0.5226224660873413
1772458607851355100,0.668355224609375,-0.06456167995929718,0.18486173450946808,0.5935956835746765
1772458607861423400,0.67842333984375,-0.07005178928375244,0.1212281584739685,0.6314245462417603
1772458607871491000,0.688490966796875,-0.08479957282543182,0.06633108854293823,0.64375901222229
1772458607881559000,0.69855908203125,-0.1004033014178276,0.02003549411892891,0.6351567506790161
1772458607891627300,0.708627197265625,-0.11629358679056168,-0.017002951353788376,0.6082414984703064
1772458607901695200,0.7186953125,-0.13022245466709137,-0.04399355500936508,0.5682421326637268
1772458607911763200,0.72876318359375,-0.14016669988632202,-0.08209940046072006,0.5122800469398499
1772458607921831200,0.7388310546875,-0.15249553322792053,-0.132065087556839,0.44045010209083557
1772458607931899400,0.7488994140625,-0.15730254352092743,-0.16823747754096985,0.35977309942245483
1772458607941967400,0.75896728515625,-0.16241420805454254,-0.18029573559761047,0.28184792399406433
1772458607952035000,0.76903515625,-0.1659967005252838,-0.1476544439792633,0.22336678206920624
1772458607962103000,0.77910302734375,-0.1648813635110855,-0.0903077945113182,0.19999992847442627
1772458607972171300,0.789171142578125,-0.17198801040649414,-0.03447089344263077,0.19650186598300934
1772458607982239200,0.7992392578125,-0.1784384548664093,-0.0025803367607295513,0.19972775876522064
1772458607992307200,0.80930712890625,-0.17860117554664612,0.006018743850290775,0.22755086421966553
1772458608002375200,0.819375244140625,-0.1752818077802658,0.02648353949189186,0.2767823338508606
1772458608012443400,0.829443359375,-0.15951775014400482,0.0822322890162468,0.36787310242652893
1772458608022511400,0.839511474609375,-0.13537806272506714,0.18083049356937408,0.4892812669277191
1772458608032579000,0.8495791015625,-0.11846060305833817,0.30710455775260925,0.6310397386550903
1772458608042647000,0.85964697265625,-0.10917016118764877,0.412327378988266,0.771307110786438
1772458608052714000,0.8697138671875,-0.10005096346139908,0.4764118194580078,0.8716251850128174
1772458608062782200,0.8797822265625,-0.08804091066122055,0.5008220672607422,0.9211280345916748
1772458608072850200,0.88985009765625,-0.06730766594409943,0.5358338952064514,0.9187799096107483
1772458608082918100,0.899918212890625,-0.04822052642703056,0.6118884086608887,0.8691809177398682
1772458608092986000,0.909986083984375,-0.026943201199173927,0.7106046080589294,0.7862303853034973
1772458608103054300,0.920054443359375,0.002429601736366749,0.8082931041717529,0.6726154088973999
1772458608113122300,0.930122314453125,0.03310708701610565,0.8828168511390686,0.5413370132446289
1772458608123190300,0.940190185546875,0.05276601016521454,0.9073134064674377,0.38879913091659546
1772458608133258000,0.950258056640625,0.06289693713188171,0.8900558352470398,0.2262190282344818
1772458608143326200,0.960326171875,0.06602375954389572,0.863286018371582,0.06857825815677643
1772458608153394200,0.970394287109375,0.05589788779616356,0.8057354092597961,-0.08608401566743851
1772458608163462100,0.980462158203125,0.03302878886461258,0.7163165807723999,-0.22399501502513885
1772458608173530000,0.990530029296875,-0.004540157038718462,0.5922633409500122,-0.339587926864624
1772458608183598300,1.000598388671875,-0.051356133073568344,0.4389965236186981,-0.43416687846183777
1772458608193666300,1.010666259765625,-0.09939929097890854,0.2755058705806732,-0.49839168787002563
1772458608203734300,1.020734375,-0.1447896808385849,0.1130562499165535,-0.534236490726471
1772458608213802000,1.030802001953125,-0.17741872370243073,-0.018863968551158905,-0.5345597863197327
1772458608223870200,1.0408701171875,-0.20743174850940704,-0.09569616615772247,-0.5050333142280579
1772458608233938200,1.050938232421875,-0.22775672376155853,-0.11573538929224014,-0.4623250365257263
1772458608244006100,1.061006103515625,-0.23746155202388763,-0.0919344499707222,-0.4139295220375061
1772458608254074000,1.07107421875,-0.2282121330499649,-0.056474193930625916,-0.3595999777317047
1772458608264142300,1.081142333984375,-0.203005850315094,-0.025847842916846275,-0.31020474433898926
1772458608274210300,1.091210205078125,-0.17167961597442627,-0.020070381462574005,-0.2778875529766083
1772458608284278300,1.1012783203125,-0.13855788111686707,-0.028805015608668327,-0.2586534023284912
1772458608294345200,1.11134521484375,-0.10088639706373215,-0.02870328351855278,-0.24004881083965302
1772458608304413200,1.1214130859375,-0.06000767648220062,-0.036075178533792496,-0.22414548695087433
1772458608314481200,1.131481201171875,-0.021318338811397552,-0.04913745075464249,-0.2027597725391388
1772458608324549000,1.141549072265625,0.013235644437372684,-0.07552511990070343,-0.1864873170852661
1772458608334617000,1.1516171875,0.04590437561273575,-0.112253837287426,-0.16504141688346863
1772458608344685000,1.16168505859375,0.08083492517471313,-0.16327041387557983,-0.13867026567459106
1772458608354753300,1.171753173828125,0.10352745652198792,-0.20966480672359467,-0.08710987120866776
1772458608364821200,1.1818212890625,0.10839944332838058,-0.22772744297981262,-0.033000025898218155
1772458608374889200,1.19188916015625,0.09484608471393585,-0.2021762728691101,0.029354693368077278
1772458608384957200,1.201957275390625,0.07900454103946686,-0.14547356963157654,0.08423205465078354
1772458608395025200,1.212025146484375,0.07246487587690353,-0.0737202912569046,0.1232156753540039
1772458608405093000,1.222093017578125,0.0765291303396225,-0.03195606917142868,0.13114815950393677
1772458608415161000,1.2321611328125,0.091546431183815,-0.011918178759515285,0.12162603437900543
1772458608425229300,1.242229248046875,0.10763005912303925,0.01563888043165207,0.09832683950662613
1772458608435297300,1.25229736328125,0.12641866505146027,0.03485944867134094,0.05050498619675636
1772458608445365200,1.262365234375,0.15462632477283478,0.05190900340676308,-0.009698433801531792
1772458608455433200,1.27243310546875,0.1832694262266159,0.08563873916864395,-0.06849756836891174
1772458608465501200,1.282501220703125,0.21510165929794312,0.13614745438098907,-0.1242002472281456
1772458608475569200,1.292569091796875,0.2446632832288742,0.1954331398010254,-0.18022435903549194
1772458608485637000,1.30263720703125,0.27144455909729004,0.2477317750453949,-0.22353509068489075
1772458608495705000,1.312705078125,0.2855534553527832,0.2785189747810364,-0.2591806948184967
1772458608505773300,1.322773193359375,0.2799357771873474,0.2433905452489853,-0.30377691984176636
1772458608515841500,1.332841552734375,0.2642950415611267,0.1577416956424713,-0.35362330079078674
1772458608525909500,1.342909423828125,0.22556255757808685,0.05360490456223488,-0.3983127474784851
1772458608535977700,1.352977783203125,0.159146249294281,-0.06598754227161407,-0.41305363178253174
1772458608546044700,1.363044677734375,0.0662972629070282,-0.19692584872245789,-0.39802300930023193
1772458608556112600,1.373112548828125,-0.03392947092652321,-0.3119909167289734,-0.3585570752620697
1772458608566180400,1.383180419921875,-0.11840600520372391,-0.3574998080730438,-0.28694096207618713
1772458608576248300,1.393248291015625,-0.17684347927570343,-0.305292546749115,-0.18352216482162476
1772458608586316500,1.403316650390625,-0.20650257170200348,-0.1708439141511917,-0.06751566380262375
1772458608596384500,1.413384521484375,-0.19882628321647644,-0.008827047422528267,0.037105292081832886
1772458608606452500,1.423452392578125,-0.17198294401168823,0.11354626715183258,0.1101912185549736
1772458608616520400,1.4335205078125,-0.13233593106269836,0.18156740069389343,0.12576591968536377
1772458608626588700,1.443588623046875,-0.09282661229372025,0.23251047730445862,0.10864205658435822
1772458608636656600,1.45365673828125,-0.06624213606119156,0.22456680238246918,0.04872945696115494
1772458608646724400,1.463724365234375,-0.061525680124759674,0.1358819305896759,-0.041311219334602356
1772458608656792300,1.473792236328125,-0.08654501289129257,-0.012223110534250736,-0.14465811848640442
1772458608666860500,1.483860595703125,-0.13401132822036743,-0.18492697179317474,-0.25369885563850403
1772458608676928500,1.493928466796875,-0.21052901446819305,-0.3734619915485382,-0.34933242201805115
1772458608686996500,1.50399658203125,-0.31749728322029114,-0.5312880873680115,-0.4374125003814697
1772458608697064400,1.514064453125,-0.4346441328525543,-0.6084644198417664,-0.5133072733879089
1772458608707132700,1.524132568359375,-0.5514804720878601,-0.6063416004180908,-0.5634058117866516
1772458608717200600,1.53420068359375,-0.6521695256233215,-0.5567513704299927,-0.6010578870773315
1772458608727268400,1.544268310546875,-0.7184995412826538,-0.45982298254966736,-0.6019383072853088
1772458608737336300,1.55433642578125,-0.752622127532959,-0.2881130278110504,-0.5586209297180176
1772458608747404500,1.564404541015625,-0.7520966529846191,-0.048837047070264816,-0.46843111515045166
1772458608757472500,1.574472412109375,-0.7129830718040466,0.22017310559749603,-0.3488514721393585
1772458608767540500,1.58454052734375,-0.6396574378013611,0.4163607358932495,-0.1929502785205841
1772458608777608400,1.5946083984375,-0.5470191240310669,0.49337267875671387,-0.023636620491743088
1772458608787676700,1.6046767578125,-0.44591328501701355,0.5091484785079956,0.1575739085674286
1772458608797743600,1.61474365234375,-0.33901533484458923,0.5047656893730164,0.32461482286453247
1772458608807811600,1.6248115234375,-0.23129500448703766,0.46412479877471924,0.46123793721199036
1772458608817879600,1.634879638671875,-0.11319899559020996,0.37900882959365845,0.5637392401695251
1772458608827947300,1.644947265625,0.014522749930620193,0.231176495552063,0.6365407705307007
1772458608838015500,1.655015380859375,0.14011156558990479,0.02624145708978176,0.6749289035797119
1772458608848083500,1.66508349609375,0.2500703036785126,-0.22599399089813232,0.6980171799659729
1772458608858151400,1.6751513671875,0.32860344648361206,-0.5009611248970032,0.7110349535942078
1772458608868219400,1.685219482421875,0.35900023579597473,-0.7687906622886658,0.6944988965988159
1772458608878287600,1.69528759765625,0.3473406434059143,-1.0114693641662598,0.6488653421401978
1772458608888355600,1.70535546875,0.28898918628692627,-1.1975274085998535,0.5762017965316772
1772458608898423600,1.715423583984375,0.17531749606132507,-1.2805922031402588,0.4872005581855774
1772458608908491300,1.7254912109375,0.019821908324956894,-1.2517597675323486,0.41336601972579956
1772458608918559500,1.7355595703125,-0.16015878319740295,-1.1175284385681152,0.3466937839984894
1772458608928627500,1.74562744140625,-0.3289280831813812,-0.9384481310844421,0.287736177444458
1772458608938695400,1.7556953125,-0.4633788466453552,-0.7444459199905396,0.22170603275299072
1772458608948763400,1.765763427734375,-0.5365481376647949,-0.5526010990142822,0.1418876349925995
1772458608958831600,1.77583154296875,-0.5662927031517029,-0.35516127943992615,0.055620383471250534
1772458608968899600,1.785899658203125,-0.5606436133384705,-0.14582164585590363,-0.030117688700556755
1772458608978967600,1.795967529296875,-0.5293251276016235,0.11312256008386612,-0.08481688797473907
1772458608989035300,1.80603515625,-0.47881025075912476,0.40436986088752747,-0.09127851575613022
1772458608999103500,1.816103515625,-0.42588552832603455,0.639580249786377,-0.06709621101617813
1772458609009171500,1.82617138671875,-0.3765462040901184,0.7747313976287842,-0.030901988968253136
1772458609019239400,1.836239501953125,-0.32622310519218445,0.8146926760673523,0.009289638139307499
1772458609029307600,1.8463076171875,-0.2771804630756378,0.758002758026123,0.04680851846933365
1772458609039375600,1.856375732421875,-0.23078180849552155,0.6356078386306763,0.08795888721942902
1772458609049443600,1.866443603515625,-0.1739017516374588,0.46549445390701294,0.13546888530254364
1772458609059511300,1.87651123046875,-0.10157056897878647,0.28818705677986145,0.18623219430446625
1772458609069578500,1.88657861328125,-0.028615932911634445,0.1260274350643158,0.21869611740112305
1772458609079646500,1.896646484375,0.03404425457119942,-0.0008450209861621261,0.2240658551454544
1772458609089714400,1.90671435546875,0.0799129381775856,-0.08724036067724228,0.2107362002134323
1772458609099782400,1.916782470703125,0.12087981402873993,-0.12392140924930573,0.1896117478609085
1772458609109850400,1.926850341796875,0.15261724591255188,-0.13052871823310852,0.1842779666185379
1772458609119918600,1.936918701171875,0.17049530148506165,-0.129689022898674,0.18655337393283844
1772458609129986600,1.946986572265625,0.16594262421131134,-0.1261715143918991,0.19116249680519104
1772458609140054500,1.957054443359375,0.15635524690151215,-0.10593628883361816,0.1872657686471939
1772458609150122500,1.96712255859375,0.1505437046289444,-0.06378510594367981,0.16317906975746155
1772458609160190500,1.9771904296875,0.15521462261676788,0.014393053948879242,0.12354191392660141
1772458609170258400,1.987258544921875,0.16695623099803925,0.1131633073091507,0.08076675236225128
1772458609180326400,1.997326416015625,0.19040855765342712,0.21228589117527008,0.029760291799902916
1772458609190394400,2.007394287109375,0.22550156712532043,0.2907167971134186,-0.025845179334282875
1772458609200462600,2.017462646484375,0.26432564854621887,0.3560883402824402,-0.0666450709104538
1772458609210530600,2.027530517578125,0.3068385124206543,0.436233252286911,-0.08139073103666306
1772458609220598500,2.0375986328125,0.3557490408420563,0.5437442660331726,-0.06743017584085464
1772458609230666500,2.04766650390625,0.41092389822006226,0.6394164562225342,-0.04250698164105415
1772458609240734500,2.057734375,0.4709206521511078,0.6899571418762207,-0.031314246356487274
1772458609250802400,2.067802490234375,0.532593846321106,0.6544228196144104,-0.044439371675252914
1772458609260870400,2.077870361328125,0.5731391310691833,0.510916531085968,-0.09024307876825333
1772458609270938400,2.0879384765625,0.5909588932991028,0.29826685786247253,-0.14461204409599304
1772458609281006600,2.098006591796875,0.5820271968841553,0.08155371248722076,-0.16991287469863892
1772458609291074600,2.108074462890625,0.5485049486160278,-0.11473750323057175,-0.13914696872234344
1772458609301142500,2.118142578125,0.5255327820777893,-0.25176486372947693,-0.03790370747447014
1772458609311210500,2.12821044921875,0.5210613012313843,-0.3247525095939636,0.1244732216000557
1772458609321278500,2.138278564453125,0.5381841063499451,-0.3656165897846222,0.34241992235183716
1772458609331346400,2.148346435546875,0.579436719417572,-0.4115036725997925,0.5867034196853638
1772458609341414400,2.158414306640625,0.6342334151268005,-0.5017842650413513,0.8274960517883301
1772458609351481300,2.1684814453125,0.6864638328552246,-0.6584023833274841,0.989407479763031
1772458609361549300,2.17854931640625,0.7223265171051025,-0.7886786460876465,1.073038935661316
1772458609371617500,2.188617431640625,0.7361653447151184,-0.8038996458053589,1.1026469469070435
1772458609381685500,2.198685546875,0.7227787375450134,-0.6606732606887817,1.095371961593628
1772458609391753500,2.20875341796875,0.6849517226219177,-0.38300278782844543,1.0642788410186768
1772458609401821400,2.218821533203125,0.6352912187576294,-0.04792012274265289,1.0105359554290771
1772458609411889700,2.2288896484375,0.5891309380531311,0.2548866271972656,0.9213756918907166
1772458609421957400,2.238957275390625,0.5545486807823181,0.4570658206939697,0.8014509081840515
1772458609432025300,2.249025390625,0.5391665697097778,0.5748241543769836,0.6386904716491699
1772458609442093300,2.25909326171875,0.5282265543937683,0.6240763664245605,0.44882839918136597
1772458609452161500,2.26916162109375,0.5005666613578796,0.6339939832687378,0.23029924929141998
1772458609462229500,2.2792294921875,0.45853161811828613,0.628522515296936,0.006617955397814512
1772458609472297500,2.28929736328125,0.4016694128513336,0.5986908674240112,-0.20832177996635437
1772458609482365400,2.299365478515625,0.3265027403831482,0.5155176520347595,-0.4259510338306427
1772458609492433700,2.30943359375,0.2387755662202835,0.3746151626110077,-0.6179457902908325
1772458609502501400,2.31950146484375,0.12751854956150055,0.18785618245601654,-0.7896760106086731
1772458609512569600,2.329569580078125,-0.005887183826416731,-0.01495364960283041,-0.9194750189781189
1772458609522637600,2.339637451171875,-0.13605770468711853,-0.19343817234039307,-1.0104190111160278
1772458609532705500,2.34970556640625,-0.25295448303222656,-0.3128010630607605,-1.061081886291504
1772458609542773500,2.3597734375,-0.34392115473747253,-0.34622132778167725,-1.0810521841049194
1772458609552841700,2.369841796875,-0.4158507287502289,-0.2802750766277313,-1.0522668361663818
1772458609562909700,2.37990966796875,-0.4562849700450897,-0.11960602551698685,-0.9723249077796936
1772458609572977700,2.389977783203125,-0.46228426694869995,0.08533620089292526,-0.8583085536956787
1772458609583045400,2.40004541015625,-0.4262000322341919,0.2877175211906433,-0.7310528755187988
1772458609593113600,2.410113525390625,-0.3649691939353943,0.4366185963153839,-0.5939996838569641
1772458609603181600,2.420181640625,-0.2928542494773865,0.5009453892707825,-0.47286874055862427
1772458609613249500,2.43024951171875,-0.2161189764738083,0.5022628307342529,-0.3778937757015228
1772458609623317500,2.4403173828125,-0.14237365126609802,0.4581792950630188,-0.3007870018482208
1772458609633384400,2.450384521484375,-0.08012572675943375,0.39678916335105896,-0.24152927100658417
1772458609643452700,2.46045263671875,-0.029742982238531113,0.3115861117839813,-0.1977122724056244
1772458609653520600,2.470520751953125,0.015330220572650433,0.21290907263755798,-0.15174025297164917
1772458609663588600,2.480588623046875,0.05191779136657715,0.12258344143629074,-0.10957363247871399
1772458609673656600,2.490656494140625,0.07863755524158478,0.058518171310424805,-0.06060821935534477
1772458609683724500,2.500724609375,0.08760281652212143,0.017297230660915375,-0.003924167715013027
1772458609693792500,2.51079248046875,0.0871729850769043,-0.013362943194806576,0.050628822296857834
1772458609703860500,2.520860595703125,0.08746353536844254,-0.040759146213531494,0.1027495488524437
1772458609713928400,2.530928466796875,0.0948287770152092,-0.06709887832403183,0.13975763320922852
1772458609723996700,2.54099658203125,0.11663873493671417,-0.08048658818006516,0.16749179363250732
1772458609734064600,2.551064697265625,0.1512443721294403,-0.07407129555940628,0.19330714643001556
1772458609744132600,2.561132568359375,0.18763381242752075,-0.05488135665655136,0.22329913079738617
1772458609754200600,2.57120068359375,0.21281427145004272,-0.04060947895050049,0.2511952221393585
1772458609764268500,2.5812685546875,0.22786618769168854,-0.03904274106025696,0.2713438868522644
1772458609774336500,2.59133642578125,0.22922226786613464,-0.07479008287191391,0.27178624272346497
1772458609784404500,2.601404541015625,0.219109445810318,-0.1322656273841858,0.25378620624542236
1772458609794472400,2.611472412109375,0.20267774164676666,-0.17962674796581268,0.23278771340847015
1772458609804540700,2.621540771484375,0.18108749389648438,-0.21238283812999725,0.20126786828041077
1772458609814608600,2.631608642578125,0.15738722681999207,-0.24279187619686127,0.16465525329113007
1772458609824676600,2.641676513671875,0.1302940845489502,-0.2883596122264862,0.12073733657598495
1772458609834744600,2.65174462890625,0.08787152916193008,-0.3483436107635498,0.07666175812482834
1772458609844812500,2.6618125,0.025547703728079796,-0.3772412836551666,0.04277489334344864
1772458609854880500,2.671880615234375,-0.05812641978263855,-0.3525727093219757,0.024651549756526947
1772458609864948500,2.681948486328125,-0.13890649378299713,-0.26475122570991516,0.026392990723252296
1772458609875016400,2.692016357421875,-0.21121130883693695,-0.13614772260189056,0.05092043802142143
1772458609885084700,2.702084716796875,-0.2554895579814911,-0.0487465001642704,0.08104585111141205
1772458609895152600,2.712152587890625,-0.2758001685142517,0.023935426026582718,0.10322412103414536
1772458609905220600,2.722220703125,-0.2742246389389038,0.12473048269748688,0.11642381548881531
1772458609915288600,2.73228857421875,-0.26335227489471436,0.21490857005119324,0.10013698786497116
1772458609925356500,2.7423564453125,-0.2585900127887726,0.21783991158008575,0.025469940155744553
1772458609935424500,2.752424560546875,-0.28070464730262756,0.08971337229013443,-0.1071791872382164
1772458609945491500,2.762491455078125,-0.3333318829536438,-0.15002864599227905,-0.31086280941963196
1772458609955559400,2.772559326171875,-0.4224998652935028,-0.4327538311481476,-0.534220814704895
1772458609965627600,2.782627685546875,-0.5239942669868469,-0.6617734432220459,-0.7289612293243408
1772458609975695600,2.792695556640625,-0.6089296340942383,-0.7307018637657166,-0.8679004907608032
1772458609985763600,2.802763671875,-0.6641127467155457,-0.6915965676307678,-0.9350553154945374
1772458609995831600,2.81283154296875,-0.6931427717208862,-0.5493478178977966,-0.8940697908401489
1772458610005899800,2.822899658203125,-0.6996643543243408,-0.31468522548675537,-0.7531470060348511
1772458610015967500,2.832967529296875,-0.6853474378585815,-0.030462568625807762,-0.5251021385192871
1772458610026035500,2.843035400390625,-0.6447073817253113,0.2599583566188812,-0.24440442025661469
1772458610036103400,2.853103515625,-0.572475254535675,0.46142542362213135,0.03494573384523392
1772458610046171600,2.863171630859375,-0.4728735387325287,0.5496410131454468,0.28217601776123047
1772458610056239600,2.873239501953125,-0.372015118598938,0.575542688369751,0.47126126289367676
1772458610066307600,2.8833076171875,-0.2727130055427551,0.5597213506698608,0.5929203033447266
1772458610076375600,2.89337548828125,-0.1728053241968155,0.504486620426178,0.6454783082008362
1772458610086443800,2.90344384765625,-0.07308059930801392,0.43935471773147583,0.6507495045661926
1772458610096511500,2.913511474609375,0.03675162419676781,0.35905829071998596,0.6077964901924133
1772458610106579500,2.923579345703125,0.14353932440280914,0.278620183467865,0.5438795685768127
1772458610116647400,2.9336474609375,0.2566927671432495,0.1761726289987564,0.47044020891189575
1772458610126715600,2.943715576171875,0.3558957874774933,0.02538738213479519,0.38704413175582886
1772458610136783600,2.95378369140625,0.43828627467155457,-0.17168201506137848,0.2923479676246643
1772458610146851600,2.9638515625,0.48530837893486023,-0.43392083048820496,0.17933380603790283
1772458610156919600,2.97391943359375,0.48769670724868774,-0.7737084627151489,0.019168633967638016
1772458610166987800,2.98398779296875,0.4526068866252899,-1.1071429252624512,-0.16582998633384705
1772458610177055500,2.994055419921875,0.3754764199256897,-1.3311946392059326,-0.3476618230342865
1772458610187123500,3.00412353515625,0.27050819993019104,-1.400651454925537,-0.48919445276260376
1772458610197191400,3.01419140625,0.15061454474925995,-1.2791599035263062,-0.5376424193382263
1772458610207259600,3.024259765625,0.019086342304944992,-0.9989245533943176,-0.5063713192939758
1772458610217327600,3.03432763671875,-0.09083696454763412,-0.6355061531066895,-0.4202825129032135
1772458610227395600,3.0443955078125,-0.161166250705719,-0.2641504108905792,-0.31778863072395325
1772458610237463600,3.054463623046875,-0.2006702572107315,-0.009211341850459576,-0.25793778896331787
1772458610247531800,3.06453173828125,-0.22209325432777405,0.12366042286157608,-0.2521608769893646
1772458610257598700,3.0745986328125,-0.22888538241386414,0.22395800054073334,-0.2647203505039215
1772458610267666700,3.084666748046875,-0.22799508273601532,0.31076666712760925,-0.27376362681388855
1772458610277734400,3.094734375,-0.21080517768859863,0.38233858346939087,-0.2607807219028473
1772458610287802400,3.10480224609375,-0.1763092577457428,0.4151015877723694,-0.23510092496871948
1772458610297870600,3.11487060546875,-0.1259901523590088,0.4109419882297516,-0.18726550042629242
1772458610307938600,3.1249384765625,-0.06471587717533112,0.38282087445259094,-0.11452498286962509
1772458610318006500,3.135006591796875,-0.006746852304786444,0.3410569131374359,-0.030588535591959953
1772458610328074500,3.145074462890625,0.04068085178732872,0.30174520611763,0.06154858320951462
1772458610338142700,3.155142822265625,0.08328929543495178,0.28094378113746643,0.15096527338027954
1772458610348210700,3.165210693359375,0.12149127572774887,0.26164573431015015,0.22997727990150452
1772458610358278400,3.1752783203125,0.14549541473388672,0.22724567353725433,0.29717522859573364
1772458610368346400,3.185346435546875,0.16728432476520538,0.17353424429893494,0.3364643156528473
1772458610378414600,3.19541455078125,0.1814717948436737,0.10832993686199188,0.35836559534072876
1772458610388482600,3.205482666015625,0.20001883804798126,0.06387964636087418,0.3692190647125244
1772458610398550500,3.215550537109375,0.21837840974330902,0.04059989005327225,0.3597848117351532
1772458610408618500,3.225618408203125,0.2317645251750946,0.05275322496891022,0.3271632194519043
1772458610418686700,3.235686767578125,0.23474939167499542,0.09052270650863647,0.2684093415737152
1772458610428754700,3.245754638671875,0.2396080642938614,0.12509426474571228,0.18435172736644745
1772458610438822400,3.255822509765625,0.25992345809936523,0.14821822941303253,0.0901687741279602
1772458610448890600,3.265890625,0.29157939553260803,0.14796549081802368,-0.02322196587920189
1772458610458958600,3.27595849609375,0.3308626115322113,0.12638457119464874,-0.1471998393535614
1772458610469026600,3.286026611328125,0.3785931169986725,0.11485201865434647,-0.27277132868766785
1772458610479094500,3.296094482421875,0.42596301436424255,0.08228714764118195,-0.3819713294506073
1772458610489162800,3.306162841796875,0.46873632073402405,0.03014698252081871,-0.47365811467170715
1772458610499230700,3.316230712890625,0.5143371224403381,-0.020802749320864677,-0.5289003252983093
1772458610509298000,3.3262978515625,0.571668803691864,-0.024231303483247757,-0.5184351801872253
1772458610519366100,3.3363662109375,0.6426588296890259,0.05234310030937195,-0.42183566093444824
1772458610529433900,3.346433837890625,0.7159757018089294,0.21117909252643585,-0.2402389645576477
1772458610539501800,3.356501708984375,0.7642849087715149,0.35969293117523193,-0.017519604414701462
1772458610549569800,3.36656982421875,0.7770483493804932,0.4345972537994385,0.2106858640909195
1772458610559638000,3.376637939453125,0.7518436312675476,0.4324294328689575,0.3846041262149811
1772458610569705000,3.386705078125,0.691500186920166,0.34860432147979736,0.46834272146224976
1772458610579773000,3.39677294921875,0.580107569694519,0.13080008327960968,0.4215666651725769
1772458610589841000,3.4068408203125,0.4329458475112915,-0.1643649786710739,0.27728432416915894
1772458610599908900,3.416908935546875,0.295879065990448,-0.4455457925796509,0.09473183751106262
1772458610609977000,3.42697705078125,0.20642800629138947,-0.5668519735336304,-0.03172437474131584
1772458610620045000,3.437045166015625,0.1392042338848114,-0.5292590260505676,-0.08047167211771011
1772458610630112800,3.44711279296875,0.09426072239875793,-0.3850401043891907,-0.04829802364110947
1772458610640180700,3.4571806640625,0.08431168645620346,-0.1990491896867752,0.06017225980758667
1772458610650249000,3.4672490234375,0.10793951898813248,-0.034681014716625214,0.20859049260616302
1772458610660317000,3.47731689453125,0.149264857172966,0.08517667651176453,0.3832893371582031
1772458610670385000,3.487385009765625,0.1835639625787735,0.17281758785247803,0.557536780834198
1772458610680453000,3.497453125,0.20646528899669647,0.2055012285709381,0.7178246974945068
1772458610690521000,3.50752099609375,0.20736117660999298,0.205434650182724,0.8399229049682617
1772458610700589000,3.517589111328125,0.19302165508270264,0.19004583358764648,0.9312525391578674
1772458610710656800,3.52765673828125,0.1700092852115631,0.17538860440254211,0.9782443046569824
1772458610720725000,3.53772509765625,0.14272892475128174,0.16743452847003937,0.9791114330291748
1772458610730793000,3.54779296875,0.10982876271009445,0.1417131870985031,0.9416367411613464
1772458610740861000,3.55786083984375,0.06316911429166794,0.11709732562303543,0.852070152759552
1772458610750929000,3.567928955078125,0.017536649480462074,0.1144980862736702,0.730435311794281
1772458610760997000,3.5779970703125,-0.019893281161785126,0.12119513750076294,0.5668311715126038
1772458610771065000,3.588065185546875,-0.04577973857522011,0.13427338004112244,0.3699423670768738
1772458610781133000,3.598133056640625,-0.05420944094657898,0.11623632907867432,0.15378530323505402
1772458610791200800,3.60820068359375,-0.04614539071917534,0.05426803231239319,-0.08537162095308304
1772458610801269000,3.61826904296875,-0.020862936973571777,-0.04842345789074898,-0.3081551790237427
1772458610811337000,3.6283369140625,-0.004730306565761566,-0.15210777521133423,-0.5059875249862671
1772458610821405000,3.638405029296875,-0.014161624945700169,-0.26761093735694885,-0.6676923036575317
1772458610831473000,3.648472900390625,-0.042704321444034576,-0.3762900233268738,-0.8173555731773376
1772458610841541000,3.658541015625,-0.08724169433116913,-0.44297850131988525,-0.9496403336524963
1772458610851609000,3.668609130859375,-0.12566950917243958,-0.47783368825912476,-1.0465784072875977
1772458610861677000,3.678677001953125,-0.17033284902572632,-0.43283024430274963,-1.0861324071884155
1772458610871744800,3.688744873046875,-0.21553415060043335,-0.3154919147491455,-1.0580118894577026
1772458610881813000,3.69881298828125,-0.25094619393348694,-0.1568596512079239,-0.981792688369751
1772458610891881000,3.708880859375,-0.258635014295578,0.005222725216299295,-0.8724084496498108
1772458610901948000,3.718947998046875,-0.24045947194099426,0.12263190746307373,-0.7613878846168518
1772458610912016000,3.729015869140625,-0.1940176784992218,0.18064221739768982,-0.661780059337616
1772458610922083800,3.739083740234375,-0.12896810472011566,0.18273092806339264,-0.584963858127594
1772458610932152000,3.749152099609375,-0.060994911938905716,0.15235544741153717,-0.5178857445716858
1772458610942220000,3.759219970703125,-0.0017664746847003698,0.11779853701591492,-0.44426533579826355
1772458610952288000,3.7692880859375,0.05006689578294754,0.06908133625984192,-0.3615337014198303
1772458610962356000,3.77935595703125,0.08144239336252213,-0.004545749630779028,-0.2687648832798004
1772458610972424000,3.789423828125,0.09857850521802902,-0.0769278034567833,-0.17633002996444702
1772458610982492000,3.799491943359375,0.10668889433145523,-0.11320964246988297,-0.09403275698423386
1772458610992559900,3.809559814453125,0.11411112546920776,-0.09171207994222641,-0.025303492322564125
1772458611002627800,3.8196279296875,0.12542769312858582,-0.024322116747498512,0.03238829970359802
1772458611012696000,3.829696044921875,0.1441100388765335,0.0435088612139225,0.08382859081029892
1772458611022764000,3.839763916015625,0.16043388843536377,0.08518120646476746,0.12880538403987885
1772458611032832000,3.84983203125,0.17639048397541046,0.08841241896152496,0.17082473635673523
1772458611042900000,3.85989990234375,0.19183307886123657,0.05053428187966347,0.20770898461341858
1772458611052968000,3.869968017578125,0.20930156111717224,-0.003938815090805292,0.23916970193386078
1772458611063036000,3.880035888671875,0.2241196483373642,-0.06292010843753815,0.2660798728466034
1772458611073104000,3.890103759765625,0.23328518867492676,-0.11717136204242706,0.27286747097969055
1772458611083171800,3.900171875,0.23797979950904846,-0.16614636778831482,0.2588621973991394
1772458611093240000,3.910239990234375,0.23911485075950623,-0.19922707974910736,0.22971788048744202
1772458611103308000,3.92030810546875,0.23668524622917175,-0.20738327503204346,0.1982976347208023
1772458611113376000,3.9303759765625,0.2264576405286789,-0.22076326608657837,0.163910910487175
1772458611123444000,3.94044384765625,0.20330704748630524,-0.2514881491661072,0.12541463971138
1772458611133512000,3.950511962890625,0.16523689031600952,-0.2587710916996002,0.08256278932094574
1772458611143580000,3.960579833984375,0.12009871006011963,-0.19517216086387634,0.051901012659072876
1772458611153647900,3.97064794921875,0.0772404596209526,-0.1065773069858551,0.029880400747060776
1772458611163715800,3.9807158203125,0.037827540189027786,-0.058268897235393524,-0.005276787560433149
1772458611173781800,3.99078173828125,0.00017683389887679368,-0.05169754847884178,-0.056110940873622894
1772458611183850000,4.00085009765625,-0.0417647585272789,-0.11850827187299728,-0.1332230418920517
1772458611193918000,4.01091796875,-0.09513796865940094,-0.2032463252544403,-0.22494976222515106
1772458611203986000,4.02098583984375,-0.16909821331501007,-0.2524160146713257,-0.3131696283817291
1772458611214054000,4.031053955078125,-0.2532320022583008,-0.2750059962272644,-0.3720231056213379
1772458611224122000,4.0411220703125,-0.329731822013855,-0.24614852666854858,-0.3898604214191437
1772458611234190000,4.051190185546875,-0.39291906356811523,-0.15839017927646637,-0.36608025431632996
1772458611244258000,4.061258056640625,-0.4250034987926483,-0.019236810505390167,-0.29945674538612366
1772458611254325800,4.07132568359375,-0.4443473517894745,0.1300613284111023,-0.22200456261634827
1772458611264394000,4.08139404296875,-0.44969871640205383,0.2382138967514038,-0.14827309548854828
1772458611274462000,4.0914619140625,-0.43466436862945557,0.3121531009674072,-0.08784916251897812
1772458611284530000,4.101530029296875,-0.39589008688926697,0.37530383467674255,-0.029018867760896683
1772458611294598000,4.111597900390625,-0.338061660528183,0.43190106749534607,0.040403082966804504
1772458611304666000,4.121666015625,-0.27012842893600464,0.45627567172050476,0.14110971987247467
1772458611314734000,4.131734130859375,-0.2027299404144287,0.44711199402809143,0.26493391394615173
1772458611324802000,4.141802001953125,-0.13458923995494843,0.4133593440055847,0.39210784435272217
1772458611334869800,4.151869873046875,-0.051720187067985535,0.35246962308883667,0.5054687857627869
1772458611344938000,4.16193798828125,0.04295412451028824,0.25959402322769165,0.588541567325592
1772458611355006000,4.172005859375,0.13647103309631348,0.1214129775762558,0.6298056244850159
1772458611365074000,4.182073974609375,0.2229318767786026,-0.051836833357810974,0.6371463537216187
1772458611375142000,4.192141845703125,0.28121304512023926,-0.23365004360675812,0.614545464515686
1772458611385210000,4.202210205078125,0.3124857246875763,-0.40028882026672363,0.5578305125236511
1772458611395278000,4.212278076171875,0.3230513036251068,-0.5517712831497192,0.4633721709251404
1772458611405345800,4.222345703125,0.30800363421440125,-0.6866379976272583,0.32758691906929016
1772458611415413800,4.232413818359375,0.2636851668357849,-0.8093602061271667,0.155040442943573
1772458611425481000,4.24248095703125,0.18909774720668793,-0.9084330201148987,-0.0339323990046978
1772458611435549000,4.252548828125,0.08942868560552597,-0.9618693590164185,-0.20929943025112152
1772458611445617000,4.262616943359375,-0.03326075151562691,-0.9280759692192078,-0.34500426054000854
1772458611455684900,4.272684814453125,-0.16411010921001434,-0.8092198371887207,-0.43513360619544983
1772458611465752800,4.2827529296875,-0.28440696001052856,-0.6167910099029541,-0.47868162393569946
1772458611475821000,4.292821044921875,-0.37701094150543213,-0.37683647871017456,-0.4841083586215973
1772458611485889000,4.302888916015625,-0.4383065104484558,-0.13215669989585876,-0.4726458489894867
1772458611495957000,4.31295703125,-0.4598890244960785,0.10727798938751221,-0.45612385869026184
1772458611506025000,4.32302490234375,-0.4461825489997864,0.299275666475296,-0.4515101909637451
1772458611516093000,4.333093017578125,-0.4198702573776245,0.4294581711292267,-0.44733887910842896
1772458611526161000,4.343160888671875,-0.38659724593162537,0.5051081776618958,-0.425287127494812
1772458611536228900,4.353228759765625,-0.3489505350589752,0.5354013442993164,-0.3871442675590515
1772458611546296800,4.363296875,-0.29409074783325195,0.5332884192466736,-0.33224213123321533
1772458611556365000,4.373364990234375,-0.23196345567703247,0.5013227462768555,-0.27166107296943665
1772458611566434800,4.383434814453125,-0.17317630350589752,0.43335968255996704,-0.21037986874580383
1772458611576503000,4.3935029296875,-0.1238793358206749,0.3324384093284607,-0.16954295337200165
1772458611586571000,4.403571044921875,-0.09041405469179153,0.22891786694526672,-0.12467588484287262
1772458611596638000,4.413637939453125,-0.07879707962274551,0.1501130610704422,-0.06917694211006165
1772458611606706000,4.423705810546875,-0.06345807015895844,0.10311546921730042,-0.013600231148302555
1772458611616774000,4.43377392578125,-0.045993056148290634,0.060383714735507965,0.034573156386613846
1772458611626842000,4.443842041015625,-0.020593425258994102,0.02412584237754345,0.058827631175518036
1772458611636910000,4.45391015625,0.009362342767417431,-0.0005089300684630871,0.06083086133003235
1772458611646977800,4.463977783203125,0.04567188024520874,0.01714995875954628,0.0456596314907074
1772458611657045800,4.474045654296875,0.08403924107551575,0.07304145395755768,0.032953955233097076
1772458611667114000,4.484114013671875,0.12443673610687256,0.12150885164737701,0.022232068702578545
1772458611677182000,4.494181884765625,0.16425178945064545,0.13267947733402252,0.015035408549010754
1772458611687250000,4.50425,0.19254735112190247,0.12546071410179138,0.009306682273745537
1772458611697318000,4.51431787109375,0.21985220909118652,0.10623855143785477,-0.004563060123473406
1772458611707386000,4.52438623046875,0.24167680740356445,0.09713827073574066,-0.016398681327700615
1772458611717454000,4.5344541015625,0.26341646909713745,0.07890253514051437,-0.03111211210489273
1772458611727521800,4.544521728515625,0.26715314388275146,0.05213004723191261,-0.05567444860935211
1772458611737589800,4.55458984375,0.2619466483592987,0.0076097166165709496,-0.07902504503726959
1772458611747658000,4.564657958984375,0.25290656089782715,-0.03139227628707886,-0.11044874787330627
1772458611757726000,4.574725830078125,0.24857865273952484,-0.0340125598013401,-0.12913161516189575
1772458611767794000,4.5847939453125,0.24739967286586761,0.026858512312173843,-0.11241602152585983
1772458611777862000,4.59486181640625,0.25160640478134155,0.12896597385406494,-0.0600564144551754
1772458611787930000,4.60493017578125,0.26968634128570557,0.2733694911003113,0.0388704352080822
1772458611797997800,4.614997802734375,0.30655407905578613,0.44096753001213074,0.17990319430828094
1772458611808065800,4.625065673828125,0.35475248098373413,0.6119241118431091,0.36541205644607544
1772458611818133800,4.6351337890625,0.3890705108642578,0.7123111486434937,0.5615163445472717
1772458611828202000,4.645201904296875,0.41825318336486816,0.6796621680259705,0.7275763750076294
1772458611838270000,4.65527001953125,0.43551763892173767,0.5637674927711487,0.85005784034729
1772458611848338000,4.665337890625,0.44438835978507996,0.4291415214538574,0.9071831703186035
1772458611858406000,4.675406005859375,0.4432794451713562,0.28063085675239563,0.9053956866264343
1772458611868474000,4.68547412109375,0.4308805465698242,0.1220707818865776,0.843268096446991
1772458611878541800,4.695541748046875,0.40301722288131714,-0.0847279354929924,0.7273609638214111
1772458611888609800,4.70560986328125,0.36434227228164673,-0.3479861915111542,0.5531830191612244
1772458611898677800,4.715677734375,0.306718111038208,-0.6238548159599304,0.3519708216190338
1772458611908746000,4.72574609375,0.22083677351474762,-0.8299770951271057,0.12212377786636353
1772458611918814000,4.73581396484375,0.1363152265548706,-0.9478011727333069,-0.07684125006198883
1772458611928882000,4.7458818359375,0.04506095126271248,-0.9532276391983032,-0.1914951354265213
1772458611938950100,4.7559501953125,-0.047149136662483215,-0.8291714787483215,-0.19879725575447083
1772458611949018000,4.76601806640625,-0.13862977921962738,-0.5588337182998657,-0.1019362211227417
1772458611959085800,4.7760859375,-0.2035597860813141,-0.2081737071275711,0.05402568355202675
1772458611969153800,4.78615380859375,-0.23907196521759033,0.1477268785238266,0.22262242436408997
1772458611979221000,4.796220947265625,-0.246921107172966,0.4106312096118927,0.3517497777938843
1772458611989289000,4.8062890625,-0.23625940084457397,0.5839694142341614,0.402614563703537
1772458611999357000,4.81635693359375,-0.2193235605955124,0.6682100296020508,0.3880484104156494
1772458612009425000,4.8264248046875,-0.18350563943386078,0.6394401788711548,0.30254122614860535
1772458612019492900,4.836492919921875,-0.14007481932640076,0.5424017310142517,0.18449874222278595
1772458612029561000,4.84656103515625,-0.10030263662338257,0.40303879976272583,0.03760729730129242
1772458612039629000,4.856629150390625,-0.06655798852443695,0.24804122745990753,-0.12285801023244858
1772458612049697000,4.866697021484375,-0.029283586889505386,0.11745072901248932,-0.2712344229221344
1772458612059764700,4.8767646484375,0.002286856295540929,0.020776119083166122,-0.38634905219078064
1772458612069833000,4.8868330078125,0.02262195572257042,-0.02177267335355282,-0.47260135412216187
1772458612079901000,4.89690087890625,0.03629409149289131,-0.017739316448569298,-0.5315080881118774
1772458612089969000,4.906968994140625,0.055203069001436234,0.014630341902375221,-0.5695478916168213
1772458612100036900,4.917036865234375,0.08215159177780151,0.04122946038842201,-0.5796681642532349
1772458612110105000,4.92710498046875,0.11221735179424286,0.031385354697704315,-0.5869455337524414
1772458612120173000,4.937173095703125,0.1376739740371704,0.015441806986927986,-0.5750345587730408
1772458612130241000,4.947240966796875,0.1506749987602234,0.018618425354361534,-0.5431471467018127
1772458612140308700,4.957308837890625,0.15158367156982422,0.05698232725262642,-0.492721289396286
1772458612150377000,4.967376953125,0.15240658819675446,0.10790196806192398,-0.4285566806793213
1772458612160445000,4.97744482421875,0.15071681141853333,0.13227681815624237,-0.37680506706237793
1772458612170513000,4.987512939453125,0.14889201521873474,0.12583328783512115,-0.34874227643013
1772458612180580900,4.997580810546875,0.15438930690288544,0.11660890281200409,-0.3325403928756714
1772458612190649000,5.007649169921875,0.16483129560947418,0.0978810265660286,-0.3354256749153137
1772458612200717000,5.017717041015625,0.17347271740436554,0.07210429012775421,-0.3441733419895172
1772458612210785000,5.027784912109375,0.18621088564395905,0.05222485587000847,-0.34501171112060547
1772458612220852700,5.037852783203125,0.2020236700773239,0.027961326763033867,-0.3302119970321655
1772458612230921000,5.0479208984375,0.2015341818332672,-0.004507932811975479,-0.2914150655269623
1772458612240989000,5.057989013671875,0.19081681966781616,-0.027423102408647537,-0.2324119359254837
1772458612251057000,5.068056884765625,0.17460961639881134,-0.032035697251558304,-0.16800737380981445
1772458612261124900,5.078124755859375,0.16041763126850128,-0.023082150146365166,-0.11246182769536972
1772458612271193000,5.088193115234375,0.15485988557338715,-0.01190859079360962,-0.06239999458193779
1772458612281261000,5.098260986328125,0.15217915177345276,-0.007858987897634506,-0.026386333629488945
1772458612291329000,5.1083291015625,0.14562325179576874,-0.020138291642069817,0.0034083134960383177
1772458612301396700,5.118396728515625,0.1426282525062561,-0.04812571778893471,0.026570357382297516
1772458612311465000,5.12846484375,0.13825081288814545,-0.06886907666921616,0.05041337385773659
1772458612321533000,5.138532958984375,0.1298714429140091,-0.07292161136865616,0.07129255682229996
1772458612331601000,5.148600830078125,0.1078588217496872,-0.05223044753074646,0.09881952404975891
1772458612341668900,5.1586689453125,0.08309515565633774,-0.02220357209444046,0.13214552402496338
1772458612351737000,5.168737060546875,0.05230847746133804,-0.01317865215241909,0.16723373532295227
1772458612361805000,5.17880517578125,0.023357786238193512,-0.040596961975097656,0.1996539831161499
1772458612371872000,5.1888720703125,-0.00626029260456562,-0.09689432382583618,0.20564743876457214
1772458612381940000,5.19893994140625,-0.029756831005215645,-0.18326915800571442,0.19022266566753387
1772458612392008000,5.209008056640625,-0.05915892869234085,-0.2818678915500641,0.15402445197105408
1772458612402076000,5.219075927734375,-0.10175565630197525,-0.37208834290504456,0.1045469120144844
1772458612412143900,5.229143798828125,-0.15144971013069153,-0.4126027524471283,0.04902320355176926
1772458612422211800,5.2392119140625,-0.1940288543701172,-0.39324450492858887,0.000761664065066725
1772458612432279800,5.24927978515625,-0.2295602262020111,-0.33323654532432556,-0.035781167447566986
1772458612442348000,5.25934814453125,-0.2574493885040283,-0.23181378841400146,-0.05804439261555672
1772458612452416000,5.269416015625,-0.27083683013916016,-0.08059151470661163,-0.04790733754634857
1772458612462484000,5.27948388671875,-0.26416853070259094,0.10843859612941742,-0.004067978356033564
1772458612472552000,5.289552001953125,-0.23524872958660126,0.1886221170425415,0.05540866404771805
1772458612482620000,5.299619873046875,-0.19016434252262115,0.14704804122447968,0.08798844367265701
1772458612492688000,5.30968798828125,-0.1432836651802063,0.0518227182328701,0.11715804785490036
1772458612502755800,5.319755859375,-0.09434381127357483,-0.10600872337818146,0.11694632470607758
1772458612512824600,5.329824462890625,-0.06431081146001816,-0.3543410301208496,0.05764598399400711
1772458612522892500,5.339892578125,-0.0627928078174591,-0.6401573419570923,-0.048106543719768524
1772458612532960500,5.34996044921875,-0.1087198257446289,-0.8614795804023743,-0.17853112518787384
1772458612543028500,5.360028564453125,-0.1836952567100525,-0.9409267902374268,-0.3139187693595886
1772458612553096400,5.370096435546875,-0.27493008971214294,-0.854099452495575,-0.4203389585018158
1772458612563164400,5.380164306640625,-0.37110430002212524,-0.6347045302391052,-0.47296249866485596
1772458612573232400,5.390232421875,-0.45477843284606934,-0.3140071928501129,-0.4659525156021118
1772458612583300400,5.40030029296875,-0.5119266510009766,0.05307893082499504,-0.4128032922744751
1772458612593368600,5.41036865234375,-0.5290156602859497,0.3740188777446747,-0.3282361924648285
1772458612603436500,5.4204365234375,-0.49930647015571594,0.5362623929977417,-0.240683451294899
1772458612613504500,5.43050439453125,-0.44264161586761475,0.5571697950363159,-0.13612908124923706
1772458612623572200,5.440572265625,-0.376687616109848,0.5178095698356628,-0.020504210144281387
1772458612633640400,5.450640380859375,-0.3023492097854614,0.4412650167942047,0.08637430518865585
1772458612643708400,5.46070849609375,-0.21916644275188446,0.3374946713447571,0.18052583932876587
1772458612653776400,5.4707763671875,-0.12957078218460083,0.2098589539527893,0.25490978360176086
1772458612663844400,5.48084423828125,-0.04752357676625252,0.061589859426021576,0.30438387393951416
1772458612673912600,5.49091259765625,0.012731241062283516,-0.10843726247549057,0.3342168629169464
1772458612683980500,5.50098046875,0.04272376000881195,-0.28023380041122437,0.342725932598114
1772458612694048500,5.511048583984375,0.03798919543623924,-0.4339093565940857,0.3172815442085266
1772458612704116200,5.5211162109375,0.011919243261218071,-0.538191556930542,0.2621770203113556
1772458612714184400,5.531184326171875,-0.04460848122835159,-0.5698195099830627,0.17355528473854065
1772458612724252400,5.54125244140625,-0.10622284561395645,-0.5539755821228027,0.06905603408813477
1772458612734320400,5.5513203125,-0.17057760059833527,-0.5110765695571899,-0.032770462334156036
1772458612744388400,5.561388427734375,-0.23764504492282867,-0.44584378600120544,-0.12393072992563248
1772458612754456600,5.57145654296875,-0.2943328320980072,-0.3471909761428833,-0.18990255892276764
1772458612764524500,5.581524658203125,-0.33556175231933594,-0.1958097219467163,-0.228841170668602
1772458612774592500,5.591592529296875,-0.36422136425971985,-0.015516108833253384,-0.2313685119152069
1772458612784660200,5.60166015625,-0.37753450870513916,0.17879904806613922,-0.20870473980903625
1772458612794728400,5.611728515625,-0.3834427297115326,0.3258303105831146,-0.1697126030921936
1772458612804795400,5.62179541015625,-0.3808722496032715,0.3988714814186096,-0.1251794844865799
1772458612814863400,5.63186328125,-0.3605304956436157,0.4234945476055145,-0.07548543810844421
1772458612824931300,5.641931396484375,-0.3323395848274231,0.4124687910079956,-0.011447598226368427
1772458612834999600,5.65199951171875,-0.3036632239818573,0.376644492149353,0.052628323435783386
1772458612845067500,5.662067626953125,-0.27354657649993896,0.31974658370018005,0.1067778468132019
1772458612855135500,5.672135498046875,-0.2364327758550644,0.2420341968536377,0.14719158411026
1772458612865203500,5.682203369140625,-0.18543244898319244,0.15469875931739807,0.168543741106987
1772458612875271700,5.692271728515625,-0.12977877259254456,0.08487920463085175,0.17256644368171692
1772458612885339400,5.70233935546875,-0.06874897330999374,0.04537387192249298,0.17705413699150085
1772458612895407400,5.712407470703125,-0.005879993550479412,0.04030667617917061,0.17613588273525238
1772458612905475300,5.722475341796875,0.055628642439842224,0.04151681810617447,0.17860010266304016
1772458612915543600,5.73254345703125,0.11512525379657745,0.039385754615068436,0.19237983226776123
1772458612925611500,5.742611572265625,0.16002695262432098,0.06329242140054703,0.2249409705400467
1772458612935679500,5.752679443359375,0.1961071938276291,0.08040855824947357,0.27871471643447876
1772458612945747500,5.76274755859375,0.2284424901008606,0.0957302525639534,0.3340331017971039
1772458612955815700,5.772815673828125,0.2504577934741974,0.10537489503622055,0.3777174651622772
1772458612965883400,5.78288330078125,0.2651387155056,0.09940221905708313,0.3946751356124878
1772458612975951400,5.792951416015625,0.2676894962787628,0.0876515582203865,0.38631734251976013
1772458612986019300,5.803019287109375,0.27262115478515625,0.06550443917512894,0.3534877598285675
1772458612996087600,5.813087646484375,0.28864750266075134,0.0282734502106905,0.31309372186660767
1772458613006155500,5.823155517578125,0.3271978199481964,0.009653160348534584,0.27605822682380676
1772458613016223500,5.833223388671875,0.3913523256778717,0.02015560120344162,0.259340763092041
1772458613026291500,5.84329150390625,0.47381576895713806,0.05176759138703346,0.26327982544898987
1772458613036359400,5.853359375,0.5665134787559509,0.11415133625268936,0.31299707293510437
1772458613046427400,5.863427490234375,0.6553208231925964,0.20349453389644623,0.3940567672252655
1772458613056495400,5.873495361328125,0.7206167578697205,0.2459447830915451,0.47486478090286255
1772458613066563300,5.883563232421875,0.761077344417572,0.18212851881980896,0.5063305497169495
1772458613076631600,5.893631591796875,0.7681763172149658,0.0015779229579493403,0.48005741834640503
1772458613086699500,5.903699462890625,0.7203009128570557,-0.2758622169494629,0.3944799304008484
1772458613096767500,5.913767578125,0.6130708456039429,-0.5812556743621826,0.25497424602508545
1772458613106835500,5.92383544921875,0.4599042236804962,-0.7979267239570618,0.1307809203863144
1772458613116903400,5.9339033203125,0.29940828680992126,-0.8770660161972046,0.038963112980127335
1772458613126971400,5.943971435546875,0.17512308061122894,-0.8382198214530945,-0.014453774318099022
1772458613137039400,5.954039306640625,0.09205615520477295,-0.7120413780212402,-0.008191084489226341
1772458613147107300,5.964107421875,0.03230920433998108,-0.5733559131622314,0.037872280925512314
1772458613157175600,5.974175537109375,-0.007544202730059624,-0.422261506319046,0.08972935378551483
1772458613167243500,5.984243408203125,-0.01631399244070053,-0.2552317678928375,0.12848366796970367
1772458613177311500,5.9943115234375,-0.007878961972892284,-0.09411664307117462,0.14914368093013763
1772458613187379500,6.00437939453125,0.010689661838114262,0.07917311787605286,0.1735329031944275
1772458613197447400,6.014447509765625,0.015841281041502953,0.286355584859848,0.2094762623310089
1772458613207515400,6.024515380859375,0.0008516788948327303,0.48058179020881653,0.23996306955814362
1772458613217583400,6.034583251953125,-0.031037278473377228,0.6383525133132935,0.28816333413124084
1772458613227651300,6.0446513671875,-0.05915652960538864,0.7424530982971191,0.3283435106277466
1772458613237718300,6.05471826171875,-0.08019869774580002,0.7903764247894287,0.361446350812912
1772458613247786500,6.064786376953125,-0.08274254947900772,0.7839965224266052,0.3717237412929535
1772458613257854500,6.0748544921875,-0.0727868527173996,0.7286965250968933,0.3478434681892395
1772458613267922400,6.08492236328125,-0.05228131264448166,0.6257134079933167,0.2801426947116852
1772458613277990400,6.094990478515625,-0.023134879767894745,0.49363023042678833,0.17893272638320923
1772458613288058600,6.10505859375,0.023180153220891953,0.30804091691970825,0.05538443103432655
1772458613298126300,6.115126220703125,0.07926233112812042,0.08932322263717651,-0.0857175663113594
1772458613308194300,6.1251943359375,0.14244183897972107,-0.11750265955924988,-0.22183358669281006
1772458613318262300,6.13526220703125,0.18510541319847107,-0.2892155647277832,-0.34491878747940063
1772458613328330500,6.14533056640625,0.20381490886211395,-0.4211520254611969,-0.4715065360069275
1772458613338398500,6.1553984375,0.20722828805446625,-0.5377529263496399,-0.5855790376663208
1772458613348466400,6.165466552734375,0.19322697818279266,-0.5936346054077148,-0.6715064644813538
1772458613358534400,6.175534423828125,0.14370283484458923,-0.5103783011436462,-0.6948410868644714
1772458613368602600,6.1856025390625,0.0709759071469307,-0.2879311144351959,-0.6473737359046936
1772458613378670300,6.19567041015625,-0.013518472202122211,0.024571388959884644,-0.5506075024604797
1772458613388738300,6.20573828125,-0.0823151096701622,0.340677410364151,-0.4348955452442169
1772458613398806300,6.21580615234375,-0.11552739143371582,0.5782915949821472,-0.338020920753479
1772458613408874500,6.22587451171875,-0.1044960469007492,0.7027810215950012,-0.27851206064224243
1772458613418942500,6.2359423828125,-0.05764598399400711,0.7541859149932861,-0.23723198473453522
1772458613429010400,6.246010498046875,-0.003936684690415859,0.7727542519569397,-0.2064138948917389
1772458613439078400,6.256078369140625,0.050934020429849625,0.7503150105476379,-0.19405682384967804
1772458613449146600,6.266146728515625,0.10425316542387009,0.6814371347427368,-0.18836058676242828
1772458613459214300,6.27621435546875,0.15632329881191254,0.5880597829818726,-0.1893845796585083
1772458613469282300,6.2862822265625,0.20509162545204163,0.47335609793663025,-0.1897134780883789
1772458613479350300,6.296350341796875,0.2401185929775238,0.3440588414669037,-0.19094891846179962
1772458613489418500,6.30641845703125,0.2635088562965393,0.23789484798908234,-0.1927119344472885
1772458613499486500,6.316486572265625,0.2722637355327606,0.15342125296592712,-0.19254760444164276
1772458613509554400,6.326554443359375,0.2691297233104706,0.09650922566652298,-0.18679438531398773
1772458613519622100,6.3366220703125,0.266066312789917,0.05594422668218613,-0.1769595891237259
1772458613529690400,6.3466904296875,0.27927932143211365,0.029388781636953354,-0.17112301290035248
1772458613539758000,6.356758056640625,0.29484042525291443,0.015341405756771564,-0.162155881524086
1772458613549826000,6.366825927734375,0.32464200258255005,-0.002804841147735715,-0.15079855918884277
1772458613559894000,6.37689404296875,0.3520347476005554,-0.02316550724208355,-0.1290530562400818
1772458613569962200,6.386962158203125,0.3640722334384918,-0.058577291667461395,-0.09312887489795685
1772458613580030200,6.3970302734375,0.3542686104774475,-0.11043543368577957,-0.04856540635228157
1772458613590098200,6.40709814453125,0.33118486404418945,-0.16828913986682892,0.0003451456723269075
1772458613600166100,6.417166259765625,0.2914164066314697,-0.2407449632883072,0.0399940200150013
1772458613610234400,6.427234375,0.24401026964187622,-0.3179350793361664,0.07064327597618103
1772458613620302000,6.437302001953125,0.17768371105194092,-0.3724422752857208,0.09152725338935852
1772458613630370000,6.4473701171875,0.10384277254343033,-0.3728635907173157,0.09964882582426071
1772458613640438000,6.45743798828125,0.02196948044002056,-0.3124210238456726,0.10310108214616776
1772458613650506200,6.46750634765625,-0.05030631273984909,-0.21127921342849731,0.10965406149625778
1772458613660574200,6.47757421875,-0.11116433888673782,-0.08678735792636871,0.11682622134685516
1772458613670642200,6.48764208984375,-0.1597377359867096,0.0599307119846344,0.12589481472969055
1772458613680710100,6.497710205078125,-0.17239972949028015,0.20049767196178436,0.13742230832576752
1772458613690778400,6.5077783203125,-0.16107170283794403,0.2852669060230255,0.14906485378742218
1772458613700846000,6.51784619140625,-0.1318105012178421,0.2924547791481018,0.15405747294425964
1772458613710913300,6.527913330078125,-0.08710001409053802,0.26870203018188477,0.15360048413276672
1772458613720981200,6.537981201171875,-0.03700409084558487,0.2126568704843521,0.14467355608940125
1772458613731049200,6.54804931640625,0.021579859778285027,0.10648569464683533,0.1262599378824234
1772458613741117200,6.5581171875,0.07218924164772034,-0.06800062209367752,0.07635602355003357
1772458613751185200,6.56818505859375,0.10748198628425598,-0.34711188077926636,-0.015410381369292736
1772458613761253000,6.578253173828125,0.10513573884963989,-0.6900620460510254,-0.16184376180171967
1772458613771321300,6.5883212890625,0.05664330720901489,-0.9888735413551331,-0.341046005487442
1772458613781389300,6.598389404296875,-0.02799062244594097,-1.1851913928985596,-0.5151150226593018
1772458613791457300,6.608457275390625,-0.13073857128620148,-1.2492494583129883,-0.6483350992202759
1772458613801525000,6.61852490234375,-0.2291295826435089,-1.1437379121780396,-0.7153825759887695
1772458613811593200,6.62859326171875,-0.32686173915863037,-0.8450713157653809,-0.6910902857780457
1772458613821661200,6.6386611328125,-0.3969297707080841,-0.4091843068599701,-0.6039702892303467
1772458613831729200,6.648729248046875,-0.4324270486831665,0.0675249844789505,-0.4776054620742798
1772458613841797000,6.658797119140625,-0.4208417534828186,0.4342329502105713,-0.35485368967056274
1772458613851865300,6.668865234375,-0.37502342462539673,0.6129534244537354,-0.25567543506622314
1772458613861933300,6.678933349609375,-0.31456005573272705,0.6451659202575684,-0.19351300597190857
1772458613872001300,6.689001220703125,-0.23770150542259216,0.5729005336761475,-0.1528358906507492
1772458613882069000,6.699069091796875,-0.1444282829761505,0.43137750029563904,-0.11477825045585632
1772458613892137200,6.70913720703125,-0.04326198622584343,0.23928235471248627,-0.05969715118408203
1772458613902205200,6.719205078125,0.06473958492279053,0.004150536376982927,0.00022157499915920198
1772458613912273200,6.729273193359375,0.1683695763349533,-0.24773629009723663,0.06013497710227966
1772458613922341000,6.739341064453125,0.25163063406944275,-0.48646125197410583,0.10924313217401505
1772458613932409300,6.749409423828125,0.291582852602005,-0.6943103075027466,0.14669623970985413
1772458613942477300,6.759477294921875,0.2857491970062256,-0.8549377918243408,0.16539321839809418
1772458613952545300,6.769545166015625,0.24502147734165192,-0.968479573726654,0.14068734645843506
1772458613962613000,6.779613037109375,0.17133685946464539,-1.013240933418274,0.08548454195261002
1772458613972681200,6.78968115234375,0.06643494963645935,-0.9694454669952393,0.0031819448340684175
1772458613982749200,6.799749267578125,-0.06927760690450668,-0.8362959623336792,-0.07293359190225601
1772458613992817200,6.809817138671875,-0.22085142135620117,-0.6217900514602661,-0.14027747511863708
1772458614002885000,6.819885009765625,-0.35590511560440063,-0.36702805757522583,-0.200170636177063
1772458614012953300,6.829953369140625,-0.4511416256427765,-0.07204277068376541,-0.26836299896240234
1772458614023021300,6.840021240234375,-0.5104424953460693,0.2376682162284851,-0.3182101845741272
1772458614033089300,6.85008935546875,-0.5309221744537354,0.4974502623081207,-0.35367098450660706
1772458614043157000,6.860156982421875,-0.5257990956306458,0.687546968460083,-0.37299513816833496
1772458614053225200,6.87022509765625,-0.5047031044960022,0.8123887777328491,-0.3592718839645386
1772458614063293200,6.880293212890625,-0.4691195487976074,0.885033130645752,-0.3287472724914551
1772458614073361200,6.890361083984375,-0.4341176152229309,0.9036417007446289,-0.29175248742103577
1772458614083429000,6.90042919921875,-0.3912689685821533,0.8685681223869324,-0.252769410610199
1772458614093497300,6.910497314453125,-0.33564138412475586,0.7823398113250732,-0.21111330389976501
1772458614103565300,6.9205654296875,-0.28272250294685364,0.6639372110366821,-0.17485277354717255
1772458614113633300,6.93063330078125,-0.22147352993488312,0.5066000819206238,-0.14836497604846954
1772458614123701000,6.940700927734375,-0.16175107657909393,0.31855347752571106,-0.1303526759147644
1772458614133769200,6.950769287109375,-0.10498686879873276,0.14598383009433746,-0.12128514796495438
1772458614143837200,6.960837158203125,-0.052257876843214035,0.030972562730312347,-0.10747479647397995
1772458614153905200,6.9709052734375,0.0009946906939148903,-0.021199561655521393,-0.08335800468921661
1772458614163972000,6.98097216796875,0.04264546558260918,-0.018440792337059975,-0.0587242990732193
1772458614174040000,6.9910400390625,0.09652121365070343,0.009003881365060806,-0.025624936446547508
1772458614184108300,7.0011083984375,0.15340180695056915,0.03315608948469162,0.002406432293355465
1772458614194176300,7.01117626953125,0.21680980920791626,0.06940730661153793,0.028360800817608833
1772458614204244200,7.021244140625,0.2802926301956177,0.11301683634519577,0.05625288560986519
1772458614214312200,7.031312255859375,0.33342963457107544,0.15015994012355804,0.08802572637796402
1772458614224380200,7.041380126953125,0.37476029992103577,0.17037919163703918,0.12276133894920349
1772458614234448100,7.0514482421875,0.4058646857738495,0.17424237728118896,0.16129381954669952
1772458614244516000,7.06151611328125,0.41836583614349365,0.16217133402824402,0.19216811656951904
1772458614254584300,7.071584228515625,0.40441593527793884,0.13941088318824768,0.20920008420944214
1772458614264652300,7.08165234375,0.3679921329021454,0.10606677830219269,0.20284898579120636
1772458614274720300,7.09172021484375,0.3168988525867462,0.07218658179044724,0.18625162541866302
1772458614284788200,7.101788330078125,0.26576775312423706,0.06529165804386139,0.16524913907051086
1772458614294856200,7.111856201171875,0.226673886179924,0.07613711059093475,0.15344920754432678
1772458614304924200,7.121924072265625,0.2182641625404358,0.1220630556344986,0.15744315087795258
1772458614314992000,7.1319921875,0.24778848886489868,0.19398917257785797,0.18920721113681793
1772458614325060000,7.14206005859375,0.311680406332016,0.2955123484134674,0.25551512837409973
1772458614335128300,7.15212841796875,0.3953007161617279,0.39004871249198914,0.3565024733543396
1772458614345196300,7.1621962890625,0.47540780901908875,0.4635269045829773,0.46959438920021057
1772458614355264300,7.17226416015625,0.5375380516052246,0.5086365938186646,0.5578856468200684
1772458614365332200,7.182332275390625,0.5820234417915344,0.4952528774738312,0.5896222591400146
1772458614375400200,7.192400146484375,0.5976394414901733,0.43795445561408997,0.567324697971344
1772458614385468200,7.20246826171875,0.582188606262207,0.3348653316497803,0.502112627029419
1772458614395536100,7.2125361328125,0.5388203263282776,0.14976206421852112,0.4017711281776428
1772458614405604000,7.22260400390625,0.47545042634010315,-0.14431403577327728,0.28317925333976746
1772458614415672300,7.23267236328125,0.3789960443973541,-0.47845393419265747,0.12706634402275085
1772458614425740300,7.242740234375,0.2460840791463852,-0.6530358791351318,0.017004815861582756
1772458614435808300,7.252808349609375,0.11065220832824707,-0.7070852518081665,-0.028328044340014458
1772458614445876200,7.262876220703125,-0.009870740585029125,-0.6558361649513245,-0.010747719556093216
1772458614455944200,7.272944091796875,-0.10392693430185318,-0.529893696308136,0.05860579013824463
1772458614466012200,7.28301220703125,-0.15893904864788055,-0.34014612436294556,0.17625625431537628
1772458614476080000,7.293080078125,-0.16647793352603912,-0.09334539622068405,0.33404481410980225
1772458614486148000,7.303148193359375,-0.14108309149742126,0.14962570369243622,0.49109169840812683
1772458614496216300,7.31321630859375,-0.1074841171503067,0.3206951916217804,0.5920625329017639
1772458614506284300,7.3232841796875,-0.07870306819677353,0.3875543773174286,0.6233242750167847
1772458614516352800,7.333352783203125,-0.06112487241625786,0.4073006510734558,0.5855995416641235
1772458614526420500,7.34342041015625,-0.04138712212443352,0.4088146686553955,0.5185816287994385
1772458614536488700,7.35348876953125,-0.027472371235489845,0.4070873260498047,0.4512803554534912
1772458614546556700,7.363556640625,-0.01810683123767376,0.36308711767196655,0.3673553764820099
1772458614556624600,7.373624755859375,-0.0019323896849527955,0.2645304501056671,0.25810346007347107
1772458614566692600,7.383692626953125,0.02581295557320118,0.14130039513111115,0.12698911130428314
1772458614576760800,7.3937607421875,0.0687476396560669,-0.0003043993201572448,-0.024203339591622353
1772458614586828800,7.403828857421875,0.11603206396102905,-0.12702105939388275,-0.18604789674282074
1772458614596896800,7.413896728515625,0.15668095648288727,-0.2317243069410324,-0.32877495884895325
1772458614606964500,7.423964599609375,0.16874641180038452,-0.3416723906993866,-0.46275219321250916
1772458614617032700,7.43403271484375,0.15422046184539795,-0.4259031116962433,-0.5842069983482361
1772458614627100700,7.4441005859375,0.128474622964859,-0.46514397859573364,-0.6842238903045654
1772458614637168600,7.454168701171875,0.08733277767896652,-0.4205735921859741,-0.7368905544281006
1772458614647235600,7.464235595703125,0.041724808514118195,-0.3006618320941925,-0.7222945690155029
1772458614657303800,7.4743037109375,-0.004307130351662636,-0.1230044886469841,-0.6527716517448425
1772458614667371800,7.484371826171875,-0.05494527518749237,0.07773926854133606,-0.5485267639160156
1772458614677439700,7.494439697265625,-0.09873136878013611,0.26493126153945923,-0.4304019808769226
1772458614687507700,7.5045078125,-0.12060577422380447,0.3903405964374542,-0.33326345682144165
1772458614697575700,7.51457568359375,-0.11382003873586655,0.44918498396873474,-0.25876763463020325
1772458614707643600,7.5246435546875,-0.07869108021259308,0.4535943865776062,-0.21151171624660492
1772458614717711600,7.534711669921875,-0.03743765130639076,0.42210516333580017,-0.19629894196987152
1772458614727779600,7.544779541015625,0.0033249566331505775,0.3451584577560425,-0.21050876379013062
1772458614737847800,7.554847900390625,0.056705355644226074,0.23500825464725494,-0.23242977261543274
1772458614747915800,7.564915771484375,0.11258939653635025,0.13363155722618103,-0.24656930565834045
1772458614757983700,7.574983642578125,0.16373567283153534,0.060076918452978134,-0.23664343357086182
1772458614768051700,7.5850517578125,0.19168901443481445,0.022758575156331062,-0.19790615141391754
1772458614778119700,7.59511962890625,0.2029975950717926,0.024214791133999825,-0.13181449472904205
1772458614788187600,7.605187744140625,0.19766859710216522,0.025301361456513405,-0.05920713022351265
1772458614798255600,7.615255615234375,0.1792517751455307,0.00538491178303957,0.013236177153885365
1772458614808323600,7.625323486328125,0.16387894749641418,-0.031374167650938034,0.07000891119241714
1772458614818391800,7.635391845703125,0.15325666964054108,-0.07949215918779373,0.11040586978197098
1772458614828459800,7.645459716796875,0.1470016986131668,-0.1233309879899025,0.12922748923301697
1772458614838527700,7.65552783203125,0.14694230258464813,-0.1573597937822342,0.13916774094104767
1772458614848595700,7.665595703125,0.15447773039340973,-0.17803044617176056,0.13627715408802032
1772458614858663700,7.67566357421875,0.15454430878162384,-0.20245350897312164,0.1253185123205185
1772458614868731600,7.685731689453125,0.1471305936574936,-0.23539148271083832,0.11202426999807358
1772458614878799600,7.695799560546875,0.1285121738910675,-0.2725721299648285,0.09347375482320786
1772458614888867600,7.70586767578125,0.10549446940422058,-0.298491895198822,0.07110879570245743
1772458614898935800,7.715935791015625,0.07938350737094879,-0.29506412148475647,0.04469610005617142
1772458614909003800,7.726003662109375,0.04122307151556015,-0.2631288468837738,0.02413436397910118
1772458614919071700,7.73607177734375,-0.0008916263468563557,-0.19309541583061218,0.012703810818493366
1772458614929139700,7.7461396484375,-0.05324005335569382,-0.09697927534580231,0.013684919103980064
1772458614939207700,7.756207763671875,-0.10631365329027176,0.0006759102689102292,0.02611895278096199
1772458614949275600,7.766275634765625,-0.1602562516927719,0.08947368711233139,0.047379765659570694
1772458614959343600,7.776343505859375,-0.19450423121452332,0.18499940633773804,0.09188491851091385
1772458614969411600,7.78641162109375,-0.199402317404747,0.23653237521648407,0.14103782176971436
1772458614979479800,7.796479736328125,-0.19049271941184998,0.21526090800762177,0.15628626942634583
1772458614989547800,7.8065478515625,-0.16817861795425415,0.13922074437141418,0.1356094926595688
1772458614999615700,7.81661572265625,-0.14030463993549347,0.03099147230386734,0.10323770344257355
1772458615009683700,7.82668359375,-0.12009018659591675,-0.08668722212314606,0.07429580390453339
1772458615019751700,7.836751708984375,-0.12166491895914078,-0.18367183208465576,0.05337587371468544
1772458615029819600,7.846819580078125,-0.14036457240581512,-0.24031007289886475,0.02617860771715641
1772458615039887600,7.8568876953125,-0.1644057184457779,-0.25898388028144836,-0.024037692695856094
1772458615049955600,7.86695556640625,-0.18910494446754456,-0.24598313868045807,-0.09490413963794708
1772458615060023800,7.87702392578125,-0.211897075176239,-0.24501322209835052,-0.19558387994766235
1772458615070091800,7.887091796875,-0.241169735789299,-0.26022014021873474,-0.32021528482437134
1772458615080159700,7.89715966796875,-0.2636350989341736,-0.2640710473060608,-0.4400516748428345
1772458615090226700,7.907226806640625,-0.2804313898086548,-0.20907625555992126,-0.5309999585151672
1772458615100294700,7.917294677734375,-0.2952630817890167,-0.13135482370853424,-0.5891335606575012
1772458615110363000,7.92736279296875,-0.30153053998947144,-0.020289026200771332,-0.5923698544502258
1772458615120430600,7.9374306640625,-0.2962242066860199,0.11545362323522568,-0.546332597732544
1772458615130498600,7.94749853515625,-0.2659328877925873,0.25439420342445374,-0.4572865962982178
1772458615140566500,7.95756640625,-0.20820966362953186,0.361299604177475,-0.31904137134552
1772458615150634800,7.967634765625,-0.15274187922477722,0.39787864685058594,-0.15866661071777344
1772458615160702700,7.97770263671875,-0.11071106791496277,0.36535054445266724,0.006126335822045803
1772458615170770700,7.987770751953125,-0.08092787116765976,0.27608218789100647,0.15309686958789825
1772458615180837600,7.997837646484375,-0.051964931190013885,0.14729997515678406,0.26221564412117004
1772458615190905900,8.00790576171875,-0.012661200016736984,-0.011606056243181229,0.31878864765167236
1772458615200973800,8.017973876953125,0.023779097944498062,-0.17670632898807526,0.3235948383808136
1772458615211041800,8.028041748046874,0.05023547261953354,-0.30973201990127563,0.28845176100730896
1772458615221109500,8.038109619140625,0.062977634370327,-0.3782367706298828,0.22200296819210052
1772458615231177700,8.048177734375,0.06054963171482086,-0.38537779450416565,0.13288934528827667
1772458615241245700,8.05824560546875,0.03605573996901512,-0.3579602837562561,0.037215277552604675
1772458615251313700,8.068313720703125,-0.01667485013604164,-0.31893378496170044,-0.048528652638196945
1772458615261381600,8.078381591796875,-0.08822280168533325,-0.2506495416164398,-0.1340707242488861
1772458615271449900,8.088449951171874,-0.15224014222621918,-0.1458355039358139,-0.20204471051692963
1772458615281517800,8.098517822265626,-0.2008199244737625,-0.008562062866985798,-0.24532826244831085
1772458615291585800,8.108585693359375,-0.22943851351737976,0.14541205763816833,-0.25980493426322937
1772458615301653500,8.118653564453124,-0.23649641871452332,0.285717248916626,-0.2592124044895172
1772458615311721700,8.1287216796875,-0.2277924120426178,0.37560370564460754,-0.21684736013412476
1772458615321789700,8.138789794921875,-0.21014870703220367,0.40846818685531616,-0.15581436455249786
1772458615331856600,8.148856689453124,-0.20215736329555511,0.38182273507118225,-0.0817907378077507
1772458615341924600,8.158924560546875,-0.17970958352088928,0.3285456597805023,-0.005013400688767433
1772458615351992600,8.16899267578125,-0.16061817109584808,0.2558133900165558,0.06115124002099037
1772458615362060800,8.179060791015624,-0.13521108031272888,0.18709079921245575,0.10977443307638168
1772458615372128800,8.189128662109376,-0.11318940669298172,0.1215064600110054,0.13973739743232727
1772458615382196700,8.19919677734375,-0.10287684947252274,0.05564381927251816,0.1430535614490509
1772458615392264700,8.2092646484375,-0.09539869427680969,-0.0009954896522685885,0.12957796454429626
1772458615402332700,8.219332763671876,-0.08550238609313965,-0.0190820824354887,0.10051649063825607
1772458615412400600,8.229400634765625,-0.07591953128576279,-0.019950805231928825,0.06935536861419678
1772458615422468600,8.239468505859374,-0.07388301193714142,0.0018572885310277343,0.029866818338632584
1772458615432536600,8.24953662109375,-0.07515999674797058,0.036367595195770264,-0.020677581429481506
1772458615442604800,8.259604736328125,-0.07084301114082336,0.0766013041138649,-0.07535121589899063
1772458615452672800,8.2696728515625,-0.05889607220888138,0.11948591470718384,-0.12659655511379242
1772458615462740700,8.27974072265625,-0.04223214089870453,0.1627039611339569,-0.16169914603233337
1772458615472808700,8.28980859375,-0.01690681092441082,0.19003944098949432,-0.18717361986637115
1772458615482876700,8.299876708984375,0.01552516408264637,0.19498440623283386,-0.19562701880931854
1772458615492944600,8.309944580078126,0.032940641045570374,0.18403694033622742,-0.19622702896595
1772458615503012600,8.3200126953125,0.04186222702264786,0.1695224493741989,-0.19468718767166138
1772458615513080600,8.33008056640625,0.03147856518626213,0.1775827705860138,-0.18945515155792236
1772458615523148000,8.34014794921875,0.01774277724325657,0.2262166291475296,-0.1643548607826233
1772458615533216000,8.350216064453125,0.0011211908422410488,0.2777317464351654,-0.13030554354190826
1772458615543284200,8.3602841796875,-0.00839561503380537,0.32023048400878906,-0.10693363845348358
1772458615553352200,8.370352294921876,0.004178499802947044,0.35133033990859985,-0.06927414238452911
1772458615563420200,8.380420166015625,0.03972930461168289,0.3536565899848938,-0.02202940173447132
1772458615573487900,8.39048779296875,0.09107105433940887,0.3528033196926117,0.04059509560465813
1772458615583556000,8.40055615234375,0.1515711545944214,0.36817723512649536,0.1336051970720291
1772458615593624000,8.4106240234375,0.21864978969097137,0.37886369228363037,0.2547662556171417
1772458615603692000,8.420692138671875,0.29149630665779114,0.4041607975959778,0.39464157819747925
1772458615613760000,8.430760009765624,0.360327810049057,0.42288681864738464,0.5387492179870605
1772458615623828200,8.440828125,0.41799139976501465,0.404896080493927,0.6489835977554321
1772458615633896200,8.450896240234375,0.45652997493743896,0.358646035194397,0.7196873426437378
1772458615643964200,8.460964111328124,0.4776616394519806,0.2765255868434906,0.7458770871162415
1772458615654032000,8.471031982421875,0.46190372109413147,0.08256811648607254,0.7016574740409851
1772458615664100000,8.48110009765625,0.4006587266921997,-0.22864729166030884,0.5660242438316345
1772458615674168000,8.49116796875,0.2869199216365814,-0.6183926463127136,0.3680075705051422
1772458615684236000,8.501236083984375,0.13378655910491943,-0.9697695970535278,0.15972654521465302
1772458615694304000,8.511303955078125,-0.035344675183296204,-1.1909432411193848,-0.017519604414701462
1772458615704372200,8.521372314453124,-0.17827333509922028,-1.2683345079421997,-0.12452195584774017
1772458615714440200,8.531440185546876,-0.2923514246940613,-1.1907190084457397,-0.14533881843090057
1772458615724508200,8.541508056640625,-0.3802674412727356,-0.9994553327560425,-0.07196340709924698
1772458615734575900,8.551575927734374,-0.4495463967323303,-0.7271282076835632,0.03341148793697357
1772458615744644000,8.56164404296875,-0.47669437527656555,-0.43298712372779846,0.1504289209842682
1772458615754712000,8.571712158203125,-0.4552474021911621,-0.14846031367778778,0.2541041672229767
1772458615764780000,8.581780029296874,-0.400110125541687,0.08496415615081787,0.3209758996963501
1772458615774848000,8.591847900390626,-0.327184796333313,0.26694273948669434,0.35577380657196045
1772458615784916200,8.601916259765625,-0.24047411978244781,0.41221684217453003,0.39226844906806946
1772458615794984200,8.611984130859375,-0.1706753373146057,0.4883262813091278,0.44235584139823914
1772458615805051100,8.622051025390626,-0.14259496331214905,0.5057271122932434,0.49553412199020386
1772458615815119000,8.632119140625,-0.15485243499279022,0.4749409556388855,0.535359799861908
1772458615825187000,8.64218701171875,-0.19743956625461578,0.39234355092048645,0.5361140370368958
1772458615835255000,8.652255126953126,-0.24345339834690094,0.27672693133354187,0.4965066909790039
1772458615845323000,8.662322998046875,-0.292813241481781,0.14409857988357544,0.4089507460594177
1772458615855391000,8.672390869140624,-0.32104700803756714,-0.0018413095967844129,0.2717990279197693
1772458615865459000,8.682458984375,-0.3334168493747711,-0.14346954226493835,0.09831911325454712
1772458615875527200,8.692527099609375,-0.32539302110671997,-0.25941240787506104,-0.11034035682678223
1772458615885595100,8.70259521484375,-0.3108076751232147,-0.3225751221179962,-0.3380283713340759
1772458615895663000,8.7126630859375,-0.29229071736335754,-0.32727161049842834,-0.5719671249389648
1772458615905731000,8.72273095703125,-0.2707017958164215,-0.3316327929496765,-0.7882197499275208
1772458615915799000,8.732799072265625,-0.24572108685970306,-0.35367313027381897,-0.9819381237030029
1772458615925867000,8.742866943359376,-0.22527119517326355,-0.370112806558609,-1.1302181482315063
1772458615935935000,8.75293505859375,-0.19622543454170227,-0.34856438636779785,-1.195393681526184
1772458615946003000,8.7630029296875,-0.16836583614349365,-0.2644748091697693,-1.16731858253479
1772458615956071200,8.7730712890625,-0.1385863721370697,-0.10869665443897247,-1.0725218057632446
1772458615966139100,8.78313916015625,-0.10088959336280823,0.0920574888586998,-0.9156525731086731
1772458615976207000,8.79320703125,-0.05325576290488243,0.27818235754966736,-0.742312490940094
1772458615986275000,8.803275146484374,0.009935189038515091,0.3791411817073822,-0.5753751397132874
1772458615996343000,8.813343017578125,0.07450219988822937,0.3747509717941284,-0.4334808588027954
1772458616006411000,8.823410888671875,0.1280682235956192,0.3285949230194092,-0.32646918296813965
1772458616016479000,8.83347900390625,0.1702023595571518,0.2675326466560364,-0.25589463114738464
1772458616026547000,8.843546875,0.21569287776947021,0.17543654143810272,-0.21686866879463196
1772458616036615200,8.853615234375,0.25850293040275574,0.042035069316625595,-0.20329585671424866
1772458616046683100,8.86368310546875,0.29636695981025696,-0.08396760374307632,-0.1871802806854248
1772458616056751000,8.873751220703125,0.3214280903339386,-0.15644526481628418,-0.16204509139060974
1772458616066819000,8.883819091796875,0.33749574422836304,-0.15714727342128754,-0.11364161223173141
1772458616076887000,8.893886962890624,0.34476378560066223,-0.09653133153915405,-0.06187828257679939
1772458616086955000,8.903955078125,0.35137641429901123,-0.017138240858912468,-0.00552259711548686
1772458616097023000,8.91402294921875,0.3493840992450714,0.041302699595689774,0.05565367639064789
1772458616107091000,8.924091064453124,0.35158759355545044,0.057668887078762054,0.11136221140623093
1772458616117159200,8.9341591796875,0.3579663932323456,0.02075934037566185,0.1706274002790451
1772458616127227100,8.94422705078125,0.36702460050582886,-0.0579029805958271,0.2183653563261032
1772458616137295000,8.954295166015624,0.37851935625076294,-0.1435214728116989,0.2676042914390564
1772458616147363000,8.964363037109376,0.3791414499282837,-0.20211261510849,0.3149281144142151
1772458616157431000,8.97443115234375,0.36732155084609985,-0.2256387174129486,0.3561975359916687
1772458616167499000,8.9844990234375,0.34833961725234985,-0.234707310795784,0.3860046863555908
1772458616177567000,8.99456689453125,0.325579971075058,-0.23539094626903534,0.39659929275512695
1772458616187635200,9.00463525390625,0.2957296669483185,-0.2454686164855957,0.37396082282066345
1772458616197703200,9.014703125,0.24914617836475372,-0.27060699462890625,0.32258498668670654
1772458616207771100,9.024771240234376,0.18252107501029968,-0.3062760531902313,0.2470739632844925
1772458616217839000,9.034839111328125,0.10814058780670166,-0.3339310884475708,0.1545831859111786
1772458616227907000,9.044906982421875,0.031914256513118744,-0.343210369348526,0.051236290484666824
1772458616237975000,9.05497509765625,-0.034802455455064774,-0.28301307559013367,-0.030071616172790527
1772458616248043000,9.06504296875,-0.08073373138904572,-0.17593267560005188,-0.1075778603553772
1772458616258111000,9.075111083984375,-0.10604014992713928,-0.09305031597614288,-0.1782461702823639
1772458616268179200,9.08517919921875,-0.13147041201591492,-0.10427261143922806,-0.24919171631336212
1772458616278247200,9.0952470703125,-0.16598710417747498,-0.15268248319625854,-0.33151429891586304
1772458616288315100,9.105315185546875,-0.2046426236629486,-0.235116645693779,-0.3970046043395996
1772458616298383000,9.115383056640624,-0.25803235173225403,-0.3479878008365631,-0.45664212107658386
1772458616308451000,9.125451171875,-0.31473076343536377,-0.45495525002479553,-0.5170098543167114
1772458616318519000,9.13551904296875,-0.3713357448577881,-0.5082474946975708,-0.5580419898033142
1772458616328586000,9.1455859375,-0.4305165112018585,-0.4816766083240509,-0.5726488828659058
1772458616338654000,9.155654052734375,-0.48586177825927734,-0.3903283178806305,-0.5571130514144897
1772458616348722000,9.165721923828125,-0.5418672561645508,-0.2276102602481842,-0.5203039050102234
1772458616358790100,9.1757900390625,-0.5833489298820496,0.0021078919526189566,-0.4568655490875244
1772458616368858000,9.185858154296875,-0.613203763961792,0.2612318694591522,-0.37446096539497375
1772458616378926000,9.195926025390625,-0.626886785030365,0.5037787556648254,-0.2694823443889618
1772458616388994000,9.205994140625,-0.6221839189529419,0.6817423105239868,-0.1588279902935028
1772458616399062300,9.216062255859375,-0.5912246704101562,0.817482590675354,-0.042389001697301865
1772458616409130000,9.2261298828125,-0.533106803894043,0.8665470480918884,0.055153001099824905
1772458616419198000,9.236197998046874,-0.44281816482543945,0.7961104512214661,0.13202302157878876
1772458616429266000,9.246265869140625,-0.3221524655818939,0.644670307636261,0.19930724799633026
1772458616439334100,9.256334228515625,-0.18775631487369537,0.4607737362384796,0.26408252120018005
1772458616449402000,9.266402099609374,-0.041009485721588135,0.2794595956802368,0.3105938136577606
1772458616459470000,9.276469970703126,0.10723670572042465,0.10317352414131165,0.3252933919429779
1772458616469538000,9.2865380859375,0.2357131838798523,-0.09099515527486801,0.31320905685424805
1772458616479606300,9.296606201171874,0.33442431688308716,-0.3125605583190918,0.27960100769996643
1772458616489674000,9.306674072265626,0.39882782101631165,-0.5468383431434631,0.23643410205841064
1772458616499742000,9.316741943359375,0.4102490544319153,-0.766523540019989,0.18518076837062836
1772458616509810000,9.326809814453124,0.38306111097335815,-0.9290612936019897,0.11028655618429184
1772458616519879000,9.33687890625,0.3053540587425232,-1.0084794759750366,0.040882453322410583
1772458616529947000,9.34694677734375,0.17529112100601196,-0.9560407400131226,-0.012741361744701862
1772458616540014800,9.357014892578125,0.0035507925786077976,-0.8236376643180847,-0.04310113191604614
1772458616550082800,9.367082763671876,-0.17199333012104034,-0.6471047401428223,-0.06622988730669022
1772458616560150800,9.37715087890625,-0.32063448429107666,-0.4117140471935272,-0.0948633924126625
1772458616570218800,9.38721875,-0.43193331360816956,-0.13692988455295563,-0.1361200213432312
1772458616580286700,9.39728662109375,-0.48869165778160095,0.14243704080581665,-0.205287367105484
1772458616590355000,9.40735498046875,-0.4971037805080414,0.3857402503490448,-0.2780265510082245
1772458616600423000,9.4174228515625,-0.4657328128814697,0.5656929612159729,-0.36518436670303345
1772458616610491000,9.427490966796874,-0.423350989818573,0.6647665500640869,-0.43159055709838867
1772458616620558800,9.437558837890625,-0.37444445490837097,0.7067118883132935,-0.4640049636363983
1772458616630626800,9.447626708984375,-0.3242150843143463,0.7051187753677368,-0.4439532160758972
1772458616640694800,9.45769482421875,-0.2733039855957031,0.6634887456893921,-0.38742974400520325
1772458616650762800,9.4677626953125,-0.23981499671936035,0.5794031620025635,-0.3090611696243286
1772458616660830700,9.477830810546875,-0.21886177361011505,0.47017228603363037,-0.23904800415039062
1772458616670899000,9.48789892578125,-0.2025347352027893,0.3507755994796753,-0.17637823522090912
1772458616680967000,9.497966796875,-0.18648917973041534,0.22747230529785156,-0.12221645563840866
1772458616691035000,9.508034912109375,-0.17081834375858307,0.10741087794303894,-0.08299954235553741
1772458616701102800,9.518102783203124,-0.15389315783977509,0.01671852543950081,-0.0666341558098793
1772458616711170800,9.5281708984375,-0.1330033242702484,-0.04572274535894394,-0.08099977672100067
1772458616721238800,9.53823876953125,-0.10428672283887863,-0.04620398208498955,-0.11224771291017532
1772458616731306800,9.548306640625,-0.06534092128276825,0.01882908120751381,-0.14194409549236298
1772458616741374700,9.558374755859376,-0.016750218346714973,0.11642887443304062,-0.1483636349439621
1772458616751443000,9.56844287109375,0.031918782740831375,0.19680839776992798,-0.1283252090215683
1772458616761511000,9.578510986328125,0.0796293169260025,0.2261713445186615,-0.10860930383205414
1772458616771579000,9.588578857421876,0.1312674731016159,0.20414167642593384,-0.08136143535375595
1772458616781646800,9.598646728515625,0.18856671452522278,0.1586112082004547,-0.05619136616587639
1772458616791714800,9.60871484375,0.23526310920715332,0.10345928370952606,-0.01762613095343113
1772458616801782800,9.61878271484375,0.2623003125190735,0.03291001170873642,0.02147439867258072
1772458616811850800,9.628850830078125,0.2612079083919525,-0.026804182678461075,0.0647028312087059
1772458616821918700,9.638918701171875,0.24035269021987915,-0.07540154457092285,0.09261222183704376
1772458616831987000,9.648987060546874,0.2030111700296402,-0.09520187973976135,0.12731054425239563
1772458616842055000,9.659054931640625,0.1624123454093933,-0.06036107987165451,0.15989592671394348
1772458616852123000,9.669122802734375,0.1265837699174881,0.01002094242721796,0.20929862558841705
1772458616862190800,9.67919091796875,0.10714802145957947,0.09185242652893066,0.25992611050605774
1772458616872258800,9.6892587890625,0.11036539077758789,0.15814809501171112,0.30306506156921387
1772458616882326800,9.699326904296875,0.13745079934597015,0.19382992386817932,0.3384941518306732
1772458616892394800,9.709394775390624,0.17254753410816193,0.20393767952919006,0.36199629306793213
1772458616902462700,9.719462646484375,0.19159792363643646,0.2355898916721344,0.3649537265300751
1772458616912531000,9.729531005859375,0.20791298151016235,0.2643706798553467,0.32957789301872253
1772458616922599000,9.739598876953124,0.21932703256607056,0.2693164348602295,0.26375335454940796
1772458616932665900,9.749665771484375,0.21873927116394043,0.23449000716209412,0.17424850165843964
1772458616942734600,9.759734619140625,0.2045784443616867,0.1596546471118927,0.06911835074424744
1772458616952801800,9.7698017578125,0.165852889418602,0.061825018376111984,-0.025728266686201096
1772458616962869800,9.779869873046875,0.11097712069749832,-0.02551308274269104,-0.09570308774709702
1772458616972937700,9.789937744140625,0.055876582860946655,-0.06436221301555634,-0.12536484003067017
1772458616983005700,9.800005615234374,0.017886854708194733,-0.05687873065471649,-0.10215992480516434
1772458616993073700,9.81007373046875,0.011654525063931942,-0.020534036681056023,-0.0438699871301651
1772458617003142000,9.820141845703125,0.021683724597096443,0.014005564153194427,0.03556518629193306
1772458617013209900,9.8302099609375,0.04044302925467491,0.02713947556912899,0.10921303927898407
1772458617023277800,9.84027783203125,0.05792694911360741,0.03596226125955582,0.17588047683238983
1772458617033346000,9.850345947265625,0.06555264443159103,0.07314052432775497,0.23756888508796692
1772458617043413800,9.860413818359374,0.058634817600250244,0.14868400990962982,0.30286213755607605
1772458617053481700,9.870481689453126,0.04021826013922691,0.2393990010023117,0.37630173563957214
1772458617063549700,9.8805498046875,0.01321327406913042,0.3086249530315399,0.4314888119697571
1772458617073618000,9.890617919921874,-0.020864535123109818,0.369255006313324,0.46131089329719543
1772458617083686000,9.900685791015626,-0.04554644599556923,0.4155210256576538,0.4739353358745575
1772458617093753900,9.91075390625,-0.06136588752269745,0.43537917733192444,0.4681189954280853
1772458617103821800,9.92082177734375,-0.07353973388671875,0.41764649748802185,0.42681950330734253
1772458617113890000,9.93089013671875,-0.07993584126234055,0.3601808249950409,0.3633262813091278
1772458617123957800,9.940957763671875,-0.07759492844343185,0.2500220835208893,0.2735345959663391
1772458617134025700,9.951025634765625,-0.07081398367881775,0.07267313450574875,0.15521728992462158
1772458617144093700,9.96109375,-0.05309198051691055,-0.11926913261413574,0.028537102043628693
1772458617154162000,9.971161865234375,-0.029377596452832222,-0.26949140429496765,-0.11108390986919403
1772458617164230000,9.98122998046875,0.0008695221040397882,-0.3700811266899109,-0.2491283267736435
1772458617174297900,9.9912978515625,0.01876809448003769,-0.43245020508766174,-0.3739360570907593
1772458617184365800,10.00136572265625,0.019787020981311798,-0.45626765489578247,-0.47172465920448303
1772458617194434000,10.01143408203125,0.007371097337454557,-0.46709874272346497,-0.5238584280014038
1772458617204501800,10.021501708984376,-0.017613613978028297,-0.47045964002609253,-0.5323382019996643
1772458617214569700,10.03156982421875,-0.040649425238370895,-0.43332186341285706,-0.48853638768196106
1772458617224637700,10.0416376953125,-0.04915449768304825,-0.3512280583381653,-0.39659979939460754
1772458617234706000,10.051705810546874,-0.045886799693107605,-0.2327088713645935,-0.27085039019584656
1772458617244774000,10.06177392578125,-0.02977946773171425,-0.09448043256998062,-0.12431848794221878
1772458617254841900,10.071841796875,0.003168895374983549,0.03575959429144859,0.004939098376780748
1772458617264909800,10.081909912109374,0.05603237450122833,0.1349647492170334,0.10540258884429932
1772458617274978000,10.09197802734375,0.11177153885364532,0.189727321267128,0.1559736132621765
1772458617285045800,10.102045654296875,0.16984708607196808,0.19486935436725616,0.16241633892059326
1772458617295113700,10.11211376953125,0.22111214697360992,0.14995060861110687,0.13547340035438538
1772458617305181700,10.122181640625,0.24789048731327057,0.07398341596126556,0.08686086535453796
1772458617315250000,10.13225,0.25297021865844727,-0.01212723646312952,0.03158482536673546
1772458617325318000,10.14231787109375,0.24404862523078918,-0.07994197309017181,-0.026403112336993217
1772458617335385900,10.1523857421875,0.23083800077438354,-0.1213541254401207,-0.047457531094551086
1772458617345453800,10.162453857421875,0.2090834379196167,-0.12783625721931458,-0.044466532766819
1772458617355521800,10.172521728515624,0.1881784349679947,-0.11503177881240845,-0.021934060379862785
1772458617365589800,10.18258984375,0.16318626701831818,-0.08435536175966263,0.0028458540327847004
1772458617375657700,10.19265771484375,0.14828960597515106,-0.04121401533484459,0.02255857177078724
1772458617385725700,10.2027255859375,0.13863857090473175,-0.008184959180653095,0.04266756772994995
1772458617395794000,10.2127939453125,0.1387283205986023,-0.010087255388498306,0.05059713125228882
1772458617405862000,10.22286181640625,0.136245995759964,-0.061531804502010345,0.06512653827667236
1772458617415929900,10.232929931640625,0.13514237105846405,-0.13985536992549896,0.08129352331161499
1772458617425997800,10.242997802734376,0.1281835287809372,-0.20210222899913788,0.09849461168050766
1772458617436065800,10.253065673828125,0.12154693901538849,-0.22567813098430634,0.10818692296743393
1772458617446133800,10.2631337890625,0.11094702035188675,-0.22303414344787598,0.1066361665725708
1772458617456201700,10.27320166015625,0.09920194745063782,-0.22955197095870972,0.0781874805688858
1772458617466269700,10.283269775390625,0.08090576529502869,-0.2651541829109192,0.03477262705564499
1772458617476338000,10.293337890625,0.05807368829846382,-0.30996477603912354,-0.008856342174112797
1772458617486406000,10.303406005859374,0.028325913473963737,-0.354827344417572,-0.06167268380522728
1772458617496473900,10.313473876953125,-0.01673557050526142,-0.39041221141815186,-0.11702409386634827
1772458617506541800,10.323541748046875,-0.06717877089977264,-0.39147934317588806,-0.1756754219532013
1772458617516609800,10.33360986328125,-0.11937965452671051,-0.3543967008590698,-0.20424208045005798
1772458617526677200,10.34367724609375,-0.16303366422653198,-0.2647472321987152,-0.1834838092327118
1772458617536745200,10.3537451171875,-0.2022170126438141,-0.11432497948408127,-0.1218060627579689
1772458617546813200,10.363813232421874,-0.2234535962343216,0.04020920395851135,-0.05556099861860275
1772458617556881200,10.373881103515625,-0.2052716612815857,0.12445005029439926,0.005624862387776375
1772458617566949000,10.38394921875,-0.1615007519721985,0.1251872181892395,0.058040667325258255
1772458617577017300,10.394017333984374,-0.1142413541674614,0.08496202528476715,0.11127672344446182
1772458617587085300,10.404085205078125,-0.0657087042927742,0.021754032000899315,0.15253867208957672
1772458617597153300,10.4141533203125,-0.019388346001505852,-0.05693092569708824,0.1561374068260193
1772458617607221200,10.42422119140625,0.016881246119737625,-0.18331150710582733,0.12100658565759659
1772458617617288400,10.434288330078125,0.02359374240040779,-0.3726436197757721,0.03231186792254448
1772458617627356400,10.4443564453125,-0.004168113227933645,-0.5102608799934387,-0.08770988136529922
1772458617637424000,10.454424072265626,-0.05717673525214195,-0.5492948293685913,-0.22622621059417725
1772458617647492000,10.4644921875,-0.12389850616455078,-0.4662441313266754,-0.35759222507476807
1772458617657560300,10.474560302734375,-0.1862950474023819,-0.2923983037471771,-0.4525970220565796
1772458617667628300,10.484628173828124,-0.2462710291147232,-0.06821048259735107,-0.5146816968917847
1772458617677696300,10.4946962890625,-0.2763146758079529,0.16434819996356964,-0.5133519768714905
1772458617687764200,10.50476416015625,-0.27611812949180603,0.34708553552627563,-0.45689645409584045
1772458617697832400,10.51483251953125,-0.24651125073432922,0.45731934905052185,-0.3374027907848358
1772458617707900200,10.524900146484375,-0.19013053178787231,0.4799157381057739,-0.1876114457845688
1772458617717968100,10.534968017578125,-0.13046079874038696,0.4446730613708496,-0.016380304470658302
1772458617728036000,10.5450361328125,-0.053398776799440384,0.374221533536911,0.13687503337860107
1772458617738104300,10.555104248046876,0.033606961369514465,0.289084255695343,0.2718837261199951
1772458617748172300,10.56517236328125,0.1283571720123291,0.19261232018470764,0.3631632924079895
1772458617758240300,10.575240234375,0.20949064195156097,0.08176969736814499,0.40820586681365967
1772458617768308200,10.58530810546875,0.2595785856246948,-0.05860579013824463,0.4241126477718353
1772458617778376400,10.59537646484375,0.2773306667804718,-0.2349989265203476,0.4209626615047455
1772458617788444200,10.605444091796874,0.26508626341819763,-0.3938349187374115,0.3962101936340332
1772458617798512000,10.61551220703125,0.22879163920879364,-0.5300281643867493,0.3400297462940216
1772458617808580000,10.625580078125,0.16671468317508698,-0.6048528552055359,0.24134710431098938
1772458617818648300,10.6356484375,0.09077757596969604,-0.5999540090560913,0.11884276568889618
1772458617828716300,10.64571630859375,0.006485862657427788,-0.5225332379341125,-0.021314077079296112
1772458617838784300,10.6557841796875,-0.08223388344049454,-0.37045103311538696,-0.14502456784248352
1772458617848852200,10.665852294921875,-0.16289730370044708,-0.17167268693447113,-0.24084430932998657
1772458617858920400,10.67592041015625,-0.22777830064296722,0.044558145105838776,-0.290130078792572
1772458617868988200,10.68598828125,-0.2723156809806824,0.25636306405067444,-0.32162436842918396
1772458617879056100,10.69605615234375,-0.2903692424297333,0.4329466223716736,-0.32186856865882874
1772458617889124000,10.7061240234375,-0.28129586577415466,0.5773826241493225,-0.2839036285877228
1772458617899192300,10.7161923828125,-0.2590195834636688,0.6622043251991272,-0.23107795417308807
1772458617909260300,10.72626025390625,-0.23310275375843048,0.6756508946418762,-0.17320320010185242
1772458617919328300,10.736328369140624,-0.20731696486473083,0.6508318185806274,-0.1258450150489807
1772458617929396200,10.746396240234375,-0.18637333810329437,0.6089065074920654,-0.09418908506631851
1772458617939464400,10.75646435546875,-0.1600988507270813,0.5496473908424377,-0.07986846566200256
1772458617949532200,10.7665322265625,-0.13624225556850433,0.4663330912590027,-0.06777185946702957
1772458617959600000,10.77660009765625,-0.11484615504741669,0.3745674788951874,-0.07758880406618118
1772458617969668000,10.786668212890625,-0.10106802731752396,0.2814481854438782,-0.087999626994133
1772458617979736300,10.796736328125,-0.08622383326292038,0.20642028748989105,-0.08994346857070923
1772458617989804300,10.80680419921875,-0.07393680512905121,0.15173174440860748,-0.0824139192700386
1772458617999872300,10.816872314453125,-0.0628008022904396,0.1254037320613861,-0.07606574147939682
1772458618009940200,10.826940185546874,-0.04729188233613968,0.10739409923553467,-0.06939452141523361
1772458618020008400,10.837008544921876,-0.028865203261375427,0.11320725083351135,-0.06529112160205841
1772458618030076200,10.847076171875,-0.00817883387207985,0.11512605845928192,-0.0402614027261734
1772458618040144100,10.85714404296875,0.023437149822711945,0.1309385746717453,-0.014188789762556553
1772458618050212000,10.867212158203126,0.0588500015437603,0.16842789947986603,0.006975884083658457
1772458618060280300,10.8772802734375,0.10285953432321548,0.20566022396087646,0.01745888590812683
1772458618070348300,10.887348388671874,0.14806696772575378,0.23864080011844635,0.033660758286714554
1772458618080416300,10.897416259765626,0.19643422961235046,0.25701582431793213,0.06668715178966522
1772458618090484200,10.907484130859375,0.24557407200336456,0.2623458802700043,0.10693443566560745
1772458618100552400,10.917552490234375,0.2937330901622772,0.2420983910560608,0.1566295623779297
1772458618110620200,10.9276201171875,0.359014093875885,0.21667292714118958,0.2126467525959015
1772458618120688000,10.937688232421875,0.4499248266220093,0.19123467803001404,0.2505477964878082
1772458618130756000,10.947756103515625,0.5453118085861206,0.1647665798664093,0.2800588309764862
1772458618140824300,10.95782421875,0.6252217888832092,0.13065654039382935,0.294988751411438
1772458618150892300,10.967892333984375,0.69801265001297,0.06758037209510803,0.30717405676841736
1772458618160960300,10.977960205078125,0.765334963798523,-0.006733536254614592,0.33682170510292053
1772458618171028200,10.9880283203125,0.8178240060806274,-0.0687582939863205,0.3974989056587219
1772458618181096200,10.99809619140625,0.8577879071235657,-0.10015323013067245,0.49212607741355896
1772458618191164200,11.0081640625,0.8764122128486633,-0.09581281244754791,0.6336759924888611
1772458618201232100,11.018232177734374,0.865969181060791,-0.0873359739780426,0.7859281301498413
1772458618211300000,11.028300048828125,0.8269951343536377,-0.13863325119018555,0.9164547324180603
1772458618221368300,11.038368408203125,0.7827043533325195,-0.2181946486234665,1.0258616209030151
1772458618231436300,11.048436279296874,0.7336071133613586,-0.28640860319137573,1.1025806665420532
1772458618241504300,11.058504150390625,0.675000011920929,-0.3243916630744934,1.1317126750946045
1772458618251572200,11.068572265625,0.6069120168685913,-0.34232139587402344,1.1051827669143677
1772458618261640200,11.07864013671875,0.544463574886322,-0.3336051404476166,1.040226697921753
1772458618271708200,11.088708251953125,0.4864484667778015,-0.29544124007225037,0.9557411074638367
1772458618281776000,11.098776123046875,0.43620046973228455,-0.282472163438797,0.8520961999893188
1772458618291844000,11.108843994140624,0.38625848293304443,-0.3182634711265564,0.7138776183128357
1772458618301912300,11.118912353515626,0.3448790907859802,-0.3750596344470978,0.557248592376709
1772458618311980300,11.128980224609375,0.305294930934906,-0.446879506111145,0.3988208770751953
1772458618322048300,11.13904833984375,0.2729167640209198,-0.4783279597759247,0.2718786597251892
1772458618332116200,11.1491162109375,0.23406575620174408,-0.41585206985473633,0.21465717256069183
1772458618342184200,11.15918408203125,0.19809789955615997,-0.271526038646698,0.2154981940984726
1772458618352252200,11.169252197265624,0.19134199619293213,-0.08584220707416534,0.26784849166870117
1772458618362320100,11.179320068359376,0.19678789377212524,0.0860121101140976,0.3514658808708191
1772458618372388000,11.18938818359375,0.2010904997587204,0.20812523365020752,0.4561789929866791
1772458618382455300,11.199455322265624,0.18280789256095886,0.3253922164440155,0.5757493376731873
1772458618392523300,11.209523193359376,0.11727442592382431,0.36895087361335754,0.7160843014717102
1772458618402591200,11.21959130859375,0.06871993839740753,0.32052260637283325,0.8238409161567688
1772458618412659200,11.2296591796875,0.0646572932600975,0.24251730740070343,0.8954581022262573
1772458618422727400,11.2397275390625,0.0846102237701416,0.16852030158042908,0.9148576259613037
1772458618432795400,11.24979541015625,0.11433509737253189,0.11520887911319733,0.8500772714614868
1772458618442863000,11.259863037109374,0.18320924043655396,0.12152136862277985,0.6924319863319397
1772458618452931000,11.26993115234375,0.2986026704311371,0.1436554342508316,0.4967905879020691
1772458618462999300,11.279999267578125,0.38861432671546936,0.12806236743927002,0.30858874320983887
