time,seconds_elapsed,z,y,x
1772562807414802000,0.069802001953125,-0.004967851540446281,0.01780135842207819,-0.028878303959965705
1772562807424868900,0.079868896484375,0.25430852306783197,-0.04645679514529183,0.045669462426193054
1772562807434936800,0.089936767578125,0.26367373278439044,-0.0026109770828392355,0.09671440734565258
1772562807445003800,0.100003662109375,0.11908055293262004,-0.020126906159659848,0.04357259974479675
1772562807455070700,0.11007080078125,0.022463760742545125,-0.02718116291956976,-0.044769956303201616
1772562807465137700,0.1201376953125,-0.1686708055317402,0.013495980245200916,-0.0855499661874026
1772562807475204600,0.13020458984375,-0.07527531347572804,0.006961865768721326,-0.045507074938714503
1772562807485272800,0.14027294921875,0.16819208210408687,-0.006346884808689356,0.026192060550674794
1772562807495339800,0.15033984375,0.2023854436069727,-0.011415675972960889,0.05159516268074512
1772562807505407000,0.160406982421875,0.18282851022183894,-0.005815189084783196,0.049748658031225204
1772562807515474000,0.170473876953125,0.06820785930752754,-0.009798440901516004,-0.026902218114025888
1772562807525540900,0.180540771484375,-0.05222703084349632,-0.005551798041397706,-0.0752454297941178
1772562807535607800,0.19060791015625,-0.03704699736833572,0.01826443675602786,-0.0668729574419558
1772562807545675800,0.20067578125,0.03808978441953659,-0.0020153949430212377,-0.01883607176467776
1772562807555742700,0.21074267578125,0.13005027523636817,0.021771896887710317,0.01859053603839129
1772562807565809700,0.2208095703125,0.1763859099537134,-0.011395957492338493,0.026044797567091882
1772562807575876600,0.230876708984375,0.11580138513147831,-0.02348359617642127,0.0027928821215406057
1772562807585943800,0.24094384765625,0.02389583937227726,-0.0045667142604943365,-0.02562872757948935
1772562807596010800,0.2510107421875,-0.01414075355529785,-0.012100260703638194,-0.023763700892589983
1772562807606079000,0.261078857421875,0.055545946133136744,0.00971168506667018,-0.036164551977999504
1772562807616146000,0.27114599609375,0.1017979942202568,0.00729686987674795,-0.014669417071901262
1772562807626212900,0.281212890625,0.13227438102662561,0.0017842439351137727,-0.006140256320685148
1772562807636279800,0.29127978515625,0.1116664772838354,-0.010026322240103035,0.00950140331685543
1772562807646346800,0.3013466796875,0.04381809893846512,-0.031044788678316396,-0.015702376848831773
1772562807656414700,0.311414794921875,0.0284732302904129,-0.020867449728120116,-0.010211962739005685
1772562807666481700,0.321481689453125,0.03053717708289623,-0.02218583885030821,-0.0020333689911291
1772562807676548600,0.331548583984375,0.07887421475052833,-0.006241479072300717,0.0029926790099591015
1772562807686615800,0.34161572265625,0.11533902831673622,0.0005158497008029371,-0.0009073606358841061
1772562807696682800,0.351682861328125,0.06902794351875782,-0.0011703863530885428,0.022749043957330285
1772562807706749700,0.361749755859375,0.07264438045024871,-0.000046980946883559226,0.0013608400244265793
1772562807716818000,0.37181787109375,0.034117958179116246,0.006272531797690317,-0.018313691858388482
1772562807726884900,0.381884765625,0.03512918104827404,-0.012012637219112365,-0.011559212629497051
1772562807736951800,0.391951904296875,0.07954466135799884,-0.006425594334397464,-0.011981347031705081
1772562807747018800,0.402018798828125,0.08881108687520027,0.011327467966545372,0.008532412154227495
1772562807757085700,0.412085693359375,0.08700842136740684,0.01062461692681536,0.014138817326538263
1772562807767153000,0.42215283203125,0.0561971035182476,-0.004502846110891551,0.007210406302846968
1772562807777220600,0.432220703125,0.04560439783334732,0.006611435762699693,-0.0070270490925759075
1772562807787287800,0.442287841796875,0.031203532037138937,0.00662774757668376,-0.0065064958171918985
1772562807797354800,0.452354736328125,0.06274316416084766,-0.011469150592712685,0.004122925148904323
1772562807807421700,0.462421630859375,0.09928922626972198,-0.0020636636646930127,0.0007633125226944685
1772562807817488600,0.472488525390625,0.09965279888510703,0.00880190414483659,0.013363741300813853
1772562807827555800,0.482555908203125,0.06596095716357231,-0.010397301843808963,0.006192607562430202
1772562807837623800,0.492623779296875,0.05421966596543788,0.0022400066122878343,-0.00719637777749449
1772562807847690800,0.502690673828125,0.04560205974578857,0.00029138416200876236,-0.01644698467105627
1772562807857757700,0.5127578125,0.04081540999114513,-0.014168481812439859,-0.009843640883266926
1772562807867825000,0.522824951171875,0.0755512078076601,-0.009479027088265866,-0.005212181690335273
1772562807877891800,0.532891845703125,0.09587444939017295,0.0008899619765114038,-0.0058929670287296175
1772562807887958800,0.542958740234375,0.07224690556526184,-0.00716074020853266,0.003159158150665462
1772562807898026800,0.55302685546875,0.07146656884253025,-0.016876370797958225,-0.0023332652531564235
1772562807908093700,0.56309375,0.05152034387886524,0.01061560250329785,-0.01196980272438377
1772562807918161000,0.573160888671875,0.042539749565720555,-0.0012384648869279771,-0.015220109757222234
1772562807928228000,0.58322802734375,0.06890519392192364,-0.0014984218642115593,0.001267060793749988
1772562807938295000,0.593294921875,0.0861257933139801,0.0061911097250878806,0.012446188064478336
1772562807948363000,0.603363037109375,0.10186112258434295,-0.009745925262989476,-0.002671630362048745
1772562807958430000,0.613429931640625,0.07929682407677173,-0.009365428912267089,-0.014200922777317463
1772562807968497200,0.6234970703125,0.05726385596692562,-0.0076495649050921195,-0.012359021237678826
1772562807978564000,0.633564208984375,0.051986207824945445,0.0052288040315732354,-0.021741876208782193
1772562807988631000,0.643631103515625,0.06129354987442493,0.015227443680306896,0.0017813669914379716
1772562807998698000,0.653697998046875,0.07195230653285979,-0.0012243358968757091,0.0035466596309095618
1772562808008766000,0.663765869140625,0.07522329102754592,-0.005789068262837827,-0.010945720373652875
1772562808018833000,0.6738330078125,0.05735387233793735,-0.0001942621967755258,0.0023494857355952263
1772562808028900000,0.683900146484375,0.06466974830925465,0.012345239307498559,-0.0063487845048308365
1772562808038967000,0.693967041015625,0.06921908217668533,0.02037105364645831,-0.018876403775066136
1772562808049034200,0.7040341796875,0.21026830581128597,0.031070087516354396,-0.06647288874108344
1772562808059101200,0.71410107421875,0.22064707648456094,-0.038771647470165045,-0.005546930070035159
1772562808069169200,0.724169189453125,-0.26599428468644615,-0.004966600298276171,0.10203994974996894
1772562808079236000,0.734236083984375,-0.09572072013318537,0.014672695874376222,0.0763464863711968
1772562808089303000,0.744302978515625,0.28669103575646876,-0.035510060991486535,0.010264094785042107
1772562808099370000,0.754369873046875,0.1614811862885952,0.0575798539803829,-0.09638459086939692
1772562808109437000,0.76443701171875,0.022162731969356534,0.027960887720948083,-0.1432856043845415
1772562808119504000,0.77450390625,-0.2157914531469345,-0.04488322568563744,-0.05437021688465029
1772562808129571800,0.78457177734375,-0.1603963136613369,0.03214969944660551,0.07604925699029118
1772562808139639000,0.79463916015625,0.5671066445052624,-0.018814179593278094,0.07278696725871414
1772562808149706200,0.804706298828125,0.5683908390969038,-0.03267026185514405,0.06877458981219679
1772562808159773200,0.814773193359375,-0.24197511119544504,0.060503184948023404,-0.015362513902597128
1772562808169840000,0.824840087890625,-0.36508360446989535,0.00910711590279825,-0.1047400024889037
1772562808179907000,0.834906982421875,0.01868248863816261,-0.005640782365947962,-0.09233717864211648
1772562808189975000,0.84497509765625,0.21368366721272467,0.006870095832040533,-0.008593896550498902
1772562808200042000,0.8550419921875,0.2107458601951599,-0.025097999969962984,0.05002553874384612
1772562808210109000,0.86510888671875,0.1050876834154129,0.019347546684462577,0.08777396237980574
1772562808220176000,0.87517578125,0.13523790700733662,0.009125784070650116,0.020655907602980732
1772562808230243000,0.8852431640625,0.1011269630908966,0.0040183139969594776,-0.06570460778232663
1772562808240310000,0.89531005859375,-0.14999708472192286,0.022998744402080773,-0.0901850786421448
1772562808250378200,0.905378173828125,-0.10321136814951896,0.01354993892214261,-0.027593342183344065
1772562808260445200,0.915445068359375,0.19764672464728356,0.003002762012556195,0.01776815027222037
1772562808270512000,0.92551220703125,0.2607552149891853,-0.012525838305102661,0.047071365113370116
1772562808280579000,0.9355791015625,0.12131810272634029,-0.012120024850033223,0.04731595099158585
1772562808290646000,0.94564599609375,-0.012811550778150558,-0.0025764811581932005,-0.01642875489462167
1772562808300714000,0.9557138671875,-0.02065408097207546,0.011122821373073383,-0.059849853872135275
1772562808310781000,0.965781005859375,0.026333880174160003,0.013377486698376014,-0.03744271868765354
1772562808320848000,0.975847900390625,0.04150046964585781,0.000613419190607965,-0.014727576999925076
1772562808330915000,0.9859150390625,0.10184007979631424,0.009309150414075701,-0.00007101940959692001
1772562808340982000,0.99598193359375,0.14280162025988102,-0.010610140876891092,0.030170170401409267
1772562808351049000,1.006049072265625,0.11251344950199127,-0.018889674248592926,0.01827551527246833
1772562808361117200,1.0161171875,0.010161328530311584,-0.0037247652773279693,-0.0058462783427909015
1772562808371184000,1.02618408203125,-0.021786884394288063,-0.0023655692207161334,-0.014093845673650502
1772562808381251000,1.0362509765625,0.035739421901106835,0.01893376911864616,-0.007958886582590639
1772562808391318000,1.046318115234375,0.11623042419850825,0.004644081212487072,0.0021900939228013156
1772562808401385000,1.056385009765625,0.11868424709141254,0.012107192767923698,-0.01737049272414297
1772562808411452200,1.0664521484375,0.0653296735227108,0.022122765285149216,-0.011151106752641499
1772562808421520000,1.076519775390625,0.03691080376803875,0.0064323254692833865,-0.008755297657288611
1772562808431587000,1.086587158203125,0.061705053284764284,-0.004468249721545726,-0.0044568332783877845
1772562808441654000,1.096654052734375,0.03202946146726608,-0.00039461620762012897,-0.016460319076664745
1772562808451721000,1.106720947265625,0.07767243774533271,-0.004369520321115851,-0.0008076265884563327
1772562808461788000,1.116787841796875,0.10614449899196624,0.009521304460568354,-0.00958038683719933
1772562808471854800,1.126854736328125,0.08044774767756462,0.011440499886963516,-0.006388239732384681
1772562808481923000,1.136923095703125,0.025539514926075934,0.0066304875230416655,-0.008359430207498372
1772562808491990000,1.146989990234375,0.016685177341103554,-0.00017938428805209695,-0.021786884394288063
1772562808502057000,1.157056884765625,0.05646013836860656,-0.0018979973747394977,-0.01353047616984695
1772562808512124200,1.167124267578125,0.10404138923287391,-0.008379778875783086,0.007971088477037846
1772562808522191000,1.177191162109375,0.09389116661846637,0.003324276451347396,0.004029803505353629
1772562808532258000,1.187258056640625,0.07177987257540226,0.011240237207664176,-0.018848090996034444
1772562808542326000,1.197325927734375,0.04844985039234161,0.00173551855571568,-0.000028824235685169694
1772562808552393000,1.20739306640625,0.052176761960983274,-0.003495130373071879,-0.007112645016796887
1772562808562460000,1.2174599609375,0.07594225295186043,-0.00886941642309539,-0.0005330108981579541
1772562808572526800,1.22752685546875,0.07159808626770973,0.006390934012969955,0.011497837831079959
1772562808582593800,1.23759375,0.08014905699193477,0.017614229218987747,0.019686843375116586
1772562808592661200,1.2476611328125,0.0970838251799345,0.0050813766512088476,0.005756919558905065
1772562808602729000,1.25772900390625,0.06267828223109245,0.001159006442548707,-0.004497603680193424
1772562808612796200,1.267796142578125,0.04293547088503837,0.006567980213463306,-0.019751944500580428
1772562808622863000,1.277863037109375,0.06909574805796145,-0.0060867725677788255,-0.010903452134504913
1772562808632930000,1.287929931640625,0.058597150397300714,-0.002231695441668853,-0.018837861862964926
1772562808642997000,1.2979970703125,0.08567220432758331,-0.006062697572447359,0.012150602651387453
1772562808653064000,1.30806396484375,0.09480711241960525,0.018135988070769233,0.004007847401872277
1772562808663132000,1.3181318359375,0.06653086600601672,0.0151457932788413,0.0011918036004528402
1772562808673198800,1.32819873046875,0.052453825336694716,0.010164534267550334,-0.021557569150440395
1772562808683266000,1.33826611328125,0.0642664282053709,0.01021067496421747,-0.01793123187944293
1772562808693333000,1.3483330078125,0.06444879903495311,0.01982308264118619,-0.015439999585598706
1772562808703400200,1.358400146484375,0.07925824563205242,0.011811351626506074,-0.005156140654161572
1772562808713467100,1.368467041015625,0.09756430217325687,-0.006175382432993501,0.0025229060737416145
1772562808723535000,1.37853515625,0.08437631929814815,-0.006001724632829428,0.00565258240159601
1772562808733602000,1.38860205078125,0.06493979742228985,-0.005290635487716645,0.00021251023951917886
1772562808743669000,1.3986689453125,0.05655658448040485,0.012990167881222441,-0.0013445464767515658
1772562808753736000,1.40873583984375,0.0525374119669199,0.002620776957646012,-0.0063518897773697965
1772562808763803000,1.418802978515625,0.05733166050612926,-0.0016105952681042253,-0.0031435221901163456
1772562808773870000,1.4288701171875,0.0832587134450674,-0.016064004102302715,-0.00248074743244797
1772562808783938000,1.43893798828125,0.08446867375671863,0.004117837981833144,0.011158851667679846
1772562808794005000,1.4490048828125,0.07667875053286552,0.011701324513927101,0.0011801131626591086
1772562808804072200,1.459072265625,0.07367080088853836,0.0039040491006802763,-0.001943169957026839
1772562808814139100,1.46913916015625,0.055993105378746987,0.00003559190318919718,-0.02232329282592982
1772562808824206000,1.4792060546875,0.05359013589024544,0.014461208548163995,-0.018245521993003784
1772562808834273000,1.48927294921875,0.0630120442301035,0.007357468357030302,-0.01952142368033528
1772562808844341000,1.499341064453125,0.07123977434933185,0.010388835409563034,-0.01801076338905841
1772562808854408000,1.509407958984375,0.07707213376462459,-0.0002578015528153628,-0.003239602975733578
1772562808864475100,1.51947509765625,0.06403904919028282,0.00253982067592442,0.007459851019270718
1772562808874542000,1.5295419921875,0.061652446314692494,-0.009997214876627549,0.00195566411241889
1772562808884609000,1.539609130859375,0.07033785707354545,-0.007633134360099211,-0.015624197046086192
1772562808894676000,1.549676025390625,0.06961714158356189,0.011235972024500369,-0.0037720293520018457
1772562808904744000,1.559743896484375,0.06679565442204476,-0.00853247608630918,0.014681253640167414
1772562808914811100,1.56981103515625,0.060228550991415976,0.0016000464746262876,-0.0059620136769488455
1772562808924877800,1.5798779296875,0.07656476876437664,-0.0034483594887424257,0.0007728475360199809
1772562808934944800,1.58994482421875,0.06460135924816131,0.00021708594993688165,0.015128668614104388
1772562808945012000,1.600011962890625,0.060250762823224065,-0.007767519595799967,0.007493132234364748
1772562808955079700,1.61007958984375,0.06577975537776946,0.007744449247466399,-0.016932941557094454
1772562808965147000,1.62014697265625,0.05456687196791172,0.01565134991449304,0.002224836442619562
1772562808975213800,1.6302138671875,0.06833236247003079,0.004432813081983476,-0.004820442426390945
1772562808985280800,1.64028076171875,0.07219137598574162,-0.0012650606329087167,0.001932137106359005
1772562808995347700,1.65034765625,0.06696282768249512,-0.004765022444725036,0.004789535831473768
1772562809005414700,1.66041455078125,0.07668284218609332,0.005262633235938847,-0.008510529115982353
1772562809015482600,1.670482666015625,0.0727758978754282,-0.004823693829402328,-0.017851335043646395
1772562809025549800,1.6805498046875,0.048535190588235855,-0.008953076118556781,-0.012986140160076319
1772562809035616800,1.69061669921875,0.06322364115417003,0.005376267944555729,-0.004202200930193066
1772562809045684000,1.70068408203125,0.06337620136737823,-0.0007357943281065672,-0.013457666661962867
1772562809055751000,1.7107509765625,0.08836158954203129,0.001221815146226436,-0.008353402325510979
1772562809065817900,1.72081787109375,0.0705447778224945,-0.009879579846328123,-0.010769815817475319
1772562809075885800,1.7308857421875,0.06066635788679123,0.004545141749503091,0.002219320017285645
1772562809085952800,1.740952880859375,0.07938684044778346,-0.008881992776878178,-0.006655256638117134
1772562809096019700,1.751019775390625,0.06668517978489398,-0.00015698065999895334,-0.009711721599288283
1772562809106086700,1.761086669921875,0.07611117977797985,-0.0038581549991853533,-0.01147299565076828
1772562809116153600,1.771153564453125,0.04064472959935665,0.001100746049825102,-0.0007947305742651223
1772562809126220800,1.781220703125,0.050533086407184596,-0.0019974300280679014,-0.006660517335124313
1772562809136288800,1.791288818359375,0.06849310598969459,-0.013460114347375929,0.0037188743926584718
1772562809146356000,1.80135595703125,0.07807751141488552,-0.003119438061630353,0.006324234585464
1772562809156423000,1.8114228515625,0.06775602388679981,0.0026314536152873187,-0.017277846004627645
1772562809166489900,1.82148974609375,0.06701485013067722,0.008145540861645713,-0.008160400504060089
1772562809176556800,1.831556884765625,0.05999415771365165,0.004989743711845949,-0.010300225544348358
1772562809186623700,1.841623779296875,0.061337389016151427,-0.005630407102406024,-0.006275280877202749
1772562809196691700,1.851691650390625,0.06163081900477409,-0.0013264171650167553,0.003009301351197064
1772562809206758700,1.861758544921875,0.07000234150886535,0.00028118242840282617,-0.002360299390554428
1772562809216825600,1.87182568359375,0.0726888041138649,-0.001782727831462398,-0.01547229442000389
1772562809226892800,1.881892822265625,0.07567512644827365,-0.003751278824917972,-0.008380399930290877
1772562809236959700,1.891959716796875,0.07299334001839161,-0.0015312738210428506,-0.02569543614014983
1772562809247026700,1.902026611328125,0.0780868637651205,0.006977656992897391,-0.0010913389006629586
1772562809257095000,1.912094970703125,0.05924480065107345,-0.006911889147153124,-0.012693842682614922
1772562809267161900,1.922161865234375,0.07331541157960891,-0.010224950084742158,-0.02092767374906689
1772562809277228800,1.932228759765625,0.06657645871341228,0.009018396439729258,-0.00221179429795593
1772562809287295700,1.942295654296875,0.07181669745445252,0.013624949520267545,0.003378792250715196
1772562809297362700,1.95236279296875,0.08783727340698241,-0.00312292692665942,-0.009235884248465298
1772562809307430000,1.962429931640625,0.07122808391153812,-0.004718699084967374,-0.010805435120128095
1772562809317497900,1.972497802734375,0.045808980494737625,-0.004721128504071384,0.002063800662010908
1772562809327564800,1.982564697265625,0.058977089625596994,-0.005139244318287819,-0.0038108269924297927
1772562809337631700,1.9926318359375,0.05778408044874668,-0.004333206898719072,-0.009744856683909892
1772562809347698700,2.00269873046875,0.058385553473234174,-0.004388663413003087,-0.014135090999491512
1772562809357765600,2.012765625,0.07364800453484058,-0.00028715551146306096,0.0021297420376911757
1772562809367832600,2.02283251953125,0.07395137139558791,-0.00889340922003612,-0.017152137265726924
1772562809377900800,2.03290087890625,0.06124211194813251,0.007180878814263269,-0.00062229661680758
1772562809387967700,2.0429677734375,0.050773324903845785,-0.0034068584345746783,-0.0033295462815091013
1772562809398034700,2.05303466796875,0.06992460009753704,0.005544500650931149,0.00005910977609455585
1772562809408102000,2.063101806640625,0.06333703840076924,0.0029821941485628483,0.0015131810419261454
1772562809418168800,2.0731689453125,0.07740823385119437,-0.0010672365058679134,-0.004859386197291315
1772562809428235800,2.08323583984375,0.06738543700873852,-0.012254738879296928,-0.0035863705867901444
1772562809438303700,2.0933037109375,0.07081950311064719,-0.0068920793349854645,-0.000612359744682908
1772562809448370700,2.10337060546875,0.07784837883412837,-0.014954819017695261,0.009535890108346939
1772562809458437600,2.113437744140625,0.06722820062041282,-0.010767897855024784,-0.00524422079641372
1772562809468504600,2.123504638671875,0.0709627109736204,0.0016652663310989736,-0.017749810897931456
1772562809478571800,2.13357177734375,0.06826455793082714,0.01903053489085287,-0.009015884822234511
1772562809488639000,2.143638916015625,0.06137538293898105,0.018448415020806713,-0.004941913381591439
1772562809498707000,2.15370703125,0.06825579010248184,0.0006008702362887561,0.010152670299820601
1772562809508774000,2.16377392578125,0.06751052469313144,0.010383985704509541,0.0009480214398354291
1772562809518840800,2.1738408203125,0.06181903505325317,-0.008831038907775654,0.013090440784767269
1772562809528907800,2.18390771484375,0.051631987559795374,0.01949489186643623,0.006773001266270876
1772562809538974700,2.193974609375,0.05567629451453685,0.010461928045237436,-0.008826536262594163
1772562809549042700,2.204042724609375,0.053142976644635194,0.01795772716072388,-0.013136435350961982
1772562809559109600,2.214109619140625,0.06960954279899596,0.01052710223593749,-0.009445325748063624
1772562809569176600,2.224176513671875,0.06257715994417667,0.005361234772205352,-0.012488492836244404
1772562809579243800,2.234243896484375,0.06406885980665683,-0.0018067114952486007,0.013098989417403936
1772562809589311000,2.24431103515625,0.08067863382399082,0.0017972860797774045,-0.009636464405991136
1772562809599378000,2.2543779296875,0.0754378105610609,-0.013427700781961902,-0.00610226239785552
1772562809609446000,2.26444580078125,0.06241816999018192,-0.009220641013560816,-0.0003314239114522934
1772562809619512800,2.274512939453125,0.055088850015401834,-0.0066304601235780865,-0.014622801451198757
1772562809629579800,2.284579833984375,0.05494914928376674,0.003290611643763259,-0.01894084731340408
1772562809639646700,2.294646728515625,0.06034311728179455,0.0021612057550344614,0.0015315569488331675
1772562809649713700,2.304713623046875,0.06468611492216586,-0.012299628333793952,0.006965235902741551
1772562809659780900,2.31478076171875,0.06513035155832766,-0.008773280838550999,0.01028181310482323
1772562809669848600,2.3248486328125,0.06169453189074993,-0.004020222826255485,0.003068191931582987
1772562809679915800,2.334915771484375,0.05032850374579429,0.0013756722673773764,0.0011561477651819585
1772562809689983000,2.34498291015625,0.06170037710964679,-0.0011334792756475507,-0.008568981304951012
1772562809700050000,2.3550498046875,0.07128244444727898,0.003048208589479327,-0.01669372597374022
1772562809710116900,2.365116943359375,0.06007365269064903,-0.004133382610836997,0.0003174684513360262
1772562809720183800,2.375183837890625,0.06665770725607871,0.005256605353951454,-0.000041062662750482553
1772562809730251800,2.385251708984375,0.05797405006289482,0.006857830005511641,-0.00643554947283119
1772562809740318700,2.395318603515625,0.06470423510074615,-0.004328932582400739,-0.0186189584152773
1772562809750385700,2.4053857421875,0.0726280138373375,0.0024229893632233142,0.00029291853196918965
1772562809760452900,2.415452880859375,0.062006082057952876,0.011536836400907486,-0.0012166092481464147
1772562809770519800,2.425519775390625,0.060655836492776866,0.0030778274096082896,-0.008141001683846115
1772562809780586800,2.435586669921875,0.07008183648586273,0.0027474994766991585,-0.009824059399962424
1772562809790654700,2.44565478515625,0.0646890375316143,0.0017997976972721516,0.0030478067306801675
1772562809800722000,2.455721923828125,0.0739653999209404,-0.0024672577632125466,-0.006718640730530023
1772562809810788900,2.465788818359375,0.07815349926054477,0.009674403529893606,-0.007204122692532837
1772562809820855800,2.475855712890625,0.06633563569486141,0.007065554472059011,0.004568805752880871
1772562809830922800,2.4859228515625,0.07935761435329913,-0.0009892028335947542,0.0009050590809434652
1772562809840990000,2.495989990234375,0.06618716713488101,-0.015976152288913727,0.003649206689931452
1772562809851057700,2.5060576171875,0.05885843168199062,-0.022061564016668124,-0.0013968246532604098
1772562809861124900,2.516124755859375,0.0576654225051403,0.0019385668471455573,-0.019739815671369433
1772562809871191800,2.52619189453125,0.07233049219548701,-0.003746027261065319,-0.009555288928560913
1772562809881258800,2.5362587890625,0.07158464226424693,-0.00958464288720861,-0.013699950985237954
1772562809891325700,2.54632568359375,0.05737316156029701,-0.005003863568743691,0.002183737247250974
1772562809901392600,2.556392578125,0.0627589462518692,-0.0008338478751014918,0.013233319854177535
1772562809911460900,2.5664609375,0.060520811936259265,0.0029354049979243425,-0.005869732283614575
1772562809921528300,2.5765283203125,0.06919628582298755,-0.0011001706610899418,-0.007438406372442841
1772562809931595500,2.586595458984375,0.06873918970525264,-0.004513093510270119,-0.012547383416630326
1772562809941662500,2.596662353515625,0.0696522128969431,-0.0014300510694272815,-0.014975268150679765
1772562809951729700,2.606729736328125,0.06097147831320762,0.0010059439058415591,-0.010662848311662674
1772562809961796600,2.616796630859375,0.05573474670350551,-0.008816014868579804,-0.014971249562688171
1772562809971864600,2.626864501953125,0.0681482380747795,-0.010366550512518733,-0.0035609438845887777
1772562809981931500,2.636931640625,0.07607493942081928,0.004661653401795775,-0.00047905222121626134
1772562809991998500,2.64699853515625,0.07338438516259194,0.0010262377751991151,0.0016608458843082189
1772562810002065400,2.6570654296875,0.07682078935205935,0.018144518437096847,0.0011135141998529433
1772562810012132400,2.66713232421875,0.06275310103297234,0.012553073371900245,-0.011156294384412466
1772562810022200300,2.677200439453125,0.07771978401839733,-0.0022780188014265147,0.012987236138619481
1772562810032267300,2.687267333984375,0.05677461114525795,0.006199457428324967,0.007872450408153235
1772562810042334500,2.69733447265625,0.061572366815805434,-0.0003624492373783141,0.004185286328010261
1772562810052401700,2.707401611328125,0.06860241158306599,0.015058224593242629,0.005964570960216224
1772562810062468600,2.717468505859375,0.07039338665306567,-0.00021891258084215222,-0.0018709084384143351
1772562810072535600,2.72753564453125,0.07083645424544811,0.006623966450709849,0.009862418648973107
1772562810082603500,2.737603515625,0.06769815621972083,0.010882418479630724,0.0023898177459836007
1772562810092670500,2.74767041015625,0.06351356401145458,-0.0043430798387620595,-0.005961465687677264
1772562810102737400,2.7577373046875,0.06755085670351982,-0.0007938903240486979,0.005091477920114993
1772562810112804400,2.767804443359375,0.06141746851503849,-0.005711308585200458,-0.007186806231550872
1772562810122871300,2.777871337890625,0.07937924166321754,0.005937071031937375,-0.01740892503838986
1772562810132938500,2.7879384765625,0.06904840178489685,0.010189202917926013,-0.008726984878256917
1772562810143006500,2.79800634765625,0.061571782293915744,-0.0028990915755275634,-0.00010747896246612071
1772562810153073700,2.80807373046875,0.07758768207132816,0.014646008796850218,0.0007026683766394853
1772562810163140600,2.818140625,0.060685062587261196,-0.004609274760587141,0.00799271578695625
1772562810173207600,2.82820751953125,0.06996785471737385,-0.009173294740496203,-0.01027984034344554
1772562810183274500,2.8382744140625,0.0624842209637165,-0.005526526602823287,-0.006559102787263691
1772562810193341400,2.848341552734375,0.06517945139706134,-0.005730826136423274,-0.006052760700322687
1772562810203409400,2.858409423828125,0.07221417233943939,0.0019840682229958473,-0.004187039893679321
1772562810213476400,2.868476318359375,0.06832534820735454,-0.008833888451987877,-0.0061102995738387105
1772562810223543300,2.878543212890625,0.06757949827611447,-0.00832955565904267,-0.00006250730957835913
1772562810233610500,2.888610595703125,0.06952887877821921,0.001827708617504686,-0.005554273126274347
1772562810243677400,2.898677490234375,0.06100070440769195,-0.0027823333280626683,-0.003932919002138078
1772562810253744400,2.908744384765625,0.07282032153904437,0.007979335715575143,-0.007556297131069004
1772562810263812600,2.9188125,0.07281739892959595,-0.0027617289314512163,0.010791406594775616
1772562810273879600,2.928879638671875,0.051421559679508205,-0.002733744945982471,-0.005206847928091883
1772562810283946500,2.938946533203125,0.05800619876682758,0.009408391271159052,0.015654409521259367
1772562810294013400,2.949013427734375,0.06953180138766765,0.0001397920631803572,-0.007756788139231503
1772562810304080400,2.959080322265625,0.06504734944999217,-0.0021810338335111735,0.007135112576931715
1772562810314147600,2.969147705078125,0.06759469584524631,-0.01009470216804184,-0.0055112742347642775
1772562810324215300,2.97921533203125,0.07178805588185787,-0.014603110370039939,-0.011721673182211815
1772562810334282500,2.989282470703125,0.06445405973196029,0.008340095319366083,-0.003362169909477234
1772562810344349400,2.999349365234375,0.06728256115615368,0.0021265545667614786,0.01052091909032315
1772562810354416400,3.00941650390625,0.07416355284154415,-0.004997616491047665,0.010487893603555858
1772562810364483300,3.0194833984375,0.058603580138087266,-0.0024776421599090096,0.001250109658949077
1772562810374550300,3.02955029296875,0.07881050186455249,-0.0004906695937737822,0.003929959860071539
1772562810384618500,3.039618408203125,0.07851181117892266,-0.007130655597522855,0.010360577429458498
1772562810394685400,3.049685546875,0.06803425630629062,0.003368499185563996,-0.009096804571337998
1772562810404752400,3.05975244140625,0.06070026015639305,-0.015004402913618832,-0.0038426103701815007
1772562810414819600,3.069819580078125,0.07686170588433743,0.002363632991956547,-0.015606113400124013
1772562810424886500,3.079886474609375,0.07416238379776477,-0.012798864826513453,-0.01170070345941931
1772562810434953500,3.089953369140625,0.0729541770517826,0.002208972153207287,-0.0003514072535559535
1772562810445021400,3.100021484375,0.06802022778093815,0.010516900502331554,0.0034476197032257913
1772562810455088400,3.11008837890625,0.06876666223406791,0.003509734287159517,0.01464760709889233
1772562810465155300,3.1201552734375,0.06112637661397457,-0.006332372226146981,0.010428381968662142
1772562810475222300,3.13022216796875,0.07444353882670401,-0.0013045797925442457,-0.0005182882530614734
1772562810485289200,3.140289306640625,0.07219897477030754,-0.007884341775346547,0.0018688626118004321
1772562810495357400,3.150357421875,0.07100304298400878,-0.006976186555018648,0.007388466283492744
1772562810505424400,3.16042431640625,0.07085048277080058,0.007919047762546687,0.0006230638017877936
1772562810515491600,3.17049169921875,0.07683598692119122,0.0032473296244628727,-0.013311791917867959
1772562810525558500,3.18055859375,0.08716039705872536,0.0022907960846088827,0.004661781265959143
1772562810535625500,3.19062548828125,0.06411094538271427,0.005507009051600471,0.003076886694692075
1772562810545692400,3.2006923828125,0.06904723274111747,-0.006584209829056635,-0.014507029584422708
1772562810555760400,3.210760498046875,0.06979951241314411,-0.008960948897758498,-0.005585910373553634
1772562810565827300,3.220827392578125,0.06246084008812904,0.006920191184617578,0.009602306408062576
1772562810575894300,3.230894287109375,0.0688894118309021,-0.0015510197011288254,0.004704414831288159
1772562810585961200,3.240961181640625,0.058707040512561794,-0.005123663156665861,-0.011147307360358535
1772562810596028400,3.2510283203125,0.06589958236515521,-0.01368701843842864,-0.0010679580250754952
1772562810606095600,3.261095703125,0.06095978787541389,0.00836016085986048,-0.010471746186353265
1772562810616163600,3.27116357421875,0.06859189018905162,0.008313408241840079,-0.005234612717851996
1772562810626230500,3.28123046875,0.07023264313340187,0.012617471244465559,0.008449921502545475
1772562810636297500,3.29129736328125,0.06304711554348469,-0.002587998066050932,-0.004657178156077861
1772562810646364400,3.301364501953125,0.06574351502060889,0.00008089234963990748,-0.016620441541820765
1772562810656431400,3.311431396484375,0.07278408118188381,-0.016586858932627364,-0.0016141206657513975
1772562810666498300,3.321498291015625,0.05767594389915466,0.00418629097500816,-0.005211524103209376
1772562810676566300,3.331566162109375,0.07114332823753357,0.0036418362342286854,0.0003457081651315093
1772562810686633500,3.341633544921875,0.07085691251158714,0.0035120449752546845,0.02171666870228946
1772562810696700400,3.351700439453125,0.07220774259865284,0.006510103413229808,-0.007121449377760291
1772562810706767600,3.361767578125,0.06666822865009307,-0.006041298591392115,-0.005677936038561165
1772562810716834600,3.37183447265625,0.08746727105081081,-0.004069560127006843,-0.012262136734463273
1772562810726901500,3.381901611328125,0.06487608453631401,-0.016040066104289142,0.009068309129215777
1772562810736969500,3.391969482421875,0.06847030963599682,-0.003269660187279805,0.011096600086428224
1772562810747036400,3.402036376953125,0.05739829600155353,0.0035241098723839967,-0.0028292320765554903
1772562810757103400,3.412103271484375,0.06518003591895104,0.004366935638384893,0.004499795637279749
1772562810767170300,3.42217041015625,0.06562777968645095,0.0002383570668287575,0.010581051779724657
1772562810777237500,3.432237548828125,0.061736617466807364,-0.013646220637159421,-0.008122443113848566
1772562810787304400,3.442304443359375,0.06174012459814548,0.0064444908311124885,-0.009937273983471094
1772562810797372400,3.452372314453125,0.06638122840225696,0.003458460757648572,-0.00010912293028086423
1772562810807439400,3.462439453125,0.06429156264662743,0.0015186518014874309,-0.006427512296847999
1772562810817506600,3.472506591796875,0.06563713203668593,0.00844560152045451,0.003886668707616627
1772562810827573500,3.482573486328125,0.06264613352715968,0.003824499324755743,0.00811086227390915
1772562810837640400,3.492640380859375,0.07072656413018703,-0.004032488652784377,0.01647109619900584
1772562810847708400,3.50270849609375,0.06383855818212032,0.009560768821276724,0.014714754050970077
1772562810857775400,3.512775390625,0.07116612459123134,0.005679388210130855,0.00654390521813184
1772562810867842600,3.522842529296875,0.06757832923233509,-0.0011046915725804864,0.00006491846237331629
1772562810877909500,3.532909423828125,0.06638239744603633,-0.010801626594690606,0.005628142080083489
1772562810887976400,3.5429765625,0.06564063916802405,0.004880200656456873,-0.0000760609108954668
1772562810898043400,3.55304345703125,0.06654723261892795,0.00030375045323744414,-0.01757788839712739
1772562810908111400,3.563111328125,0.07777531359791755,-0.004857121174968779,-0.005069923675432801
1772562810918178300,3.57317822265625,0.07148994971811772,-0.004944525463785976,0.002973791646398604
1772562810928245200,3.583245361328125,0.07298281862437725,-0.004517011633561924,-0.005033354524709284
1772562810938312200,3.593312255859375,0.06326338864266871,0.0048294933825265614,0.021573095513135195
1772562810948379400,3.60337939453125,0.0703057083696127,-0.008271742790890857,0.010526143254712223
1772562810958446300,3.6134462890625,0.08183014194667339,-0.0032707470326684414,-0.01564794324785471
1772562810968514300,3.623514404296875,0.06087795481085777,0.005815097753237933,0.0009426146123558282
1772562810978581200,3.633581298828125,0.04905775315761566,-0.001700602505961433,0.008579173905402422
1772562810988648200,3.643648193359375,0.06161912856698036,-0.00983195957862772,0.00973930372595787
1772562810998715100,3.653715087890625,0.0735860452145338,-0.004692824858194217,0.012763108526542782
1772562811008782300,3.6637822265625,0.06954992156624794,-0.0027578199413139373,0.006858816386200488
1772562811018849300,3.673849365234375,0.0842038853406906,-0.004807838673144578,-0.0036752544466406105
1772562811028917200,3.683917236328125,0.06145429339408874,0.002301527541177347,-0.005840286993421614
1772562811038984200,3.693984130859375,0.05861176344454288,0.003571218683430925,0.003974529654160142
1772562811049051400,3.704051513671875,0.06743745945692062,-0.01076492957980372,-0.005609218183904886
1772562811059118300,3.714118408203125,0.07282207510471343,0.004578176369424909,-0.004442512492090463
1772562811069185300,3.724185302734375,0.05052081144750118,0.015574393954453989,-0.004680632096901536
1772562811079252200,3.734252197265625,0.06338146206438541,0.00490229375725612,-0.010058818003907798
1772562811089320200,3.7443203125,0.06412731199562549,-0.011188972811307757,0.01251735360454768
1772562811099387100,3.75438720703125,0.0515612604111433,0.009492379760183394,0.0016115268498659134
1772562811109454300,3.764454345703125,0.08239245200455188,-0.002776141049293801,0.008627689222246408
1772562811119521300,3.774521240234375,0.06668517978489398,-0.008031613892083986,0.005575462044775486
1772562811129588500,3.78458837890625,0.0639917029172182,-0.006038750441279262,-0.0029409122901037335
1772562811139655400,3.794655517578125,0.06563128681778907,0.001513272373471409,0.00208440505862236
1772562811149723400,3.804723388671875,0.05351005639135837,-0.004328521590447053,-0.0027632176356390116
1772562811159790300,3.814790283203125,0.07984393656551837,-0.0013136307486798613,-0.0028500191362574694
1772562811169857300,3.824857177734375,0.07325403678119183,0.004665489326696842,0.010793890812806784
1772562811179924200,3.83492431640625,0.07565233009457588,-0.0015070800947025417,-0.004249218409694731
1772562811189991200,3.8449912109375,0.0738607705026865,0.0010848086951766162,0.00014532675482332706
1772562811200059100,3.85505908203125,0.07250643328428268,0.004908102443534881,-0.0011804054236039519
1772562811210126000,3.8651259765625,0.08447042732238769,-0.005608450998924672,-0.017054083718732
1772562811220193300,3.875193359375,0.07594225295186043,-0.009246542639797553,-0.018091865801252424
1772562811230260500,3.885260498046875,0.06621639322936534,-0.008022170210303738,-0.012138254626467823
1772562811240327400,3.895327392578125,0.059335401543974875,-0.008000944759184494,-0.014070976254716514
1772562811250394400,3.905394287109375,0.06786240687072277,0.00538342833770439,-0.0034193799894303083
1772562811260461300,3.91546142578125,0.05724164413511753,0.018630447923671453,-0.005014028769731521
1772562811270529300,3.925529296875,0.058735682085156435,-0.0057717700681649145,0.0008162482863292098
1772562811280596200,3.93559619140625,0.05963701483905315,-0.009879552446864545,0.00415416053738445
1772562811290663200,3.9456630859375,0.0711596948504448,0.004791051935125142,-0.02006404265705496
1772562811300730000,3.955730224609375,0.05829378353655338,0.005946030656527728,0.0016791852585971354
1772562811310797300,3.96579736328125,0.060388125467300414,-0.002870212540915236,-0.011391308716684579
1772562811320864300,3.9758642578125,0.07490472659766674,-0.006411611474817619,0.004321552993543446
1772562811330932500,3.985932373046875,0.07011690779924393,-0.008511734692379832,0.010209515053592622
1772562811340999400,3.99599951171875,0.06457856289446354,0.002822263479651883,0.006981492917798459
1772562811351066400,4.00606640625,0.06771802996397018,0.009757469570310786,0.0002951835542917251
1772562811361133300,4.01613330078125,0.07265139471292495,0.007892625546501948,-0.010394041307643055
1772562811371200300,4.0262001953125,0.06353051514625549,0.005993057269183919,-0.008135594856366515
1772562811381268200,4.036268310546875,0.06428045673072337,-0.00005754800667054951,-0.0037878479756414886
1772562811391335200,4.046335205078125,0.06592939298152924,-0.00992924594064243,0.004166691225394607
1772562811401402000,4.056402099609375,0.06293371829688549,-0.000796584604633972,-0.00716532505210489
1772562811411469300,4.06646923828125,0.0629331337749958,0.00912108962922357,0.0030100320035591718
1772562811421536300,4.076536376953125,0.06398001247942448,-0.0018699585903435944,-0.005697554054483771
1772562811431603200,4.086603271484375,0.07026654540300369,-0.0004538264484144747,-0.010025719451904296
1772562811441671400,4.09667138671875,0.06533259613215923,0.006451121501298621,0.0006338774567469954
1772562811451738400,4.10673828125,0.05022095171809196,-0.00036963702999055385,-0.016063903637602923
1772562811461805300,4.116805419921875,0.07116261745989322,-0.009471473969472571,-0.011870068676955997
1772562811471872300,4.126872314453125,0.07519523397684097,-0.0020554346924647688,0.01118548394627869
1772562811481939200,4.136939208984375,0.06053016428649425,0.004904458314878866,-0.00021846505627036095
1772562811492006400,4.14700634765625,0.06726034932434559,0.013074101571319625,-0.018274675022251902
1772562811502074400,4.157074462890625,0.07309446230530739,-0.000486523141618818,0.00021115853264927863
1772562811512141300,4.167141357421875,0.06590893471539021,-0.008065077770268544,0.0021100874891504646
1772562811522208300,4.177208251953125,0.07248246788680553,0.0016172442045994102,-0.007843078183196484
1772562811532275200,4.187275146484375,0.06395312447249889,-0.0016409630069043487,0.002427592473104596
1772562811542342100,4.197342041015625,0.06260404795110225,-0.005482860991032794,-0.012214680863544344
1772562811552409000,4.2074091796875,0.05946224279403686,-0.005978060629451647,-0.015668291916139422
1772562811562477300,4.217477294921875,0.06185585993230343,-0.016366037522489205,-0.004421615834534168
1772562811572544300,4.227544189453125,0.06889116539657116,0.010390652907313778,-0.006727591221965849
1772562811582611200,4.237611083984375,0.06334989788234234,0.007020948145352304,-0.008459566113725303
1772562811592678400,4.247678466796875,0.06335223596990108,-0.01143094660732895,0.0015021116586402057
1772562811602745300,4.257745361328125,0.06574585310816765,-0.004603055082354694,0.0041685543889179826
1772562811612812300,4.267812255859375,0.07067863333523274,0.006442773798061534,-0.0041355654347687955
1772562811622880300,4.27788037109375,0.06843523832261562,-0.005557990320166573,-0.00213010736387223
1772562811632947200,4.287947265625,0.06619184330999851,-0.010148158521484584,0.010486395766213536
1772562811643014100,4.29801416015625,0.06394494116604328,-0.008291132477950304,-0.0034621962178498504
1772562811653081000,4.3080810546875,0.06977905414700508,-0.004034196552680805,0.003049706426821649
1772562811663148300,4.318148193359375,0.06528817246854304,-0.007972138789808377,0.019467136209830642
1772562811673215500,4.328215576171875,0.0678349343419075,-0.013522183265537023,-0.0004275412296876311
1772562811683283500,4.338283447265625,0.0786146870315075,0.0053653446917422114,0.002058028508350253
1772562811693350400,4.348350341796875,0.05812251862287521,0.003560514626326039,-0.017028547418676317
1772562811703417300,4.358417236328125,0.061411038774251935,-0.004959933095471933,-0.009118030022457242
1772562811713484300,4.368484375,0.06306231311261654,-0.014923209169879555,-0.009784932965971528
1772562811723551200,4.37855126953125,0.07563245635032653,-0.010499803237058222,-0.012483999324217438
1772562811733618200,4.3886181640625,0.07114040562808513,-0.00692597247143276,0.0012162073893472551
1772562811743686100,4.39868603515625,0.059011576417088506,0.010552136212494224,0.005674282776750624
1772562811753753000,4.408753173828125,0.0617044687628746,-0.006290980769833549,0.01596051632836461
1772562811763820300,4.4188203125,0.07876432463526725,-0.008140307564102113,0.012425364472158253
1772562811773887500,4.428887451171875,0.06499766508936881,-0.0029400903061963615,0.002876139958202839
1772562811783954400,4.438954345703125,0.08026362328231335,0.003680003686994314,-0.003774294374324381
1772562811794021400,4.449021484375,0.07218377720117569,0.0010245116089936345,0.0027825433906167743
1772562811804089300,4.45908935546875,0.06515080982446671,-0.0015695508716627954,-0.013095993742719293
1772562811814156300,4.46915625,0.05931377423405647,-0.003626191140525043,-0.0074181673020124435
1772562811824223200,4.47922314453125,0.054525955435633655,-0.0054202714830636975,-0.004118102843314409
1772562811834290200,4.489290283203125,0.053773091241717336,-0.011931196880200877,0.0018333163743838668
1772562811844357400,4.499357421875,0.06141513042747974,-0.0003475073965732008,0.011606997293978929
1772562811854424300,4.50942431640625,0.0729372259169817,-0.020179129537241533,-0.002428542321175337
1772562811864492300,4.5194921875,0.06561550472676754,-0.0008498856944497674,-0.009327763783000409
1772562811874559200,4.529559326171875,0.07204875264465808,0.00030858189198188483,0.010189093320071696
1772562811884626400,4.53962646484375,0.07654080336689949,-0.0004068637678399682,-0.0042976241286844016
1772562811894693400,4.549693359375,0.06666062986552715,0.000046058498276397585,0.00005805033016949892
1772562811904760300,4.55976025390625,0.0683007982879877,-0.0164856727136299,-0.007567512644827365
1772562811914828300,4.569828369140625,0.06066460432112217,-0.004734901301097124,-0.0010637567739933728
1772562811924894700,4.579894775390625,0.06634791065454483,0.004491292670415714,-0.013511260012723505
1772562811934962000,4.5899619140625,0.0681441464215517,0.0028942327373195436,0.005818769281357526
1772562811945029000,4.600029052734375,0.07352876206934451,-0.006870269361976534,-0.002570435009896755
1772562811955096000,4.610095947265625,0.08653905028998851,0.0014702917482703924,-0.00705298725143075
1772562811965163000,4.6201630859375,0.0658867228835821,0.0022578984620049594,-0.014428155661933123
1772562811975231000,4.63023095703125,0.07890460988879203,-0.010198354338761418,-0.0052684784548357125
1772562811985298000,4.6402978515625,0.08563830205798148,0.001916300216410309,0.006296323665231466
1772562811995364900,4.65036474609375,0.0711240390151739,-0.008417115211486815,0.016181977059319615
1772562812005431800,4.660431884765625,0.08308920209705829,0.0032251908578909932,0.005919745437800884
1772562812015498800,4.670498779296875,0.06693243254423141,-0.009617704906594008,-0.000672894292883575
1772562812025566000,4.68056591796875,0.06498480560779571,0.0007063033721409738,-0.0005280424620956182
1772562812035633000,4.6906328125,0.07935352270007133,-0.010775441840663551,0.008545600429363549
1772562812045700900,4.700700927734375,0.07321954998970032,0.010461526186438277,-0.003359466495737433
1772562812055768000,4.71076806640625,0.0640922406822443,0.004585592490900308,-0.00994352106116712
1772562812065835000,4.7208349609375,0.056603930753469464,0.007760414001578465,0.001999795515090227
1772562812075902000,4.73090185546875,0.07097264784574508,0.0031493582758586854,0.0013313216689974068
1772562812085969000,4.740968994140625,0.0700742377012968,0.012858367328252643,0.0010606149688363075
1772562812096036900,4.751036865234375,0.07127367661893368,0.0002476272186730057,0.019146416355483233
1772562812106103800,4.761103759765625,0.06887889043688773,-0.009576121654035524,0.0016003844013437627
1772562812116171000,4.7711708984375,0.060493339407443995,0.000029107363475486635,-0.014479520522989332
1772562812126238000,4.781238037109375,0.06199380709826946,-0.0017017989492043853,-0.01112458407189697
1772562812136305000,4.791304931640625,0.07141688448190689,0.0025486524363514036,-0.002106836086139083
1772562812146371800,4.801371826171875,0.07217033319771289,0.0010403758984059094,0.0009839330034330488
1772562812156440000,4.811440185546875,0.06304536197781563,0.0035947274231817572,-0.014857560055144131
1772562812166507000,4.821507080078125,0.06244856512844562,-0.004292856622021645,-0.0044823695784434675
1772562812176574000,4.831573974609375,0.08728665378689765,0.0023848767093848436,0.0041430546214804055
1772562812186641000,4.841640869140625,0.07920563866198062,-0.00492841457920149,-0.0006449833726510405
1772562812196707800,4.851707763671875,0.07232406245470047,-0.002267716603120789,0.009554521743580699
1772562812206775000,4.861775146484375,0.07531681452989578,-0.00809518978074193,-0.0023196751192212104
1772562812216843000,4.871843017578125,0.06185527541041374,0.0004601831239648163,0.0065374754773452875
1772562812226910000,4.881909912109375,0.06709025345444679,0.0025680421234108505,-0.010319295570999384
1772562812236977000,4.891976806640625,0.07053250286281108,-0.019460660803271457,0.00040967677943408486
1772562812247043800,4.9020439453125,0.05811082818508148,0.004616371221654117,-0.004868994275853037
1772562812257110800,4.91211083984375,0.0660351914435625,0.01323383131083101,-0.0012758651547133922
1772562812267177700,4.922177734375,0.062441550865769385,-0.006299648133479058,-0.013730163460411131
1772562812277246000,4.932245849609375,0.05705342808663845,-0.007565138024650513,-0.008634374691359699
1772562812287313000,4.94231298828125,0.06932137350738048,0.004221024361671879,0.0052617564531043165
1772562812297380000,4.952380126953125,0.05510638567209243,-0.00044757937071844935,-0.0014688669761642812
1772562812307447000,4.962447021484375,0.06468436135649681,0.0013739735006354748,-0.008468808866105973
1772562812317514000,4.972513916015625,0.07470365106761455,0.007069974918849766,-0.00751022949963808
1772562812327581000,4.982580810546875,0.07365735688507556,0.00028106369739398356,-0.008692790347710252
1772562812337649000,4.99264892578125,0.083833882984519,0.0008555847828742116,0.0036907077440991995
1772562812347715800,5.0027158203125,0.06258592777252196,-0.016653795822151006,-0.005320537435635924
1772562812357782800,5.01278271484375,0.06722586253285408,-0.0010566877123899757,0.006934365840442478
1772562812367849700,5.022849609375,0.06019347967803478,0.0004401815155521035,0.00616045885849744
1772562812377917000,5.0329169921875,0.053908700320124625,-0.013916635076375677,-0.004764730183780193
1772562812387984000,5.04298388671875,0.05525426971018314,-0.005028550485428422,-0.02068122470732778
1772562812398052000,5.053052001953125,0.08383563655018805,-0.0008095445509068667,-0.0046937838394194836
1772562812408119000,5.063119140625,0.07306523621082306,-0.0026764526676386594,-0.00669040101673454
1772562812418186000,5.07318603515625,0.062436290168762204,-0.015330529595445841,-0.005274360206350684
1772562812428253000,5.0832529296875,0.07156184591054916,-0.005941537144500762,-0.007428761761263013
1772562812438319900,5.09331982421875,0.07724222963452339,-0.0022715799274854362,-0.013853826372697949
1772562812448386800,5.10338671875,0.04387421303987503,-0.003877124561136588,-0.005728570247255265
1772562812458454800,5.113454833984375,0.05853577559888363,0.005865375768905505,-0.00010210866760462522
1772562812468521700,5.123521728515625,0.09295476255118847,0.008250864399643615,-0.01023786436524242
1772562812478589000,5.1335888671875,0.07185761398673057,0.002371149578131735,0.00011021890882402658
1772562812488657000,5.143656982421875,0.06377075364291668,-0.0038989071346819397,0.007516695773042738
1772562812498724000,5.15372412109375,0.07379647309482097,-0.0009742975254077463,-0.0005392579758539796
1772562812508791000,5.163791015625,0.07259937226474285,-0.01508942344910465,-0.0023022855930030345
1772562812518858000,5.17385791015625,0.07574643811881542,-0.006567907148227095,0.0012363003293052316
1772562812528926000,5.183926025390625,0.07305705290436744,0.002679265679232776,0.0018522768031805754
1772562812538993000,5.193992919921875,0.07021569199860096,-0.009058025197219103,0.0011252046376466751
1772562812549059800,5.204059814453125,0.07875263419747353,0.006751520086824893,-0.007458791573345661
1772562812559126800,5.214126708984375,0.07037351290881633,-0.010339014051621779,-0.0034182474782690404
1772562812569193700,5.22419384765625,0.08473053956329822,-0.0025190244830679146,-0.013748612432554364
1772562812579261000,5.234260986328125,0.08189210126698017,-0.0034214075497351584,0.00045201808381825685
1772562812589329000,5.244328857421875,0.06348550696074962,-0.002886423890199512,-0.015150040195696055
1772562812599396000,5.25439599609375,0.05435235243439674,-0.013167378478497267,-0.006413191510550678
1772562812609463000,5.264463134765625,0.07753565962314606,-0.016338893787236883,-0.003553235502168536
1772562812619530000,5.274530029296875,0.054337739387154575,0.004059148330846801,0.00546356263551861
1772562812629597000,5.284596923828125,0.07573474768102169,-0.01210005064108409,-0.01929579823091626
1772562812639663900,5.294663818359375,0.08111819428503513,0.008651170562533662,-0.00781874745953828
1772562812649731800,5.30473193359375,0.06466098048090935,0.000023271277733147144,0.0037838293876498934
1772562812659798800,5.314798828125,0.07363514505326747,0.0020915563186164944,-0.01112721442040056
1772562812669865700,5.32486572265625,0.07827917146682739,-0.008288766990927978,-0.0014540712658315895
1772562812679933000,5.334932861328125,0.06077975513339042,0.0039625926211941985,-0.0034328239928930995
1772562812690000000,5.344999755859375,0.07230828036367892,0.004483410758059471,0.0053567047275602814
1772562812700066800,5.35506689453125,0.07814590047597884,-0.0015494213990867138,0.0038834903698414564
1772562812710135000,5.365135009765625,0.06962006419301033,-0.013619524426478891,-0.011941891804151237
1772562812720202000,5.375201904296875,0.07785305500924587,0.0021216043970081954,0.0038408933371305463
1772562812730269000,5.38526904296875,0.06782558199167252,-0.004365638730442151,-0.007794672464206814
1772562812740335900,5.3953359375,0.07171908229887484,0.00010682137534022331,0.013715185086987911
1772562812750402800,5.40540283203125,0.07246902388334274,0.0041312637189868835,0.002522759943269193
1772562812760470000,5.415469970703125,0.06304068580269813,-0.010419787670252844,-0.00809829505328089
1772562812770537700,5.425537841796875,0.07755845597684383,0.004110942450165749,0.0073444079460576175
1772562812780605000,5.43560498046875,0.06738777509629726,-0.006463104200037196,-0.0017241934441030024
1772562812790672000,5.445671875,0.06769114195704459,-0.0033614940560422837,-0.004685125608928501
1772562812800738800,5.45573876953125,0.05437222617864609,0.011547302995994687,-0.013961889857053756
1772562812810805800,5.4658056640625,0.07517711379826068,0.0012692984166089445,-0.011186324196495115
1772562812820873000,5.475873046875,0.06260989316999913,0.005953958234656602,0.0005069631414487957
1772562812830941000,5.48594091796875,0.06799509333968162,0.0019602306896820665,0.005563808139599859
1772562812841007900,5.4960078125,0.07982172473371028,0.002601414670050144,-0.008819814260862768
1772562812851074800,5.50607470703125,0.059769701308012006,-0.005532801079982891,-0.0005733429085463285
1772562812861142000,5.51614208984375,0.04391162244081497,-0.0008776413510553538,-0.005923617895320058
1772562812871209000,5.526208984375,0.052583589196205135,0.005153839099220931,0.0021706220373511314
1772562812881277000,5.53627685546875,0.07607260133326053,-0.005261509857932106,-7.306523621082305e-8
1772562812891344000,5.54634375,0.05542261201441288,0.0002421016601845622,0.008675181625783443
1772562812901410800,5.556410888671875,0.07561550521552562,0.003646859469218179,-0.019302447167411446
1772562812911477800,5.566477783203125,0.07995674929022789,0.003959268152946606,-0.005237206533737481
1772562812921544700,5.576544677734375,0.08534487206935883,-0.003852921701641753,0.003950345060974359
1772562812931612000,5.58661181640625,0.07173135725855827,-0.0027940694316290317,-0.0151219831449911
1772562812941679900,5.596679931640625,0.0624538258254528,0.012640413728635757,-0.00030632600281387565
1772562812951746800,5.606746826171875,0.07158931843936443,0.0024157011059112846,-0.018312047890573738
1772562812961814000,5.61681396484375,0.06814706903100014,0.007739097218913957,0.001713598984852433
1772562812971881000,5.626880859375,0.0642535687237978,-0.004317022948898375,0.006001286241412163
1772562812981948000,5.636947998046875,0.0641010085105896,-0.007115777688799426,-0.014889781824313103
1772562812992014800,5.647014892578125,0.06439911467432975,0.001005706443823874,-0.0008756868559867143
1772562813002082800,5.657082763671875,0.07053542547225952,-0.01470745666050352,0.006275390475057065
1772562813012149800,5.667149658203125,0.07203004794418812,0.005501529158884659,-0.006113112585432827
1772562813022216700,5.677216796875,0.06185293732285499,0.00520723152058199,-0.005600011964142323
1772562813032284000,5.687283935546875,0.06588847644925117,0.0016715408082585781,0.00988437475245446
1772562813042351000,5.69735107421875,0.06275485459864139,-0.006046075231209397,0.011185630076751113
1772562813052418000,5.70741796875,0.05916472115218639,0.0023791228220332414,-0.008524082717299462
1772562813062486000,5.717486083984375,0.05871697738468647,0.009890530498605221,0.011904884262010454
1772562813072553000,5.727552978515625,0.06575052928328513,0.001939544094679877,0.009863514627516268
1772562813082620000,5.737619873046875,0.06350012000799178,-0.015729611915629355,-0.007468070858344435
1772562813092686800,5.747686767578125,0.07442191151678562,-0.006802327825454995,-0.01380922004599124
1772562813102753800,5.75775390625,0.0652899260342121,0.0012309391675982624,-0.011970350713655351
1772562813112820700,5.76782080078125,0.06618249095976353,-0.001762771888822317,-0.011676153540052473
1772562813122888700,5.777888671875,0.05421732787787914,0.003727550889458507,-0.0030311113242059945
1772562813132956000,5.787955810546875,0.054526539957523344,-0.011439020315930247,0.00823554809950292
1772562813143023000,5.798023193359375,0.07128302896916866,0.002001046757260337,0.008562003574892878
1772562813153090000,5.808090087890625,0.07248597501814365,-0.0011495810270775108,0.0007545446943491696
1772562813163157000,5.818156982421875,0.060063715818524356,-0.014277403813321142,-0.010357435624301433
1772562813173224000,5.828223876953125,0.06291033742129802,-0.002908443925762549,-0.015365107718482613
1772562813183292000,5.8382919921875,0.07443827812969685,-0.0038846594136208294,0.016752287760563193
1772562813193358800,5.84835888671875,0.0696557200282812,0.0015632581281941383,0.006367817998863756
1772562813203425800,5.85842578125,0.07249941902160643,-0.000702348716231063,-0.00219937320780009
1772562813213493000,5.868492919921875,0.0644143122434616,-0.010376195123698561,-0.003223090232349932
1772562813223560000,5.878559814453125,0.07713117047548293,0.005600897880131378,-0.0017465879390016197
1772562813233627000,5.888626953125,0.06381576182842254,-0.014917300018901004,-0.019305223646387457
1772562813243695000,5.898695068359375,0.07324819156229495,-0.003752192140370607,0.012955781554430723
1772562813253762000,5.908761962890625,0.06756371618509292,0.010962041320791467,-0.005289155916683375
1772562813263829000,5.9188291015625,0.06501870787739754,-0.0006575323269702493,-0.010383848707191645
1772562813273896000,5.92889599609375,0.06651859104633331,-0.0009779873198363929,-0.009918459685146808
1772562813283963000,5.938962890625,0.06741933927834033,0.0039393852755427354,0.01134074757322669
1772562813294029800,5.94902978515625,0.06817395703792571,-0.004429278551181778,0.00500233833193779
1772562813304097800,5.959097900390625,0.07371347098648548,0.0007717424243222922,-0.010220876697823405
1772562813314165000,5.9691650390625,0.07386135502457618,-0.003575063741486519,-0.03240527250971645
1772562813324232000,5.97923193359375,0.06923018809258938,0.008063872193871065,-0.00716221977956593
1772562813334299000,5.989298828125,0.08763619787693024,0.017943041048245505,-0.0017560498870909213
1772562813344365800,5.99936572265625,0.08195055345594883,-0.0081073094767984,-0.005449607175402343
1772562813354432800,6.009432861328125,0.09376958606541157,-0.0024342870753724126,0.002737133346311748
1772562813364501000,6.0195009765625,0.07476210325658321,-0.004875679744966328,-0.008836838460899889
1772562813374568000,6.02956787109375,0.0678828651368618,-0.015366021033935248,0.01129807747527957
1772562813384635000,6.039634765625,0.058902270823717115,-0.006722485788585618,-0.007571385102346539
1772562813394702000,6.0497021484375,0.06967676281630993,0.00029183168658055363,0.002067892315238714
1772562813404769000,6.05976904296875,0.07087503269016743,0.00039861652930267154,-0.0009248597599565982
1772562813414837000,6.0698369140625,0.060847559672594066,-0.00960205067973584,0.008782806718721985
1772562813424904000,6.079904052734375,0.06653261957168578,-0.012863454495323822,0.01414879073128104
1772562813434971000,6.089970947265625,0.0804442405462265,-0.009394088751170784,0.007518120545148849
1772562813445037800,6.100037841796875,0.06353109966814517,-0.009271896276762708,-0.0004524564752355218
1772562813455104800,6.110104736328125,0.05784545524716377,-0.009128313954453914,-0.0030986966677010058
1772562813465171700,6.120171630859375,0.059493806976079935,0.008842482750397175,-0.0073824384015053505
1772562813475240000,6.130239990234375,0.07835048313736916,-0.0024872685047797856,0.008697612653300166
1772562813485307000,6.140306884765625,0.06533318065404892,0.010100465188547968,-0.008527041859366
1772562813495374000,6.1503740234375,0.07760229511857032,-0.0011172953258268535,-0.01005092695839703
1772562813505441000,6.16044091796875,0.07506020942032336,-0.0011720851198304444,-0.0024432649662718174
1772562813515508000,6.170508056640625,0.06174889242649078,-0.01691549723194912,-0.009011866234242915
1772562813525575000,6.180574951171875,0.07626257094740867,-0.0001313621615525335,-0.008574936121702193
1772562813535643000,6.190642822265625,0.0542670122385025,0.002106589490966871,-0.005703070479817688
1772562813545709800,6.200709716796875,0.056067924180626866,-0.000024312457349151372,-0.005162424264475703
1772562813555776800,6.21077685546875,0.06803893248140812,-0.00993227814794518,0.0029075214771553874
1772562813565843700,6.22084375,0.06340718102753162,-0.00013001045468263327,-0.010178498860821127
1772562813575911000,6.230910888671875,0.07328618548512458,-0.0011024630828760564,-0.013234525430575012
1772562813585977900,6.240977783203125,0.06909867066740989,-0.005842615947825834,-0.0025481135802343487
1772562813596046000,6.251046142578125,0.0635515579342842,0.0029263631749432534,0.006878032543323934
1772562813606113000,6.261113037109375,0.05246960742771625,-0.007088551755156367,0.009184227126464247
1772562813616180000,6.271179931640625,0.06159282508194446,-0.001386221060855314,-0.00022891338504850864
1772562813626247000,6.281246826171875,0.07536123819351195,0.015175786558305844,-0.004401742090284824
1772562813636313900,6.29131396484375,0.0762614019036293,-0.004433525468036532,0.012103512106649577
1772562813646380800,6.301380859375,0.0806008924126625,-0.002799101799773052,0.005515512018464505
1772562813656448800,6.31144873046875,0.07071662725806235,-0.005201514165848493,0.004642455510981381
1772562813666515700,6.321515625,0.07326105104386806,-0.00844650570275262,0.007419738204590976
1772562813676583000,6.3315830078125,0.06129530344009399,-0.008683218801766633,-0.02112505948469043
1772562813686649900,6.34164990234375,0.07012041493058205,0.006825060247071087,-0.011234802980720996
1772562813696716800,6.351716796875,0.08612696235775948,0.0014371931962668895,-0.008785765860788523
1772562813706784000,6.361783935546875,0.06592471680641174,-0.0007488638722337782,-0.011336327126435935
1772562813716852000,6.37185205078125,0.0677174454420805,-0.0035255255113355814,-0.015225918443500994
1772562813726919000,6.3819189453125,0.06367898370623588,-0.0029045988677069545,-0.008705284503102302
1772562813736985900,6.39198583984375,0.054105684196949,0.0027048476450610903,-0.009250241567380725
1772562813747052800,6.402052734375,0.07011164710223675,0.005884107868839055,-0.017424232205376027
1772562813757120000,6.4121201171875,0.05934358485043049,0.004547388505516573,0.0037967254018411037
1772562813767187700,6.422187744140625,0.06951718834042549,-0.00012607406508177517,-0.011059081087633966
1772562813777255000,6.4322548828125,0.06756313166320324,0.001151288926973939,-0.002094341930747032
1772562813787321900,6.44232177734375,0.07325228321552277,-0.007263095471309497,0.0006041764382272958
1772562813797388800,6.452388916015625,0.057549687170982355,0.00909442081800662,-0.005811828083917499
1772562813807456000,6.4624560546875,0.0595043283700943,0.014840974246524273,-0.017961444354616104
1772562813817523000,6.47252294921875,0.07716039656996726,-0.007727872572001069,-0.0016723536590114235
1772562813827591000,6.4825908203125,0.06085749654471874,-0.004120988920144736,-0.006743702106550335
1772562813837657900,6.492657958984375,0.06354688175916672,-0.012001102044945582,-0.013988339472562073
1772562813847724800,6.502724853515625,0.061606269085407256,-0.01682078641951084,-0.008972484071925283
1772562813857792000,6.5127919921875,0.07433014158010483,0.0005377327390480787,-0.012762085613235831
1772562813867859000,6.52285888671875,0.0628062925249338,-0.007199939707759767,-0.01267364014480263
1772562813877926000,6.53292578125,0.06475041233003138,-0.00597602393599227,0.012138948746211827
1772562813887993900,6.542993896484375,0.08031272312104702,-0.009377320279460399,-0.00759103965088725
1772562813898060800,6.553060791015625,0.07268588150441646,0.003775308154476806,0.0068685340626165265
1772562813908127700,6.563127685546875,0.06310556773245335,-0.005194152843300253,-0.009857815539091826
1772562813918195700,6.57319580078125,0.06968494612276553,-0.005641229890519753,0.011133278835006057
1772562813928262700,6.5832626953125,0.05008066646456718,-0.0069607880564872176,0.00526778433509171
1772562813938329600,6.59332958984375,0.06698562403619289,-0.015135189686436205,0.006248867794312537
1772562813948397600,6.6033974609375,0.0657867696404457,-0.007657675146311521,-0.0017633198780938981
1772562813958464500,6.613464599609375,0.07536357628107071,-0.012263004384143277,-0.006547558479942381
1772562813968531700,6.62353173828125,0.06204232241511345,-0.005073202477907762,-0.0024283231254667043
1772562813978598700,6.6335986328125,0.05829553710222244,-0.01086184148248285,-0.018884039092250168
1772562813988665600,6.64366552734375,0.05216214891374111,0.00182506913584657,-0.008832637209817766
1772562813998733800,6.65373388671875,0.07655716997981071,0.0019170856676995753,-0.006069127313233912
1772562814008800800,6.66380078125,0.06099778179824352,-0.003994019805919379,-0.005591572929359972
1772562814018867700,6.67386767578125,0.05635960060358047,-0.009034808718413114,-0.010994272223114967
1772562814028934700,6.6839345703125,0.07042553535699844,-0.0032684180782642214,0.002156593511998653
1772562814039001600,6.694001708984375,0.06563362490534783,-0.0018636932463385165,0.008082001505605877
1772562814049068800,6.70406884765625,0.060545361855626104,0.0010483674086164683,0.0017569632025435566
1772562814059136500,6.714136474609375,0.05935469076633453,0.011099888022057712,-0.0027374256072565913
1772562814069203700,6.72420361328125,0.0641489393055439,-0.003586260988935828,-0.008794277960807085
1772562814079270700,6.734270751953125,0.05486906978487968,-0.007765099309850484,0.019544731490686536
1772562814089337600,6.744337646484375,0.07297697340548039,-0.011013433581311256,0.0034300475139170884
1772562814099404500,6.754404541015625,0.055174190211296076,-0.005957565830694511,0.0015663725338876246
1772562814109471500,6.764471435546875,0.06310439868867397,-0.011979858327517285,0.003582973053306341
1772562814119539700,6.774539794921875,0.07238193012177943,-0.004711602623900398,0.007805522651784121
1772562814129606700,6.784606689453125,0.07357786190807819,0.002686572202853858,-0.0025686083789914845
1772562814139673600,6.794673583984375,0.061462476700544354,-0.0027067747406661507,0.011704064460285006
1772562814149740800,6.80474072265625,0.052342766177654265,-0.011160431703412904,0.002388794832676649
1772562814159807700,6.814807861328125,0.060872109591960905,-0.014885087382886557,0.0018960428796708582
1772562814169874700,6.824874755859375,0.06849719764292239,0.0006403345969971269,-0.01171487811524421
1772562814179942700,6.834942626953125,0.07942308080494404,-0.0014430110157001763,0.007936784348636865
1772562814190009600,6.845009521484375,0.07657879728972912,-0.005939482184732332,-0.004965696115978062
1772562814200076500,6.85507666015625,0.07402911280691624,-0.009738143815333023,-0.004496982625685632
1772562814210143500,6.8651435546875,0.06938742448091506,-0.007057097170967608,-0.006256356981024146
1772562814220210400,6.87521044921875,0.05996142448782921,-0.0012230937878601252,-0.017452216190844774
1772562814230277600,6.885277587890625,0.07882102325856685,-0.0002525682552717626,-0.0023619798909872767
1772562814240345600,6.895345703125,0.07612287021577357,0.002527828844031319,0.021661540981568396
1772562814250412800,6.905412841796875,0.06968845325410365,0.007866933982819319,0.008621917068585753
1772562814260479700,6.915479736328125,0.0680441931784153,-0.0055218412945512675,-0.002577120479010045
1772562814270546700,6.925546630859375,0.07882160778045653,-0.009629632806405424,0.0055912806684151285
1772562814280613600,6.935613525390625,0.07897124538421631,-0.010095980809675529,0.00828380768802017
1772562814290681600,6.945681640625,0.06101707102060318,-0.00264820382068865,0.01111716795042157
1772562814300748500,6.95574853515625,0.07628478277921676,-0.009830991464247927,0.0010868088560178875
1772562814310815500,6.9658154296875,0.0673030194222927,-0.003693465956766158,0.00925148367639631
1772562814320882400,6.97588232421875,0.06400397787690162,-0.004303158820327371,-0.00272843858320266
1772562814330949600,6.98594970703125,0.07328150931000708,-0.01329580889744684,-0.00003850537948310375
1772562814341016800,6.996016845703125,0.06250877088308333,-0.012835854102345183,-0.010479527634009719
1772562814351084800,7.006084716796875,0.06370704075694084,0.003245055468985811,-0.007788681114837527
1772562814361151700,7.01615185546875,0.06221008019745349,0.0033663072284776715,0.002259907756000757
1772562814371218700,7.02621875,0.061308162921667096,0.012347221202030778,0.00895633665472269
1772562814381285600,7.03628564453125,0.05786415994763374,-0.0017431082071270793,0.0047040129724889995
1772562814391352600,7.0463525390625,0.06638532005548477,-0.004531880409130827,0.0005167173504829406
1772562814401419500,7.05641943359375,0.0574082328736782,0.007218918402865529,0.009488689965754747
1772562814411487500,7.066487548828125,0.055469373765587804,-0.0021805497763212767,0.0024056363696232435
1772562814421554700,7.0765546875,0.0770195267945528,-0.0030151191706303507,-0.008192366544902324
1772562814431621600,7.08662158203125,0.07687047371268271,-0.01036255019083619,-0.02374178132172674
1772562814441688600,7.0966884765625,0.06744973441660404,-0.027442882595676926,-0.0028236791186034677
1772562814451755800,7.106755859375,0.06909691710174083,-0.008332213407009839,0.007328260528855025
1772562814461822700,7.11682275390625,0.07492869199514389,-0.011817909231455996,-0.005646517986990511
1772562814471890700,7.126890625,0.05981529401540756,0.004014322808431461,0.0023285890780389306
1772562814481957600,7.13695751953125,0.05697627119719982,0.0061853284382727,0.004333426094427705
1772562814492024600,7.147024658203125,0.06909282544851303,-0.0019368863467127083,0.0019907719584181904
1772562814502091500,7.157091552734375,0.05756839187145233,0.0011399090164341031,-0.00032937808483839034
1772562814512158700,7.16715869140625,0.06834288386404513,-0.005528015307011082,0.004151712851971388
1772562814522226700,7.177226806640625,0.08719839098155498,-0.006421539213787764,0.009260032309032976
1772562814532293600,7.187293701171875,0.06161328334808349,-0.0062017315838020295,-0.005213204603642225
1772562814542360600,7.197360595703125,0.04171615822315216,0.0013334131613839417,-0.00963723159097135
1772562814552427800,7.207427734375,0.06835691238939762,-0.00963767911554314,-0.012636669135279954
1772562814562494700,7.21749462890625,0.07838613897264003,-0.01560058784163557,0.006351414853334426
1772562814572561700,7.227561767578125,0.0590729512155056,-0.015003635728638618,-0.013759827946312725
1772562814582629600,7.237629638671875,0.06161094526052475,-0.008179424864938481,-0.013603468340821564
1772562814592696600,7.247696533203125,0.07567980262339115,0.00646131410175003,-0.003971241718530655
1772562814602763800,7.257763671875,0.048454526567459105,0.0007157196544576435,0.005272058651410043
1772562814612830700,7.267830810546875,0.06985504199266433,-0.0112344924534671,-0.004693126252293587
1772562814622897700,7.277897705078125,0.06716273416876793,-0.009400399760948494,-0.010086801989376544
1772562814632964600,7.287964599609375,0.06581891834437847,-0.003067516078148037,-0.00387717022690922
1772562814643032600,7.298032470703125,0.0795814862370491,-0.00046063978169113396,-0.004691080425679684
1772562814653099500,7.308099609375,0.0735989046961069,-0.0015059019177686421,-0.0056858270840719335
1772562814663166700,7.318166748046875,0.07090308974087238,0.0009338924497831612,-0.0017837416116148232
1772562814673233700,7.328233642578125,0.07599252183437347,-0.010917900784965604,0.000785378224030137
1772562814683300600,7.338300537109375,0.05548924750983715,-0.006235195461986586,-0.0036447862431406974
1772562814693367800,7.348367919921875,0.0783832163631916,-0.005896254964359104,0.006635236763395369
1772562814703435800,7.358435791015625,0.07943535576462746,-0.0017659228271339087,-0.0022618805173784495
1772562814713502700,7.368502685546875,0.0707581283122301,-0.001640506349178031,0.007546835182979703
1772562814723569700,7.378569580078125,0.06147884331345558,-0.0048934711299836635,0.014800094246864319
1772562814733636600,7.38863671875,0.0743488462805748,-0.019906788002420215,0.0015410554295405745
1772562814743703600,7.39870361328125,0.06312602599859238,-0.020267246212111786,0.018525836771726607
1772562814753771500,7.408771484375,0.0650678077161312,0.0024652393360622225,0.012607443040795623
1772562814763838700,7.418838623046875,0.060279404395818706,-0.003326541473669931,-0.015964900242537258
1772562814773905700,7.42890576171875,0.07195522914230823,-0.021219404970947653,0.0043015331188216805
1772562814783972900,7.438972900390625,0.072701663595438,-0.0042230610551312565,-0.017746632560156284
1772562814794039800,7.449039794921875,0.07659457938075065,-0.015841082066623494,-0.004112988276779651
1772562814804106800,7.459106689453125,0.0635737697660923,0.00011872187568806112,-0.0054834363797679544
1772562814814174700,7.4691748046875,0.07779051116704941,-0.014512874803319573,-0.001702931460365653
1772562814824241700,7.47924169921875,0.064318450653553,-0.018005685355141757,0.008510200322419404
1772562814834308600,7.48930859375,0.05878244383633136,-0.010491053675021976,-0.013815320993214844
1772562814844375600,7.49937548828125,0.05848083054125309,-0.0051452995997387915,-0.011284633471816777
1772562814854442500,7.5094423828125,0.06625906332731246,-0.00752788388733752,0.0035705154305323956
1772562814864509700,7.519509765625,0.06715747347176075,-0.005278104799706488,-0.016914930976368484
1772562814874577700,7.52957763671875,0.06506546962857246,-0.001952220913162455,0.004966353703103959
1772562814884644900,7.539644775390625,0.06611936259567737,-0.0016410452052950859,0.005697298326157033
1772562814894711800,7.5497119140625,0.07554770067632198,-0.001187602349370718,-0.002209931134432554
1772562814904778800,7.55977880859375,0.06492459985315799,-0.0036838487450499085,-0.01004296284765005
1772562814914845700,7.569845703125,0.06223287655115127,-0.001193191839940846,0.011088161051645874
1772562814924912000,7.579912109375,0.07750117283165454,-0.011201905358117072,0.02482018767558038
1772562814934980000,7.58997998046875,0.06837444804608822,-0.012926573726255447,0.012596921646781264
1772562814945047000,7.600047119140625,0.06448211678266524,-0.0016000738740898667,-0.006715900784172117
1772562814955114200,7.6101142578125,0.06567863309085369,-0.00680992661002092,0.0009149959530681372
1772562814965181200,7.62018115234375,0.05505085609257221,-0.02017612472940236,-0.0006285436945036053
1772562814975248100,7.630248046875,0.05804828434288501,-0.011796729446109384,-0.0032282778641209006
1772562814985316000,7.640316162109375,0.07870294983685017,-0.006542297782935202,-0.0012225640648975968
1772562814995383300,7.65038330078125,0.06298749431073665,-0.0033135632610879835,-0.019165742110460994
1772562815005450200,7.6604501953125,0.061790393480658526,-0.0026403219083324073,0.001509418182261288
1772562815015517200,7.67051708984375,0.060144964361190795,0.006299182342598214,0.006249269653111696
1772562815025584000,7.680584228515625,0.07870879505574703,-0.005286781296506524,-0.007355185068398714
1772562815035651300,7.6906513671875,0.06569324613809585,-0.007721479363832623,-0.015823701673559842
1772562815045719000,7.700718994140625,0.06524550237059593,-0.01191293057114817,-0.010716149401478468
1772562815055786200,7.7107861328125,0.06404606345295906,-0.009687564405566082,-0.005741685457155108
1772562815065853200,7.720853271484375,0.06210194364786148,-0.016626451157499104,-0.0012036036361008882
1772562815075920100,7.730920166015625,0.06823883896768093,-0.002908471325226128,-0.008210998180136084
1772562815085987000,7.740987060546875,0.0908358707010746,-0.0008245229243300855,0.011380056670308112
1772562815096054000,7.751053955078125,0.08620236568152904,-0.00890374795095995,0.0078519556093961
1772562815106122200,7.761122314453125,0.049698389148712156,-0.004879360406240448,-0.0029169468926265834
1772562815116189200,7.771189208984375,0.058980596756935115,0.002299171187309548,0.0019710808772593737
1772562815126256000,7.781256103515625,0.06242167712152004,-0.009112531863432378,-0.023645371742546557
1772562815136323300,7.7913232421875,0.06331073491573333,-0.0041811033432371915,-0.005124357276409864
1772562815146390300,7.801390380859375,0.0725882663488388,-0.0037745592358056452,-0.007938209120742976
1772562815156458200,7.811458251953125,0.06704933692216873,-0.002683558261860162,-0.006068944650143384
1772562815166525200,7.821525146484375,0.06884381912350654,-0.011005624734191224,-0.0002436725627630949
1772562815176592100,7.831592041015625,0.06449965243935585,0.0007533299847971648,-0.005096994345448911
1772562815186659000,7.8416591796875,0.055819502377510065,-0.0014072547157295047,0.0038337329439818856
1772562815196726000,7.85172607421875,0.06569499970376491,-0.012576006722915917,-0.0032386896602809427
1772562815206793000,7.86179296875,0.06390519367754459,-0.020976755321491507,0.0220619019433856
1772562815216861200,7.871861083984375,0.07004501160681248,-0.010320738609414548,0.008853533867374062
1772562815226928000,7.88192822265625,0.05642915870845318,0.00855796672059223,-0.0012882131796330212
1772562815236995300,7.891995361328125,0.05806815808713436,0.005045401155529544,0.004421213975735009
1772562815247062300,7.902062255859375,0.09413315868079662,-0.004013866150705143,-0.00478529804777354
1772562815257129200,7.912129150390625,0.06375614059567451,-0.0029944599750917405,-0.006794847771897912
1772562815267196200,7.922196044921875,0.07513152109086513,-0.01302881025802344,-0.00598992459718138
1772562815277264100,7.93226416015625,0.06690554453730582,0.007452909821830689,0.0017186770187690853
1772562815287331000,7.9423310546875,0.0722878220975399,-0.011307155830878764,-0.006279226399958133
1772562815297398000,7.95239794921875,0.07468202375769614,-0.017988067500060424,0.0015605638476088642
1772562815307465000,7.96246484375,0.07677870377600192,-0.011784810679452492,-0.011195055492222309
1772562815317532200,7.9725322265625,0.0686971041291952,-0.0020269301171880216,-0.0052717663904652
1772562815327600000,7.98260009765625,0.06465805787146091,-0.012105347870709373,0.0007297755792737006
1772562815337667300,7.992667236328125,0.05343348402380943,-0.015431113026244565,0.009658822368271648
1772562815347734300,8.002734375,0.061364861544966696,-0.006748414814285933,-0.01976341574266553
1772562815357801200,8.01280126953125,0.07079203058183192,-0.008685593421943485,-0.01261862202193588
1772562815367868200,8.0228681640625,0.0583756166011095,-0.009508079652814194,-0.0020501374628394842
1772562815377935000,8.03293505859375,0.06870470291376113,-0.014559773551812394,-0.01706131717711687
1772562815388003000,8.043003173828126,0.057933718052506446,-0.017034410903882233,0.0030659999744966624
1772562815398070000,8.053070068359375,0.06811258223950863,-0.007239404068468138,0.000021115853264927864
1772562815408137000,8.063136962890624,0.07230418871045112,-0.012453805115353316,-0.00457622187435627
1772562815418204200,8.0732041015625,0.06916296807527542,-0.0026167675028089432,0.007257569912821054
1772562815428271000,8.08327099609375,0.06123100603222847,0.00367235010350123,0.006486549007706344
1772562815438338000,8.093338134765625,0.07125614096224307,-0.013328085465542972,0.00439293772932142
1772562815448406300,8.10340625,0.06017886663079262,-0.016163117095222695,0.005207505515217781
1772562815458473200,8.11347314453125,0.06975567327141761,-0.011221094115776941,-0.0016258111035451293
1772562815468540200,8.1235400390625,0.06466214952468871,-0.00991813089158386,0.0023214286848902703
1772562815478607000,8.133607177734374,0.06495791760087014,-0.004038123809127137,-0.010308774176985025
1772562815488674000,8.143674072265625,0.06436053622961044,0.005368559562135488,-0.011931881866790353
1772562815498741200,8.1537412109375,0.05717968481481075,-0.010353700164100154,0.00615647680312395
1772562815508809200,8.163809326171876,0.0707972912788391,-0.013541043229633941,0.004067943558655679
1772562815518876200,8.173876220703125,0.07243687517940997,-0.01299164745225571,-0.016844313425570724
1772562815528943000,8.183943115234374,0.06584989800453185,0.000042642698483541604,-0.0015830679403617976
1772562815539010000,8.194010009765625,0.06928396410644054,-0.004119189688703045,0.0018554186083376406
1772562815549077200,8.2040771484375,0.06748948190510272,-0.004938917706906795,0.0036925709076225757
1772562815559145200,8.214145263671876,0.06853928321897983,-0.012579075462836771,-0.004747084929235279
1772562815569212200,8.224212158203125,0.07018178972899913,0.006130575176887214,0.005805434875749051
1772562815579279000,8.234279052734376,0.08349953646361827,0.00418258291427046,-0.017585815975256262
1772562815589346000,8.244345947265625,0.0632943683028221,0.0009975231373682617,0.0031130539866164324
1772562815599413200,8.254413330078124,0.06644084963500499,0.0017729370898101479,-0.005658208424784243
1772562815609480200,8.264480224609375,0.06509060406982899,0.0019640940140467134,-0.006728431472182273
1772562815619548200,8.274548095703125,0.05402034400105476,0.006632241088710725,0.006513510079868137
1772562815629615000,8.284614990234376,0.08454641516804695,0.00013599267089739442,0.0068375909350812435
1772562815639682000,8.29468212890625,0.07242635378539562,-0.008552167167467995,-0.020386917935870587
1772562815649749000,8.3047490234375,0.07871405575275421,-0.00246414335751906,-0.00836852682940662
1772562815659816200,8.314816162109375,0.07064005489051342,-0.013684022763743996,-0.0021360987132415174
1772562815669883100,8.324883056640624,0.07692775685787201,-0.008245695034181698,0.001336838094331324
1772562815679951000,8.334951171875,0.06944412310421466,-0.0004279430884867906,-0.002628412274830043
1772562815690018300,8.345018310546875,0.07603285384476184,0.005880856465827674,-0.013439948342181741
1772562815700085200,8.355085205078124,0.07677753473222255,-0.00832269665999338,-0.012011632572114466
1772562815710152200,8.365152099609375,0.07737550062537193,-0.00436819601370953,-0.016541129227913915
1772562815720219100,8.37521923828125,0.07408522690832614,-0.009669307229667901,0.0006760360980406404
1772562815730287000,8.385287109375,0.0713859048217535,-0.005928568065073341,0.00773483203575015
1772562815740354000,8.39535400390625,0.06270926189124584,-0.012026821008091791,-0.010759513619169592
1772562815750421000,8.4054208984375,0.06704816787838935,0.0022913166744168846,0.0035783334108069535
1772562815760488200,8.41548828125,0.06600304273962974,-0.004672101730573922,0.00480042255166918
1772562815770555100,8.42555517578125,0.06510813972651958,-0.009598105156980454,-0.004405797210894524
1772562815780622300,8.435622314453125,0.06750877112746238,-0.012335631228936836,-0.007470810804702341
1772562815790690300,8.445690185546875,0.07154957095086574,-0.003628611426474526,-0.0005690685922279953
1772562815800757200,8.45575732421875,0.05553425569534302,-0.0013363175045233218,0.008043715321831405
1772562815810824200,8.46582421875,0.07199380758702754,-0.009256579976622015,-0.024434330163151025
1772562815820891100,8.47589111328125,0.06870061126053333,0.0113509401736781,0.00011178981140255927
1772562815830958000,8.4859580078125,0.06420739149451256,0.0022551767819561064,0.009160919316112995
1772562815841025000,8.49602490234375,0.06645429363846779,-0.00601203596428968,-0.00531841854378581
1772562815851093000,8.506093017578126,0.06915303120315075,-0.012880387363815679,-0.0022559257006272673
1772562815861160000,8.516159912109375,0.0661661243468523,-0.006716969363251701,-0.001124583583138883
1772562815871227400,8.526227294921876,0.05449029960036277,-0.004078647615760564,0.016435878755152223
1772562815881294300,8.53629443359375,0.057331075984239574,-0.013208432008093221,-0.00007942191176116467
1772562815891361300,8.546361328125,0.0696077892333269,-0.012149324009753763,0.004707337440736591
1772562815901429200,8.55642919921875,0.04700958845615387,0.006873895224323496,0.005797507297620177
1772562815911496200,8.56649609375,0.052992754518985746,-0.0052198444069828836,-0.010597564523108303
1772562815921563000,8.57656298828125,0.05718553003370762,-0.012805678159790113,0.0026428791915997863
1772562815931629800,8.5866298828125,0.0625713147252798,-0.007169900762522593,0.005445990446209907
1772562815941696800,8.59669677734375,0.07125555644035339,-0.018450488246884195,0.0013049451187252998
1772562815951764000,8.606763916015625,0.07575403690338134,-0.00583756531337276,0.006006035481765866
1772562815961832000,8.61683203125,0.08413140462636948,-0.009544557471992447,-0.006305201091431081
1772562815971899000,8.62689892578125,0.07425532277822494,0.00113252942757681,-0.016659202649630604
1772562815981966000,8.636966064453125,0.08293547284007072,-0.00561519126696512,-0.007249277008511126
1772562815992033000,8.647032958984376,0.07201426585316657,-0.008844281981838866,-0.003142828070372343
1772562816002100000,8.657099853515625,0.08174071009755134,-0.015525029254239051,0.0057980552868917585
1772562816012167000,8.6671669921875,0.07889934919178486,-0.009520665139751508,-0.007468107390962541
1772562816022235000,8.67723486328125,0.0691764120787382,-0.012989610758796333,-0.0005198956882581115
1772562816032301800,8.6873017578125,0.06962474036812782,-0.0018276264191139488,-0.007585486692935228
1772562816042368800,8.69736865234375,0.07127367661893368,-0.018364015539828686,-0.014580314016342162
1772562816052436000,8.70743603515625,0.05781272202134132,-0.02001172794792801,0.012895173940993845
1772562816062503000,8.7175029296875,0.08145195628404617,-0.0015715784319676458,0.009088767395354807
1772562816072571000,8.72757080078125,0.0820475840896368,0.001963929617265239,0.004272599285282195
1772562816082637800,8.737637939453125,0.0643926849335432,0.004554777227528393,-0.01287077015209943
1772562816092705000,8.747705078125,0.05646189193427562,-0.009897992285853252,0.002406293956749141
1772562816102770700,8.757770751953124,0.06649111851751804,-0.013751242781057953,-0.0009490078205242752
1772562816112838000,8.767837890625,0.06963409271836281,-0.005216529071889817,0.008451711600832641
1772562816122905900,8.77790576171875,0.07277472883164882,-0.008455072601698338,0.007822692982293666
1772562816132973000,8.78797314453125,0.05900339311063289,0.0010788082126528024,0.00013031184878200291
1772562816143040000,8.7980400390625,0.07007949839830398,-0.016073045925283802,0.0009064107878133654
1772562816153107000,8.80810693359375,0.06947802537381649,-0.003984457393130287,-0.017571166395395993
1772562816163174000,8.818173828125,0.06888415113389491,-0.012719835640396922,0.0025173531157895923
1772562816173240800,8.82824072265625,0.07412322083115577,-0.007911951301479711,0.019813611559942365
1772562816183308800,8.838308837890626,0.060357145807147024,-0.005296471573458984,0.0020937574088573455
1772562816193375700,8.848375732421875,0.07412906605005264,-0.012145615949016064,0.01373582601621747
1772562816203442700,8.858442626953124,0.06485153461694718,-0.007414020849857479,-0.0024409634113311766
1772562816213510000,8.868510009765625,0.06680266868472098,-0.01822457966967486,-0.004177322217263281
1772562816223577000,8.8785771484375,0.06531096882224083,-0.0029752620842773466,-0.014549334356188773
1772562816233645000,8.88864501953125,0.05782324341535568,-0.010097195519227534,-0.009523943942226469
1772562816243712000,8.8987119140625,0.062309448918700217,0.004576358871674165,-0.009879881240427494
1772562816253779000,8.908779052734374,0.08819324723780154,0.008381916033942251,0.005669862329959869
1772562816263846000,8.918845947265625,0.075176529276371,-0.0015261866539716719,-0.002041004308313131
1772562816273912800,8.928912841796874,0.07352700850367545,-0.005858863829728216,-0.004608151382580399
1772562816283979800,8.938979736328125,0.0838560948163271,-0.005119343174574896,-0.007263305533863604
1772562816294047700,8.9490478515625,0.06979483623802661,-0.008634493422368541,0.0052327860869467255
1772562816304115000,8.959114990234376,0.07233809098005295,-0.017102900429675355,-0.0018349603421986102
1772562816314182000,8.969181884765625,0.06709902128279209,-0.009773671786440535,0.0014149813644587993
1772562816324248800,8.979248779296874,0.0772767164260149,-0.00805519569707103,0.00772949827350676
1772562816334316000,8.98931591796875,0.08266542372703552,-0.005995943346014246,0.0041163127450272435
1772562816344383000,8.999383056640625,0.05602350051701069,0.005810430711274966,-0.004744710309058427
1772562816354451000,9.009450927734376,0.06559913811385631,-0.0022332937437109647,0.008961706949584185
1772562816364518000,9.019517822265625,0.07158698035180568,-0.003196046961797401,0.007190496025979518
1772562816374584800,9.029584716796874,0.06665127751529216,-0.005843483597505837,0.00291442614197731
1772562816384651800,9.03965185546875,0.06230827987492084,-0.016020228892657903,-0.0033326150214299556
1772562816394719000,9.049718994140624,0.07039630926251411,-0.00826872884989716,0.001412387548573315
1772562816404787000,9.059786865234376,0.06934533890485763,-0.021510040214285254,-0.008719386093690992
1772562816414854000,9.06985400390625,0.07113806754052639,-0.018175881689740343,0.0012573796499520539
1772562816424920800,9.0799208984375,0.06126198569238186,-0.016119296219805256,0.006044942720048129
1772562816434988000,9.089988037109375,0.0838514186412096,-0.00476443792283535,-0.004221234424225986
1772562816445055000,9.100054931640624,0.07367664610743523,-0.0010657843342982232,0.004153502950258553
1772562816455122000,9.110121826171875,0.0661836600035429,-0.007075235615856945,-0.013203947629220784
1772562816465190000,9.12018994140625,0.06678454850614071,-0.0048357769928406924,0.0015518690844997763
1772562816475256800,9.1302568359375,0.07411211491525173,0.0034384043503087013,0.01972352212369442
1772562816485324000,9.140323974609375,0.07126724687814712,-0.010975293528009205,-0.008863068880699574
1772562816495391700,9.150391845703124,0.07306815882027148,0.00017624248289503156,-0.0068253890406340355
1772562816505459000,9.160458984375,0.07336801854968071,-0.00567702272310853,0.0012642477821558713
1772562816515527000,9.17052685546875,0.07306874334216118,0.0007608009051997214,-0.008058912890963256
1772562816525594000,9.180593994140626,0.06378887382149696,-0.0010362842451781035,0.008254618126153945
1772562816535661000,9.1906611328125,0.05645721575915813,-0.012983939069835469,0.004090155390463769
1772562816545728000,9.20072802734375,0.05915419975817203,-0.012627645578607917,-0.014870711797662079
1772562816555795000,9.210794921875,0.07008417457342148,-0.004673179442808032,-0.004592150095850229
1772562816565863000,9.22086279296875,0.07188157938420772,-0.008567684397008269,-0.0010155702507123352
1772562816575929900,9.230929931640626,0.07128010635972022,-0.010899040820868686,0.019889526340365407
1772562816585996800,9.240996826171875,0.06948387059271335,-0.011272239781124517,0.006285327347181737
1772562816596063700,9.251063720703126,0.05810673653185367,-0.008050793516589327,-0.009091324678622186
1772562816606131000,9.261130859375,0.06767945151925087,-0.014570596339926124,-0.016683387242816386
1772562816616198000,9.271197998046874,0.08264379641711711,0.002950977026391774,-0.007284129126183688
1772562816626266000,9.28126611328125,0.06513152060210704,-0.014336632320424541,0.014183204457536338
1772562816636333000,9.2913330078125,0.07186755085885524,-0.01120975073785521,0.005102474238164722
1772562816646400000,9.30139990234375,0.06543664102852344,-0.012677649599639698,-0.009637450786679982
1772562816656467000,9.311467041015625,0.06857669261991978,-0.0018216716023627668,-0.008507789169624448
1772562816666534000,9.321533935546874,0.0717214203864336,-0.01410892451177351,-0.0016212079936638473
1772562816676600800,9.331600830078125,0.0624450579971075,-0.0027687249278184026,-0.004153393352404237
1772562816686668800,9.341668701171875,0.0691851799070835,-0.004899362014653161,-0.0026760873414576054
1772562816696735700,9.35173583984375,0.08086568082869053,0.0011895659775938837,-0.01717033050954342
1772562816706803000,9.361802978515625,0.06620353374779224,-0.0030063422091305254,0.0034186493370682
1772562816716870000,9.371869873046874,0.06919102512598037,-0.01008333139065653,-0.010725319088622927
1772562816726936800,9.381936767578125,0.06590192045271397,-0.0062981776956003155,0.003674669924750924
1772562816737005000,9.392005126953125,0.062307695353031156,-0.0025298198717180636,-0.005103168357908725
1772562816747072000,9.402072021484376,0.06844868232607841,-0.009838982974458486,-0.015457790970616041
1772562816757139000,9.412138916015625,0.06261164673566817,-0.006896244053449481,-0.008754311276599765
1772562816767206000,9.422205810546876,0.07309037065207957,0.002415299247112125,0.0015083222037181258
1772562816777272800,9.43227294921875,0.07428805600404739,0.002216169078974053,-0.0011853373270481824
1772562816787340000,9.442340087890624,0.07100070489645004,-0.01730831420812756,0.01205952683445066
1772562816797407700,9.45240771484375,0.06291910524964332,-0.00916017953059636,-0.011033471722342073
1772562816807475000,9.462474853515625,0.0624625936537981,-0.005393438275065273,-0.013979900437779724
1772562816817542000,9.4725419921875,0.054982467031478875,-0.019231601287750526,0.002539784143306315
1772562816827608800,9.48260888671875,0.06306348215639591,-0.02340641188751906,-0.003385879578627646
1772562816837675800,9.49267578125,0.0483937362909317,-0.00763909831000492,0.006400733887776732
1772562816847742700,9.50274267578125,0.06664893942773342,0.0029665947206318375,0.001845956660248339
1772562816857811000,9.51281103515625,0.07996843972802162,-0.003760941702406853,-0.010135134643130005
1772562816867878000,9.5228779296875,0.06499883413314819,-0.006081776732252911,0.004090593781881034
1772562816877944800,9.53294482421875,0.07907002958357334,-0.00716289563300088,-0.01645589862987399
1772562816888012000,9.543011962890626,0.07248889762759209,-0.02853937259549275,-0.006062916768155992
1772562816898079000,9.553078857421875,0.06590484306216239,0.010773386880895122,0.0051370706275105475
1772562816908147000,9.56314697265625,0.06679623894393444,-0.01344553783275187,-0.0034273075675591825
1772562816918214100,9.573214111328125,0.062004913014173504,0.006472155156172812,-0.005735328781604767
1772562816928281000,9.583281005859375,0.06559037028551101,-0.008505186220584438,0.003567190962284803
1772562816938348000,9.59334814453125,0.07127133853137493,-0.0037077319441363213,0.007498502529226243
1772562816948415000,9.6034150390625,0.06333762292265892,-0.010872271544951946,-0.00601699526719749
1772562816958482200,9.613482177734374,0.07006839248239993,0.007679740847647189,0.0021865137262269854
1772562816968550100,9.623550048828125,0.06722293992340564,-0.0028841497347224503,-0.011457725016400218
1772562816978617000,9.6336171875,0.06407587406933307,-0.0027852468043565747,-0.00034786358959972854
1772562816988684300,9.643684326171876,0.06811608937084675,-0.006903322248207405,0.0066587272368371486
1772562816998751200,9.653751220703125,0.0606371317923069,-0.018274903351115063,0.0026381664838641882
1772562817008818200,9.663818115234376,0.06812018102407455,-0.019029612442245707,0.011491444622911512
1772562817018886100,9.67388623046875,0.0744008687287569,-0.008946125787962228,0.007232800797745585
1772562817028953000,9.683953125,0.0729021546036005,-0.011913414628338068,0.01616992129534483
1772562817039020000,9.69402001953125,0.07978373081088065,-0.010187650281656533,-0.0037526305317878723
1772562817049087000,9.7040869140625,0.07080722815096378,-0.016295136843901128,-0.019713366055861114
1772562817059154200,9.714154296875,0.06258125159740448,0.004205470599513501,0.005354878096655011
1772562817069221400,9.724221435546875,0.06931202115714549,-0.002987619242351502,0.003101728875003755
1772562817079289000,9.7342890625,0.06438040997385978,-0.006315731618599966,0.00008424421735107898
1772562817089356300,9.744356201171875,0.07171382160186768,-0.008817311776522547,0.0027672727562487124
1772562817099423200,9.75442333984375,0.052554363101720805,-0.0017442224519792944,-0.011856734271347522
1772562817109490200,9.764490234375,0.06915770737826823,-0.017301117282360792,-0.012597688831761478
1772562817119557000,9.77455712890625,0.06137479841709136,-0.004180354424566031,-0.003963533336110413
1772562817129624000,9.7846240234375,0.06751578539013862,-0.004510271365521476,-0.005198774219490588
1772562817139692000,9.794692138671875,0.05793780970573425,-0.016211075289640574,0.015119243198633192
1772562817149759000,9.804759033203124,0.0664665685981512,-0.008610564557509496,-0.0025545067884027955
1772562817159826000,9.814825927734375,0.06302607275545596,-0.003836719485512003,-0.00493712760861963
1772562817169893400,9.824893310546875,0.0688631083458662,0.0018650906189810483,0.007661072679795325
1772562817179960300,9.834960205078126,0.07335282098054885,-0.013660778885474428,0.0006128712013363837
1772562817190028300,9.8450283203125,0.06677051998078823,-0.006936731327464803,0.016510478361323473
1772562817200095200,9.85509521484375,0.07051262911856174,-0.0077845163963735095,0.006067666008509695
1772562817210162200,9.865162109375,0.06482581565380097,-0.026778354272339492,0.006700520551949739
1772562817220229000,9.87522900390625,0.06527355942130088,-0.006412670920742675,-0.009620280456170438
1772562817230296000,9.885296142578126,0.08577800278961659,-0.005555359971662983,-0.010602459893934428
1772562817240363000,9.895363037109375,0.0699175858348608,-0.02232659902786836,-0.009674640991911291
1772562817250431000,9.905430908203124,0.06946984206736087,-0.009080538423126562,0.009176774472370744
1772562817260498000,9.915497802734375,0.051065585848689074,-0.015200829668017104,0.013846958240494131
1772562817270565400,9.9255654296875,0.08009645002186298,-0.011333925106795505,0.005786474446952343
1772562817280632300,9.93563232421875,0.07112053188383578,-0.008097080343728885,-0.004209470921196043
1772562817290699300,9.94569921875,0.06004091946482658,-0.0048177390126511455,0.0018320377327501773
1772562817300767200,9.955767333984374,0.0913105024755001,-0.016734679038636385,-0.009769297005422412
1772562817310834200,9.965834228515625,0.06422901880443095,0.00796959977285005,0.00929367885030806
1772562817320901000,9.975901123046874,0.07724047606885433,0.007459211698453873,-0.017767419619858265
1772562817330968000,9.985968017578125,0.05299801521599293,0.008623734566336498,-0.006875804053619504
1772562817341035000,9.996034912109375,0.0691594609439373,-0.0002706519012339413,-0.012870806684717535
1772562817351102200,10.006102294921876,0.06631342386305332,-0.0034592096763197333,-0.009804149123094975
1772562817361170200,10.016170166015625,0.07754033579826354,-0.002533893258636817,0.011497216776572167
1772562817371237000,10.026237060546874,0.06317980201244354,-0.001131570446351543,0.009925547013059258
1772562817381304300,10.03630419921875,0.06781856772899628,-0.002913887285860255,-0.004135711565241218
1772562817391371300,10.046371337890625,0.08921089984774588,-0.015001617301488294,-0.007202442192099988
1772562817401438200,10.056438232421876,0.06571779605746268,0.0006624276977963745,-0.005116320100426674
1772562817411505200,10.066505126953125,0.0672118340075016,-0.013396711988653987,0.0011250950397923589
1772562817421573000,10.076572998046874,0.08008125245273112,-0.010395721808075905,0.005767477485537529
1772562817431640000,10.08664013671875,0.0649678544729948,-0.0052413621190469705,-0.003531060202978551
1772562817441707000,10.09670703125,0.07753975127637386,-0.019805099459923804,-0.0007994432820007205
1772562817451774200,10.106774169921875,0.0709592038422823,-0.01651741042560898,-0.011699461350403725
1772562817461841200,10.116841064453125,0.07260638652741909,-0.007367998884199187,0.007787000614404678
1772562817471909000,10.1269091796875,0.07050444581210613,0.004905316831404343,-0.01595653427299112
1772562817481976300,10.136976318359375,0.05913023436069488,-0.0032281226004939522,-0.011324965482205152
1772562817492043300,10.147043212890624,0.06077917061150074,-0.0037894828103017058,-0.013688443210534751
1772562817502110200,10.157110107421875,0.07514438057243823,-0.030901306820707394,-0.010553104326874016
1772562817512177200,10.16717724609375,0.06960720471143722,-0.002804353363625705,-0.005791917807050049
1772562817522244000,10.177244140625,0.06436871953606606,-0.010747083395859227,0.004703391917981207
1772562817532312000,10.18731201171875,0.05613923585116863,-0.01931490479018539,-0.00723323918916285
1772562817542379300,10.197379150390624,0.07633563618361949,-0.011062633884744717,-0.003735058342479169
1772562817552446200,10.2074462890625,0.07978080820143223,-0.0011802318936679512,-0.01911353699918836
1772562817562513200,10.21751318359375,0.06751344730257988,-0.0033190979527309536,0.0038334406830370423
1772562817572580000,10.227580078125,0.07798807956576347,-0.0016507720148656517,-0.004090118857845664
1772562817582648000,10.23764794921875,0.07559212433993816,-0.0034422402752097695,-0.004426839998923242
1772562817592715300,10.24771533203125,0.06481880139112473,-0.005176799849700183,0.00004380260910838842
1772562817602782200,10.2577822265625,0.0809802471190691,0.001982716516125947,-0.007881620095297694
1772562817612849200,10.26784912109375,0.07124971122145653,-0.020771314143575727,0.0017561594849452376
1772562817622916000,10.277916015625,0.06048106444776058,0.00014920834549702702,0.018724501148983837
1772562817632983300,10.2879833984375,0.08233633790314197,-0.010276826402451842,0.004994922210462391
1772562817643051300,10.29805126953125,0.07021160034537315,-0.024142233615089208,-0.007786854483932256
1772562817653118200,10.3081181640625,0.08876666321158408,-0.009351254256442188,-0.00002038520090281963
1772562817663185200,10.31818505859375,0.07724281415641307,0.0008145403864327818,0.0017331074029207228
1772562817673252000,10.328252197265625,0.07918751848340035,-0.00978463157187216,0.020133418098837137
1772562817683319000,10.338319091796874,0.06481997043490409,-0.005183887177612632,-0.006368475585989654
1772562817693386000,10.348385986328125,0.05494388858675956,-0.0010398735749069601,-0.017148520536534487
1772562817703454200,10.3584541015625,0.07289981651604176,-0.004241436962038278,-0.00471515542101115
1772562817713521200,10.368521240234376,0.06781389155387878,-0.027230655483948065,-0.003769837394915521
1772562817723588400,10.37858837890625,0.04701134202182293,-0.014799856784846632,0.01188669101819396
1772562817733655300,10.3886552734375,0.05793897874951362,-0.005119425372965634,-0.0010974398478865624
1772562817743722200,10.39872216796875,0.0588332972407341,-0.014925054067093877,-0.0024019831078127027
1772562817753790200,10.408790283203125,0.06676233667433261,-0.007872587405471131,-0.008115830709971487
1772562817763857200,10.418857177734376,0.06376607746779918,-0.005984636500710621,0.0019676102785393594
1772562817773924000,10.428924072265625,0.06482289304435253,-0.01699521140465513,-0.014772037196159361
1772562817783991000,10.438990966796876,0.0706581750690937,-0.005420435879845172,-0.017496639854460955
1772562817794058000,10.44905810546875,0.07199906828403473,-0.0044619295786134895,0.007273096275515854
1772562817804125200,10.459125244140624,0.06960194401443004,-0.0050715676432475446,-0.00326506621055305
1772562817814193200,10.469193115234376,0.06451835713982582,-0.0026246311488561332,-0.0088409666467458
1772562817824260400,10.47926025390625,0.055391047832369804,-0.00006801460175774992,-0.003935257089696824
1772562817834327300,10.489327392578126,0.08456862699985504,0.0014242241168394684,-0.007069171201251447
1772562817844394200,10.499394287109375,0.06825988175570964,-0.013275679424870759,-0.005847374321334063
1772562817854461200,10.509461181640624,0.066910805234313,-0.010143190085422247,-0.022065737868286667
1772562817864528100,10.519528076171875,0.06975450422763824,-0.010288242845609783,0.0021521730652078984
1772562817874596000,10.52959619140625,0.071107087880373,-0.008739890025602654,-0.002691431041061878
1772562817884663000,10.5396630859375,0.07902794400751591,-0.020870911193685605,-0.004960398886352777
1772562817894730000,10.54972998046875,0.0742395406872034,-0.003263486174819991,-0.016557057449407876
1772562817904797200,10.559797119140624,0.06780220111608505,0.0016798063131049275,-0.0044972383540123695
1772562817914864000,10.569864013671875,0.06405658484697342,-0.001458172052213922,-0.002308897996880114
1772562817924932400,10.579932373046875,0.0766314042598009,-0.0065480699365958565,-0.00922934490982443
1772562817934999600,10.58999951171875,0.07528232773840426,-0.012113933035964145,-0.004792677636630833
1772562817945066500,10.60006640625,0.0628676673233509,-0.007648560258094221,0.0015426263321191072
1772562817955133400,10.610133544921876,0.07289397129714488,-0.0032711032256949693,-0.003963898662291467
1772562817965200400,10.620200439453125,0.0715466483414173,-0.009948060238966718,-0.011440335490182042
1772562817975267300,10.630267333984374,0.06331073491573333,-0.007838575538014992,-0.00946987566743046
1772562817985335300,10.640335205078125,0.060471127575635907,0.0002761957260314375,-0.008375723755173385
1772562817995402200,10.65040234375,0.07783318126499653,-0.0057694319806061685,0.0005204802101477981
1772562818005469400,10.660469482421876,0.06750643303990364,-0.005926111246505752,-0.006891476546786725
1772562818015536400,10.670536376953125,0.052098436027765274,0.0029343912177719174,0.0051417833352461455
1772562818025603300,10.680603271484374,0.07035714629590512,-0.006819954813690856,0.0026413813542574644
1772562818035671600,10.690671630859375,0.07305646838247776,-0.011135342927929013,-0.011333806375786662
1772562818045738500,10.700738525390625,0.06273673442006111,-0.01361063786712475,-0.016179017917253076
1772562818055805400,10.710805419921876,0.06617956835031509,-0.00844560152045451,-0.011244520657137035
1772562818065872400,10.720872314453125,0.07740764932930469,-0.014394070729240774,0.008637991420552134
1772562818075939300,10.730939208984376,0.06544073268175125,-0.008088294249074533,0.02388875204436481
1772562818086006500,10.741006591796875,0.08160159388780594,0.003059259706456214,-0.008165624668449162
1772562818096074200,10.75107421875,0.060953942656517025,0.0016410817379131912,-0.005190700510889291
1772562818106141400,10.761141357421875,0.07158055061101913,-0.013297507664188742,0.0027968276442959903
1772562818116208400,10.77120849609375,0.06425006159245968,0.009575674129463732,0.0013391031166538594
1772562818126275300,10.781275390625,0.06603986761868,-0.005022650467604399,-0.011037088451534508
1772562818136342300,10.79134228515625,0.06559212385118007,-0.006205795837566256,0.0008133987421169877
1772562818146410500,10.801410400390624,0.05661386762559414,-0.015631467037089168,-0.0018805165169760584
1772562818156477400,10.8114775390625,0.07800795331001281,-0.010369116928940639,0.0004303542412817478
1772562818166544400,10.82154443359375,0.07800970687568187,-0.011010072580445557,0.012384228744171558
1772562818176611300,10.831611328125,0.07128185992538928,-0.005437752340827137,0.007389671859890222
1772562818186678500,10.841678466796875,0.0618570289760828,-0.01075453604995273,-0.002307473224774003
1772562818196745500,10.851745361328126,0.07009294240176678,-0.0155695807820186,0.004834105625562369
1772562818206813400,10.8618134765625,0.05872048451602459,-0.019515076137939468,-0.0019152955694124103
1772562818216880400,10.87188037109375,0.06380991660952567,-0.021001551836030558,0.0015730214703828095
1772562818226947300,10.881947265625,0.06260755508244037,-0.007055599333625286,-0.0024197379602119325
1772562818237014300,10.89201416015625,0.066196519485116,-0.017336362125677986,-0.011890453877858817
1772562818247081500,10.90208154296875,0.048834465795755386,-0.00880052503850311,0.0009412263728678226
1772562818257148400,10.9121484375,0.06933949368596076,-0.01667398922680877,0.005849529745802283
1772562818267216400,10.92221630859375,0.07113456040918827,-0.005994408976053819,-0.006072122987918555
1772562818277283300,10.932283447265625,0.06993687505722046,-0.008478837069775908,0.008443820555321871
1772562818287350500,10.9423505859375,0.08295651562809944,-0.018890103506855667,-0.002143953226134181
1772562818297417500,10.95241748046875,0.07023848835229873,0.005158469608565792,0.010742672082222997
1772562818307484400,10.962484375,0.07502922976016999,0.0030706761496141553,0.006006072014383972
1772562818317552400,10.972552490234374,0.06755027218163014,-0.011022667200537397,0.0008183306455612182
1772562818327619300,10.982619384765625,0.07802315087914466,-0.012992332438845186,0.002228891563229263
1772562818337686300,10.992686279296874,0.05229015920758247,0.0012260255304630844,-0.0027544498072937127
1772562818347753200,11.002753173828125,0.061572366815805434,-0.002376757335010916,0.004964271343871951
1772562818357820400,11.0128203125,0.08192424997091292,-0.017609973168978468,-0.003976575480774045
1772562818367887600,11.0228876953125,0.061271922564506524,0.0029817557571455836,0.012013386137783527
1772562818377955300,11.032955322265625,0.053044192445278165,-0.001405811677314341,0.006295118088833988
1772562818388022500,11.0430224609375,0.07578267847597599,-0.012476281808642669,0.0009243483033031225
1772562818398089500,11.05308935546875,0.07578969273865223,-0.016944686793815344,-0.006292012816295028
1772562818408156400,11.063156494140625,0.07115735676288604,-0.003772586474427953,0.004166106703504919
1772562818418223400,11.073223388671876,0.06741641666889191,-0.0173587200879585,-0.008996193741075693
1772562818428291300,11.083291259765625,0.06786766756772994,0.002436186771513894,0.020996720397286117
1772562818438358300,11.093358154296874,0.07953940066099166,-0.0057623263863846655,0.007396795720420777
1772562818448425200,11.10342529296875,0.07519698754251003,-0.012135085421847179,-0.01060530943814665
1772562818458492400,11.113492431640625,0.06592062515318393,-0.008573009026097133,-0.007752075431495905
1772562818468559600,11.1235595703125,0.07774667202532291,-0.0222053472683765,-0.006309913799166679
1772562818478626600,11.13362646484375,0.07176642857193946,-0.0070639013710897414,-0.0011012757727876304
1772562818488694500,11.143694580078124,0.09451134434342384,-0.013238178692385553,0.010257665044255553
1772562818498761500,11.153761474609375,0.06967091759741306,-0.0072658993497490875,0.005799699254706502
1772562818508828400,11.163828369140624,0.05724222865700721,-0.019228422949975354,0.018934600235708057
1772562818518895400,11.173895263671875,0.05305120670795441,-0.0036124914087355135,0.00855013047400862
1772562818528962300,11.18396240234375,0.07175882978737354,-0.01757029874571599,-0.014787928885035216
1772562818539030300,11.1940302734375,0.08282675176858902,-0.0057635593622457236,-0.0117580231372267
1772562818549097200,11.20409716796875,0.05843114618062973,0.002499242070363834,0.0031124329321086403
1772562818559164200,11.2141640625,0.059331894412636754,-0.013293169415788723,0.008838774689659476
1772562818569231600,11.224231689453125,0.05933072536885738,-0.008131841129856184,0.00026793022118508814
1772562818579298600,11.234298583984375,0.0630640666782856,-0.0016323595753405242,0.007953845081292092
1772562818589365500,11.244365478515626,0.07144201892316342,0.0022709771392866967,-0.009443389519304037
1772562818599433500,11.25443359375,0.07502981428205967,-0.002346279998356476,0.005710048209875822
1772562818609500400,11.26450048828125,0.06425707585513592,-0.012416149119241162,0.0090522713098675
1772562818619567400,11.2745673828125,0.06784604025781155,-0.02100264781457372,0.002604848736152053
1772562818629634300,11.28463427734375,0.0693505996018648,-0.02212092952108942,0.0027958412636071442
1772562818639701200,11.294701171875,0.07143909631371498,-0.006090708957379684,0.0018078531395643949
1772562818649768400,11.3047685546875,0.07383154440820217,-0.014652584668109193,0.005955145544745028
1772562818659836400,11.31483642578125,0.06889701061546802,-0.0016193722296040504,0.0035990108726546167
1772562818669903600,11.324903564453125,0.06381576182842254,-0.01871847326699644,0.012102708389051258
1772562818679970600,11.334970458984374,0.06366378613710404,-0.007276804336253553,-0.0015916896382346748
1772562818690037500,11.34503759765625,0.07698153287172317,-0.0026485417474061248,0.021149499806202947
1772562818700104400,11.3551044921875,0.06097206283509731,-0.010587572852056472,0.007015906644053757
1772562818710172400,11.36517236328125,0.067556117400527,-0.013356124249938874,-0.01465882261265069
1772562818720239400,11.3752392578125,0.06560673689842224,-0.010452475230302662,-0.008747771937958896
1772562818730306300,11.385306396484374,0.07817571109235286,-0.0042277646297123285,0.0031952523773536084
1772562818740373200,11.395373291015625,0.07038929499983787,0.006093001379165798,-0.00045833822675049303
1772562818750440400,11.4054404296875,0.042998014727234836,-0.00970882638930343,0.008818900945410131
1772562818760507400,11.41550732421875,0.06305296076238155,-0.0037396888518240303,-0.0015830314077436923
1772562818770575400,11.425575439453125,0.07951368169784545,-0.008026490192394703,-0.0011553440475836395
1772562818780642600,11.435642578125,0.07248129884302616,-0.022399107141653076,-0.001437595055066049
1772562818790709500,11.44570947265625,0.07233926002383231,-0.010686119589395821,-0.0047121232137084
1772562818800776400,11.4557763671875,0.07084639111757278,-0.008978219692967832,-0.021414543950557707
1772562818810843400,11.465843505859375,0.05483809012472629,-0.009295368483895436,-0.0031118118776008487
1772562818820910300,11.475910400390624,0.0765355426698923,-0.0013961670661345124,0.009000577655248343
1772562818830978300,11.485978271484376,0.07683423335552216,-0.004468925574980676,-0.01224036329407245
1772562818841045500,11.49604541015625,0.0693511841237545,-0.007629398899897933,0.0017591186270117759
1772562818851112400,11.506112548828124,0.07698036382794379,-0.011410040816618129,-0.007993556037172675
1772562818861179400,11.516179443359375,0.06994856549501419,-0.0039052181444596498,0.004803783552534878
1772562818871246300,11.526246337890624,0.06066635788679123,-0.001983803361514583,-0.010373181182704866
1772562818881314600,11.536314453125,0.06979425171613693,0.007416413736343383,-0.011873283547349274
1772562818891381500,11.546381591796875,0.0620136808425188,0.000548637725552544,0.007596154217422008
1772562818901448400,11.556448486328126,0.06320610549747943,-0.012616941521503031,0.005743804349005222
1772562818911515400,11.566515380859375,0.06560206072330474,-0.00364811071138829,-0.015171302179433405
1772562818921582300,11.576582275390624,0.05842530096173286,-0.018719386582449076,-0.02789879140332341
1772562818931649500,11.5866494140625,0.08132102338075638,-0.011173884840030223,-0.007103986786305904
1772562818941717500,11.596717529296875,0.05333411530256271,-0.010205596930300816,0.016165793109498918
1772562818951784700,11.60678466796875,0.03867489083111286,-0.017239112296281382,-0.006765658210031688
1772562818961851600,11.6168515625,0.0648632250547409,-0.006317996640922501,0.010577836909331381
1772562818971918600,11.626918701171874,0.06576163519918918,-0.005616524707525968,0.010384469761699438
1772562818981985500,11.636985595703125,0.0879074160337448,-0.007044612148730084,0.0008209975266829133
1772562818992053500,11.647053466796875,0.07803367227315902,-0.01123631908437237,-0.005906995554082095
1772562819002120400,11.657120361328126,0.06381634635031223,0.005891186063596978,-0.008432203182764351
1772562819012187400,11.6671875,0.06890344035625458,-0.008297324756719172,-0.0026977146513760086
1772562819022254600,11.677254638671876,0.08028232798278331,-0.00452711290246807,-0.012479067420773208
1772562819032321500,11.687321533203125,0.07100830368101596,-0.004655086663691327,-0.01692475825063884
1772562819042388500,11.697388427734374,0.05799041667580604,-0.009361364658502862,0.0009179550951346754
1772562819052456700,11.707456787109376,0.08402443712055682,-0.009822132304357365,-0.003443601115234196
1772562819062523600,11.717523681640625,0.0632248101979494,-0.0061216429517604405,-0.011244155330955982
1772562819072590600,11.727590576171876,0.0729547615736723,-0.001890288992319256,-0.005063457402028143
1772562819082657500,11.737657470703125,0.07311024439632892,-0.012204387798393144,-0.00822623228188604
1772562819092724500,11.747724365234374,0.05246083959937095,0.003858556857984513,-0.006100654962658882
1772562819102791400,11.75779150390625,0.08014204272925854,-0.009217846268275752,-0.007456015094369649
1772562819112859400,11.767859375,0.07999474321305751,-0.012383032300928607,-0.01414601425230503
1772562819122926600,11.777926513671876,0.06473112310767173,-0.007956292766705154,-0.015684768126904964
1772562819132993500,11.78799365234375,0.07191840426325798,-0.0009252890182193368,0.005918284133076667
1772562819143060500,11.798060546875,0.07835866644382476,-0.00916746778790839,0.004802614508755505
1772562819153127400,11.80812744140625,0.06579027677178383,-0.017838028037501497,-0.015116064860858022
1772562819163195600,11.818195556640624,0.061900868117809295,-0.014128843921795486,0.004352057729661464
1772562819173262600,11.8282626953125,0.06564356177747249,-0.012802125362679362,0.01580192823316902
1772562819183329500,11.83832958984375,0.047539165288209916,-0.015239134118100628,-0.004179769902676343
1772562819193396500,11.848396484375,0.07042904248833656,-0.00028858941672369837,0.0006467004057019948
1772562819203463700,11.858463623046875,0.0568114360243082,-0.007746011016890406,-0.002839936133660376
1772562819213530600,11.868530517578124,0.07296645201146602,-0.016708832211326807,0.0033227877471596
1772562819223598600,11.8785986328125,0.09002221623063086,-0.006542626576498151,0.006294606632180511
1772562819233665500,11.88866552734375,0.0621837767124176,-0.012386575964884832,-0.005046798528172075
1772562819243732500,11.898732421875,0.04108838171362877,-0.020337863762909546,0.021051592389680445
1772562819253799400,11.90879931640625,0.062491235226392744,-0.018036948143085464,0.002765738386288285
1772562819263866400,11.918866455078126,0.06337912397682667,-0.015994555595284326,-0.021010127868130803
1772562819273934600,11.9289345703125,0.03442600121498108,0.018682589102862402,-0.02067073984593153
1772562819284001500,11.93900146484375,-0.03852349966168404,0.007578116237232461,-0.07381090347897261
1772562819294068500,11.949068359375,-0.000723053577542305,-0.04184959361078217,-0.03884538855981082
1772562819304135700,11.9591357421875,-0.02625380067527294,-0.0047534233384765685,0.08986823124531657
1772562819314202600,11.96920263671875,0.4010942445278167,-0.024023137280065564,0.11216547631453722
1772562819324269600,11.97926953125,0.46600364681184286,-0.022414405175484715,0.1240057343751192
1772562819334337500,11.989337646484374,0.12561843026876449,0.029320147709641604,0.045120157980360086
1772562819344404500,11.999404541015625,-0.2048994722545147,-0.02263211217992939,-0.07574979911968112
1772562819354471400,12.009471435546875,-0.36042145787775515,0.0006324161520227789,-0.14012988029997794
1772562819364538400,12.019538330078126,-0.050151978135108945,0.0037671522474847733,-0.10070453642774373
1772562819374605300,12.029605224609375,0.22539397875070571,-0.019285943557182324,0.04126907204277813
1772562819384672800,12.0396728515625,0.30075580146610736,0.007407463244907557,0.11943751314412802
1772562819394740500,12.049740478515625,0.2802501890540123,-0.023685119231045246,0.08811408105436712
