time,seconds_elapsed,z,y,x
1772562807400960800,0.055960693359375,-1.0112762451171875,-0.0163421630859375,0.0354156494140625
1772562807411027700,0.06602783203125,-1.0020599365234375,-0.0112457275390625,0.043792724609375
1772562807421095000,0.076094970703125,-0.975830078125,-0.018280029296875,0.052490234375
1772562807431163000,0.086162841796875,-0.96917724609375,-0.0146636962890625,0.057708740234375
1772562807441229800,0.096229736328125,-0.9849090576171875,-0.0150604248046875,0.0533447265625
1772562807451296800,0.106296875,-0.994140625,-0.0163726806640625,0.042633056640625
1772562807461363700,0.11636376953125,-1.0142822265625,-0.013214111328125,0.038238525390625
1772562807471430700,0.1264306640625,-1.0095672607421875,-0.01275634765625,0.04205322265625
1772562807481498600,0.13649853515625,-0.9831085205078125,-0.0146636962890625,0.050140380859375
1772562807491565800,0.14656591796875,-0.9777069091796875,-0.0154266357421875,0.0530548095703125
1772562807501632800,0.1566328125,-0.9801025390625,-0.0141143798828125,0.05322265625
1772562807511699700,0.16669970703125,-0.9893798828125,-0.0152740478515625,0.047149658203125
1772562807521766700,0.1767666015625,-1.0035858154296875,-0.01531982421875,0.0423583984375
1772562807531833900,0.186833740234375,-1.003570556640625,-0.0128326416015625,0.04205322265625
1772562807541901800,0.19690185546875,-0.9954681396484375,-0.014617919921875,0.04620361328125
1772562807551968800,0.20696875,-0.987060546875,-0.0124359130859375,0.0493316650390625
1772562807562035700,0.21703564453125,-0.9813232421875,-0.014556884765625,0.0501708984375
1772562807572103000,0.22710302734375,-0.9865570068359375,-0.016265869140625,0.0483551025390625
1772562807582169900,0.237169921875,-0.994659423828125,-0.0150909423828125,0.046142578125
1772562807592236800,0.24723681640625,-1.0003814697265625,-0.0164947509765625,0.04608154296875
1772562807602304800,0.2573046875,-0.994873046875,-0.0135345458984375,0.0446014404296875
1772562807612371700,0.267371826171875,-0.9889984130859375,-0.0141448974609375,0.046661376953125
1772562807622438700,0.277438720703125,-0.9860076904296875,-0.0145721435546875,0.0467681884765625
1772562807632505900,0.287505859375,-0.9866485595703125,-0.0145416259765625,0.0484466552734375
1772562807642572800,0.29757275390625,-0.9945526123046875,-0.018218994140625,0.04595947265625
1772562807652640800,0.307640869140625,-0.9959564208984375,-0.0164794921875,0.0469818115234375
1772562807662707700,0.317707763671875,-0.9954986572265625,-0.0161895751953125,0.048004150390625
1772562807672775000,0.32777490234375,-0.990936279296875,-0.01629638671875,0.047515869140625
1772562807682841900,0.337841796875,-0.9868621826171875,-0.014617919921875,0.0478515625
1772562807692908800,0.34790869140625,-0.991424560546875,-0.015167236328125,0.0498504638671875
1772562807702975700,0.357975830078125,-0.9908447265625,-0.014495849609375,0.0478973388671875
1772562807713043700,0.368043701171875,-0.9953155517578125,-0.0138397216796875,0.0462188720703125
1772562807723110700,0.378110595703125,-0.9950714111328125,-0.0148773193359375,0.046600341796875
1772562807733177600,0.388177490234375,-0.990997314453125,-0.0159759521484375,0.0463104248046875
1772562807743244800,0.398244873046875,-0.9898223876953125,-0.0139617919921875,0.0476837158203125
1772562807753312000,0.40831201171875,-0.9889373779296875,-0.0145111083984375,0.049224853515625
1772562807763379000,0.41837890625,-0.9925384521484375,-0.0154266357421875,0.0486907958984375
1772562807773447000,0.428447021484375,-0.9949493408203125,-0.0146484375,0.0469207763671875
1772562807783513900,0.438513916015625,-0.9947662353515625,-0.01416015625,0.046539306640625
1772562807793580800,0.448580810546875,-0.9934539794921875,-0.015777587890625,0.0478057861328125
1772562807803647700,0.458647705078125,-0.98944091796875,-0.0152740478515625,0.047607421875
1772562807813714700,0.468714599609375,-0.9886322021484375,-0.01361083984375,0.0484771728515625
1772562807823781600,0.47878173828125,-0.9918212890625,-0.01556396484375,0.047698974609375
1772562807833849600,0.488849609375,-0.993194580078125,-0.015106201171875,0.0466766357421875
1772562807843916800,0.498916748046875,-0.9940643310546875,-0.0156097412109375,0.0461273193359375
1772562807853984000,0.50898388671875,-0.99420166015625,-0.015960693359375,0.0469207763671875
1772562807864051000,0.519051025390625,-0.9911956787109375,-0.0160064697265625,0.047149658203125
1772562807874118000,0.529117919921875,-0.9891204833984375,-0.014892578125,0.0473785400390625
1772562807884184800,0.539184814453125,-0.9909515380859375,-0.015228271484375,0.0475616455078125
1772562807894252800,0.549252685546875,-0.991180419921875,-0.0164794921875,0.047821044921875
1772562807904319700,0.55931982421875,-0.993194580078125,-0.01446533203125,0.0467681884765625
1772562807914387000,0.569386962890625,-0.994964599609375,-0.014556884765625,0.0463714599609375
1772562807924454000,0.579453857421875,-0.99212646484375,-0.0157623291015625,0.0474853515625
1772562807934520800,0.589520751953125,-0.9902496337890625,-0.0148468017578125,0.0482940673828125
1772562807944589000,0.599589111328125,-0.9888916015625,-0.01531982421875,0.04766845703125
1772562807954656000,0.609656005859375,-0.9900054931640625,-0.0153656005859375,0.046966552734375
1772562807964723200,0.61972314453125,-0.9935302734375,-0.0160980224609375,0.046783447265625
1772562807974790100,0.6297900390625,-0.9933929443359375,-0.0151824951171875,0.0458831787109375
1772562807984857000,0.639857177734375,-0.9926300048828125,-0.0132293701171875,0.0477142333984375
1772562807994924000,0.649924072265625,-0.991546630859375,-0.014617919921875,0.04864501953125
1772562808004992000,0.659991943359375,-0.99072265625,-0.015289306640625,0.0477142333984375
1772562808015059000,0.670058837890625,-0.9921875,-0.015533447265625,0.0473175048828125
1772562808025126000,0.6801259765625,-0.9922332763671875,-0.013763427734375,0.0481109619140625
1772562808035193000,0.690193115234375,-0.9922637939453125,-0.01385498046875,0.046722412109375
1772562808045260000,0.700260009765625,-0.980316162109375,-0.0122833251953125,0.0427093505859375
1772562808055327000,0.710326904296875,-0.972137451171875,-0.0178680419921875,0.0476837158203125
1772562808065395200,0.720395263671875,-1.0217132568359375,-0.0169677734375,0.0583648681640625
1772562808075462100,0.730462158203125,-1.0145111083984375,-0.0124969482421875,0.057159423828125
1772562808085529000,0.740529052734375,-0.97119140625,-0.019256591796875,0.04852294921875
1772562808095596000,0.750595947265625,-0.978973388671875,-0.0113372802734375,0.0386505126953125
1772562808105663000,0.7606630859375,-0.9959564208984375,-0.0113983154296875,0.0323486328125
1772562808115730000,0.77072998046875,-1.016845703125,-0.0199737548828125,0.041534423828125
1772562808125798000,0.7807978515625,-1.0207061767578125,-0.012176513671875,0.0560150146484375
1772562808135865000,0.790864990234375,-0.9489288330078125,-0.0164794921875,0.05682373046875
1772562808145932000,0.80093212890625,-0.9326934814453125,-0.019622802734375,0.0543212890625
1772562808155999000,0.8109990234375,-1.014251708984375,-0.009368896484375,0.046539306640625
1772562808166066000,0.82106591796875,-1.0401763916015625,-0.0125732421875,0.037567138671875
1772562808176132900,0.8311328125,-1.001190185546875,-0.015533447265625,0.03802490234375
1772562808186201000,0.841201171875,-0.978240966796875,-0.014739990234375,0.046173095703125
1772562808196268000,0.85126806640625,-0.9759521484375,-0.018402099609375,0.053466796875
1772562808206335000,0.8613349609375,-0.986663818359375,-0.0133056640625,0.056365966796875
1772562808216402200,0.871402099609375,-0.9860382080078125,-0.0140533447265625,0.0504302978515625
1772562808226469000,0.88146923828125,-0.9866943359375,-0.0145416259765625,0.0414886474609375
1772562808236536000,0.8915361328125,-1.0115814208984375,-0.0133514404296875,0.0379791259765625
1772562808246604000,0.90160400390625,-1.0122528076171875,-0.014556884765625,0.045257568359375
1772562808256671000,0.9116708984375,-0.9818115234375,-0.0151519775390625,0.0504302978515625
1772562808266738000,0.921738037109375,-0.970855712890625,-0.0166015625,0.052520751953125
1772562808276804900,0.931804931640625,-0.983978271484375,-0.0165252685546875,0.0522918701171875
1772562808286871800,0.941871826171875,-0.99969482421875,-0.0160369873046875,0.04669189453125
1772562808296940000,0.95193994140625,-1.0012054443359375,-0.01495361328125,0.042388916015625
1772562808307007000,0.962007080078125,-0.99591064453125,-0.0133514404296875,0.0434722900390625
1772562808317074200,0.97207421875,-0.9940643310546875,-0.0154876708984375,0.046356201171875
1772562808327141000,0.98214111328125,-0.9892120361328125,-0.014373779296875,0.047515869140625
1772562808337208000,0.9922080078125,-0.9845428466796875,-0.0156097412109375,0.05072021484375
1772562808347275000,1.00227490234375,-0.985504150390625,-0.016845703125,0.0497894287109375
1772562808357343000,1.012343017578125,-0.996795654296875,-0.0155487060546875,0.046783447265625
1772562808367410000,1.022409912109375,-1.001312255859375,-0.0156707763671875,0.0456085205078125
1772562808377476900,1.032476806640625,-0.9967803955078125,-0.014007568359375,0.046051025390625
1772562808387543800,1.042543701171875,-0.9881439208984375,-0.014068603515625,0.0486602783203125
1772562808397611300,1.052611328125,-0.9853363037109375,-0.0149383544921875,0.0464019775390625
1772562808407678200,1.06267822265625,-0.9911651611328125,-0.0131378173828125,0.0461883544921875
1772562808417746200,1.07274609375,-0.9945068359375,-0.0145263671875,0.046783447265625
1772562808427813000,1.082813232421875,-0.992279052734375,-0.0149078369140625,0.0476226806640625
1772562808437880000,1.092880126953125,-0.9958648681640625,-0.015625,0.04638671875
1772562808447947000,1.102947021484375,-0.9913177490234375,-0.015289306640625,0.04815673828125
1772562808458014000,1.113013916015625,-0.9884490966796875,-0.0146026611328125,0.04632568359375
1772562808468081000,1.123080810546875,-0.990447998046875,-0.01409912109375,0.0473480224609375
1772562808478148900,1.13314892578125,-0.9952545166015625,-0.0141754150390625,0.047332763671875
1772562808488215800,1.1432158203125,-0.997711181640625,-0.0146026611328125,0.0465240478515625
1772562808498283000,1.153282958984375,-0.993255615234375,-0.0157470703125,0.0466766357421875
1772562808508350200,1.16335009765625,-0.9882049560546875,-0.016510009765625,0.048309326171875
1772562808518417200,1.173417236328125,-0.9888153076171875,-0.0154571533203125,0.0493316650390625
1772562808528484000,1.183484130859375,-0.9911346435546875,-0.0146636962890625,0.0464019775390625
1772562808538552000,1.193552001953125,-0.992950439453125,-0.0156707763671875,0.0473175048828125
1772562808548619000,1.203618896484375,-0.993408203125,-0.01568603515625,0.046142578125
1772562808558686000,1.21368603515625,-0.991119384765625,-0.015594482421875,0.047698974609375
1772562808568753000,1.2237529296875,-0.9912567138671875,-0.015380859375,0.049163818359375
1772562808578820000,1.233820068359375,-0.9903106689453125,-0.013275146484375,0.0494842529296875
1772562808588887000,1.243886962890625,-0.989532470703125,-0.0150909423828125,0.048583984375
1772562808598955000,1.253955078125,-0.9921112060546875,-0.014556884765625,0.047271728515625
1772562808609022200,1.264022216796875,-0.994232177734375,-0.013916015625,0.04644775390625
1772562808619089200,1.274089111328125,-0.991790771484375,-0.0157012939453125,0.0458526611328125
1772562808629156000,1.284156005859375,-0.9918670654296875,-0.0159149169921875,0.04583740234375
1772562808639223000,1.29422314453125,-0.9908599853515625,-0.0164642333984375,0.0489501953125
1772562808649290000,1.3042900390625,-0.9883880615234375,-0.01470947265625,0.0476226806640625
1772562808659358000,1.31435791015625,-0.9912567138671875,-0.0132904052734375,0.04803466796875
1772562808669425000,1.3244248046875,-0.9941864013671875,-0.0149078369140625,0.0460357666015625
1772562808679492000,1.3344921875,-0.9919891357421875,-0.0139923095703125,0.04534912109375
1772562808689559000,1.34455908203125,-0.9921112060546875,-0.0134124755859375,0.0460052490234375
1772562808699626000,1.3546259765625,-0.9909210205078125,-0.0139923095703125,0.0465240478515625
1772562808709693000,1.36469287109375,-0.9887237548828125,-0.01495361328125,0.0472869873046875
1772562808719761200,1.37476123046875,-0.9902191162109375,-0.015899658203125,0.0483551025390625
1772562808729828000,1.384828125,-0.9918365478515625,-0.01617431640625,0.047607421875
1772562808739895000,1.39489501953125,-0.9932708740234375,-0.0139312744140625,0.0475006103515625
1772562808749962000,1.4049619140625,-0.9939727783203125,-0.0154266357421875,0.046661376953125
1772562808760029200,1.415029296875,-0.992706298828125,-0.01513671875,0.047210693359375
1772562808770096000,1.42509619140625,-0.9911041259765625,-0.0164337158203125,0.0470428466796875
1772562808780164000,1.4351640625,-0.9891357421875,-0.015167236328125,0.048248291015625
1772562808790231000,1.44523095703125,-0.9909515380859375,-0.0146942138671875,0.0472564697265625
1772562808800298000,1.455298095703125,-0.9906768798828125,-0.013885498046875,0.0476531982421875
1772562808810365000,1.465364990234375,-0.9924468994140625,-0.0153045654296875,0.0452728271484375
1772562808820432000,1.475431884765625,-0.993560791015625,-0.0138092041015625,0.0457916259765625
1772562808830498800,1.485498779296875,-0.99261474609375,-0.01495361328125,0.0455474853515625
1772562808840567000,1.495567138671875,-0.9908905029296875,-0.0142669677734375,0.045745849609375
1772562808850634000,1.505634033203125,-0.9908905029296875,-0.0155029296875,0.0467987060546875
1772562808860701200,1.515701171875,-0.99212646484375,-0.01519775390625,0.048248291015625
1772562808870768000,1.52576806640625,-0.992156982421875,-0.0158843994140625,0.0474700927734375
1772562808880835000,1.5358349609375,-0.9916839599609375,-0.015869140625,0.0458984375
1772562808890902000,1.545902099609375,-0.9916534423828125,-0.013397216796875,0.0472259521484375
1772562808900970000,1.555969970703125,-0.992340087890625,-0.0155029296875,0.0485992431640625
1772562808911037000,1.566036865234375,-0.99224853515625,-0.0152130126953125,0.04669189453125
1772562808921103600,1.576103515625,-0.9910125732421875,-0.01519775390625,0.0479278564453125
1772562808931170800,1.5861708984375,-0.9920501708984375,-0.0152587890625,0.0482940673828125
1772562808941237800,1.59623779296875,-0.992340087890625,-0.0150146484375,0.048675537109375
1772562808951306000,1.606305908203125,-0.9912109375,-0.01422119140625,0.0457611083984375
1772562808961373000,1.616373046875,-0.99322509765625,-0.0131378173828125,0.0473175048828125
1772562808971439900,1.62643994140625,-0.99176025390625,-0.014404296875,0.0471343994140625
1772562808981506800,1.6365068359375,-0.990936279296875,-0.0155792236328125,0.0472564697265625
1772562808991573800,1.64657373046875,-0.99261474609375,-0.015777587890625,0.04852294921875
1772562809001640700,1.656640625,-0.9914093017578125,-0.014923095703125,0.046905517578125
1772562809011708700,1.666708740234375,-0.99163818359375,-0.01519775390625,0.0453948974609375
1772562809021775600,1.676775634765625,-0.993438720703125,-0.016357421875,0.0461578369140625
1772562809031842800,1.6868427734375,-0.992218017578125,-0.015167236328125,0.04791259765625
1772562809041909800,1.69690966796875,-0.9929046630859375,-0.0149993896484375,0.0463714599609375
1772562809051976700,1.706976806640625,-0.990142822265625,-0.015289306640625,0.046356201171875
1772562809062043600,1.717043701171875,-0.991546630859375,-0.01593017578125,0.047119140625
1772562809072111900,1.72711181640625,-0.9927215576171875,-0.0152435302734375,0.048309326171875
1772562809082178800,1.7371787109375,-0.9907379150390625,-0.016082763671875,0.046417236328125
1772562809092245800,1.747245849609375,-0.992401123046875,-0.0156097412109375,0.0467071533203125
1772562809102312700,1.757312744140625,-0.9911956787109375,-0.01446533203125,0.046417236328125
1772562809112380000,1.7673798828125,-0.9939422607421875,-0.014923095703125,0.0467071533203125
1772562809122446800,1.77744677734375,-0.9942169189453125,-0.0144805908203125,0.04705810546875
1772562809132514800,1.787514892578125,-0.991058349609375,-0.0162353515625,0.0474700927734375
1772562809142581800,1.797581787109375,-0.9913787841796875,-0.01513671875,0.04803466796875
1772562809152648700,1.807648681640625,-0.9915618896484375,-0.014007568359375,0.0460052490234375
1772562809162715600,1.817715576171875,-0.9928131103515625,-0.0141143798828125,0.0467529296875
1772562809172782600,1.827782470703125,-0.991851806640625,-0.014617919921875,0.0463409423828125
1772562809182849800,1.837849853515625,-0.9929656982421875,-0.015411376953125,0.0473480224609375
1772562809192917800,1.847917724609375,-0.9927825927734375,-0.0152435302734375,0.047607421875
1772562809202984700,1.857984619140625,-0.992340087890625,-0.015594482421875,0.047119140625
1772562809213052000,1.868052001953125,-0.991912841796875,-0.0149688720703125,0.0461883544921875
1772562809223118800,1.878118896484375,-0.990753173828125,-0.0151519775390625,0.0475616455078125
1772562809233185800,1.888185791015625,-0.99176025390625,-0.0151824951171875,0.0450439453125
1772562809243252700,1.898252685546875,-0.9903564453125,-0.0145263671875,0.046905517578125
1772562809253320700,1.90832080078125,-0.992523193359375,-0.0150299072265625,0.0465240478515625
1772562809263387600,1.9183876953125,-0.990814208984375,-0.0164337158203125,0.0455322265625
1772562809273454600,1.92845458984375,-0.99163818359375,-0.0140838623046875,0.0469818115234375
1772562809283521800,1.938521728515625,-0.991729736328125,-0.013946533203125,0.0474853515625
1772562809293589000,1.948589111328125,-0.990509033203125,-0.015899658203125,0.0470733642578125
1772562809303656000,1.958656005859375,-0.9911041259765625,-0.015777587890625,0.0457611083984375
1772562809313724000,1.968723876953125,-0.99310302734375,-0.01580810546875,0.047027587890625
1772562809323790800,1.978790771484375,-0.9936370849609375,-0.015411376953125,0.047515869140625
1772562809333857800,1.98885791015625,-0.9919586181640625,-0.0150299072265625,0.0462799072265625
1772562809343924700,1.9989248046875,-0.9928131103515625,-0.0153350830078125,0.0460205078125
1772562809353991700,2.00899169921875,-0.9908599853515625,-0.0148468017578125,0.0474700927734375
1772562809364058600,2.01905859375,-0.9915008544921875,-0.0159759521484375,0.046142578125
1772562809374126600,2.029126708984375,-0.992340087890625,-0.0145111083984375,0.04736328125
1772562809384193800,2.03919384765625,-0.9936370849609375,-0.0155792236328125,0.0469207763671875
1772562809394261000,2.049260986328125,-0.9918212890625,-0.01446533203125,0.047210693359375
1772562809404328000,2.059327880859375,-0.992218017578125,-0.014373779296875,0.047393798828125
1772562809414395000,2.069394775390625,-0.991546630859375,-0.0150604248046875,0.0467071533203125
1772562809424461800,2.0794619140625,-0.99127197265625,-0.0164642333984375,0.04669189453125
1772562809434529800,2.08952978515625,-0.9922943115234375,-0.0161590576171875,0.046966552734375
1772562809444596700,2.0995966796875,-0.990447998046875,-0.01678466796875,0.0477294921875
1772562809454663700,2.10966357421875,-0.99176025390625,-0.015960693359375,0.0469207763671875
1772562809464730600,2.119730712890625,-0.9915313720703125,-0.015411376953125,0.04547119140625
1772562809474797800,2.1297978515625,-0.9920501708984375,-0.0125885009765625,0.0462799072265625
1772562809484864800,2.13986474609375,-0.9923858642578125,-0.012725830078125,0.0465850830078125
1772562809494933000,2.14993310546875,-0.9922027587890625,-0.0146026611328125,0.0478057861328125
1772562809505000000,2.16,-0.9921417236328125,-0.0142974853515625,0.0474090576171875
1772562809515067000,2.17006689453125,-0.9922943115234375,-0.0157470703125,0.0483856201171875
1772562809525133800,2.1801337890625,-0.9934234619140625,-0.01300048828125,0.0486602783203125
1772562809535200800,2.19020068359375,-0.992767333984375,-0.014617919921875,0.046783447265625
1772562809545268700,2.200268798828125,-0.99267578125,-0.0139312744140625,0.045501708984375
1772562809555335700,2.210335693359375,-0.99224853515625,-0.01324462890625,0.0471954345703125
1772562809565402600,2.220402587890625,-0.9920806884765625,-0.0145111083984375,0.0452728271484375
1772562809575469800,2.2304697265625,-0.991912841796875,-0.016021728515625,0.0478973388671875
1772562809585536800,2.240536865234375,-0.9914703369140625,-0.0152130126953125,0.0468292236328125
1772562809595603700,2.250603759765625,-0.9910888671875,-0.0158538818359375,0.046966552734375
1772562809605672000,2.260671875,-0.9923095703125,-0.016510009765625,0.047271728515625
1772562809615739000,2.27073876953125,-0.9931793212890625,-0.0149383544921875,0.0460357666015625
1772562809625805800,2.280805908203125,-0.9930419921875,-0.014801025390625,0.0457611083984375
1772562809635872800,2.290872802734375,-0.992919921875,-0.014678955078125,0.0480499267578125
1772562809645939700,2.300939697265625,-0.9920654296875,-0.0153350830078125,0.0473480224609375
1772562809656007000,2.3110068359375,-0.992401123046875,-0.0164794921875,0.0488433837890625
1772562809666075000,2.321074951171875,-0.9918060302734375,-0.01544189453125,0.04791259765625
1772562809676141800,2.331141845703125,-0.9936065673828125,-0.015380859375,0.047149658203125
1772562809686208800,2.341208740234375,-0.9926605224609375,-0.015655517578125,0.0458526611328125
1772562809696275700,2.351275634765625,-0.99102783203125,-0.014923095703125,0.045562744140625
1772562809706342700,2.3613427734375,-0.9922027587890625,-0.0148468017578125,0.046539306640625
1772562809716409600,2.37140966796875,-0.9918212890625,-0.0140838623046875,0.047576904296875
1772562809726477800,2.381477783203125,-0.9924774169921875,-0.014129638671875,0.046478271484375
1772562809736544800,2.391544677734375,-0.9919891357421875,-0.01483154296875,0.0451507568359375
1772562809746611700,2.40161181640625,-0.9915771484375,-0.0146484375,0.0462799072265625
1772562809756679000,2.411678955078125,-0.9928131103515625,-0.0143890380859375,0.047027587890625
1772562809766745900,2.421745849609375,-0.9923858642578125,-0.014617919921875,0.0465240478515625
1772562809776812800,2.431812744140625,-0.9917144775390625,-0.0148773193359375,0.046295166015625
1772562809786880800,2.441880859375,-0.991729736328125,-0.014404296875,0.046875
1772562809796947700,2.45194775390625,-0.991485595703125,-0.0149383544921875,0.0465850830078125
1772562809807014700,2.4620146484375,-0.991729736328125,-0.0137481689453125,0.0466766357421875
1772562809817081600,2.47208154296875,-0.9913330078125,-0.014068603515625,0.04779052734375
1772562809827148800,2.482148681640625,-0.9916229248046875,-0.0154266357421875,0.0471343994140625
1772562809837215700,2.4922158203125,-0.991973876953125,-0.0164642333984375,0.04705810546875
1772562809847284000,2.502283935546875,-0.9931640625,-0.016998291015625,0.0479888916015625
1772562809857351000,2.512350830078125,-0.9931488037109375,-0.0146484375,0.0450439453125
1772562809867417900,2.52241796875,-0.9910736083984375,-0.0158538818359375,0.046356201171875
1772562809877484800,2.53248486328125,-0.991607666015625,-0.01605224609375,0.0459747314453125
1772562809887551700,2.5425517578125,-0.992523193359375,-0.0150604248046875,0.04693603515625
1772562809897618700,2.55261865234375,-0.992767333984375,-0.0146026611328125,0.0492095947265625
1772562809907686700,2.562686767578125,-0.9925079345703125,-0.01513671875,0.047027587890625
1772562809917754400,2.57275439453125,-0.9920654296875,-0.0147857666015625,0.046783447265625
1772562809927821300,2.5828212890625,-0.992095947265625,-0.0145416259765625,0.0458526611328125
1772562809937888300,2.59288818359375,-0.991241455078125,-0.015777587890625,0.0462188720703125
1772562809947955500,2.60295556640625,-0.9925537109375,-0.0147552490234375,0.04620361328125
1772562809958022400,2.6130224609375,-0.993316650390625,-0.0153045654296875,0.045867919921875
1772562809968090600,2.623090576171875,-0.9921722412109375,-0.016143798828125,0.047332763671875
1772562809978157600,2.633157470703125,-0.990875244140625,-0.0140533447265625,0.0472412109375
1772562809988224500,2.643224609375,-0.9905853271484375,-0.01470947265625,0.0469970703125
1772562809998291500,2.65329150390625,-0.9903411865234375,-0.0131988525390625,0.0476837158203125
1772562810008358400,2.6633583984375,-0.9925384521484375,-0.013763427734375,0.046630859375
1772562810018426400,2.67342626953125,-0.9911041259765625,-0.0145721435546875,0.048095703125
1772562810028493300,2.683493408203125,-0.9923095703125,-0.0146942138671875,0.0479888916015625
1772562810038560500,2.693560546875,-0.992889404296875,-0.0156402587890625,0.0474700927734375
1772562810048627500,2.70362744140625,-0.992095947265625,-0.0132904052734375,0.048248291015625
1772562810058694400,2.7136943359375,-0.9911651611328125,-0.0149383544921875,0.0464019775390625
1772562810068761300,2.72376123046875,-0.9913330078125,-0.014617919921875,0.047760009765625
1772562810078829600,2.73382958984375,-0.992279052734375,-0.013671875,0.0474700927734375
1772562810088896500,2.743896484375,-0.9921112060546875,-0.0149993896484375,0.046875
1772562810098963500,2.75396337890625,-0.99224853515625,-0.014678955078125,0.047027587890625
1772562810109030400,2.764030517578125,-0.9920501708984375,-0.015228271484375,0.047210693359375
1772562810119097300,2.774097412109375,-0.9908599853515625,-0.014007568359375,0.0454864501953125
1772562810129164500,2.78416455078125,-0.9915618896484375,-0.0139007568359375,0.0467681884765625
1772562810139232500,2.794232421875,-0.9933013916015625,-0.015228271484375,0.0467376708984375
1772562810149299500,2.804299560546875,-0.990570068359375,-0.013671875,0.0467987060546875
1772562810159366400,2.814366455078125,-0.9923248291015625,-0.015350341796875,0.0477142333984375
1772562810169433300,2.824433349609375,-0.9917449951171875,-0.0157623291015625,0.046844482421875
1772562810179500300,2.834500244140625,-0.9919891357421875,-0.0146636962890625,0.0463104248046875
1772562810189567200,2.844567138671875,-0.9921112060546875,-0.01513671875,0.0465087890625
1772562810199635500,2.854635498046875,-0.9911041259765625,-0.01483154296875,0.04681396484375
1772562810209702400,2.864702392578125,-0.9915924072265625,-0.01531982421875,0.045989990234375
1772562810219769600,2.87476953125,-0.9917144775390625,-0.0151519775390625,0.047027587890625
1772562810229836500,2.88483642578125,-0.9917755126953125,-0.014801025390625,0.04656982421875
1772562810239903500,2.894903564453125,-0.9932403564453125,-0.0154876708984375,0.0464324951171875
1772562810249970400,2.904970458984375,-0.9914093017578125,-0.013336181640625,0.046173095703125
1772562810260038400,2.915038330078125,-0.9912261962890625,-0.0151824951171875,0.0476837158203125
1772562810270105300,2.925105224609375,-0.9925537109375,-0.015655517578125,0.04656982421875
1772562810280172300,2.93517236328125,-0.9931793212890625,-0.0136566162109375,0.0481414794921875
1772562810290239200,2.9452392578125,-0.99212646484375,-0.014892578125,0.04718017578125
1772562810300306400,2.955306396484375,-0.9925079345703125,-0.01458740234375,0.0478668212890625
1772562810310373600,2.96537353515625,-0.9923095703125,-0.01593017578125,0.04693603515625
1772562810320441600,2.975441650390625,-0.991363525390625,-0.016204833984375,0.046722412109375
1772562810330508500,2.985508544921875,-0.9924163818359375,-0.0143280029296875,0.0471343994140625
1772562810340575500,2.995575439453125,-0.9914093017578125,-0.014495849609375,0.0477447509765625
1772562810350642400,3.005642333984375,-0.991668701171875,-0.01531982421875,0.047607421875
1772562810360709400,3.01570947265625,-0.9925079345703125,-0.0152435302734375,0.0477752685546875
1772562810370776300,3.0257763671875,-0.9909515380859375,-0.0146026611328125,0.047088623046875
1772562810380844300,3.03584423828125,-0.9913177490234375,-0.0161590576171875,0.0478973388671875
1772562810390911200,3.0459111328125,-0.9925384521484375,-0.0148468017578125,0.0460968017578125
1772562810400978400,3.055978515625,-0.992584228515625,-0.016265869140625,0.046539306640625
1772562810411045600,3.066045654296875,-0.9909210205078125,-0.014312744140625,0.0455474853515625
1772562810421112600,3.076112548828125,-0.991363525390625,-0.0166015625,0.046630859375
1772562810431179500,3.086179443359375,-0.991119384765625,-0.01422119140625,0.0468597412109375
1772562810441247500,3.09624755859375,-0.9907989501953125,-0.0141143798828125,0.0472869873046875
1772562810451314400,3.106314453125,-0.9921112060546875,-0.0145416259765625,0.0485076904296875
1772562810461381400,3.11638134765625,-0.9923248291015625,-0.014984130859375,0.0482330322265625
1772562810471448300,3.1264482421875,-0.99102783203125,-0.014129638671875,0.047119140625
1772562810481515500,3.136515625,-0.9918670654296875,-0.0163116455078125,0.0474090576171875
1772562810491583200,3.146583251953125,-0.9907379150390625,-0.0157318115234375,0.0485076904296875
1772562810501650400,3.156650390625,-0.992401123046875,-0.013458251953125,0.0475616455078125
1772562810511717600,3.166717529296875,-0.991119384765625,-0.01446533203125,0.0460052490234375
1772562810521784600,3.17678466796875,-0.9901885986328125,-0.01507568359375,0.047637939453125
1772562810531851500,3.1868515625,-0.991424560546875,-0.014312744140625,0.0475311279296875
1772562810541918500,3.19691845703125,-0.991424560546875,-0.015777587890625,0.046051025390625
1772562810551986400,3.206986328125,-0.9911651611328125,-0.0161895751953125,0.0463409423828125
1772562810562053400,3.217053466796875,-0.9927825927734375,-0.0143280029296875,0.0477447509765625
1772562810572120300,3.227120361328125,-0.99237060546875,-0.0147705078125,0.0479583740234375
1772562810582187500,3.2371875,-0.9924468994140625,-0.01483154296875,0.0464630126953125
1772562810592254500,3.24725439453125,-0.9927978515625,-0.0156402587890625,0.046905517578125
1772562810602321400,3.2573212890625,-0.9918670654296875,-0.0137939453125,0.0464019775390625
1772562810612389400,3.267389404296875,-0.99163818359375,-0.0142059326171875,0.0467681884765625
1772562810622456600,3.27745654296875,-0.9913787841796875,-0.0138397216796875,0.0482025146484375
1772562810632523500,3.2875234375,-0.9929046630859375,-0.015533447265625,0.0478363037109375
1772562810642590500,3.297590576171875,-0.9922332763671875,-0.0148162841796875,0.0457916259765625
1772562810652657400,3.307657470703125,-0.9917144775390625,-0.016021728515625,0.0470428466796875
1772562810662724600,3.317724609375,-0.9924774169921875,-0.0142822265625,0.046600341796875
1772562810672792300,3.327792236328125,-0.992034912109375,-0.01446533203125,0.0474395751953125
1772562810682859500,3.337859619140625,-0.9910125732421875,-0.0147552490234375,0.0499267578125
1772562810692926500,3.347926513671875,-0.9912567138671875,-0.0140838623046875,0.046539306640625
1772562810702993400,3.357993408203125,-0.9911041259765625,-0.0152435302734375,0.0472869873046875
1772562810713060400,3.368060302734375,-0.9896087646484375,-0.0151214599609375,0.0458831787109375
1772562810723127300,3.378127197265625,-0.9925384521484375,-0.016204833984375,0.047760009765625
1772562810733195500,3.388195556640625,-0.99139404296875,-0.0152130126953125,0.0485687255859375
1772562810743262500,3.398262451171875,-0.992584228515625,-0.014068603515625,0.0471038818359375
1772562810753329400,3.408329345703125,-0.9922027587890625,-0.0142059326171875,0.0471343994140625
1772562810763396600,3.418396728515625,-0.9911956787109375,-0.01495361328125,0.048187255859375
1772562810773463600,3.428463623046875,-0.9917449951171875,-0.0164337158203125,0.0468902587890625
1772562810783530500,3.438530517578125,-0.9930572509765625,-0.014739990234375,0.0464019775390625
1772562810793598500,3.448598388671875,-0.9922943115234375,-0.0151519775390625,0.0469818115234375
1772562810803665400,3.45866552734375,-0.9918975830078125,-0.014434814453125,0.045745849609375
1772562810813732400,3.468732421875,-0.9920196533203125,-0.0140533447265625,0.0480194091796875
1772562810823799300,3.47879931640625,-0.992034912109375,-0.013946533203125,0.0477752685546875
1772562810833866200,3.4888662109375,-0.9918060302734375,-0.015960693359375,0.048370361328125
1772562810843934500,3.4989345703125,-0.991851806640625,-0.014251708984375,0.04864501953125
1772562810854001400,3.50900146484375,-0.99169921875,-0.0135040283203125,0.0487213134765625
1772562810864068600,3.519068603515625,-0.992584228515625,-0.0144500732421875,0.0466766357421875
1772562810874135600,3.529135498046875,-0.992095947265625,-0.0153961181640625,0.047882080078125
1772562810884202500,3.539202392578125,-0.9924163818359375,-0.0148468017578125,0.0474700927734375
1772562810894269400,3.54926953125,-0.991485595703125,-0.01422119140625,0.045196533203125
1772562810904337400,3.55933740234375,-0.9917144775390625,-0.0152435302734375,0.046539306640625
1772562810914404400,3.569404296875,-0.991485595703125,-0.0160369873046875,0.0473480224609375
1772562810924471300,3.57947119140625,-0.99114990234375,-0.014739990234375,0.046478271484375
1772562810934538200,3.589538330078125,-0.9926910400390625,-0.014739990234375,0.049102783203125
1772562810944605400,3.59960546875,-0.9921875,-0.0153350830078125,0.048583984375
1772562810954672400,3.60967236328125,-0.9908294677734375,-0.015228271484375,0.046295166015625
1772562810964740400,3.619740234375,-0.9917144775390625,-0.0138397216796875,0.046905517578125
1772562810974807300,3.629807373046875,-0.99365234375,-0.0150909423828125,0.0477294921875
1772562810984874200,3.639874267578125,-0.993316650390625,-0.015899658203125,0.0479583740234375
1772562810994941200,3.649941162109375,-0.9908905029296875,-0.0156097412109375,0.0485382080078125
1772562811005008100,3.660008056640625,-0.9918365478515625,-0.015899658203125,0.0477447509765625
1772562811015075300,3.670075439453125,-0.990478515625,-0.0152740478515625,0.0469970703125
1772562811025143300,3.680143310546875,-0.9919586181640625,-0.0141448974609375,0.0462646484375
1772562811035210500,3.69021044921875,-0.993438720703125,-0.014190673828125,0.047576904296875
1772562811045277400,3.70027734375,-0.991424560546875,-0.0157928466796875,0.046173095703125
1772562811055344400,3.710344482421875,-0.99114990234375,-0.0142669677734375,0.046600341796875
1772562811065411300,3.720411376953125,-0.9942626953125,-0.0133056640625,0.04681396484375
1772562811075478300,3.730478271484375,-0.9923553466796875,-0.0145416259765625,0.0458526611328125
1772562811085546200,3.740546142578125,-0.9914398193359375,-0.0160064697265625,0.0487213134765625
1772562811095613200,3.75061328125,-0.9929656982421875,-0.0141448974609375,0.047088623046875
1772562811105680100,3.76068017578125,-0.9904327392578125,-0.0150146484375,0.048553466796875
1772562811115747300,3.770747314453125,-0.99139404296875,-0.0159912109375,0.0482330322265625
1772562811125814300,3.780814208984375,-0.9916839599609375,-0.0157318115234375,0.0470428466796875
1772562811135881200,3.790881103515625,-0.99176025390625,-0.0150299072265625,0.0471343994140625
1772562811145949400,3.800949462890625,-0.993133544921875,-0.0149078369140625,0.0468597412109375
1772562811156016400,3.811016357421875,-0.9913177490234375,-0.015228271484375,0.047149658203125
1772562811166083300,3.821083251953125,-0.991302490234375,-0.014190673828125,0.048583984375
1772562811176150300,3.831150390625,-0.990753173828125,-0.0152740478515625,0.0472869873046875
1772562811186217200,3.84121728515625,-0.991119384765625,-0.014862060546875,0.04754638671875
1772562811196285200,3.85128515625,-0.9905242919921875,-0.0153350830078125,0.046905517578125
1772562811206352100,3.86135205078125,-0.9904327392578125,-0.014892578125,0.04571533203125
1772562811216419300,3.87141943359375,-0.9912567138671875,-0.015899658203125,0.0456085205078125
1772562811226486300,3.881486328125,-0.991943359375,-0.015106201171875,0.0467376708984375
1772562811236553200,3.89155322265625,-0.993377685546875,-0.016021728515625,0.0455322265625
1772562811246620200,3.9016201171875,-0.9922943115234375,-0.014892578125,0.046356201171875
1772562811256687000,3.91168701171875,-0.9925384521484375,-0.0130462646484375,0.0465545654296875
1772562811266755300,3.92175537109375,-0.9929656982421875,-0.0158538818359375,0.047943115234375
1772562811276822300,3.931822265625,-0.992767333984375,-0.015533447265625,0.04791259765625
1772562811286889200,3.94188916015625,-0.99200439453125,-0.0140228271484375,0.044891357421875
1772562811296956400,3.951956298828125,-0.9923248291015625,-0.0141448974609375,0.0478668212890625
1772562811307023400,3.9620234375,-0.99285888671875,-0.0150146484375,0.04608154296875
1772562811317090300,3.97209033203125,-0.9912109375,-0.0153656005859375,0.048126220703125
1772562811327158300,3.982158203125,-0.991302490234375,-0.0160980224609375,0.0484161376953125
1772562811337225200,3.99222509765625,-0.9922943115234375,-0.0144500732421875,0.0484619140625
1772562811347292200,4.002292236328125,-0.991546630859375,-0.014312744140625,0.0478515625
1772562811357359000,4.012359130859375,-0.991363525390625,-0.01422119140625,0.0466156005859375
1772562811367426300,4.02242626953125,-0.99188232421875,-0.0140380859375,0.0460052490234375
1772562811377494300,4.032494384765625,-0.9927978515625,-0.0146026611328125,0.046417236328125
1772562811387561200,4.042561279296875,-0.992034912109375,-0.016082763671875,0.0474700927734375
1772562811397628400,4.05262841796875,-0.9931640625,-0.0157318115234375,0.0464324951171875
1772562811407695400,4.0626953125,-0.9926300048828125,-0.01416015625,0.0468292236328125
1772562811417762300,4.07276220703125,-0.992645263671875,-0.0146484375,0.0467681884765625
1772562811427829200,4.082829345703125,-0.992095947265625,-0.0153656005859375,0.0463714599609375
1772562811437897200,4.092897216796875,-0.99169921875,-0.0146942138671875,0.0476226806640625
1772562811447964200,4.102964111328125,-0.9936370849609375,-0.014312744140625,0.046478271484375
1772562811458031000,4.113031005859375,-0.9917755126953125,-0.0149993896484375,0.045806884765625
1772562811468098000,4.12309814453125,-0.9913787841796875,-0.014739990234375,0.0484466552734375
1772562811478165500,4.13316552734375,-0.9920654296875,-0.01397705078125,0.04791259765625
1772562811488232400,4.143232421875,-0.9914093017578125,-0.013397216796875,0.045623779296875
1772562811498300400,4.153300537109375,-0.9910125732421875,-0.0145416259765625,0.0468292236328125
1772562811508367400,4.163367431640625,-0.9913787841796875,-0.0149383544921875,0.048187255859375
1772562811518434300,4.173434326171875,-0.9914703369140625,-0.0151214599609375,0.04669189453125
1772562811528501200,4.183501220703125,-0.99169921875,-0.0147705078125,0.04791259765625
1772562811538568200,4.193568115234375,-0.9919891357421875,-0.014984130859375,0.0465850830078125
1772562811548635100,4.20363525390625,-0.9931640625,-0.01519775390625,0.0457611083984375
1772562811558703000,4.213703125,-0.99212646484375,-0.0170440673828125,0.0464630126953125
1772562811568770000,4.22377001953125,-0.992095947265625,-0.01470947265625,0.0469207763671875
1772562811578837500,4.23383740234375,-0.992034912109375,-0.013916015625,0.0464935302734375
1772562811588904400,4.243904541015625,-0.9920806884765625,-0.015289306640625,0.0473480224609375
1772562811598971400,4.253971435546875,-0.9924774169921875,-0.014862060546875,0.048065185546875
1772562811609038300,4.264038330078125,-0.9918060302734375,-0.0136566162109375,0.046844482421875
1772562811619106300,4.274106201171875,-0.9916229248046875,-0.0150299072265625,0.046875
1772562811629173200,4.28417333984375,-0.9928741455078125,-0.0162200927734375,0.0477294921875
1772562811639240200,4.294240234375,-0.9920806884765625,-0.0160064697265625,0.04730224609375
1772562811649307100,4.30430712890625,-0.9912109375,-0.0152740478515625,0.0471649169921875
1772562811659374300,4.314374267578125,-0.9918060302734375,-0.01593017578125,0.0496978759765625
1772562811669441300,4.324441162109375,-0.992279052734375,-0.015899658203125,0.0472412109375
1772562811679509200,4.33450927734375,-0.9907379150390625,-0.0149688720703125,0.0472869873046875
1772562811689576400,4.344576416015625,-0.992950439453125,-0.01483154296875,0.045806884765625
1772562811699643400,4.354643310546875,-0.992156982421875,-0.01519775390625,0.046661376953125
1772562811709710300,4.36471044921875,-0.9920654296875,-0.0159759521484375,0.0467529296875
1772562811719777300,4.37477734375,-0.9914703369140625,-0.015533447265625,0.046173095703125
1772562811729844200,4.38484423828125,-0.991485595703125,-0.0153656005859375,0.047607421875
1772562811739912200,4.394912109375,-0.9922943115234375,-0.01446533203125,0.047454833984375
1772562811749979100,4.404979248046875,-0.992401123046875,-0.015228271484375,0.04931640625
1772562811760046300,4.41504638671875,-0.99114990234375,-0.0156402587890625,0.0476837158203125
1772562811770113300,4.42511328125,-0.9925994873046875,-0.0147705078125,0.0473175048828125
1772562811780180200,4.43518017578125,-0.99017333984375,-0.0141448974609375,0.04669189453125
1772562811790247200,4.4452470703125,-0.9913177490234375,-0.0148162841796875,0.04766845703125
1772562811800315400,4.4553154296875,-0.992095947265625,-0.015350341796875,0.0465850830078125
1772562811810382300,4.46538232421875,-0.9925384521484375,-0.0151824951171875,0.045745849609375
1772562811820449300,4.47544921875,-0.9925689697265625,-0.014984130859375,0.0469970703125
1772562811830516200,4.48551611328125,-0.9921112060546875,-0.0157928466796875,0.048065185546875
1772562811840583400,4.49558349609375,-0.992401123046875,-0.0149688720703125,0.047637939453125
1772562811850650400,4.505650390625,-0.9904632568359375,-0.0167236328125,0.047576904296875
1772562811860718300,4.51571826171875,-0.9912567138671875,-0.0159759521484375,0.046356201171875
1772562811870785300,4.525785400390625,-0.991912841796875,-0.0145111083984375,0.0477294921875
1772562811880852200,4.535852294921875,-0.991363525390625,-0.0146636962890625,0.047576904296875
1772562811890919200,4.545919189453125,-0.9915313720703125,-0.014678955078125,0.0467529296875
1772562811900986000,4.555986083984375,-0.9913482666015625,-0.015869140625,0.0460662841796875
1772562811911054300,4.566054443359375,-0.992431640625,-0.01507568359375,0.0480194091796875
1772562811921120800,4.576120849609375,-0.9929046630859375,-0.0141448974609375,0.04571533203125
1772562811931188000,4.58618798828125,-0.992095947265625,-0.0136260986328125,0.047882080078125
1772562811941255000,4.5962548828125,-0.9922637939453125,-0.01531982421875,0.047271728515625
1772562811951321900,4.60632177734375,-0.989990234375,-0.014556884765625,0.0471038818359375
1772562811961388800,4.616388916015625,-0.9917144775390625,-0.01458740234375,0.046417236328125
1772562811971457000,4.62645703125,-0.991058349609375,-0.016204833984375,0.0473480224609375
1772562811981524000,4.63652392578125,-0.9903411865234375,-0.014312744140625,0.04791259765625
1772562811991591000,4.6465908203125,-0.991943359375,-0.016326904296875,0.04888916015625
1772562812001657900,4.656657958984375,-0.9902191162109375,-0.0147705078125,0.0482177734375
1772562812011725000,4.66672509765625,-0.991546630859375,-0.0159454345703125,0.0473175048828125
1772562812021792000,4.6767919921875,-0.992218017578125,-0.0157318115234375,0.04730224609375
1772562812031859000,4.68685888671875,-0.989837646484375,-0.0151519775390625,0.047576904296875
1772562812041927000,4.696927001953125,-0.99176025390625,-0.013763427734375,0.0470123291015625
1772562812051993900,4.706993896484375,-0.99200439453125,-0.0142059326171875,0.046142578125
1772562812062060800,4.717060791015625,-0.9930877685546875,-0.014434814453125,0.047393798828125
1772562812072127700,4.727127685546875,-0.992156982421875,-0.0149993896484375,0.0471343994140625
1772562812082194700,4.737194580078125,-0.9914703369140625,-0.013519287109375,0.0467071533203125
1772562812092263000,4.747262939453125,-0.9911346435546875,-0.014129638671875,0.0490570068359375
1772562812102329000,4.7573291015625,-0.9912109375,-0.0155792236328125,0.048065185546875
1772562812112396000,4.76739599609375,-0.9927520751953125,-0.01495361328125,0.0461578369140625
1772562812122463000,4.777462890625,-0.991912841796875,-0.0150146484375,0.046539306640625
1772562812132530000,4.787530029296875,-0.991668701171875,-0.0152740478515625,0.046630859375
1772562812142596900,4.797596923828125,-0.9915618896484375,-0.0149078369140625,0.0477752685546875
1772562812152664000,4.8076640625,-0.9921722412109375,-0.014404296875,0.0454559326171875
1772562812162731800,4.817731689453125,-0.992584228515625,-0.01531982421875,0.0464630126953125
1772562812172799000,4.827799072265625,-0.9897308349609375,-0.015655517578125,0.0473785400390625
1772562812182866000,4.837865966796875,-0.9907989501953125,-0.01470947265625,0.0471954345703125
1772562812192932900,4.847932861328125,-0.9915313720703125,-0.015045166015625,0.0487213134765625
1772562812202999800,4.857999755859375,-0.9914703369140625,-0.01629638671875,0.047027587890625
1772562812213066800,4.868066650390625,-0.992095947265625,-0.0152435302734375,0.0476837158203125
1772562812223135000,4.878135009765625,-0.9914703369140625,-0.0150146484375,0.0461273193359375
1772562812233202000,4.888201904296875,-0.9915313720703125,-0.0170745849609375,0.0477447509765625
1772562812243268900,4.898268798828125,-0.992095947265625,-0.014801025390625,0.0461883544921875
1772562812253336000,4.908336181640625,-0.9914703369140625,-0.0134735107421875,0.0471954345703125
1772562812263403000,4.918403076171875,-0.991607666015625,-0.0147705078125,0.046142578125
1772562812273470000,4.928469970703125,-0.992950439453125,-0.01611328125,0.0459442138671875
1772562812283538000,4.938537841796875,-0.9912261962890625,-0.0143280029296875,0.047393798828125
1772562812293604900,4.94860498046875,-0.9925079345703125,-0.014801025390625,0.0475921630859375
1772562812303671800,4.958671875,-0.9923553466796875,-0.014801025390625,0.0462493896484375
1772562812313738800,4.96873876953125,-0.991546630859375,-0.014190673828125,0.0473480224609375
1772562812323805700,4.9788056640625,-0.9923553466796875,-0.0142364501953125,0.0465850830078125
1772562812333873000,4.988872802734375,-0.990692138671875,-0.014495849609375,0.0473175048828125
1772562812343940900,4.99894091796875,-0.99249267578125,-0.01666259765625,0.04742431640625
1772562812354008000,5.009008056640625,-0.991912841796875,-0.0156707763671875,0.0482635498046875
1772562812364075000,5.019074951171875,-0.99285888671875,-0.0150299072265625,0.047943115234375
1772562812374142000,5.029141845703125,-0.9923553466796875,-0.0157012939453125,0.0472869873046875
1772562812384209000,5.039208984375,-0.9936981201171875,-0.0154266357421875,0.045654296875
1772562812394275800,5.04927587890625,-0.9911346435546875,-0.015472412109375,0.0470733642578125
1772562812404343800,5.05934375,-0.9910430908203125,-0.0149688720703125,0.0465545654296875
1772562812414410800,5.06941064453125,-0.992156982421875,-0.0164947509765625,0.047149658203125
1772562812424477700,5.079477783203125,-0.9920501708984375,-0.0153656005859375,0.046905517578125
1772562812434545000,5.089544921875,-0.9909210205078125,-0.0147247314453125,0.0463714599609375
1772562812444611800,5.09961181640625,-0.9939117431640625,-0.0153961181640625,0.0469970703125
1772562812454679000,5.109678955078125,-0.9929962158203125,-0.0140838623046875,0.0469818115234375
1772562812464747000,5.1197470703125,-0.9890289306640625,-0.0142059326171875,0.04705810546875
1772562812474814000,5.12981396484375,-0.991546630859375,-0.0148468017578125,0.0469512939453125
1772562812484881000,5.139880859375,-0.99261474609375,-0.0152587890625,0.0485076904296875
1772562812494947800,5.14994775390625,-0.991546630859375,-0.0149688720703125,0.0479583740234375
1772562812505015800,5.160015869140625,-0.9912109375,-0.016082763671875,0.0467987060546875
1772562812515082800,5.170082763671875,-0.99151611328125,-0.01531982421875,0.046905517578125
1772562812525149700,5.180149658203125,-0.991485595703125,-0.0143280029296875,0.047943115234375
1772562812535217000,5.190216796875,-0.9918212890625,-0.01531982421875,0.048004150390625
1772562812545283800,5.200283935546875,-0.9903564453125,-0.0138397216796875,0.04595947265625
1772562812555352000,5.21035205078125,-0.9910430908203125,-0.0151519775390625,0.0474853515625
1772562812565419000,5.2204189453125,-0.9903411865234375,-0.0148773193359375,0.0460205078125
1772562812575486000,5.23048583984375,-0.990692138671875,-0.014739990234375,0.047576904296875
1772562812585553000,5.240552978515625,-0.9920501708984375,-0.0154876708984375,0.045684814453125
1772562812595619800,5.250619873046875,-0.99273681640625,-0.016448974609375,0.046661376953125
1772562812605686800,5.260686767578125,-0.9910888671875,-0.0162506103515625,0.046630859375
1772562812615754800,5.270754638671875,-0.9924163818359375,-0.0142822265625,0.0481719970703125
1772562812625822000,5.280822021484375,-0.9910125732421875,-0.016448974609375,0.0465850830078125
1772562812635889000,5.290888916015625,-0.990814208984375,-0.0139007568359375,0.0464019775390625
1772562812645955800,5.300955810546875,-0.9921417236328125,-0.014617919921875,0.047637939453125
1772562812656022800,5.311022705078125,-0.9916534423828125,-0.014434814453125,0.045806884765625
1772562812666090000,5.321090087890625,-0.99078369140625,-0.0151214599609375,0.0470733642578125
1772562812676158000,5.331157958984375,-0.9926605224609375,-0.0144805908203125,0.0469207763671875
1772562812686225000,5.341224853515625,-0.9914398193359375,-0.0142822265625,0.0481719970703125
1772562812696291800,5.351291748046875,-0.99139404296875,-0.0150146484375,0.0479583740234375
1772562812706358800,5.36135888671875,-0.991851806640625,-0.01654052734375,0.0462799072265625
1772562812716426000,5.371426025390625,-0.990509033203125,-0.0149383544921875,0.04705810546875
1772562812726493000,5.381492919921875,-0.9915008544921875,-0.01458740234375,0.0460662841796875
1772562812736561000,5.391560791015625,-0.9910430908203125,-0.0146636962890625,0.04888916015625
1772562812746627800,5.4016279296875,-0.9914703369140625,-0.0145111083984375,0.0480499267578125
1772562812756694800,5.41169482421875,-0.992340087890625,-0.0151214599609375,0.0468597412109375
1772562812766762000,5.421761962890625,-0.99114990234375,-0.014678955078125,0.04815673828125
1772562812776829000,5.431828857421875,-0.9918670654296875,-0.0155181884765625,0.0468597412109375
1772562812786896000,5.441895751953125,-0.992218017578125,-0.0150146484375,0.0472869873046875
1772562812796963800,5.4519638671875,-0.993377685546875,-0.0141754150390625,0.04510498046875
1772562812807031000,5.462031005859375,-0.99066162109375,-0.0141143798828125,0.0467376708984375
1772562812817098000,5.472097900390625,-0.992340087890625,-0.014373779296875,0.04779052734375
1772562812827165000,5.4821650390625,-0.9925384521484375,-0.014495849609375,0.0478057861328125
1772562812837231900,5.49223193359375,-0.990936279296875,-0.0150909423828125,0.046539306640625
1772562812847298800,5.502298828125,-0.992431640625,-0.015411376953125,0.0470733642578125
1772562812857366800,5.51236669921875,-0.9935760498046875,-0.0142974853515625,0.0471038818359375
1772562812867433700,5.522433837890625,-0.9932403564453125,-0.01409912109375,0.047821044921875
1772562812877501000,5.5325009765625,-0.9908447265625,-0.0152587890625,0.0470428466796875
1772562812887568000,5.54256787109375,-0.993133544921875,-0.01483154296875,0.0477752685546875
1772562812897635000,5.552635009765625,-0.9916229248046875,-0.0145721435546875,0.0460662841796875
1772562812907702000,5.562701904296875,-0.9912872314453125,-0.01409912109375,0.0463714599609375
1772562812917770000,5.57277001953125,-0.990203857421875,-0.0149993896484375,0.048004150390625
1772562812927837000,5.5828369140625,-0.9915618896484375,-0.014373779296875,0.0459747314453125
1772562812937903900,5.59290380859375,-0.992645263671875,-0.0137939453125,0.0465240478515625
1772562812947970800,5.602970703125,-0.9914093017578125,-0.0141143798828125,0.045745849609375
1772562812958037800,5.613037841796875,-0.991363525390625,-0.0141143798828125,0.0473785400390625
1772562812968105000,5.62310498046875,-0.9917755126953125,-0.0155181884765625,0.0477447509765625
1772562812978173000,5.6331728515625,-0.991912841796875,-0.0153656005859375,0.0466461181640625
1772562812988240100,5.643240234375,-0.9927215576171875,-0.0143585205078125,0.0475616455078125
1772562812998307000,5.65330712890625,-0.9914703369140625,-0.01702880859375,0.0482330322265625
1772562813008374000,5.6633740234375,-0.9915771484375,-0.0145111083984375,0.04638671875
1772562813018441000,5.67344091796875,-0.992156982421875,-0.01446533203125,0.046783447265625
1772562813028508000,5.6835078125,-0.99249267578125,-0.0139923095703125,0.04803466796875
1772562813038575900,5.693575927734375,-0.991851806640625,-0.015289306640625,0.0486602783203125
1772562813048642800,5.703642822265625,-0.99249267578125,-0.0145111083984375,0.0464935302734375
1772562813058709800,5.713709716796875,-0.99224853515625,-0.0142364501953125,0.04833984375
1772562813068777000,5.72377685546875,-0.9918365478515625,-0.0143585205078125,0.0484619140625
1772562813078844000,5.733843994140625,-0.9924468994140625,-0.0164642333984375,0.0464019775390625
1772562813088910800,5.743910888671875,-0.99066162109375,-0.0164337158203125,0.046478271484375
1772562813098979000,5.75397900390625,-0.9916534423828125,-0.0145416259765625,0.046173095703125
1772562813109046000,5.7640458984375,-0.9918975830078125,-0.0147552490234375,0.04632568359375
1772562813119113000,5.774113037109375,-0.9936065673828125,-0.01422119140625,0.0464935302734375
1772562813129180000,5.784179931640625,-0.993133544921875,-0.014892578125,0.04803466796875
1772562813139246800,5.794246826171875,-0.9915924072265625,-0.01495361328125,0.04901123046875
1772562813149314800,5.804314697265625,-0.99224853515625,-0.013946533203125,0.0470733642578125
1772562813159381800,5.8143818359375,-0.9915618896484375,-0.01605224609375,0.04669189453125
1772562813169449000,5.824448974609375,-0.9924468994140625,-0.0149383544921875,0.045684814453125
1772562813179516000,5.834515869140625,-0.9915771484375,-0.0148468017578125,0.04864501953125
1772562813189582800,5.844582763671875,-0.99249267578125,-0.0143890380859375,0.0479736328125
1772562813199649800,5.85464990234375,-0.9920196533203125,-0.0144805908203125,0.046905517578125
1772562813209718000,5.864718017578125,-0.99224853515625,-0.0149688720703125,0.0472564697265625
1772562813219785000,5.874784912109375,-0.9913330078125,-0.0146331787109375,0.0469207763671875
1772562813229852000,5.884851806640625,-0.9922027587890625,-0.015228271484375,0.045501708984375
1772562813239918800,5.8949189453125,-0.9910888671875,-0.0154266357421875,0.04815673828125
1772562813249986000,5.904986083984375,-0.9917449951171875,-0.0131683349609375,0.04705810546875
1772562813260053000,5.915052978515625,-0.9917449951171875,-0.014678955078125,0.0457611083984375
1772562813270121000,5.925120849609375,-0.9924774169921875,-0.014129638671875,0.04583740234375
1772562813280188000,5.93518798828125,-0.9916839599609375,-0.0143890380859375,0.0485076904296875
1772562813290254800,5.9452548828125,-0.9923553466796875,-0.0145721435546875,0.047027587890625
1772562813300321800,5.95532177734375,-0.9908447265625,-0.014862060546875,0.0473480224609375
1772562813310388700,5.965388671875,-0.991119384765625,-0.0150146484375,0.043975830078125
1772562813320455700,5.97545556640625,-0.9907684326171875,-0.014739990234375,0.04693603515625
1772562813330524000,5.98552392578125,-0.9900665283203125,-0.01263427734375,0.047088623046875
1772562813340590800,5.9955908203125,-0.9903411865234375,-0.0151824951171875,0.046356201171875
1772562813350658000,6.005657958984375,-0.989501953125,-0.0155487060546875,0.0473785400390625
1772562813360725000,6.01572509765625,-0.9911651611328125,-0.0145263671875,0.04669189453125
1772562813370792000,6.0257919921875,-0.991180419921875,-0.0162200927734375,0.047576904296875
1772562813380859000,6.03585888671875,-0.9922332763671875,-0.0155792236328125,0.0468597412109375
1772562813390926800,6.0459267578125,-0.992218017578125,-0.0146026611328125,0.0475616455078125
1772562813400993800,6.055993896484375,-0.9912872314453125,-0.014556884765625,0.0478668212890625
1772562813411060700,6.066060791015625,-0.99200439453125,-0.0156097412109375,0.04766845703125
1772562813421127700,6.076127685546875,-0.99212646484375,-0.0156097412109375,0.0485076904296875
1772562813431195100,6.086195068359375,-0.9911041259765625,-0.0152740478515625,0.0479888916015625
1772562813441262000,6.096261962890625,-0.992156982421875,-0.016204833984375,0.0480499267578125
1772562813451330000,6.106330078125,-0.9923553466796875,-0.01580810546875,0.047637939453125
1772562813461397000,6.11639697265625,-0.9930877685546875,-0.014617919921875,0.046844482421875
1772562813471464000,6.1264638671875,-0.9914398193359375,-0.015289306640625,0.0480499267578125
1772562813481531000,6.13653076171875,-0.992095947265625,-0.0137481689453125,0.0465087890625
1772562813491597800,6.146597900390625,-0.9915618896484375,-0.014068603515625,0.0467987060546875
1772562813501664800,6.156664794921875,-0.991485595703125,-0.014495849609375,0.04730224609375
1772562813511732700,6.166732666015625,-0.992950439453125,-0.0160064697265625,0.0472412109375
1772562813521799700,6.176799560546875,-0.991485595703125,-0.0153656005859375,0.0465240478515625
1772562813531867000,6.186866943359375,-0.9931488037109375,-0.0151214599609375,0.0464935302734375
1772562813541934000,6.19693408203125,-0.993560791015625,-0.014495849609375,0.047210693359375
1772562813552001000,6.2070009765625,-0.9912567138671875,-0.015350341796875,0.0474090576171875
1772562813562069000,6.217069091796875,-0.9918212890625,-0.01422119140625,0.0469207763671875
1772562813572136000,6.227135986328125,-0.9918975830078125,-0.014495849609375,0.0456695556640625
1772562813582203000,6.237202880859375,-0.9922027587890625,-0.0159454345703125,0.0461883544921875
1772562813592269800,6.247269775390625,-0.9926605224609375,-0.014862060546875,0.0486907958984375
1772562813602336800,6.257336669921875,-0.9928131103515625,-0.0155792236328125,0.0482940673828125
1772562813612404000,6.267404052734375,-0.99285888671875,-0.0147247314453125,0.04766845703125
1772562813622472000,6.277471923828125,-0.99151611328125,-0.013580322265625,0.047454833984375
1772562813632539000,6.287538818359375,-0.991973876953125,-0.01483154296875,0.0485687255859375
1772562813642606000,6.297606201171875,-0.9901275634765625,-0.0148468017578125,0.0476226806640625
1772562813652673000,6.307673095703125,-0.991973876953125,-0.0152587890625,0.0484466552734375
1772562813662740000,6.317739990234375,-0.9907989501953125,-0.0157470703125,0.0478515625
1772562813672807000,6.327806884765625,-0.9925079345703125,-0.0159149169921875,0.0447845458984375
1772562813682875000,6.337875,-0.991424560546875,-0.014678955078125,0.0457000732421875
1772562813692941800,6.34794189453125,-0.989990234375,-0.0145263671875,0.0458984375
1772562813703008800,6.3580087890625,-0.9918060302734375,-0.0148162841796875,0.0458831787109375
1772562813713076000,6.368075927734375,-0.9920654296875,-0.0146636962890625,0.045501708984375
1772562813723143000,6.378142822265625,-0.9922637939453125,-0.0148468017578125,0.0467529296875
1772562813733209900,6.3882099609375,-0.9932708740234375,-0.0145111083984375,0.047088623046875
1772562813743277800,6.39827783203125,-0.991851806640625,-0.014617919921875,0.04559326171875
1772562813753345000,6.408344970703125,-0.9925689697265625,-0.014495849609375,0.0480194091796875
1772562813763412000,6.418411865234375,-0.9909210205078125,-0.01507568359375,0.0462188720703125
1772562813773479000,6.42847900390625,-0.991943359375,-0.0137176513671875,0.04656982421875
1772562813783545900,6.4385458984375,-0.991943359375,-0.0148773193359375,0.04693603515625
1772562813793613000,6.448613037109375,-0.9928741455078125,-0.0146636962890625,0.046630859375
1772562813803681000,6.458680908203125,-0.993072509765625,-0.0129547119140625,0.04595947265625
1772562813813748000,6.468748046875,-0.991455078125,-0.0157012939453125,0.0478668212890625
1772562813823815000,6.47881494140625,-0.992645263671875,-0.014404296875,0.0464630126953125
1772562813833881900,6.4888818359375,-0.9929046630859375,-0.01519775390625,0.0467376708984375
1772562813843948800,6.49894873046875,-0.9928436279296875,-0.0167083740234375,0.0463409423828125
1772562813854015700,6.509015625,-0.9912261962890625,-0.01513671875,0.0459136962890625
1772562813864084000,6.519083984375,-0.9923553466796875,-0.015350341796875,0.0459136962890625
1772562813874151000,6.52915087890625,-0.991790771484375,-0.0157470703125,0.047943115234375
1772562813884217900,6.5392177734375,-0.99127197265625,-0.0152587890625,0.04693603515625
1772562813894285000,6.54928515625,-0.99151611328125,-0.0147247314453125,0.0482940673828125
1772562813904352000,6.55935205078125,-0.9925994873046875,-0.015228271484375,0.0463104248046875
1772562813914420000,6.569419921875,-0.9918365478515625,-0.0154571533203125,0.04766845703125
1772562813924487700,6.57948779296875,-0.9935150146484375,-0.015289306640625,0.0480499267578125
1772562813934554600,6.5895546875,-0.9925384521484375,-0.0151824951171875,0.0482635498046875
1772562813944621600,6.59962158203125,-0.9912109375,-0.015472412109375,0.0477294921875
1772562813954688500,6.6096884765625,-0.991119384765625,-0.015960693359375,0.046966552734375
1772562813964755500,6.61975537109375,-0.99200439453125,-0.0151214599609375,0.047576904296875
1772562813974823700,6.62982373046875,-0.992431640625,-0.0160064697265625,0.0459442138671875
1772562813984890600,6.639890625,-0.993194580078125,-0.0138092041015625,0.04638671875
1772562813994957600,6.64995751953125,-0.991058349609375,-0.01458740234375,0.047088623046875
1772562814005024800,6.660024658203125,-0.9920654296875,-0.01470947265625,0.0469818115234375
1772562814015091700,6.670091796875,-0.99310302734375,-0.016082763671875,0.045745849609375
1772562814025158700,6.68015869140625,-0.9914703369140625,-0.014617919921875,0.0473175048828125
1772562814035226600,6.6902265625,-0.99200439453125,-0.01483154296875,0.047576904296875
1772562814045293600,6.70029345703125,-0.992645263671875,-0.0150909423828125,0.0478363037109375
1772562814055360500,6.710360595703125,-0.992919921875,-0.013458251953125,0.0471649169921875
1772562814065427500,6.720427490234375,-0.991912841796875,-0.0143585205078125,0.0462188720703125
1772562814075494700,6.73049462890625,-0.9934234619140625,-0.0149383544921875,0.0487823486328125
1772562814085561900,6.740561767578125,-0.9913787841796875,-0.0152130126953125,0.047119140625
1772562814095629600,6.750629638671875,-0.9921875,-0.015472412109375,0.0465087890625
1772562814105696800,6.76069677734375,-0.9919586181640625,-0.0158843994140625,0.0481109619140625
1772562814115763700,6.770763671875,-0.99102783203125,-0.0153961181640625,0.0483551025390625
1772562814125830700,6.78083056640625,-0.9907379150390625,-0.01458740234375,0.0472259521484375
1772562814135897600,6.790897705078125,-0.992340087890625,-0.01416015625,0.0483551025390625
1772562814145964500,6.800964599609375,-0.993377685546875,-0.0155029296875,0.0474700927734375
1772562814156032500,6.811032470703125,-0.993316650390625,-0.016021728515625,0.0467987060546875
1772562814166099500,6.821099365234375,-0.9922027587890625,-0.014678955078125,0.046234130859375
1772562814176166700,6.831166748046875,-0.9912567138671875,-0.01385498046875,0.0478668212890625
1772562814186233900,6.84123388671875,-0.9906158447265625,-0.0144195556640625,0.047088623046875
1772562814196300800,6.85130078125,-0.991943359375,-0.01495361328125,0.0474700927734375
1772562814206368800,6.86136865234375,-0.991455078125,-0.0149383544921875,0.0470123291015625
1772562814216435700,6.871435791015625,-0.9919891357421875,-0.014739990234375,0.0458984375
1772562814226502700,6.881502685546875,-0.9910125732421875,-0.014739990234375,0.0474090576171875
1772562814236569600,6.891569580078125,-0.990814208984375,-0.014251708984375,0.04931640625
1772562814246636500,6.901636474609375,-0.991668701171875,-0.0136566162109375,0.048492431640625
1772562814256703500,6.911703369140625,-0.992279052734375,-0.0146942138671875,0.0465087890625
1772562814266771500,6.921771484375,-0.9918212890625,-0.0153350830078125,0.047760009765625
1772562814276838700,6.931838623046875,-0.9901275634765625,-0.0157928466796875,0.047943115234375
1772562814286905900,6.94190576171875,-0.9929046630859375,-0.014801025390625,0.0483245849609375
1772562814296972800,6.951972900390625,-0.99151611328125,-0.015472412109375,0.0470733642578125
1772562814307039700,6.962039794921875,-0.9921112060546875,-0.0151214599609375,0.04815673828125
1772562814317106700,6.972106689453125,-0.9916839599609375,-0.01507568359375,0.0468597412109375
1772562814327174700,6.982174560546875,-0.9915008544921875,-0.015838623046875,0.0474853515625
1772562814337241600,6.99224169921875,-0.99169921875,-0.0155487060546875,0.0464935302734375
1772562814347308500,7.00230859375,-0.992431640625,-0.013763427734375,0.046173095703125
1772562814357375700,7.012375732421875,-0.9930572509765625,-0.014007568359375,0.047027587890625
1772562814367442700,7.022442626953125,-0.992279052734375,-0.013702392578125,0.0484771728515625
1772562814377510700,7.0325107421875,-0.9923553466796875,-0.01458740234375,0.0478515625
1772562814387577900,7.042577880859375,-0.99267578125,-0.0155181884765625,0.0472564697265625
1772562814397644800,7.052644775390625,-0.9921875,-0.0142974853515625,0.0482025146484375
1772562814407711700,7.062711669921875,-0.9926910400390625,-0.014923095703125,0.047271728515625
1772562814417778700,7.07277880859375,-0.9911041259765625,-0.015167236328125,0.046234130859375
1772562814427845600,7.082845703125,-0.9909820556640625,-0.0155792236328125,0.045501708984375
1772562814437913600,7.09291357421875,-0.99200439453125,-0.016937255859375,0.0466461181640625
1772562814447980500,7.10298046875,-0.9917755126953125,-0.016265869140625,0.04779052734375
1772562814458047700,7.1130478515625,-0.9915771484375,-0.0154571533203125,0.0467681884765625
1772562814468114700,7.12311474609375,-0.992919921875,-0.0139007568359375,0.0468597412109375
1772562814478181600,7.133181640625,-0.99224853515625,-0.014190673828125,0.0476226806640625
1772562814488248600,7.14324853515625,-0.9922637939453125,-0.014801025390625,0.047332763671875
1772562814498316800,7.15331689453125,-0.992218017578125,-0.01458740234375,0.04730224609375
1772562814508383700,7.1633837890625,-0.9925537109375,-0.0146942138671875,0.04742431640625
1772562814518450700,7.17345068359375,-0.990814208984375,-0.0153350830078125,0.0484771728515625
1772562814528517600,7.183517578125,-0.9910736083984375,-0.015380859375,0.046539306640625
1772562814538584800,7.193584716796875,-0.9940643310546875,-0.014190673828125,0.0467987060546875
1772562814548651800,7.20365185546875,-0.99249267578125,-0.014862060546875,0.0456695556640625
1772562814558719700,7.2137197265625,-0.99053955078125,-0.0160980224609375,0.047576904296875
1772562814568786700,7.22378662109375,-0.9925689697265625,-0.0162506103515625,0.046661376953125
1772562814578853600,7.233853515625,-0.992462158203125,-0.0144500732421875,0.04583740234375
1772562814588920600,7.243920654296875,-0.9903411865234375,-0.014373779296875,0.0464630126953125
1772562814598987500,7.253987548828125,-0.9933319091796875,-0.014556884765625,0.048675537109375
1772562814609054500,7.264054443359375,-0.991973876953125,-0.014801025390625,0.0460205078125
1772562814619122700,7.274122802734375,-0.991607666015625,-0.0146484375,0.0460662841796875
1772562814629189600,7.284189697265625,-0.9914703369140625,-0.0149078369140625,0.046630859375
1772562814639256800,7.2942568359375,-0.9913330078125,-0.014556884765625,0.047149658203125
1772562814649323800,7.30432373046875,-0.990814208984375,-0.015045166015625,0.0473480224609375
1772562814659390700,7.314390625,-0.9920806884765625,-0.014007568359375,0.0473785400390625
1772562814669458700,7.324458740234375,-0.9915771484375,-0.0155181884765625,0.048004150390625
1772562814679525600,7.334525634765625,-0.9927825927734375,-0.0146942138671875,0.046875
1772562814689592600,7.344592529296875,-0.9912872314453125,-0.0148773193359375,0.048126220703125
1772562814699659500,7.354659423828125,-0.99139404296875,-0.015045166015625,0.04718017578125
1772562814709726500,7.3647265625,-0.991790771484375,-0.0147857666015625,0.04736328125
1772562814719793700,7.374793701171875,-0.9920806884765625,-0.014434814453125,0.048095703125
1772562814729861600,7.384861572265625,-0.99078369140625,-0.0159912109375,0.047088623046875
1772562814739928800,7.3949287109375,-0.9926910400390625,-0.0163116455078125,0.048553466796875
1772562814749995800,7.404995849609375,-0.9923858642578125,-0.01422119140625,0.0487213134765625
1772562814760062700,7.415062744140625,-0.9920501708984375,-0.0143280029296875,0.0458984375
1772562814770129700,7.425129638671875,-0.991973876953125,-0.0168914794921875,0.0472869873046875
1772562814780196600,7.435196533203125,-0.9915771484375,-0.0151519775390625,0.04534912109375
1772562814790264600,7.4452646484375,-0.9911651611328125,-0.016448974609375,0.04656982421875
1772562814800331500,7.45533154296875,-0.9924774169921875,-0.0142974853515625,0.046478271484375
1772562814810398500,7.4653984375,-0.99163818359375,-0.01544189453125,0.0464630126953125
1772562814820465700,7.475465576171875,-0.9923553466796875,-0.0160369873046875,0.0482025146484375
1772562814830532600,7.48553271484375,-0.992218017578125,-0.014862060546875,0.046478271484375
1772562814840600800,7.495600830078125,-0.9922637939453125,-0.0149993896484375,0.0464324951171875
1772562814850667800,7.505667724609375,-0.99249267578125,-0.0156097412109375,0.0475616455078125
1772562814860734700,7.515734619140625,-0.991668701171875,-0.015228271484375,0.046142578125
1772562814870801700,7.5258017578125,-0.99224853515625,-0.01446533203125,0.0473785400390625
1772562814880868600,7.53586865234375,-0.991790771484375,-0.014495849609375,0.0487518310546875
1772562814890935600,7.545935546875,-0.991607666015625,-0.0141448974609375,0.047393798828125
1772562814901003500,7.55600341796875,-0.991851806640625,-0.014404296875,0.04583740234375
1772562814911070500,7.566070556640625,-0.9930419921875,-0.01416015625,0.0484771728515625
1772562814921137200,7.57613720703125,-0.9913177490234375,-0.015350341796875,0.04974365234375
1772562814931204000,7.5862041015625,-0.9910736083984375,-0.01519775390625,0.04840087890625
1772562814941271000,7.59627099609375,-0.99176025390625,-0.01397705078125,0.0469970703125
1772562814951338000,7.606337890625,-0.99151611328125,-0.014984130859375,0.0466156005859375
1772562814961406200,7.61640625,-0.9931182861328125,-0.0160675048828125,0.0464019775390625
1772562814971473200,7.62647314453125,-0.9928436279296875,-0.01580810546875,0.0473480224609375
1772562814981540000,7.6365400390625,-0.990386962890625,-0.0156097412109375,0.0471649169921875
1772562814991607300,7.646607177734375,-0.9923553466796875,-0.0153350830078125,0.0452880859375
1772562815001674200,7.65667431640625,-0.992340087890625,-0.014801025390625,0.0473480224609375
1772562815011741200,7.6667412109375,-0.992889404296875,-0.013824462890625,0.0479583740234375
1772562815021809200,7.67680908203125,-0.9900665283203125,-0.0139007568359375,0.0477447509765625
1772562815031876000,7.6868759765625,-0.9916229248046875,-0.01568603515625,0.045745849609375
1772562815041943000,7.696943115234375,-0.9918365478515625,-0.0160675048828125,0.0455474853515625
1772562815052010000,7.707010009765625,-0.9914093017578125,-0.0149993896484375,0.04718017578125
1772562815062077000,7.717076904296875,-0.99176025390625,-0.015289306640625,0.0473175048828125
1772562815072145200,7.727145263671875,-0.99169921875,-0.0153961181640625,0.046173095703125
1772562815082212000,7.737212158203125,-0.9903106689453125,-0.0146636962890625,0.0481109619140625
1772562815092279300,7.747279296875,-0.9901885986328125,-0.014984130859375,0.0478515625
1772562815102346200,7.75734619140625,-0.9925537109375,-0.0149688720703125,0.046966552734375
1772562815112413200,7.7674130859375,-0.99310302734375,-0.013031005859375,0.047332763671875
1772562815122480000,7.777480224609375,-0.9916229248046875,-0.014862060546875,0.0448150634765625
1772562815132548000,7.787548095703125,-0.992095947265625,-0.0146636962890625,0.046356201171875
1772562815142615000,7.797614990234375,-0.9910430908203125,-0.015106201171875,0.0465087890625
1772562815152682000,7.807681884765625,-0.9918060302734375,-0.014617919921875,0.0466766357421875
1772562815162749000,7.8177490234375,-0.992706298828125,-0.0159454345703125,0.0478973388671875
1772562815172816100,7.827816162109375,-0.9927825927734375,-0.01446533203125,0.0471954345703125
1772562815182883300,7.83788330078125,-0.992767333984375,-0.01422119140625,0.047088623046875
1772562815192951300,7.847951416015625,-0.992919921875,-0.0153656005859375,0.0465545654296875
1772562815203018200,7.858018310546875,-0.9919586181640625,-0.01611328125,0.0487213134765625
1772562815213085200,7.868085205078125,-0.9912567138671875,-0.0157470703125,0.0487518310546875
1772562815223152000,7.878152099609375,-0.9922027587890625,-0.0138092041015625,0.046783447265625
1772562815233219000,7.888218994140625,-0.992950439453125,-0.0135040283203125,0.047637939453125
1772562815243287000,7.898287109375,-0.9895172119140625,-0.015472412109375,0.0475921630859375
1772562815253354000,7.90835400390625,-0.9915618896484375,-0.0142364501953125,0.04632568359375
1772562815263421200,7.918421142578125,-0.9921112060546875,-0.0163726806640625,0.0465545654296875
1772562815273488100,7.928488037109375,-0.9917144775390625,-0.0135498046875,0.0472259521484375
1772562815283555300,7.938555419921875,-0.9921112060546875,-0.0145416259765625,0.0471343994140625
1772562815293622300,7.948622314453125,-0.9920654296875,-0.0152740478515625,0.0473175048828125
1772562815303690200,7.958690185546875,-0.99066162109375,-0.0157470703125,0.0465850830078125
1772562815313757200,7.968757080078125,-0.991973876953125,-0.0147552490234375,0.0466461181640625
1772562815323824000,7.97882421875,-0.9923095703125,-0.01495361328125,0.0466461181640625
1772562815333891000,7.98889111328125,-0.9936065673828125,-0.0160064697265625,0.04766845703125
1772562815343958000,7.9989580078125,-0.993072509765625,-0.01495361328125,0.045867919921875
1772562815354025200,8.009025146484374,-0.991058349609375,-0.0150299072265625,0.0456085205078125
1772562815364093200,8.01909326171875,-0.993621826171875,-0.0153350830078125,0.0462493896484375
1772562815374160100,8.02916015625,-0.9916839599609375,-0.0149688720703125,0.046234130859375
1772562815384227000,8.03922705078125,-0.992034912109375,-0.015655517578125,0.0476837158203125
1772562815394294300,8.049294189453125,-0.9916229248046875,-0.0155181884765625,0.0482177734375
1772562815404361200,8.059361328125,-0.9911956787109375,-0.01507568359375,0.047271728515625
1772562815414428200,8.06942822265625,-0.9920196533203125,-0.0141143798828125,0.0483245849609375
1772562815424496000,8.07949609375,-0.992523193359375,-0.0142974853515625,0.047637939453125
1772562815434563000,8.08956298828125,-0.991973876953125,-0.0155792236328125,0.04803466796875
1772562815444630300,8.09963037109375,-0.9924468994140625,-0.0163421630859375,0.0482025146484375
1772562815454697200,8.109697265625,-0.991912841796875,-0.0151824951171875,0.047210693359375
1772562815464764200,8.11976416015625,-0.9917449951171875,-0.015869140625,0.046722412109375
1772562815474832100,8.12983203125,-0.9915313720703125,-0.015045166015625,0.0458831787109375
1772562815484899000,8.139899169921875,-0.9921417236328125,-0.013824462890625,0.04583740234375
1772562815494966300,8.14996630859375,-0.99261474609375,-0.015106201171875,0.0477294921875
1772562815505033200,8.160033203125,-0.99102783203125,-0.0154266357421875,0.048004150390625
1772562815515100200,8.17010009765625,-0.99139404296875,-0.015380859375,0.046142578125
1772562815525167000,8.1801669921875,-0.9918975830078125,-0.014495849609375,0.0462646484375
1772562815535235000,8.190235107421875,-0.9912567138671875,-0.0141143798828125,0.0472412109375
1772562815545302300,8.20030224609375,-0.9917755126953125,-0.01507568359375,0.04705810546875
1772562815555369200,8.210369140625,-0.9915618896484375,-0.0152740478515625,0.04705810546875
1772562815565436200,8.220436279296875,-0.991363525390625,-0.013824462890625,0.0477142333984375
1772562815575503000,8.230503173828126,-0.9902801513671875,-0.0147857666015625,0.0458831787109375
1772562815585570000,8.240570068359375,-0.9929962158203125,-0.0147247314453125,0.0467071533203125
1772562815595638000,8.250637939453124,-0.99169921875,-0.014892578125,0.0468902587890625
1772562815605705200,8.260705322265625,-0.991790771484375,-0.014373779296875,0.047393798828125
1772562815615772200,8.270772216796875,-0.9928741455078125,-0.013641357421875,0.0474853515625
1772562815625839400,8.28083935546875,-0.990447998046875,-0.0139312744140625,0.047454833984375
1772562815635906300,8.29090625,-0.9916534423828125,-0.0153656005859375,0.045806884765625
1772562815645974300,8.300974365234374,-0.991180419921875,-0.01458740234375,0.0464324951171875
1772562815656041200,8.311041259765625,-0.991180419921875,-0.015777587890625,0.04705810546875
1772562815666108200,8.321108154296875,-0.991607666015625,-0.0147857666015625,0.0477294921875
1772562815676175000,8.331175048828126,-0.9922943115234375,-0.014739990234375,0.0474700927734375
1772562815686242000,8.341241943359375,-0.991668701171875,-0.0135650634765625,0.0457611083984375
1772562815696309000,8.35130908203125,-0.9904937744140625,-0.0149993896484375,0.04571533203125
1772562815706377200,8.361377197265625,-0.9905853271484375,-0.01513671875,0.045928955078125
1772562815716444200,8.371444091796874,-0.9914703369140625,-0.0149688720703125,0.0472412109375
1772562815726511400,8.381511474609376,-0.9918060302734375,-0.0145721435546875,0.0485382080078125
1772562815736578300,8.391578369140625,-0.991943359375,-0.0157470703125,0.04656982421875
1772562815746645200,8.401645263671876,-0.9918670654296875,-0.01483154296875,0.0478668212890625
1772562815756712200,8.411712158203125,-0.9922637939453125,-0.014190673828125,0.04742431640625
1772562815766780200,8.4217802734375,-0.99285888671875,-0.0153961181640625,0.0469818115234375
1772562815776847000,8.43184716796875,-0.9921417236328125,-0.0159454345703125,0.04638671875
1772562815786914000,8.4419140625,-0.9915924072265625,-0.0146331787109375,0.04681396484375
1772562815796981000,8.45198095703125,-0.9929656982421875,-0.0137176513671875,0.048187255859375
1772562815807048200,8.462048095703125,-0.991943359375,-0.0149078369140625,0.04498291015625
1772562815817115100,8.472115234375,-0.991455078125,-0.013580322265625,0.0460662841796875
1772562815827183400,8.482183349609375,-0.9922637939453125,-0.0139923095703125,0.047760009765625
1772562815837250300,8.492250244140624,-0.991912841796875,-0.0149993896484375,0.0470733642578125
1772562815847317200,8.502317138671875,-0.9912109375,-0.014739990234375,0.0465087890625
1772562815857384200,8.51238427734375,-0.99200439453125,-0.014984130859375,0.0466461181640625
1772562815867451100,8.522451171875,-0.992889404296875,-0.0143585205078125,0.049560546875
1772562815877519000,8.53251904296875,-0.9932403564453125,-0.015716552734375,0.0475921630859375
1772562815887586000,8.5425859375,-0.991943359375,-0.015777587890625,0.0473480224609375
1772562815897653000,8.552653076171875,-0.993194580078125,-0.0134735107421875,0.04718017578125
1772562815907720200,8.56272021484375,-0.9939727783203125,-0.014434814453125,0.046478271484375
1772562815917787100,8.572787109375,-0.9921417236328125,-0.0156707763671875,0.04669189453125
1772562815927853800,8.582853759765625,-0.9923095703125,-0.015228271484375,0.0476531982421875
1772562815937922000,8.592922119140624,-0.990966796875,-0.0161895751953125,0.0467681884765625
1772562815947989000,8.602989013671875,-0.9919586181640625,-0.01519775390625,0.0474853515625
1772562815958056000,8.613055908203124,-0.9901123046875,-0.0149383544921875,0.047088623046875
1772562815968123000,8.623122802734375,-0.9911956787109375,-0.0147552490234375,0.045745849609375
1772562815978189800,8.63318994140625,-0.9900360107421875,-0.0153350830078125,0.046173095703125
1772562815988257800,8.6432578125,-0.991668701171875,-0.0158233642578125,0.0469512939453125
1772562815998325000,8.653324951171875,-0.9907073974609375,-0.0151519775390625,0.048095703125
1772562816008392000,8.663391845703124,-0.9904327392578125,-0.0160064697265625,0.0458221435546875
1772562816018459000,8.673458984375,-0.99188232421875,-0.015716552734375,0.0472869873046875
1772562816028525800,8.68352587890625,-0.991455078125,-0.0147247314453125,0.046539306640625
1772562816038592800,8.6935927734375,-0.9917755126953125,-0.015533447265625,0.0458984375
1772562816048661000,8.703660888671875,-0.99310302734375,-0.0166473388671875,0.0484771728515625
1772562816058728000,8.71372802734375,-0.990814208984375,-0.0150299072265625,0.04779052734375
1772562816068795000,8.723794921875,-0.9902801513671875,-0.014556884765625,0.047454833984375
1772562816078861800,8.73386181640625,-0.991851806640625,-0.0143280029296875,0.0453338623046875
1772562816088929000,8.743928955078125,-0.9924774169921875,-0.0153961181640625,0.0466156005859375
1772562816098996000,8.753995849609375,-0.9920196533203125,-0.01556396484375,0.04766845703125
1772562816109063000,8.76406298828125,-0.9913482666015625,-0.015167236328125,0.0482940673828125
1772562816119129900,8.7741298828125,-0.9911956787109375,-0.014923095703125,0.047698974609375
1772562816129197800,8.78419775390625,-0.992340087890625,-0.0138702392578125,0.0478057861328125
1772562816139264800,8.7942646484375,-0.9923553466796875,-0.0149688720703125,0.0468292236328125
1772562816149331700,8.804331787109374,-0.9916229248046875,-0.014251708984375,0.04571533203125
1772562816159399000,8.81439892578125,-0.991943359375,-0.0149078369140625,0.046478271484375
1772562816169466000,8.824466064453125,-0.99127197265625,-0.01519775390625,0.0494842529296875
1772562816179533000,8.834532958984376,-0.99285888671875,-0.0146331787109375,0.0473175048828125
1772562816189601000,8.84460107421875,-0.991180419921875,-0.0157623291015625,0.048797607421875
1772562816199668000,8.85466796875,-0.9918212890625,-0.0148773193359375,0.0474700927734375
1772562816209735000,8.86473486328125,-0.9918365478515625,-0.0155029296875,0.047088623046875
1772562816219801900,8.8748017578125,-0.9920806884765625,-0.014984130859375,0.046234130859375
1772562816229868800,8.884868896484376,-0.993194580078125,-0.0154571533203125,0.046844482421875
1772562816239936800,8.894936767578125,-0.9923858642578125,-0.0140838623046875,0.0461578369140625
1772562816250003700,8.905003662109374,-0.9898529052734375,-0.0134429931640625,0.0472412109375
1772562816260071000,8.91507080078125,-0.991485595703125,-0.0146026611328125,0.0473175048828125
1772562816270137900,8.925137939453125,-0.99139404296875,-0.014923095703125,0.0464630126953125
1772562816280205000,8.935205078125,-0.9908599853515625,-0.0146026611328125,0.046661376953125
1772562816290272000,8.94527197265625,-0.9910736083984375,-0.015228271484375,0.0471954345703125
1772562816300340000,8.955340087890624,-0.9912567138671875,-0.016082763671875,0.047149658203125
1772562816310407000,8.965406982421875,-0.991424560546875,-0.015533447265625,0.047332763671875
1772562816320473900,8.975473876953124,-0.9915008544921875,-0.0148162841796875,0.04827880859375
1772562816330540800,8.985540771484375,-0.990386962890625,-0.0155181884765625,0.04791259765625
1772562816340608000,8.99560791015625,-0.9933319091796875,-0.014556884765625,0.0474395751953125
1772562816350675000,9.005675048828126,-0.992095947265625,-0.01434326171875,0.0478973388671875
1772562816360743000,9.015742919921875,-0.9915924072265625,-0.0145111083984375,0.048492431640625
1772562816370809900,9.025809814453124,-0.9919586181640625,-0.01416015625,0.0471038818359375
1772562816380877000,9.035876953125,-0.9931488037109375,-0.0152130126953125,0.047210693359375
1772562816390944000,9.045944091796875,-0.99139404296875,-0.0147705078125,0.047576904296875
1772562816401011000,9.056010986328126,-0.991790771484375,-0.0162811279296875,0.046142578125
1772562816411079000,9.066078857421875,-0.991973876953125,-0.0157318115234375,0.0469818115234375
1772562816421145900,9.076145751953124,-0.9926605224609375,-0.0154876708984375,0.0477142333984375
1772562816431212800,9.086212890625,-0.990692138671875,-0.014923095703125,0.0468292236328125
1772562816441280000,9.096280029296874,-0.990692138671875,-0.0139007568359375,0.0473480224609375
1772562816451347000,9.106346923828125,-0.992431640625,-0.0149993896484375,0.0464630126953125
1772562816461414000,9.116413818359375,-0.9921112060546875,-0.01416015625,0.046875
1772562816471481900,9.12648193359375,-0.99188232421875,-0.014068603515625,0.048309326171875
1772562816481548800,9.136548828125,-0.991607666015625,-0.0146942138671875,0.046112060546875
1772562816491617000,9.146616943359374,-0.9918365478515625,-0.0146331787109375,0.0465545654296875
1772562816501684000,9.15668408203125,-0.9909820556640625,-0.014617919921875,0.047088623046875
1772562816511751000,9.1667509765625,-0.9912567138671875,-0.0146026611328125,0.0468292236328125
1772562816521817900,9.17681787109375,-0.9915008544921875,-0.014617919921875,0.0478668212890625
1772562816531884800,9.186884765625,-0.99298095703125,-0.0150299072265625,0.0479583740234375
1772562816541952800,9.196952880859374,-0.9934539794921875,-0.0152587890625,0.046234130859375
1772562816552019700,9.207019775390625,-0.9914093017578125,-0.014923095703125,0.0464630126953125
1772562816562087000,9.2170869140625,-0.991729736328125,-0.014801025390625,0.0469818115234375
1772562816572153900,9.22715380859375,-0.9915008544921875,-0.0150299072265625,0.048614501953125
1772562816582220800,9.237220703125,-0.991668701171875,-0.0154571533203125,0.0481719970703125
1772562816592288000,9.2472880859375,-0.9929656982421875,-0.0149383544921875,0.04669189453125
1772562816602356000,9.25735595703125,-0.991455078125,-0.01531982421875,0.0452880859375
1772562816612423000,9.2674228515625,-0.9902801513671875,-0.0141448974609375,0.0467376708984375
1772562816622489900,9.27748974609375,-0.9922027587890625,-0.0154266357421875,0.0476837158203125
1772562816632556800,9.287556884765625,-0.9913787841796875,-0.0153656005859375,0.0479278564453125
1772562816642624000,9.2976240234375,-0.9920654296875,-0.0157623291015625,0.046356201171875
1772562816652692000,9.30769189453125,-0.9921875,-0.0142669677734375,0.0467681884765625
1772562816662759000,9.317759033203124,-0.990966796875,-0.0155029296875,0.047393798828125
1772562816672825900,9.327825927734375,-0.9926605224609375,-0.0139923095703125,0.046142578125
1772562816682892800,9.337892822265625,-0.9920196533203125,-0.01446533203125,0.0469970703125
1772562816692959700,9.347959716796876,-0.989990234375,-0.013702392578125,0.0457305908203125
1772562816703027000,9.35802685546875,-0.9922943115234375,-0.0148773193359375,0.047119140625
1772562816713095000,9.368094970703124,-0.9917144775390625,-0.014923095703125,0.0463104248046875
1772562816723161900,9.378161865234375,-0.992401123046875,-0.015716552734375,0.047882080078125
1772562816733228800,9.388228759765624,-0.9919281005859375,-0.0147552490234375,0.047393798828125
1772562816743296000,9.3982958984375,-0.9920654296875,-0.0149383544921875,0.0457916259765625
1772562816753363000,9.408363037109375,-0.992523193359375,-0.01531982421875,0.0467987060546875
1772562816763431000,9.418430908203124,-0.9913177490234375,-0.013916015625,0.04766845703125
1772562816773497900,9.428497802734375,-0.9909515380859375,-0.01312255859375,0.0466156005859375
1772562816783564800,9.438564697265624,-0.9913177490234375,-0.01495361328125,0.0482635498046875
1772562816793631700,9.4486318359375,-0.9921417236328125,-0.014556884765625,0.0465087890625
1772562816803699000,9.458698974609375,-0.9921722412109375,-0.014862060546875,0.04547119140625
1772562816813766000,9.468765869140626,-0.992706298828125,-0.0157318115234375,0.0469818115234375
1772562816823833900,9.478833740234375,-0.991973876953125,-0.016021728515625,0.0472564697265625
1772562816833901000,9.488901123046874,-0.9937286376953125,-0.01470947265625,0.047088623046875
1772562816843968000,9.498968017578125,-0.991790771484375,-0.01416015625,0.0478973388671875
1772562816854035000,9.509034912109374,-0.9905242919921875,-0.0146026611328125,0.04608154296875
1772562816864102000,9.519101806640625,-0.9922332763671875,-0.0151214599609375,0.0472869873046875
1772562816874168800,9.5291689453125,-0.991302490234375,-0.0142364501953125,0.0462799072265625
1772562816884236800,9.53923681640625,-0.9904327392578125,-0.0171051025390625,0.046417236328125
1772562816894303700,9.5493037109375,-0.9918365478515625,-0.0127716064453125,0.0486297607421875
1772562816904370700,9.55937060546875,-0.991973876953125,-0.0152435302734375,0.0470733642578125
1772562816914438000,9.56943798828125,-0.991668701171875,-0.014129638671875,0.0460357666015625
1772562816924505300,9.57950537109375,-0.9921722412109375,-0.0148162841796875,0.0474700927734375
1772562816934572300,9.589572265625,-0.9917144775390625,-0.0145111083984375,0.0476531982421875
1772562816944640300,9.59964013671875,-0.9927520751953125,-0.0146331787109375,0.04608154296875
1772562816954707200,9.609707275390624,-0.9919586181640625,-0.0132904052734375,0.0467529296875
1772562816964774100,9.619774169921875,-0.9920806884765625,-0.013519287109375,0.046417236328125
1772562816974841000,9.629841064453124,-0.99163818359375,-0.0144500732421875,0.0466461181640625
1772562816984908000,9.639907958984375,-0.9919586181640625,-0.0138397216796875,0.047576904296875
1772562816994976000,9.64997607421875,-0.99261474609375,-0.0158843994140625,0.04736328125
1772562817005043200,9.660043212890624,-0.9920654296875,-0.0157318115234375,0.048309326171875
1772562817015110100,9.670110107421875,-0.9911956787109375,-0.0153045654296875,0.04791259765625
1772562817025177300,9.68017724609375,-0.99163818359375,-0.01495361328125,0.048583984375
1772562817035244300,9.690244384765625,-0.9907073974609375,-0.0144805908203125,0.047515869140625
1772562817045311200,9.700311279296875,-0.9914398193359375,-0.0152740478515625,0.04510498046875
1772562817055379200,9.710379150390626,-0.9920196533203125,-0.0142974853515625,0.0478057861328125
1772562817065446100,9.720446044921875,-0.9921417236328125,-0.0149078369140625,0.0475921630859375
1772562817075513000,9.73051318359375,-0.991973876953125,-0.0145263671875,0.04742431640625
1772562817085580000,9.740580078125,-0.991424560546875,-0.01519775390625,0.0472412109375
1772562817095647000,9.75064697265625,-0.9930267333984375,-0.01458740234375,0.0463409423828125
1772562817105715000,9.76071484375,-0.992095947265625,-0.0155487060546875,0.0463104248046875
1772562817115782100,9.7707822265625,-0.9916534423828125,-0.01397705078125,0.04693603515625
1772562817125849300,9.780849365234374,-0.99176025390625,-0.014923095703125,0.0467529296875
1772562817135916300,9.790916259765625,-0.9930877685546875,-0.0154571533203125,0.048675537109375
1772562817145983200,9.800983154296874,-0.9921112060546875,-0.0153656005859375,0.047119140625
1772562817156050200,9.81105029296875,-0.9923095703125,-0.0152740478515625,0.0463714599609375
1772562817166118100,9.8211181640625,-0.9915008544921875,-0.01397705078125,0.047760009765625
1772562817176185000,9.83118505859375,-0.991180419921875,-0.015045166015625,0.047088623046875
1772562817186252000,9.841251953125,-0.9914703369140625,-0.0146026611328125,0.0489349365234375
1772562817196319000,9.851319091796874,-0.99200439453125,-0.014556884765625,0.0487060546875
1772562817206386200,9.86138623046875,-0.9920654296875,-0.01702880859375,0.048126220703125
1772562817216453000,9.871453125,-0.9925537109375,-0.0151519775390625,0.04632568359375
1772562817226521300,9.881521240234376,-0.9900970458984375,-0.01531982421875,0.046356201171875
1772562817236588300,9.89158837890625,-0.9912109375,-0.016448974609375,0.046142578125
1772562817246655200,9.9016552734375,-0.9911041259765625,-0.014739990234375,0.0472869873046875
1772562817256722200,9.91172216796875,-0.9937896728515625,-0.0151214599609375,0.0480194091796875
1772562817266789000,9.9217890625,-0.990997314453125,-0.0152740478515625,0.0482635498046875
1772562817276857000,9.931857177734376,-0.9909820556640625,-0.01434326171875,0.0464630126953125
1772562817286924000,9.941924072265625,-0.9934539794921875,-0.0149688720703125,0.0465240478515625
1772562817296991200,9.9519912109375,-0.9902191162109375,-0.015655517578125,0.04656982421875
1772562817307058200,9.96205810546875,-0.9918975830078125,-0.013458251953125,0.04736328125
1772562817317125000,9.972125,-0.991455078125,-0.0136260986328125,0.045623779296875
1772562817327192000,9.982192138671875,-0.9936981201171875,-0.0138092041015625,0.0463714599609375
1772562817337260300,9.99226025390625,-0.9923553466796875,-0.0147857666015625,0.0463104248046875
1772562817347327200,10.0023271484375,-0.991790771484375,-0.013916015625,0.046356201171875
1772562817357394200,10.012394287109375,-0.990936279296875,-0.0142974853515625,0.0481719970703125
1772562817367461000,10.022461181640624,-0.9925689697265625,-0.01434326171875,0.04833984375
1772562817377528000,10.032528076171875,-0.99249267578125,-0.014404296875,0.0468597412109375
1772562817387596000,10.042595947265625,-0.9900970458984375,-0.015472412109375,0.047393798828125
1772562817397663200,10.052663330078126,-0.9915771484375,-0.013885498046875,0.0461883544921875
1772562817407730200,10.062730224609375,-0.992034912109375,-0.01556396484375,0.0467987060546875
1772562817417797000,10.072797119140626,-0.989990234375,-0.014373779296875,0.0482635498046875
1772562817427864000,10.082864013671875,-0.9919281005859375,-0.01507568359375,0.0470428466796875
1772562817437931000,10.092930908203124,-0.9915771484375,-0.01513671875,0.046630859375
1772562817447999200,10.102999267578125,-0.99176025390625,-0.0164947509765625,0.0458984375
1772562817458066200,10.113066162109375,-0.99163818359375,-0.0151824951171875,0.047882080078125
1772562817468133000,10.123133056640626,-0.9911956787109375,-0.0134429931640625,0.04620361328125
1772562817478200300,10.133200439453125,-0.992034912109375,-0.01446533203125,0.046295166015625
1772562817488267300,10.143267333984374,-0.9922332763671875,-0.0147857666015625,0.04547119140625
1772562817498335200,10.153335205078125,-0.9914093017578125,-0.016510009765625,0.0458221435546875
1772562817508402200,10.163402099609375,-0.99163818359375,-0.0149688720703125,0.04656982421875
1772562817518469000,10.17346923828125,-0.9915618896484375,-0.015167236328125,0.0478973388671875
1772562817528536000,10.1835361328125,-0.9929046630859375,-0.0158843994140625,0.047210693359375
1772562817538603000,10.19360302734375,-0.9906158447265625,-0.014862060546875,0.046966552734375
1772562817548670000,10.203669921875,-0.9913177490234375,-0.0142669677734375,0.046234130859375
1772562817558738200,10.21373828125,-0.99212646484375,-0.014862060546875,0.04656982421875
1772562817568805000,10.22380517578125,-0.99127197265625,-0.0135650634765625,0.0479888916015625
1772562817578872300,10.233872314453125,-0.990997314453125,-0.014373779296875,0.046539306640625
1772562817588939300,10.243939208984376,-0.9919281005859375,-0.014984130859375,0.0470123291015625
1772562817599006200,10.254006103515625,-0.99041748046875,-0.013885498046875,0.04681396484375
1772562817609073200,10.2640732421875,-0.991424560546875,-0.01641845703125,0.0470428466796875
1772562817619141000,10.27414111328125,-0.992950439453125,-0.014404296875,0.0493316650390625
1772562817629208000,10.2842080078125,-0.9910888671875,-0.013916015625,0.0479583740234375
1772562817639275000,10.29427490234375,-0.991119384765625,-0.0163116455078125,0.0466461181640625
1772562817649342000,10.304342041015625,-0.989837646484375,-0.01556396484375,0.0468597412109375
1772562817659409200,10.3144091796875,-0.9905242919921875,-0.0147552490234375,0.04705810546875
1772562817669477000,10.32447705078125,-0.990203857421875,-0.0144195556640625,0.04986572265625
1772562817679544300,10.33454443359375,-0.99169921875,-0.014556884765625,0.047454833984375
1772562817689611300,10.344611328125,-0.9928131103515625,-0.014312744140625,0.045684814453125
1772562817699678200,10.35467822265625,-0.991424560546875,-0.0143890380859375,0.0467529296875
1772562817709745200,10.3647451171875,-0.9913330078125,-0.01690673828125,0.0471954345703125
1772562817719812000,10.37481201171875,-0.9937744140625,-0.0151519775390625,0.0486907958984375
1772562817729880000,10.384880126953124,-0.9929046630859375,-0.0147552490234375,0.0477294921875
1772562817739947000,10.394947021484375,-0.992340087890625,-0.015411376953125,0.0471649169921875
1772562817750014000,10.405013916015625,-0.99188232421875,-0.015228271484375,0.046661376953125
1772562817760081200,10.4150810546875,-0.99261474609375,-0.014434814453125,0.047149658203125
1772562817770148000,10.425148193359375,-0.9925689697265625,-0.0161590576171875,0.045440673828125
1772562817780215300,10.43521533203125,-0.9911041259765625,-0.0152740478515625,0.044952392578125
1772562817790283300,10.445283203125,-0.9914703369140625,-0.014007568359375,0.047271728515625
1772562817800350200,10.45535009765625,-0.9915008544921875,-0.0138092041015625,0.046875
1772562817810417200,10.465417236328125,-0.99176025390625,-0.0148468017578125,0.0460357666015625
1772562817820484000,10.475484130859375,-0.9932708740234375,-0.013946533203125,0.047027587890625
1772562817830551000,10.485551025390626,-0.9905853271484375,-0.013946533203125,0.04644775390625
1772562817840619000,10.495618896484375,-0.991058349609375,-0.0152435302734375,0.046478271484375
1772562817850686000,10.50568603515625,-0.9919891357421875,-0.0149078369140625,0.045318603515625
1772562817860753200,10.515753173828125,-0.99102783203125,-0.014801025390625,0.0469512939453125
1772562817870820000,10.525820068359375,-0.9920806884765625,-0.014678955078125,0.0476837158203125
1772562817880887300,10.53588720703125,-0.9907073974609375,-0.0157623291015625,0.047271728515625
1772562817890954200,10.545954345703125,-0.99151611328125,-0.0145721435546875,0.0449981689453125
1772562817901022200,10.556022216796874,-0.992431640625,-0.0136260986328125,0.0459747314453125
1772562817911089200,10.566089111328125,-0.9921722412109375,-0.0142974853515625,0.046966552734375
1772562817921156400,10.57615625,-0.99090576171875,-0.0141754150390625,0.0460662841796875
1772562817931223300,10.586223388671876,-0.99090576171875,-0.0147705078125,0.047515869140625
1772562817941290500,10.59629052734375,-0.9922332763671875,-0.015380859375,0.046966552734375
1772562817951358200,10.606358154296874,-0.991485595703125,-0.0136260986328125,0.04736328125
1772562817961425400,10.61642529296875,-0.9916534423828125,-0.015380859375,0.046844482421875
1772562817971492400,10.626492431640624,-0.9922332763671875,-0.014739990234375,0.0465240478515625
1772562817981559600,10.6365595703125,-0.9934844970703125,-0.0145263671875,0.0462799072265625
1772562817991626500,10.64662646484375,-0.9910736083984375,-0.01422119140625,0.0471038818359375
1772562818001693400,10.656693359375,-0.9915618896484375,-0.015045166015625,0.045501708984375
1772562818011761400,10.666761474609375,-0.993560791015625,-0.01361083984375,0.0482025146484375
1772562818021828400,10.676828369140624,-0.9911346435546875,-0.0153045654296875,0.0475616455078125
1772562818031895300,10.686895263671875,-0.99200439453125,-0.014892578125,0.0461273193359375
1772562818041962500,10.69696240234375,-0.9928436279296875,-0.0149688720703125,0.0460205078125
1772562818052029400,10.707029541015626,-0.9923553466796875,-0.0150146484375,0.0464019775390625
1772562818062096400,10.717096435546875,-0.990814208984375,-0.01544189453125,0.047607421875
1772562818072164400,10.727164306640624,-0.99273681640625,-0.0148773193359375,0.050140380859375
1772562818082231600,10.7372314453125,-0.990234375,-0.01361083984375,0.0464630126953125
1772562818092298500,10.747298583984374,-0.992523193359375,-0.0131988525390625,0.0460662841796875
1772562818102365400,10.757365478515625,-0.9912261962890625,-0.01470947265625,0.047515869140625
1772562818112432400,10.767432373046875,-0.9922027587890625,-0.0135955810546875,0.0481414794921875
1772562818122500400,10.777500244140626,-0.9928436279296875,-0.0145263671875,0.046295166015625
1772562818132567300,10.7875673828125,-0.9923095703125,-0.01495361328125,0.0467987060546875
1772562818142634500,10.797634521484374,-0.9924774169921875,-0.0156097412109375,0.0474090576171875
1772562818152701400,10.807701416015625,-0.9912567138671875,-0.014984130859375,0.0472564697265625
1772562818162768400,10.817768310546874,-0.9907379150390625,-0.01495361328125,0.0487213134765625
1772562818172835300,10.82783544921875,-0.9909210205078125,-0.0143890380859375,0.047515869140625
1772562818182903300,10.8379033203125,-0.992919921875,-0.0149383544921875,0.0473480224609375
1772562818192970500,10.847970458984374,-0.991485595703125,-0.0152435302734375,0.04833984375
1772562818203037400,10.858037353515625,-0.9923858642578125,-0.015716552734375,0.047393798828125
1772562818213104400,10.8681044921875,-0.9928741455078125,-0.0158843994140625,0.04736328125
1772562818223171600,10.878171630859375,-0.99224853515625,-0.0153656005859375,0.0473175048828125
1772562818233239300,10.8882392578125,-0.9917449951171875,-0.0156707763671875,0.0469207763671875
1772562818243306500,10.898306396484376,-0.993804931640625,-0.0151214599609375,0.0467529296875
1772562818253373400,10.90837353515625,-0.9912567138671875,-0.0154876708984375,0.048187255859375
1772562818263440400,10.9184404296875,-0.991912841796875,-0.0150146484375,0.0460357666015625
1772562818273507300,10.92850732421875,-0.9919891357421875,-0.0139312744140625,0.048095703125
1772562818283574300,10.93857421875,-0.99029541015625,-0.0167083740234375,0.04693603515625
1772562818293642500,10.948642578125,-0.9915771484375,-0.013031005859375,0.0479888916015625
1772562818303709400,10.95870947265625,-0.9907684326171875,-0.013946533203125,0.048187255859375
1772562818313776400,10.9687763671875,-0.9920196533203125,-0.0147552490234375,0.047210693359375
1772562818323843600,10.978843505859375,-0.9905853271484375,-0.0157470703125,0.047210693359375
1772562818333910500,10.98891064453125,-0.992401123046875,-0.0135955810546875,0.046875
1772562818343978500,10.998978515625,-0.992156982421875,-0.0143280029296875,0.047576904296875
1772562818354045400,11.00904541015625,-0.9911956787109375,-0.0156097412109375,0.0471954345703125
1772562818364112400,11.0191123046875,-0.993011474609375,-0.0148162841796875,0.04791259765625
1772562818374179300,11.029179443359375,-0.9933013916015625,-0.0141754150390625,0.0479583740234375
1772562818384246300,11.039246337890624,-0.9911041259765625,-0.01568603515625,0.0469970703125
1772562818394313200,11.049313232421875,-0.9913177490234375,-0.0161895751953125,0.04705810546875
1772562818404381400,11.05938134765625,-0.991241455078125,-0.0148773193359375,0.04656982421875
1772562818414448400,11.069448486328126,-0.9915313720703125,-0.015289306640625,0.0461883544921875
1772562818424515600,11.079515625,-0.9924468994140625,-0.0143585205078125,0.0489959716796875
1772562818434582500,11.08958251953125,-0.9910888671875,-0.013824462890625,0.0480804443359375
1772562818444649500,11.0996494140625,-0.9906158447265625,-0.01507568359375,0.0454254150390625
1772562818454716400,11.10971630859375,-0.992218017578125,-0.0142822265625,0.045928955078125
1772562818464784400,11.119784423828126,-0.9906463623046875,-0.015380859375,0.045623779296875
1772562818474851300,11.129851318359375,-0.9914703369140625,-0.0148773193359375,0.04638671875
1772562818484918300,11.139918212890626,-0.9896392822265625,-0.0153656005859375,0.047515869140625
1772562818494985200,11.149985107421875,-0.9913482666015625,-0.01458740234375,0.047821044921875
1772562818505052400,11.160052490234374,-0.992828369140625,-0.0159454345703125,0.04852294921875
1772562818515120400,11.170120361328125,-0.99298095703125,-0.015167236328125,0.04791259765625
1772562818525187600,11.1801875,-0.9919281005859375,-0.0148468017578125,0.0460357666015625
1772562818535254500,11.190254638671876,-0.9903717041015625,-0.0150146484375,0.0456390380859375
1772562818545321500,11.200321533203125,-0.9922943115234375,-0.013641357421875,0.046600341796875
1772562818555388400,11.210388427734374,-0.9925537109375,-0.0143280029296875,0.04815673828125
1772562818565455400,11.220455322265625,-0.9931488037109375,-0.01580810546875,0.047027587890625
1772562818575523300,11.2305234375,-0.992218017578125,-0.014068603515625,0.0478515625
1772562818585590300,11.24059033203125,-0.991302490234375,-0.014434814453125,0.0462493896484375
1772562818595657500,11.250657470703125,-0.9916534423828125,-0.0141448974609375,0.0471649169921875
1772562818605724400,11.260724365234376,-0.992095947265625,-0.0160369873046875,0.047607421875
1772562818615791400,11.270791259765625,-0.99169921875,-0.016326904296875,0.04766845703125
1772562818625859600,11.280859619140625,-0.9918212890625,-0.016754150390625,0.048370361328125
1772562818635926500,11.290926513671875,-0.9916534423828125,-0.014190673828125,0.0468597412109375
1772562818645993500,11.300993408203125,-0.9914093017578125,-0.0153656005859375,0.047149658203125
1772562818656060400,11.311060302734376,-0.9915618896484375,-0.0141754150390625,0.0469970703125
1772562818666127400,11.32112744140625,-0.99249267578125,-0.0158538818359375,0.0482025146484375
1772562818676194300,11.3311943359375,-0.9925079345703125,-0.0148468017578125,0.046966552734375
1772562818686262300,11.34126220703125,-0.9914398193359375,-0.0142364501953125,0.048583984375
1772562818696329500,11.35132958984375,-0.9920806884765625,-0.014373779296875,0.047607421875
1772562818706396400,11.361396484375,-0.992431640625,-0.01470947265625,0.046142578125
1772562818716463400,11.37146337890625,-0.9918060302734375,-0.0147552490234375,0.04595947265625
1772562818726530300,11.3815302734375,-0.99078369140625,-0.0148773193359375,0.047576904296875
1772562818736598500,11.3915986328125,-0.9921112060546875,-0.0135650634765625,0.0472564697265625
1772562818746665500,11.40166552734375,-0.994171142578125,-0.014801025390625,0.0481719970703125
1772562818756732400,11.411732421875,-0.9925689697265625,-0.014739990234375,0.0469818115234375
1772562818766799400,11.42179931640625,-0.9910430908203125,-0.014068603515625,0.04638671875
1772562818776866600,11.431866455078126,-0.9912261962890625,-0.01617431640625,0.047515869140625
1772562818786933500,11.44193359375,-0.9912872314453125,-0.01531982421875,0.0467681884765625
1772562818797001500,11.45200146484375,-0.990814208984375,-0.0141143798828125,0.045135498046875
1772562818807068400,11.462068359375,-0.9922027587890625,-0.01495361328125,0.0465545654296875
1772562818817135400,11.47213525390625,-0.991607666015625,-0.01446533203125,0.0477447509765625
1772562818827202300,11.482202392578126,-0.99066162109375,-0.0137786865234375,0.045806884765625
1772562818837269200,11.492269287109375,-0.9916229248046875,-0.0143890380859375,0.0473175048828125
1772562818847336200,11.502336181640626,-0.9913482666015625,-0.015350341796875,0.046905517578125
1772562818857404400,11.512404296875,-0.99114990234375,-0.0140228271484375,0.0479278564453125
1772562818867471400,11.522471435546874,-0.992584228515625,-0.014892578125,0.04644775390625
1772562818877538600,11.53253857421875,-0.990814208984375,-0.0139312744140625,0.045989990234375
1772562818887605500,11.54260546875,-0.99285888671875,-0.0134124755859375,0.047882080078125
1772562818897672400,11.55267236328125,-0.9921722412109375,-0.0147247314453125,0.0473785400390625
1772562818907739400,11.562739501953125,-0.9919281005859375,-0.013671875,0.0456085205078125
1772562818917807400,11.572807373046874,-0.99273681640625,-0.0160369873046875,0.0443267822265625
1772562818927874600,11.58287451171875,-0.9897308349609375,-0.01507568359375,0.0466156005859375
1772562818937941500,11.59294140625,-0.9933319091796875,-0.0146942138671875,0.0491790771484375
1772562818948008400,11.603008544921876,-0.9942779541015625,-0.0159454345703125,0.0467681884765625
1772562818958075600,11.61307568359375,-0.99212646484375,-0.0142669677734375,0.047943115234375
1772562818968143400,11.623143310546874,-0.9921722412109375,-0.01531982421875,0.0473785400390625
1772562818978210600,11.63321044921875,-0.9899139404296875,-0.014801025390625,0.0472869873046875
1772562818988277500,11.643277587890625,-0.990966796875,-0.0157318115234375,0.0463104248046875
1772562818998344400,11.653344482421875,-0.9926300048828125,-0.0134429931640625,0.0459442138671875
1772562819008411600,11.66341162109375,-0.9913787841796875,-0.0145416259765625,0.0465240478515625
1772562819018478600,11.673478515625,-0.99029541015625,-0.0147247314453125,0.04534912109375
1772562819028546600,11.683546630859375,-0.9919891357421875,-0.0140228271484375,0.0457305908203125
1772562819038613500,11.693613525390624,-0.9925537109375,-0.01470947265625,0.0467681884765625
1772562819048680400,11.703680419921875,-0.9897613525390625,-0.0157012939453125,0.0475616455078125
1772562819058747600,11.71374755859375,-0.9916229248046875,-0.0155029296875,0.0458984375
1772562819068814600,11.723814697265626,-0.9923095703125,-0.0142974853515625,0.0469512939453125
1772562819078882600,11.733882568359375,-0.9914398193359375,-0.014617919921875,0.046600341796875
1772562819088949500,11.743949462890624,-0.992919921875,-0.014190673828125,0.04638671875
1772562819099016400,11.754016357421875,-0.9907989501953125,-0.0143280029296875,0.046844482421875
1772562819109083400,11.76408349609375,-0.9901275634765625,-0.0153350830078125,0.0459442138671875
1772562819119150600,11.774150634765626,-0.9918060302734375,-0.015350341796875,0.045867919921875
1772562819129217500,11.784217529296875,-0.9923095703125,-0.014892578125,0.0477447509765625
1772562819139285500,11.794285400390624,-0.9910736083984375,-0.0141448974609375,0.0477294921875
1772562819149352400,11.8043525390625,-0.9925994873046875,-0.01641845703125,0.0457611083984375
1772562819159419600,11.814419677734374,-0.99212646484375,-0.0157012939453125,0.0480804443359375
1772562819169486600,11.824486572265625,-0.9924774169921875,-0.01507568359375,0.0491790771484375
1772562819179553500,11.834553466796875,-0.9934844970703125,-0.0154571533203125,0.04638671875
1772562819189621500,11.84462158203125,-0.9916534423828125,-0.0148162841796875,0.0467987060546875
1772562819199688400,11.8546884765625,-0.9925994873046875,-0.0146331787109375,0.0467681884765625
1772562819209755400,11.86475537109375,-0.9920654296875,-0.0155181884765625,0.0477447509765625
1772562819219822600,11.874822509765625,-0.989532470703125,-0.0149078369140625,0.04754638671875
1772562819229889500,11.8848896484375,-0.9920806884765625,-0.0155181884765625,0.0473175048828125
1772562819239956700,11.894956787109376,-0.9943084716796875,-0.01611328125,0.048858642578125
1772562819250024400,11.9050244140625,-0.9918212890625,-0.0158538818359375,0.047821044921875
1772562819260091600,11.915091552734374,-0.9925384521484375,-0.0162506103515625,0.045074462890625
1772562819270158600,11.92515869140625,-0.994049072265625,-0.013519287109375,0.04669189453125
1772562819280225500,11.9352255859375,-1.00335693359375,-0.0119171142578125,0.040557861328125
1772562819290292500,11.94529248046875,-0.997711181640625,-0.01898193359375,0.0442657470703125
1772562819300359400,11.955359375,-1.0037078857421875,-0.015228271484375,0.0577392578125
1772562819310427400,11.965427490234376,-0.9630126953125,-0.0162353515625,0.0613555908203125
1772562819320494300,11.975494384765625,-0.9481201171875,-0.01739501953125,0.0597991943359375
1772562819330561500,11.9855615234375,-0.981475830078125,-0.0110321044921875,0.0517425537109375
1772562819340628700,11.995628662109375,-1.0153961181640625,-0.0159912109375,0.039886474609375
1772562819350695700,12.00569580078125,-1.0362091064453125,-0.01373291015625,0.032012939453125
1772562819360763600,12.015763671875,-1.009552001953125,-0.0135040283203125,0.035400390625
1772562819370830600,12.02583056640625,-0.9783782958984375,-0.0167083740234375,0.0505828857421875
1772562819380897500,12.0358974609375,-0.9687652587890625,-0.014007568359375,0.0593719482421875
1772562819390964500,12.045964599609375,-0.968658447265625,-0.0157470703125,0.05596923828125
1772562819401031400,12.056031494140624,-0.9875335693359375,-0.01727294921875,0.0463104248046875
1772562819411098400,12.066098388671875,-1.013214111328125,-0.013427734375,0.0372314453125
1772562819421166300,12.076166259765625,-1.018829345703125,-0.0152740478515625,0.0385589599609375
1772562819431233500,12.086233642578126,-0.99359130859375,-0.012664794921875,0.045684814453125
1772562819441300700,12.09630078125,-0.973876953125,-0.0142364501953125,0.0540008544921875
1772562819451367700,12.10636767578125,-0.970733642578125,-0.0148162841796875,0.0540313720703125
1772562819461434600,12.1164345703125,-0.9866943359375,-0.014556884765625,0.04974365234375
1772562819471501600,12.12650146484375,-1.0043182373046875,-0.0167694091796875,0.043975830078125
1772562819481569500,12.136569580078126,-1.00628662109375,-0.015228271484375,0.0413818359375
1772562819491636500,12.146636474609375,-0.99981689453125,-0.013824462890625,0.0437469482421875
1772562819501703400,12.156703369140626,-0.9837493896484375,-0.013671875,0.0493927001953125
1772562819511770400,12.166770263671875,-0.977813720703125,-0.0142974853515625,0.0505523681640625
1772562819521837600,12.176837646484374,-0.9849853515625,-0.014862060546875,0.0489501953125
1772562819531905500,12.186905517578126,-0.9964752197265625,-0.0158233642578125,0.0440521240234375
1772562819541972700,12.19697265625,-1.00408935546875,-0.016815185546875,0.0445556640625
1772562819552039700,12.207039794921876,-1.00006103515625,-0.0149688720703125,0.0450286865234375
1772562819562106600,12.217106689453125,-0.9870758056640625,-0.013946533203125,0.0473480224609375
1772562819572173600,12.227173583984374,-0.980255126953125,-0.0151214599609375,0.0486602783203125
1772562819582240500,12.237240478515625,-0.9862823486328125,-0.0136260986328125,0.04901123046875
1772562819592308500,12.24730859375,-0.9932098388671875,-0.0146636962890625,0.046051025390625
1772562819602375400,12.25737548828125,-0.99847412109375,-0.014556884765625,0.04278564453125
1772562819612442400,12.2674423828125,-0.99884033203125,-0.0148162841796875,0.04486083984375
1772562819622509600,12.277509521484374,-0.99139404296875,-0.015106201171875,0.0474700927734375
1772562819632576500,12.287576416015625,-0.9837799072265625,-0.0144805908203125,0.0498046875
1772562819642644700,12.297644775390625,-0.985260009765625,-0.01434326171875,0.04986572265625
1772562819652711700,12.307711669921876,-0.9915008544921875,-0.0137176513671875,0.0465545654296875
1772562819662778600,12.317778564453125,-0.9981689453125,-0.0137481689453125,0.042938232421875
1772562819672845600,12.327845458984376,-0.999603271484375,-0.0148773193359375,0.045196533203125
1772562819682912500,12.33791259765625,-0.9925079345703125,-0.01483154296875,0.0470428466796875
1772562819692979500,12.3479794921875,-0.986602783203125,-0.014312744140625,0.049102783203125
1772562819703047400,12.35804736328125,-0.9860992431640625,-0.015472412109375,0.0492401123046875
1772562819713114600,12.368114501953125,-0.9901123046875,-0.0146331787109375,0.0474853515625
1772562819723181600,12.378181640625,-0.9940643310546875,-0.0138702392578125,0.0446319580078125
1772562819733248500,12.38824853515625,-0.9954681396484375,-0.015167236328125,0.0452423095703125
1772562819743315500,12.3983154296875,-0.9955902099609375,-0.0157012939453125,0.0455780029296875
1772562819753383700,12.4083837890625,-0.9909820556640625,-0.0153961181640625,0.04803466796875
1772562819763450600,12.41845068359375,-0.986083984375,-0.015777587890625,0.0493621826171875
1772562819773517600,12.428517578125,-0.9891204833984375,-0.0137786865234375,0.047088623046875
1772562819783584500,12.43858447265625,-0.9926605224609375,-0.014251708984375,0.0469818115234375
1772562819793651500,12.4486513671875,-0.994903564453125,-0.013916015625,0.0430145263671875
1772562819803718700,12.45871875,-0.9962005615234375,-0.013092041015625,0.04425048828125
1772562819813786600,12.46878662109375,-0.9931182861328125,-0.0149993896484375,0.047698974609375
1772562819823853600,12.478853515625,-0.9898834228515625,-0.015167236328125,0.0488128662109375
1772562819833920500,12.48892041015625,-0.9902191162109375,-0.015289306640625,0.0479278564453125
1772562819843987500,12.498987548828126,-0.990631103515625,-0.0155792236328125,0.047515869140625
1772562819854054400,12.509054443359375,-0.9934844970703125,-0.015045166015625,0.044586181640625
1772562819864121300,12.519121337890626,-0.997406005859375,-0.016082763671875,0.0443115234375
1772562819874189600,12.529189453125,-0.99334716796875,-0.0147857666015625,0.04718017578125
1772562819884256500,12.539256591796875,-0.9913330078125,-0.013214111328125,0.0476531982421875
1772562819894323700,12.54932373046875,-0.989471435546875,-0.0171051025390625,0.04864501953125
1772562819904390700,12.559390625,-0.989501953125,-0.01605224609375,0.0482330322265625
1772562819914457600,12.56945751953125,-0.9922332763671875,-0.0159759521484375,0.0445098876953125
1772562819924523500,12.5795234375,-0.9922332763671875,-0.014007568359375,0.045501708984375
1772562819934591700,12.589591796875,-0.99176025390625,-0.014068603515625,0.045654296875
1772562819944658700,12.59965869140625,-0.9925537109375,-0.0147247314453125,0.0471343994140625
1772562819954725600,12.6097255859375,-0.9904632568359375,-0.014617919921875,0.0466461181640625
1772562819964792800,12.619792724609376,-0.99053955078125,-0.0146942138671875,0.0478973388671875
1772562819974859800,12.62985986328125,-0.9921875,-0.0150146484375,0.04742431640625
1772562819984927700,12.639927734375,-0.9906463623046875,-0.0155487060546875,0.0461578369140625
1772562819994994700,12.64999462890625,-0.991668701171875,-0.015228271484375,0.04827880859375
1772562820005061600,12.6600615234375,-0.9926300048828125,-0.0147247314453125,0.0474395751953125
1772562820015128600,12.670128662109375,-0.9918365478515625,-0.012908935546875,0.045989990234375
1772562820025195500,12.680195556640625,-0.998565673828125,-0.01287841796875,0.04266357421875
1772562820035262500,12.690262451171876,-1.0083770751953125,-0.00994873046875,0.0396728515625
1772562820045330700,12.70033056640625,-0.976959228515625,-0.0279541015625,0.0515594482421875
1772562820055397600,12.710397705078124,-1.0094146728515625,-0.010284423828125,0.062255859375
1772562820065464800,12.72046484375,-0.947418212890625,-0.01702880859375,0.06146240234375
1772562820075531800,12.73053173828125,-0.9531402587890625,-0.0165863037109375,0.052886962890625
1772562820085598700,12.7405986328125,-1.021759033203125,-0.0061187744140625,0.039306640625
1772562820095665700,12.750665771484375,-1.033203125,-0.019317626953125,0.02935791015625
