time,seconds_elapsed,z,y,x
1772562807414802000,0.069802001953125,-0.002486281329765916,0.04562826082110405,0.00511940335854888
1772562807424868900,0.079868896484375,0.0023169959895312786,-0.028121864423155785,-0.0084965405985713
1772562807434936800,0.089936767578125,0.001261598663404584,-0.07298465073108673,0.0022837426513433456
1772562807445003800,0.100003662109375,0.003044052282348275,-0.04704705625772476,-0.01002432219684124
1772562807455070700,0.11007080078125,-0.0012389281764626503,0.011050294153392315,-0.00542343407869339
1772562807465137700,0.1201376953125,-0.003434970509260893,0.05233115330338478,0.011920669116079807
1772562807475204600,0.13020458984375,-0.0007350810337811708,0.05058284103870392,0.001396468374878168
1772562807485272800,0.14027294921875,-0.002068525878712535,0.004505092278122902,0.00040231039747595787
1772562807495339800,0.15033984375,0.0001086830161511898,-0.03634581342339516,-0.0014239434385672212
1772562807505407000,0.160406982421875,0.0027944808825850487,-0.04460667073726654,-0.008761484175920486
1772562807515474000,0.170473876953125,0.0002841202076524496,-0.01256752572953701,0.0023471773602068424
1772562807525540900,0.180540771484375,-0.0016171103343367577,0.02546561136841774,0.0006621952634304762
1772562807535607800,0.19060791015625,-0.001798397395759821,0.038077931851148605,0.005479462910443544
1772562807545675800,0.20067578125,0.001123090274631977,0.014956898987293243,0.004227510653436184
1772562807555742700,0.21074267578125,-0.0000027026981115341187,-0.014753447845578194,-0.0024792696349322796
1772562807565809700,0.2208095703125,0.00029823463410139084,-0.028652219101786613,-0.0027341339737176895
1772562807575876600,0.230876708984375,0.00043784291483461857,-0.01576881855726242,-0.0032882692757993937
1772562807585943800,0.24094384765625,-0.0007067837286740541,0.006812655832618475,0.002062554005533457
1772562807596010800,0.2510107421875,0.00008127442561089993,0.023058876395225525,0.0026444881223142147
1772562807606079000,0.261078857421875,0.00003999541513621807,0.017459314316511154,0.0015936046838760376
1772562807616146000,0.27114599609375,-0.00005233404226601124,-0.004218242596834898,-0.0014245669590309262
1772562807626212900,0.281212890625,0.00037989718839526176,-0.020326372236013412,-0.0017699789023026824
1772562807636279800,0.29127978515625,0.0012322022812440991,-0.01395327690988779,0.0003660912625491619
1772562807646346800,0.3013466796875,-0.00019844784401357174,0.0014334022998809814,-0.0010693524964153767
1772562807656414700,0.311414794921875,0.00034233531914651394,0.014310138300061226,-0.0008451361209154129
1772562807666481700,0.321481689453125,-0.000514936400577426,0.011414749547839165,0.0027570556849241257
1772562807676548600,0.331548583984375,-0.00341128115542233,-0.0019610626623034477,-0.005204975605010986
1772562807686615800,0.34161572265625,-0.0005686229560524225,-0.011923682875931263,-0.0001279250718653202
1772562807696682800,0.351682861328125,-0.0011100468691438437,-0.009071357548236847,-0.0027445938903838396
1772562807706749700,0.361749755859375,0.002985628554597497,0.0017176410183310509,-0.0009032844100147486
1772562807716818000,0.37181787109375,-0.0001549620646983385,0.008259551599621773,0.0004995446652173996
1772562807726884900,0.381884765625,0.0015611788257956505,0.011241226457059383,0.0017344523221254349
1772562807736951800,0.391951904296875,-0.0014122300781309605,0.0022190778981894255,-0.0006658942438662052
1772562807747018800,0.402018798828125,-0.00027452781796455383,-0.007891081273555756,-0.001328755053691566
1772562807757085700,0.412085693359375,0.00011572614312171936,-0.008377380669116974,-0.002321406500414014
1772562807767153000,0.42215283203125,-0.0005431398749351501,-0.0015154797583818436,-0.0036370079033076763
1772562807777220600,0.432220703125,0.0004517217166721821,0.00843028910458088,-0.0024626164231449366
1772562807787287800,0.442287841796875,-0.00024975487031042576,0.007277939468622208,0.0022599673829972744
1772562807797354800,0.452354736328125,0.00195480533875525,0.005258011166006327,-0.0007849375251680613
1772562807807421700,0.462421630859375,-0.00021274155005812645,-0.0054428367875516415,0.0000867149792611599
1772562807817488600,0.472488525390625,0.00069762347266078,-0.0075610424391925335,-0.002111396286636591
1772562807827555800,0.482555908203125,-0.0010621934197843075,-0.0034784157760441303,0.00039650266990065575
1772562807837623800,0.492623779296875,-0.0005572561640292406,0.002423947909846902,-0.002064258325845003
1772562807847690800,0.502690673828125,-0.0007833587005734444,0.00956255104392767,-0.0015324249397963285
1772562807857757700,0.5127578125,0.0007625017315149307,0.004885326139628887,0.0010683960281312466
1772562807867825000,0.522824951171875,0.00023812521249055862,-0.0008226269856095314,0.0006513448897749186
1772562807877891800,0.532891845703125,0.0024080928415060043,-0.003391827456653118,0.0001188991591334343
1772562807887958800,0.542958740234375,0.00016943970695137978,-0.006114110350608826,0.0011306339874863625
1772562807898026800,0.55302685546875,-0.0005690434481948614,-0.002136038616299629,-0.0017970189219340682
1772562807908093700,0.56309375,-0.0014271140098571777,0.006005777046084404,-0.000835085054859519
1772562807918161000,0.573160888671875,0.0006292057223618031,0.00653749518096447,-0.000857772771269083
1772562807928228000,0.58322802734375,0.002912866184487939,0.004462892655283213,-0.0018790949834510684
1772562807938295000,0.593294921875,0.0022301827557384968,-0.0033593676052987576,0.0003550481051206589
1772562807948363000,0.603363037109375,-0.0001533464528620243,-0.00626221252605319,-0.0030665812082588673
1772562807958430000,0.613429931640625,0.0010942737571895123,-0.0027366536669433117,-0.0005299488548189402
1772562807968497200,0.6234970703125,0.00004472211003303528,0.00163625692948699,0.002213373314589262
1772562807978564000,0.633564208984375,0.000404054531827569,0.002149036852642894,0.002208189107477665
1772562807988631000,0.643631103515625,-0.0012068916112184525,0.0025106940884143114,0.001462770625948906
1772562807998698000,0.653697998046875,-0.00031359377317130566,-0.0008713989518582821,0.0016735680401325226
1772562808008766000,0.663765869140625,-0.0004065379034727812,-0.0026112422347068787,-0.000595445279031992
1772562808018833000,0.6738330078125,-0.00032388255931437016,-0.002951867412775755,0.0008452339097857475
1772562808028900000,0.683900146484375,0.0014095689402893186,-0.0017822068184614182,-0.0001182975247502327
1772562808038967000,0.693967041015625,-0.00023359479382634163,0.08532536774873734,0.018930187448859215
1772562808049034200,0.7040341796875,-0.001086605479940772,0.10152271389961243,-0.007581580430269241
1772562808059101200,0.71410107421875,0.00004834635183215141,-0.0011715861037373543,-0.008039326407015324
1772562808069169200,0.724169189453125,0.0014925786526873708,-0.1088423877954483,0.013513370417058468
1772562808079236000,0.734236083984375,0.00112256221473217,-0.1250104308128357,-0.017543524503707886
1772562808089303000,0.744302978515625,0.0008485231082886457,-0.0811614841222763,-0.00424103531986475
1772562808099370000,0.754369873046875,-0.0021431073546409607,0.056170202791690826,0.01296505331993103
1772562808109437000,0.76443701171875,-0.005624124780297279,0.1218581348657608,-0.008284308016300201
1772562808119504000,0.77450390625,-0.0030167079530656338,0.06598664820194244,0.018448399379849434
1772562808129571800,0.78457177734375,0.0014582015573978424,-0.024209024384617805,0.009441057220101357
1772562808139639000,0.79463916015625,0.0038143114652484655,-0.07391122728586197,-0.02384849637746811
1772562808149706200,0.804706298828125,0.0023245392367243767,-0.07190080732107162,-0.0071906899102032185
1772562808159773200,0.814773193359375,0.0011412911117076874,-0.01818609982728958,0.006999583914875984
1772562808169840000,0.824840087890625,-0.00010134000331163406,0.058396562933921814,0.003082873299717903
1772562808179907000,0.834906982421875,-0.0008404420223087072,0.0792311504483223,0.010302027687430382
1772562808189975000,0.84497509765625,0.0009694420732557774,0.027511227875947952,-0.0013599541271105409
1772562808200042000,0.8550419921875,0.00011420412920415401,-0.0436442494392395,-0.005680728703737259
1772562808210109000,0.86510888671875,0.002964052837342024,-0.06402701139450073,-0.0015624166699126363
1772562808220176000,0.87517578125,0.0007256804965436459,-0.02261270210146904,-0.00552033307030797
1772562808230243000,0.8852431640625,-0.0015268211718648672,0.02426851913332939,-0.0012510196538642049
1772562808240310000,0.89531005859375,0.00023058615624904633,0.04493773728609085,0.00849672220647335
1772562808250378200,0.905378173828125,0.0011709483806043863,0.03152312710881233,0.002250277902930975
1772562808260445200,0.915445068359375,-0.00021211826242506504,-0.0044513484463095665,-0.00033335667103528976
1772562808270512000,0.92551220703125,0.0017506314907222986,-0.03615255281329155,-0.004238083492964506
1772562808280579000,0.9355791015625,0.0024421452544629574,-0.03342938423156738,-0.003143546637147665
1772562808290646000,0.94564599609375,-0.0024554082192480564,-0.004571372177451849,0.0018240478821098804
1772562808300714000,0.9557138671875,-0.0026474238839000463,0.02736339159309864,0.003467218019068241
1772562808310781000,0.965781005859375,-0.0019046685192734003,0.032076120376586914,-0.00004069763235747814
1772562808320848000,0.975847900390625,0.0021682095248252153,0.007854852825403214,-0.0002358849160373211
1772562808330915000,0.9859150390625,0.0020888473372906446,-0.018119223415851593,0.0007612025365233421
1772562808340982000,0.99598193359375,0.0014184281462803483,-0.023771243169903755,-0.0032315836288034916
1772562808351049000,1.006049072265625,-0.00017520738765597343,-0.010775282979011536,-0.0019335588440299034
1772562808361117200,1.0161171875,0.0014304810902103782,0.01017786841839552,-0.0003537433221936226
1772562808371184000,1.02618408203125,-0.0006965857464820147,0.019931696355342865,0.001965603791177273
1772562808381251000,1.0362509765625,-0.0023857441265136003,0.012463090941309929,0.0018732943572103977
1772562808391318000,1.046318115234375,-0.0012706785928457975,-0.005605391692370176,-0.001642078161239624
1772562808401385000,1.056385009765625,0.0036503481678664684,-0.017133701592683792,-0.0013552623568102717
1772562808411452200,1.0664521484375,-0.00041470094583928585,-0.010565281845629215,0.002499663271009922
1772562808421520000,1.076519775390625,0.0007498033810406923,0.004302275367081165,-0.0008924673311412334
1772562808431587000,1.086587158203125,0.0006914802361279726,0.012795096263289452,0.0008633546531200409
1772562808441654000,1.096654052734375,0.0014509177999570966,0.004321643617004156,0.0012987195514142513
1772562808451721000,1.106720947265625,-0.0012615115847438574,-0.006144312676042318,-0.0010919999331235886
1772562808461788000,1.116787841796875,-0.00018452992662787437,-0.009511347860097885,-0.00139373610727489
1772562808471854800,1.126854736328125,-0.0006644316017627716,-0.004723783116787672,-0.0006267458666115999
1772562808481923000,1.136923095703125,0.0009876068215817213,0.0050921388901770115,-0.0018265109974890947
1772562808491990000,1.146989990234375,0.0007647003512829542,0.007869815453886986,0.0023152371868491173
1772562808502057000,1.157056884765625,-0.0005691596306860447,0.0051371692679822445,0.001628123689442873
1772562808512124200,1.167124267578125,-0.0009651717264205217,-0.0025564366951584816,0.0009016133844852448
1772562808522191000,1.177191162109375,-0.002505043987184763,-0.007994137704372406,0.0007251657079905272
1772562808532258000,1.187258056640625,-0.0008086105808615685,-0.007614904548972845,0.00046257791109383106
1772562808542326000,1.197325927734375,-0.0004438420291990042,0.0016627863515168428,-0.0024148032534867525
1772562808552393000,1.20739306640625,-0.0011586346663534641,0.0064218551851809025,-0.0007042549550533295
1772562808562460000,1.2174599609375,0.00033736019395291805,0.004605385009199381,-0.0030038326513022184
1772562808572526800,1.22752685546875,-0.0014173963572829962,0.00043647270649671555,-0.0016389625379815698
1772562808582593800,1.23759375,-0.00131468684412539,-0.006929449271410704,0.0016279881820082664
1772562808592661200,1.2476611328125,-0.0009018972050398588,-0.006211194675415754,0.0008460842072963715
1772562808602729000,1.25772900390625,0.001323340809904039,-0.003856953699141741,-0.002236700151115656
1772562808612796200,1.267796142578125,-0.001709200907498598,0.0034222640097141266,0.0005505641456693411
1772562808622863000,1.277863037109375,0.0022061862982809544,0.004650169052183628,-0.0008123284205794334
1772562808632930000,1.287929931640625,0.0011126925237476826,0.0037100734189152718,-0.00007143709808588028
1772562808642997000,1.2979970703125,0.0013602786930277944,-0.0037543862126767635,0.0003179684281349182
1772562808653064000,1.30806396484375,-0.0012908983044326305,-0.01000988483428955,0.0006671086885035038
1772562808663132000,1.3181318359375,-0.0005182221066206694,-0.0042533110827207565,-0.0017979643307626247
1772562808673198800,1.32819873046875,-0.00022101332433521748,0.0019952638540416956,0.0011861077509820461
1772562808683266000,1.33826611328125,-0.0007395271677523851,0.005205438006669283,-0.003427286399528384
1772562808693333000,1.3483330078125,-0.0009595041628926992,0.005813970230519772,-0.00023335730656981468
1772562808703400200,1.358400146484375,0.0010841416660696268,0.004061676096171141,-0.000576667720451951
1772562808713467100,1.368467041015625,-0.0010644965805113316,-0.005410921759903431,-0.004239313304424286
1772562808723535000,1.37853515625,-0.0011552381329238415,-0.004888208582997322,0.0011589433997869492
1772562808733602000,1.38860205078125,0.00016276049427688122,-0.004157703369855881,0.0023677521385252476
1772562808743669000,1.3986689453125,0.00023519177921116352,0.0023283162154257298,-0.0014062718255445361
1772562808753736000,1.40873583984375,-0.0000857191625982523,0.005945688113570213,0.0010765930637717247
1772562808763803000,1.418802978515625,0.0012314037885516882,0.00406073871999979,0.0005715438164770603
1772562808773870000,1.4288701171875,0.0006106209475547075,-0.001713526900857687,-0.0011930667096748948
1772562808783938000,1.43893798828125,-0.0011589834466576576,-0.002810581587255001,0.0016108257696032524
1772562808794005000,1.4490048828125,0.0006463734898716211,-0.0018859319388866425,-0.003251040820032358
1772562808804072200,1.459072265625,0.000034817494451999664,0.0002515772357583046,-0.004419690929353237
1772562808814139100,1.46913916015625,-0.0008394983597099781,0.002562402281910181,-0.0004140303935855627
1772562808824206000,1.4792060546875,-0.00012492830865085125,0.003214264754205942,0.0011840453371405602
1772562808834273000,1.48927294921875,-0.0006479732692241669,0.0028305035084486008,0.0004737800918519497
1772562808844341000,1.499341064453125,-0.001013676868751645,-0.0027606887742877007,-0.0007309434004127979
1772562808854408000,1.509407958984375,0.0006382821593433619,-0.0015662610530853271,0.003438235493376851
1772562808864475100,1.51947509765625,-0.0012985710054636002,-0.002027065958827734,-0.0028065189253538847
1772562808874542000,1.5295419921875,0.000653792405501008,-0.0021343915723264217,0.0014992801006883383
1772562808884609000,1.539609130859375,0.0012265047989785671,-0.001955802086740732,0.0014047941658645868
1772562808894676000,1.549676025390625,-0.000612141564488411,0.0017513183411210775,0.000014623859897255898
1772562808904744000,1.559743896484375,0.0004202688578516245,0.0037659998051822186,-0.0005763364024460316
1772562808914811100,1.56981103515625,-0.0005374038591980934,0.00027672620490193367,0.00004764227196574211
1772562808924877800,1.5798779296875,-0.0002815553452819586,-0.0016605062410235405,-0.002070424612611532
1772562808934944800,1.58994482421875,-0.0013502819929271936,0.0016556617338210344,-0.0014192817034199834
1772562808945012000,1.600011962890625,-0.0000064158812165260315,-0.0007206043228507042,-0.001229533227160573
1772562808955079700,1.61007958984375,-0.000267671886831522,-0.0008761328645050526,0.001954808598384261
1772562808965147000,1.62014697265625,-0.0007080989889800549,0.0018136235885322094,0.0008255746215581894
1772562808975213800,1.6302138671875,0.00047061615623533726,0.000016256235539913177,-0.0020407855045050383
1772562808985280800,1.64028076171875,-0.00111099099740386,-0.00035082967951893806,0.0012421607971191406
1772562808995347700,1.65034765625,0.0007761248853057623,0.0007943296805024147,-0.001556555274873972
1772562809005414700,1.66041455078125,0.0011760150082409382,0.0019077840261161327,-0.002171894069761038
1772562809015482600,1.670482666015625,-0.001412577461451292,-0.002640362363308668,0.003060152055695653
1772562809025549800,1.6805498046875,-0.0011478227097541094,-0.0009870287030935287,-0.00251702219247818
1772562809035616800,1.69061669921875,0.0010527472477406263,-0.0008530719205737114,0.001198886428028345
1772562809045684000,1.70068408203125,0.0010787954088300467,-0.0003031291998922825,0.0008875399362295866
1772562809055751000,1.7107509765625,-0.0009140479378402233,0.0015741330571472645,0.002626317786052823
1772562809065817900,1.72081787109375,-0.0008640938904136419,0.0007780538871884346,-0.0015937330899760127
1772562809075885800,1.7308857421875,-0.0003879205323755741,-0.001961273606866598,0.0009722227696329355
1772562809085952800,1.740952880859375,0.000850210664793849,0.00007100868970155716,-0.0036333263851702213
1772562809096019700,1.751019775390625,0.0014022840186953545,-0.001242995262145996,0.0003550236579030752
1772562809106086700,1.761086669921875,0.0010702277068048716,0.0013759143184870481,-0.0015965633792802691
1772562809116153600,1.771153564453125,-0.0015151689294725657,0.0002632457762956619,0.0010575430933386087
1772562809126220800,1.781220703125,0.0011029958259314299,0.0006346907466650009,-0.0017574072116985917
1772562809136288800,1.791288818359375,0.001993556972593069,0.0011356312315911055,0.000016790581867098808
1772562809146356000,1.80135595703125,0.00043257931247353554,-0.0013556829653680325,-0.0011338607873767614
1772562809156423000,1.8114228515625,0.0004538844805210829,-0.00044727884232997894,-0.0006792591884732246
1772562809166489900,1.82148974609375,0.0008675295393913984,-0.003033698070794344,-0.0005750851705670357
1772562809176556800,1.831556884765625,-0.00015059695579111576,0.0018513381946831942,-0.0005503178108483553
1772562809186623700,1.841623779296875,0.0023847841657698154,0.0018020269926637411,0.00231354427523911
1772562809196691700,1.851691650390625,0.00026091327890753746,0.00032796710729599,0.0006876846309751272
1772562809206758700,1.861758544921875,-0.0014021832030266523,0.001316332258284092,0.00024385051801800728
1772562809216825600,1.87182568359375,0.0020551325287669897,-0.0002999403513967991,0.0004614309873431921
1772562809226892800,1.881892822265625,-0.0014595992397516966,-0.0006878837011754513,0.0025089082773774862
1772562809236959700,1.891959716796875,0.0008198001887649298,0.0008282540366053581,-0.0019971602596342564
1772562809247026700,1.902026611328125,0.0031265798024833202,0.000027822330594062805,-0.002733032451942563
1772562809257095000,1.912094970703125,0.00011374568566679955,-0.0020547695457935333,0.00039564911276102066
1772562809267161900,1.922161865234375,-0.0004799377638846636,0.00024283118546009064,0.0007626975420862436
1772562809277228800,1.932228759765625,-0.0013723631855100393,-0.0008187047205865383,0.0008130313362926245
1772562809287295700,1.942295654296875,0.0020869614090770483,-0.0010389606468379498,-0.002028419403359294
1772562809297362700,1.95236279296875,-0.0005405133124440908,-0.00033748382702469826,-0.00033704587258398533
1772562809307430000,1.962429931640625,-0.0013470780104398727,-0.0001330156810581684,0.001614659558981657
1772562809317497900,1.972497802734375,0.0023837443441152573,0.0007104077376425266,0.00014779041521251202
1772562809327564800,1.982564697265625,-0.0003104177303612232,0.0008265161886811256,-0.0030467503238469362
1772562809337631700,1.9926318359375,0.0014174410607665777,0.0002507409080862999,-0.0021039913408458233
1772562809347698700,2.00269873046875,0.0023842710070312023,0.0011216311249881983,-0.0010607503354549408
1772562809357765600,2.012765625,0.0023123654536902905,-0.000494108535349369,0.001199207967147231
1772562809367832600,2.02283251953125,0.0002761026844382286,-0.0018670507706701756,-0.0025232313200831413
1772562809377900800,2.03290087890625,0.0005120588466525078,-0.002216723747551441,0.004822033457458019
1772562809387967700,2.0429677734375,0.00021882308647036552,-0.0003934968262910843,-0.0005820943042635918
1772562809398034700,2.05303466796875,0.0025821123272180557,-0.0008851164020597935,0.0015508313663303852
1772562809408102000,2.063101806640625,0.0005979354027658701,0.00024048564955592155,-0.0003324151039123535
1772562809418168800,2.0731689453125,-0.0013080888893455267,0.0005182530730962753,-0.002146560698747635
1772562809428235800,2.08323583984375,0.0003754543140530586,0.0002863965928554535,-0.0021582385525107384
1772562809438303700,2.0933037109375,-0.001369981560856104,0.0016968066338449717,0.00121598644182086
1772562809448370700,2.10337060546875,-0.001050726044923067,-0.00021427683532238007,-0.00006009521894156933
1772562809458437600,2.113437744140625,0.002290475880727172,0.0013628469314426184,0.0032390288542956114
1772562809468504600,2.123504638671875,-0.0014946439769119024,0.001487111672759056,0.0008200134616345167
1772562809478571800,2.13357177734375,0.00023135053925216198,0.0001390194520354271,0.0014330733101814985
1772562809488639000,2.143638916015625,-0.000025253742933273315,0.00048218900337815285,0.0011091630440205336
1772562809498707000,2.15370703125,-0.0012228772975504398,0.0001506255939602852,-0.0007614411879330873
1772562809508774000,2.16377392578125,0.0026019951328635216,0.0006694239564239979,0.00035187695175409317
1772562809518840800,2.1738408203125,-0.001538954209536314,0.00006914744153618813,-0.0009040699806064367
1772562809528907800,2.18390771484375,-0.001279827207326889,-0.0000063641928136348724,0.00004107295535504818
1772562809538974700,2.193974609375,0.0012914546532556415,-0.0025547430850565434,-0.0013988983118906617
1772562809549042700,2.204042724609375,0.000003168126568198204,0.00002583349123597145,-0.001662160735577345
1772562809559109600,2.214109619140625,-0.00017686164937913418,-0.00014860322698950768,0.00018900237046182156
1772562809569176600,2.224176513671875,0.00005567003972828388,0.002076266333460808,0.0007639741525053978
1772562809579243800,2.234243896484375,0.00026339665055274963,-0.00019993726164102554,-0.005405238829553127
1772562809589311000,2.24431103515625,0.0010652479249984026,0.002052061725407839,-0.0026383018121123314
1772562809599378000,2.2543779296875,-0.0009507648646831512,0.000051495153456926346,0.00021128053776919842
1772562809609446000,2.26444580078125,-0.001029744977131486,0.0012485189363360405,0.0019491675775498152
1772562809619512800,2.274512939453125,-0.0012571790721267462,-0.0018002679571509361,0.0010639328975230455
1772562809629579800,2.284579833984375,-0.0016162125393748283,-0.00007098354399204254,-0.0014330194098874927
1772562809639646700,2.294646728515625,0.0006626544054597616,0.0014680572785437107,-0.0008993218652904034
1772562809649713700,2.304713623046875,0.00008449307642877102,-0.002133350819349289,0.00009466661140322685
1772562809659780900,2.31478076171875,-0.0003844895400106907,-0.0006108218804001808,0.00004912656731903553
1772562809669848600,2.3248486328125,-0.0013901412021368742,-0.0008771601133048534,-0.0012008966878056526
1772562809679915800,2.334915771484375,0.002463186625391245,0.000048022251576185226,-0.001092506106942892
1772562809689983000,2.34498291015625,-0.0012510076630860567,-0.000649056863039732,-0.0006138919852674007
1772562809700050000,2.3550498046875,0.000029173679649829865,0.0006071566604077816,0.0007184874266386032
1772562809710116900,2.365116943359375,0.0008496646769344807,1.2014061212539673e-7,-0.003032665466889739
1772562809720183800,2.375183837890625,-0.0015676866751164198,-0.0009333179332315922,-0.002612684853374958
1772562809730251800,2.385251708984375,0.0013396658468991518,-0.0015919096767902374,-0.0012788152089342475
1772562809740318700,2.395318603515625,0.0012017140397801995,0.00016923900693655014,-0.0007294050883501768
1772562809750385700,2.4053857421875,-0.0029827216640114784,0.00135990628041327,-0.001235178904607892
1772562809760452900,2.415452880859375,0.0005715333390980959,-0.000648916233330965,-0.00039495155215263367
1772562809770519800,2.425519775390625,0.0006125185173004866,0.0027999947778880596,0.0018778787925839424
1772562809780586800,2.435586669921875,-0.002227476332336664,0.0015789354220032692,0.0005428362637758255
1772562809790654700,2.44565478515625,-0.0013290699571371078,-0.000367805827409029,-0.0014421814121305943
1772562809800722000,2.455721923828125,0.00016602850519120693,0.00025590648874640465,-0.004762077704071999
1772562809810788900,2.465788818359375,-0.0005504190921783447,0.0018133039120584726,0.0033717278856784105
1772562809820855800,2.475855712890625,-0.0005139338318258524,-0.0006743548437952995,-0.0010757511481642723
1772562809830922800,2.4859228515625,0.000023928703740239143,-0.000022551510483026505,-0.0009604920633137226
1772562809840990000,2.495989990234375,0.000451632309705019,0.0016190209425985813,0.0002744158264249563
1772562809851057700,2.5060576171875,-0.0012058671563863754,0.00014223391190171242,0.0012856691610068083
1772562809861124900,2.516124755859375,-0.001588829793035984,-0.0005328771658241749,0.000001759268343448639
1772562809871191800,2.52619189453125,-0.001782662933692336,-0.0007971636950969696,0.000377236632630229
1772562809881258800,2.5362587890625,-0.00012724194675683975,-0.0007010237313807011,-0.0013735255924984813
1772562809891325700,2.54632568359375,0.00039706239476799965,-0.00021181348711252213,-0.001599889132194221
1772562809901392600,2.556392578125,-0.001182192238047719,-0.0006799972616136074,-0.002061681356281042
1772562809911460900,2.5664609375,-0.002467010635882616,0.0017835649196058512,-0.0007627382874488831
1772562809921528300,2.5765283203125,0.0010241272393614054,0.002607813337817788,-0.0002881630789488554
1772562809931595500,2.586595458984375,-0.0004461565986275673,0.001519991084933281,-0.003649507649242878
1772562809941662500,2.596662353515625,-0.0013369841035455465,0.00025339145213365555,-0.0035797327291220427
1772562809951729700,2.606729736328125,0.0015052868984639645,0.0009762910194694996,0.0008171114604920149
1772562809961796600,2.616796630859375,-0.001313935499638319,0.001010113162919879,0.00006210501305758953
1772562809971864600,2.626864501953125,-0.0008042301051318645,-0.00061400281265378,0.0023946810979396105
1772562809981931500,2.636931640625,0.00024185958318412304,0.0016486190725117922,-0.0010839400347322226
1772562809991998500,2.64699853515625,-0.00048512103967368603,-0.0005312114953994751,0.0025304316077381372
1772562810002065400,2.6570654296875,0.0008097079116851091,0.0008397838100790977,-0.00009784195572137833
1772562810012132400,2.66713232421875,-0.0007983164396136999,0.0011758101172745228,-0.0007467016112059355
1772562810022200300,2.677200439453125,0.0005955821834504604,0.00037712836638092995,0.001275703078135848
1772562810032267300,2.687267333984375,0.0003835239913314581,-0.0012735254131257534,0.0004551976453512907
1772562810042334500,2.69733447265625,0.0006692812312394381,-0.0009526149369776249,-0.0022439160384237766
1772562810052401700,2.707401611328125,-0.0017711955588310957,0.0030119512230157852,0.0015728205908089876
1772562810062468600,2.717468505859375,-0.0010686537716537714,0.0008864826522767544,0.002559521934017539
1772562810072535600,2.72753564453125,0.0013699800474569201,-0.0007909615524113178,-0.000033518532291054726
1772562810082603500,2.737603515625,0.0009816912934184074,-0.00046152854338288307,-0.0004819948226213455
1772562810092670500,2.74767041015625,0.0004528048448264599,-0.0004714401438832283,-0.0003354328218847513
1772562810102737400,2.7577373046875,-0.00038795522414147854,-0.0007036682218313217,0.0009668527636677027
1772562810112804400,2.767804443359375,0.0006966458167880774,-0.0015979357995092869,-0.0018536864081397653
1772562810122871300,2.777871337890625,0.0005885213613510132,-0.0007065758109092712,-0.00026324670761823654
1772562810132938500,2.7879384765625,0.00032384484075009823,-0.0006075636483728886,-0.0006470659282058477
1772562810143006500,2.79800634765625,0.0007906968239694834,0.0003969809040427208,0.0009588201064616442
1772562810153073700,2.80807373046875,-0.00043727108277380466,-0.0009749685414135456,-0.0015587435336783528
1772562810163140600,2.818140625,-0.0012210393324494362,-0.003229334484785795,-0.0023052275646477938
1772562810173207600,2.82820751953125,0.00014962954446673393,-0.00100259343162179,-0.0017663846956565976
1772562810183274500,2.8382744140625,0.0018122410401701927,0.0013146228156983852,0.0012174209114164114
1772562810193341400,2.848341552734375,-0.0006891682278364897,0.0013507693074643612,-0.0009091668762266636
1772562810203409400,2.858409423828125,0.0014397627674043179,0.000597893726080656,0.003198759164661169
1772562810213476400,2.868476318359375,-0.0006319708190858364,0.0018469342030584812,0.0005389628931879997
1772562810223543300,2.878543212890625,0.0010109331924468279,-0.0005789389833807945,-0.0002472023479640484
1772562810233610500,2.888610595703125,-0.00048357341438531876,0.00008555501699447632,0.0006307808216661215
1772562810243677400,2.898677490234375,0.0009795671794563532,-0.001198621466755867,-0.0025820566806942225
1772562810253744400,2.908744384765625,-0.0000390135683119297,0.000907169422134757,-0.002869850490242243
1772562810263812600,2.9188125,-0.0013029498513787985,0.0020669761579483747,-0.0017348112305626273
1772562810273879600,2.928879638671875,-0.00040775793604552746,0.0003948388621211052,-0.0022432482801377773
1772562810283946500,2.938946533203125,0.0006031780503690243,-0.0005591055378317833,-0.00003415602259337902
1772562810294013400,2.949013427734375,-0.0016997712664306164,0.0005670357495546341,-0.002724492223933339
1772562810304080400,2.959080322265625,0.0010568667203187943,-0.0006620129570364952,-0.000504747498780489
1772562810314147600,2.969147705078125,0.0003960304893553257,0.001471549505367875,0.0023662338498979807
1772562810324215300,2.97921533203125,0.00011639855802059174,-0.0004432634450495243,-0.00018534064292907715
1772562810334282500,2.989282470703125,0.0008089186158031225,0.002001069486141205,0.0032066565472632647
1772562810344349400,2.999349365234375,0.000283743254840374,0.0029997548554092646,0.0014247351791709661
1772562810354416400,3.00941650390625,-0.00014630774967372417,-0.00020281458273530006,-0.0008816206827759743
1772562810364483300,3.0194833984375,-0.0006315356586128473,-0.002372225746512413,0.003917395602911711
1772562810374550300,3.02955029296875,-0.001158618601039052,-0.0006762268021702766,-0.002941146492958069
1772562810384618500,3.039618408203125,0.00035831774584949017,0.0003261868841946125,0.00045438390225172043
1772562810394685400,3.049685546875,0.0013295616954565048,0.0000793328508734703,0.001980359200388193
1772562810404752400,3.05975244140625,-0.0003764592111110687,-0.000650639645755291,0.003634981345385313
1772562810414819600,3.069819580078125,-0.0005789732094854116,-0.0008354098536074162,0.0013407091610133648
1772562810424886500,3.079886474609375,0.0005930839106440544,0.002160113537684083,-0.0002436051145195961
1772562810434953500,3.089953369140625,0.00040505663491785526,-0.0001354585401713848,-0.0005321309436112642
1772562810445021400,3.100021484375,0.0024021612480282784,-0.0005679558962583542,-0.001126548508182168
1772562810455088400,3.11008837890625,-0.00023793010041117668,0.00009627686813473701,0.002310402924194932
1772562810465155300,3.1201552734375,-0.003006019862368703,0.0009375694207847118,-0.0009455778636038303
1772562810475222300,3.13022216796875,0.0021212082356214523,-0.000021672341972589493,0.00031621987000107765
1772562810485289200,3.140289306640625,0.0015347800217568874,-0.0009364685975015163,-0.0005325295496731997
1772562810495357400,3.150357421875,-0.00028354721143841743,0.002418744843453169,0.00037904526107013226
1772562810505424400,3.16042431640625,0.002163631608709693,0.0019388431683182716,-0.002081715501844883
1772562810515491600,3.17049169921875,-0.0005444991402328014,-0.0001401207409799099,0.0017012290190905333
1772562810525558500,3.18055859375,0.00208989973179996,-0.00034944526851177216,0.0016546237748116255
1772562810535625500,3.19062548828125,-0.0011920526158064604,-0.0006209458224475384,-0.0014322908828034997
1772562810545692400,3.2006923828125,-0.0014056384097784758,-0.0009991149418056011,-0.00009298720397055149
1772562810555760400,3.210760498046875,0.0010047606192529202,-0.00017112912610173225,-0.0008384711109101772
1772562810565827300,3.220827392578125,-0.000579287763684988,-0.0012361276894807816,0.002128823194652796
1772562810575894300,3.230894287109375,-0.0017324606887996197,0.0005200370214879513,0.001478968420997262
1772562810585961200,3.240961181640625,-0.0004642633721232414,0.0005589188076555729,-0.00042625702917575836
1772562810596028400,3.2510283203125,-0.00031117978505790234,-0.0027743102982640266,0.000014429911971092224
1772562810606095600,3.261095703125,-0.0024568887893110514,0.00005343416705727577,0.0021044788882136345
1772562810616163600,3.27116357421875,-0.0004098427016288042,0.0011494169011712074,-0.00004455260932445526
1772562810626230500,3.28123046875,0.0025406735949218273,0.0014426310081034899,0.002532854676246643
1772562810636297500,3.29129736328125,0.0009578829631209373,0.0002338397316634655,-0.003472633194178343
1772562810646364400,3.301364501953125,-0.0015361674595624208,0.00041440175846219063,-0.000772454310208559
1772562810656431400,3.311431396484375,-0.00009849574416875839,-0.0035547283478081226,0.0026987476740032434
1772562810666498300,3.321498291015625,0.00015770038589835167,-0.0006960909813642502,0.0013429319951683283
1772562810676566300,3.331566162109375,-0.0014674249105155468,0.0010119581129401922,-0.0030272542499005795
1772562810686633500,3.341633544921875,-0.0031044702045619488,-0.003024062607437372,0.0010170219466090202
1772562810696700400,3.351700439453125,0.0004672589711844921,-0.0008159023709595203,-0.0013519878266379237
1772562810706767600,3.361767578125,-0.00361536699347198,0.0017750870902091265,0.0022749712225049734
1772562810716834600,3.37183447265625,-0.0014464764390140772,-0.00038281548768281937,-0.0008398185018450022
1772562810726901500,3.381901611328125,0.0008821918163448572,0.0003439611755311489,0.00024568592198193073
1772562810736969500,3.391969482421875,-0.0006188827101141214,-0.0014251479879021645,-0.001593777909874916
1772562810747036400,3.402036376953125,-0.0008428546134382486,-0.000541777815669775,0.0009910862427204847
1772562810757103400,3.412103271484375,-0.001254203962162137,-0.0021685827523469925,-0.000891075236722827
1772562810767170300,3.42217041015625,0.0008635418489575386,0.001424554269760847,-0.0007802876643836498
1772562810777237500,3.432237548828125,-0.0034176011104136705,-0.0018816879019141197,-0.0003015287220478058
1772562810787304400,3.442304443359375,-0.0008945225272327662,-0.0008718175813555717,0.0028162337839603424
1772562810797372400,3.452372314453125,0.00018814881332218647,-0.0029649646021425724,0.00027854926884174347
1772562810807439400,3.462439453125,-0.0007101353257894516,-0.0016498956829309464,-0.0022115064784884453
1772562810817506600,3.472506591796875,-0.0007432594429701567,-0.00045004952698946,-0.00011151190847158432
1772562810827573500,3.482573486328125,0.0005156169645488262,0.0004903124645352364,-0.0012327026342973113
1772562810837640400,3.492640380859375,0.0006839323323220015,0.00042227981612086296,-0.002578851068392396
1772562810847708400,3.50270849609375,0.00004850211553275585,0.00158554851077497,0.0010584944393485785
1772562810857775400,3.512775390625,0.0001610561739653349,-0.00015441933646798134,-0.000038746511563658714
1772562810867842600,3.522842529296875,0.0010236541274935007,0.0001981831155717373,0.00122385798022151
1772562810877909500,3.532909423828125,-0.0006881796289235353,0.0008257469162344933,-0.0003497765865176916
1772562810887976400,3.5429765625,0.0018407580209895968,-0.0017676390707492828,-0.0006890634540468454
1772562810898043400,3.55304345703125,-0.001545029692351818,-0.0031644292175769806,-0.0002865435089915991
1772562810908111400,3.563111328125,0.0007809752132743597,-0.0009643915109336376,-0.0006572555284947157
1772562810918178300,3.57317822265625,-0.0027736525516957045,-0.0010565156117081642,0.0005132523365318775
1772562810928245200,3.583245361328125,-0.0022663201671093702,-0.000862371176481247,0.0019204667769372463
1772562810938312200,3.593312255859375,0.0006446982733905315,-0.0018834755755960941,-0.0003325005527585745
1772562810948379400,3.60337939453125,-0.0014674547128379345,-0.002613447606563568,-0.0034470674581825733
1772562810958446300,3.6134462890625,-0.0011093590874224901,-0.00031730392947793007,0.0004988971631973982
1772562810968514300,3.623514404296875,-0.0013114928733557463,0.0009748616721481085,-0.0011035269126296043
1772562810978581200,3.633581298828125,0.0006372490897774696,0.0008730960544198751,0.00047803926281630993
1772562810988648200,3.643648193359375,-0.00101524218916893,0.0001287427730858326,-0.000014379387721419334
1772562810998715100,3.653715087890625,-0.0004152897745370865,0.00021492177620530128,-0.002684295177459717
1772562811008782300,3.6637822265625,-0.0008722881320863962,0.000030098482966423035,-0.0005939800757914782
1772562811018849300,3.673849365234375,-0.0037602155935019255,-0.0004742555320262909,0.0010281512513756752
1772562811028917200,3.683917236328125,-0.0010672274511307478,-0.0005070124752819538,0.0031810509972274303
1772562811038984200,3.693984130859375,0.0006612963043153286,0.0008851625025272369,0.0037028861697763205
1772562811049051400,3.704051513671875,-0.0008551075588911772,-0.000185428187251091,-0.0012593818828463554
1772562811059118300,3.714118408203125,0.00006249290890991688,-0.0019267522729933262,0.0022051045671105385
1772562811069185300,3.724185302734375,-0.001930084079504013,0.002881052438169718,0.0008439631201326847
1772562811079252200,3.734252197265625,0.0011268284870311618,0.0020051845349371433,-0.00012317858636379242
1772562811089320200,3.7443203125,-0.00036241114139556885,-0.0010989960283041,0.0026007024571299553
1772562811099387100,3.75438720703125,-0.000556556973606348,-0.0013753687962889671,0.0026370373088866472
1772562811109454300,3.764454345703125,-0.0016010487452149391,-0.001135950442403555,0.0002492472995072603
1772562811119521300,3.774521240234375,-0.0016604829579591751,-0.0006538103334605694,0.002748302184045315
1772562811129588500,3.78458837890625,0.0022442436311393976,0.00044101523235440254,-0.0024224910885095596
1772562811139655400,3.794655517578125,0.0019764467142522335,0.002105389256030321,-0.0046173883602023125
1772562811149723400,3.804723388671875,-0.001986869378015399,0.0004014987498521805,0.002420813776552677
1772562811159790300,3.814790283203125,-0.0009321568068116903,0.0029086885042488575,-0.00039666215889155865
1772562811169857300,3.824857177734375,-0.00035105529241263866,-0.0006698011420667171,-0.0009250333532691002
1772562811179924200,3.83492431640625,-0.0006712460890412331,-0.002043311484158039,-0.0006249872967600822
1772562811189991200,3.8449912109375,0.0014632774982601404,-0.0005562026053667068,-0.00044229463674128056
1772562811200059100,3.85505908203125,0.0007784743793308735,0.0029809963889420033,-0.002044615801423788
1772562811210126000,3.8651259765625,-0.0003863922320306301,0.0013679196126759052,0.0014622348826378584
1772562811220193300,3.875193359375,-0.0001280300784856081,-0.0015774299390614033,0.00017428817227482796
1772562811230260500,3.885260498046875,-0.002170141786336899,-0.00020776595920324326,-0.00009548990055918694
1772562811240327400,3.895327392578125,0.0008691663388162851,0.001840832643210888,0.0000866034533828497
1772562811250394400,3.905394287109375,-0.0009290000889450312,0.00028741080313920975,-0.0022705604787915945
1772562811260461300,3.91546142578125,0.0005442912224680185,-0.0007904381491243839,0.0001875343732535839
1772562811270529300,3.925529296875,0.0024630988482385874,0.0002881418913602829,0.002974798670038581
1772562811280596200,3.93559619140625,0.0003398503176867962,-0.0009628413245081902,-0.0005145701579749584
1772562811290663200,3.9456630859375,0.0013635695213451982,0.0005975048989057541,-0.0007582493126392365
1772562811300730000,3.955730224609375,-0.00085298134945333,0.0019383439794182777,-0.0010854953434318304
1772562811310797300,3.96579736328125,-0.0007405958604067564,-0.0007293443195521832,-0.0026748699601739645
1772562811320864300,3.9758642578125,-0.0007430310361087322,0.0005498300306499004,-0.00021212175488471985
1772562811330932500,3.985932373046875,-0.001054620835930109,-0.0008089146576821804,0.0013218591921031475
1772562811340999400,3.99599951171875,-0.0003240599762648344,0.0026379104238003492,-0.0009588447865098715
1772562811351066400,4.00606640625,0.0013928801054134965,0.001995023339986801,-0.0015122495824471116
1772562811361133300,4.01613330078125,-0.00016892515122890472,0.0002869251184165478,0.00008429773151874542
1772562811371200300,4.0262001953125,0.0032532368786633015,-0.0017509255558252335,0.0011972326319664717
1772562811381268200,4.036268310546875,-0.001132412813603878,0.0019193028565496206,-0.002397629665210843
1772562811391335200,4.046335205078125,0.0024346252903342247,-0.0005654264241456985,-0.001591224456205964
1772562811401402000,4.056402099609375,-0.0004145579878240824,0.002019447972998023,-0.002702610334381461
1772562811411469300,4.06646923828125,-0.0000523680355399847,-0.0007337280549108982,-0.0024639912880957127
1772562811421536300,4.076536376953125,-0.000897333724424243,-0.0004619467072188854,0.0007523973472416401
1772562811431603200,4.086603271484375,-0.00025151693262159824,-0.000290438998490572,-0.0006292506586760283
1772562811441671400,4.09667138671875,-0.00012977700680494308,-0.0019209743477404118,-0.003905330318957567
1772562811451738400,4.10673828125,-0.000009402167052030563,0.0019459354225546122,0.00232806452549994
1772562811461805300,4.116805419921875,-0.0016204677522182465,0.0007164771668612957,-0.0014283169293776155
1772562811471872300,4.126872314453125,0.0013918338809162378,0.0009881197474896908,0.001601561438292265
1772562811481939200,4.136939208984375,0.0014695426216349006,0.0009310534223914146,0.00029586744494736195
1772562811492006400,4.14700634765625,-0.00035232584923505783,0.00018377043306827545,-0.0014921787660568953
1772562811502074400,4.157074462890625,0.002028706017881632,0.0016715151723474264,0.002233409322798252
1772562811512141300,4.167141357421875,0.001665717107243836,0.002512275008484721,-0.0006744961719959974
1772562811522208300,4.177208251953125,-0.0002612932585179806,0.004083862993866205,0.002392364898696542
1772562811532275200,4.187275146484375,-0.0002663533668965101,-0.0031434237025678158,0.003485859138891101
1772562811542342100,4.197342041015625,0.00012650410644710064,-0.00013191485777497292,0.0027277034241706133
1772562811552409000,4.2074091796875,0.000038087135180830956,0.0006425324827432632,-0.002040154067799449
1772562811562477300,4.217477294921875,0.0009962937328964472,0.000119007658213377,0.0033398373052477837
1772562811572544300,4.227544189453125,-0.0012575394939631224,-0.00040084170177578926,0.0012540495954453945
1772562811582611200,4.237611083984375,0.0003945189528167248,0.0005012219771742821,0.00007787463255226612
1772562811592678400,4.247678466796875,-0.0011764795053750277,-0.0004671034403145313,-0.001353041734546423
1772562811602745300,4.257745361328125,0.00104597769677639,0.0010058358311653137,-0.00008366769179701805
1772562811612812300,4.267812255859375,0.00034822942689061165,0.0007048984989523888,0.002671638736501336
1772562811622880300,4.27788037109375,0.0012286595301702619,-0.0007307953201234341,-0.00008663861081004143
1772562811632947200,4.287947265625,-0.0014110656920820475,-0.0014559742994606495,0.00019192788749933243
1772562811643014100,4.29801416015625,0.0023311972618103027,0.003709436161443591,-0.0030306403059512377
1772562811653081000,4.3080810546875,-0.0006403576117008924,-0.00040754443034529686,0.0017228361684828997
1772562811663148300,4.318148193359375,0.0011104100849479437,-0.00006257928907871246,-0.0022650393657386303
1772562811673215500,4.328215576171875,0.0008795140311121941,0.0004229149781167507,-0.00016247364692389965
1772562811683283500,4.338283447265625,0.0001487040426582098,-0.0011365609243512154,-0.002447709906846285
1772562811693350400,4.348350341796875,-0.0015029886271804571,-0.00042363256216049194,0.0002631216775625944
1772562811703417300,4.358417236328125,-0.0001633577048778534,0.0008825012482702732,0.0016131014563143253
1772562811713484300,4.368484375,0.000059016281738877296,0.0001583877019584179,-0.0027755217161029577
1772562811723551200,4.37855126953125,0.0005158744752407074,-0.00036490708589553833,0.004603417590260506
1772562811733618200,4.3886181640625,-0.0010833537671715021,0.0002289777621626854,-0.0006890827789902687
1772562811743686100,4.39868603515625,0.0012686765985563397,0.0005559534765779972,0.00047215609811246395
1772562811753753000,4.408753173828125,0.00044762413017451763,-0.001313585788011551,0.0007981269154697657
1772562811763820300,4.4188203125,0.0011480182874947786,0.000016134697943925858,0.0012594014406204224
1772562811773887500,4.428887451171875,-0.000884772278368473,0.00004143500700592995,0.003524952568113804
1772562811783954400,4.438954345703125,-0.0008390049915760756,-0.0020436812192201614,-0.000298467930406332
1772562811794021400,4.449021484375,0.0008150844369083643,0.0021065890323370695,-0.0034625695552676916
1772562811804089300,4.45908935546875,0.00031332625076174736,-0.0009543579071760178,-0.0009747000876814127
1772562811814156300,4.46915625,-0.0013487525284290314,-0.0032031312584877014,0.00018137809820473194
1772562811824223200,4.47922314453125,0.001637467765249312,0.00040708575397729874,-0.0014643140602856874
1772562811834290200,4.489290283203125,0.0014332032296806574,-0.00036043720319867134,-0.000009695533663034439
1772562811844357400,4.499357421875,-0.0012007474433630705,-0.0018010293133556843,-0.0007445686496794224
1772562811854424300,4.50942431640625,0.0006429587956517935,0.00005386257544159889,-0.0026002591475844383
1772562811864492300,4.5194921875,-0.0010869516991078854,-0.000730450265109539,-0.0039671496488153934
1772562811874559200,4.529559326171875,-0.00013407273218035698,0.0006037931889295578,0.00032480061054229736
1772562811884626400,4.53962646484375,-0.0008625457994639874,-0.000794505700469017,-0.002491121646016836
1772562811894693400,4.549693359375,0.00023281225003302097,0.0006936686113476753,-0.0010117357596755028
1772562811904760300,4.55976025390625,0.00016861106269061565,-0.0002881954424083233,0.001408418407663703
1772562811914828300,4.569828369140625,0.00027753436006605625,0.0011461831163614988,0.0025953894946724176
1772562811924894700,4.579894775390625,-0.002467370592057705,0.000263093039393425,0.0007603864651173353
1772562811934962000,4.5899619140625,-0.0009610867127776146,-0.001394991297274828,-0.0004889022093266249
1772562811945029000,4.600029052734375,0.0009029451757669449,-0.0005433480255305767,-0.00016002776101231575
1772562811955096000,4.610095947265625,0.00030879396945238113,0.0019760022405534983,-0.00035497103817760944
1772562811965163000,4.6201630859375,-0.00037773814983665943,-0.0006353398784995079,0.0006428956985473633
1772562811975231000,4.63023095703125,0.00003132340498268604,0.00034283893182873726,0.0008000221569091082
1772562811985298000,4.6402978515625,-0.0018192136194556952,-0.000783267430961132,0.0003191600553691387
1772562811995364900,4.65036474609375,-0.0011712668929249048,0.0020055947825312614,0.0009399426635354757
1772562812005431800,4.660431884765625,0.0005918929819017649,0.00016326317563652992,0.0034505564253777266
1772562812015498800,4.670498779296875,-0.0005873546469956636,-0.002051421906799078,0.003088632831349969
1772562812025566000,4.68056591796875,-0.001972547499462962,0.0006463099271059036,-0.0010142209939658642
1772562812035633000,4.6906328125,0.001213924610055983,0.00013471674174070358,0.0037091614212840796
1772562812045700900,4.700700927734375,0.0005320198833942413,-0.003038013819605112,0.003906276077032089
1772562812055768000,4.71076806640625,0.0023799873888492584,0.00020758062601089478,-0.0009049905929714441
1772562812065835000,4.7208349609375,-0.00021779467351734638,-0.00013938499614596367,-0.0013494790764525533
1772562812075902000,4.73090185546875,0.0007241652347147465,-0.0018054586835205555,0.0025571121368557215
1772562812085969000,4.740968994140625,0.00019818544387817383,-0.0009493087418377399,0.0032662409357726574
1772562812096036900,4.751036865234375,-0.0010774685069918633,0.0003481833264231682,-0.0008371577132493258
1772562812106103800,4.761103759765625,0.00003300677053630352,0.0020135927479714155,0.002352807903662324
1772562812116171000,4.7711708984375,-0.0011787312105298042,-0.0011308016255497932,0.0011197642888873816
1772562812126238000,4.781238037109375,-0.0009322818368673325,0.0030988859944045544,-0.0007777533028274775
1772562812136305000,4.791304931640625,0.0014033104525879025,-0.0007001133635640144,-0.00005843350663781166
1772562812146371800,4.801371826171875,-0.0008178714197129011,-0.0005355696193873882,-0.0006422728765755892
1772562812156440000,4.811440185546875,-0.0017393252346664667,0.0008141207508742809,-0.0008236339781433344
1772562812166507000,4.821507080078125,0.0011533326469361782,0.00047968048602342606,-0.0005292338319122791
1772562812176574000,4.831573974609375,-0.001350837992504239,0.0003244183026254177,-0.00046372017823159695
1772562812186641000,4.841640869140625,-0.0014441173989325762,-0.0025477632880210876,-0.0024215495213866234
1772562812196707800,4.851707763671875,0.002229446778073907,0.0007617468945682049,0.000670114066451788
1772562812206775000,4.861775146484375,0.001998046413064003,-0.0020034010522067547,0.003730496158823371
1772562812216843000,4.871843017578125,0.00040307920426130295,-0.0020502726547420025,-0.0004922118969261646
1772562812226910000,4.881909912109375,0.0007526075933128595,0.0014366137329488993,-0.0030753049068152905
1772562812236977000,4.891976806640625,-0.00018003140576183796,-0.00006168056279420853,-0.00012532132677733898
1772562812247043800,4.9020439453125,0.0019470282131806016,0.0023038210347294807,-0.00003837700933218002
1772562812257110800,4.91211083984375,0.0005925444420427084,0.001331500941887498,0.00005376851186156273
1772562812267177700,4.922177734375,-0.00048548169434070587,0.0008896617218852043,0.003028442384675145
1772562812277246000,4.932245849609375,0.0015185470692813396,0.00028618937358260155,-0.0007971883751451969
1772562812287313000,4.94231298828125,0.0003250869922339916,0.0010851093102246523,0.003580013057217002
1772562812297380000,4.952380126953125,0.000043058302253484726,-0.0009607309475541115,0.0001514593604952097
1772562812307447000,4.962447021484375,-0.001547567779198289,-0.00001088809221982956,0.00030814227648079395
1772562812317514000,4.972513916015625,0.00036804378032684326,0.0018317531794309616,0.0015821983106434345
1772562812327581000,4.982580810546875,0.0023464097175747156,-0.000014984514564275742,-0.0015908118803054094
1772562812337649000,4.99264892578125,-0.0017639133147895336,-0.00009461306035518646,-0.0005974527448415756
1772562812347715800,5.0027158203125,0.0008716415613889694,-0.0001016794703900814,-0.001461054547689855
1772562812357782800,5.01278271484375,0.000462846364825964,0.00029726186767220497,-0.0007089779246598482
1772562812367849700,5.022849609375,0.0024096861016005278,0.001969916746020317,-0.000096447067335248
1772562812377917000,5.0329169921875,-0.00004654726944863796,-0.0008676815778017044,-0.003416609950363636
1772562812387984000,5.04298388671875,0.0005430530291050673,-0.00041172094643116,-0.0003701488021761179
1772562812398052000,5.053052001953125,-0.0002175457775592804,-0.00042050937190651894,-0.00017493893392384052
1772562812408119000,5.063119140625,-0.00040763779543340206,0.000924132764339447,-0.00021353783085942268
1772562812418186000,5.07318603515625,0.0015037128468975425,0.0002796477638185024,0.002257076557725668
1772562812428253000,5.0832529296875,0.0011603434104472399,0.0004749791696667671,0.00039028795436024666
1772562812438319900,5.09331982421875,0.0006809744518250227,0.00019960850477218628,0.0016947041731327772
1772562812448386800,5.10338671875,-0.0020242936443537474,-0.0012709577567875385,0.00007714028470218182
1772562812458454800,5.113454833984375,0.00047455052845180035,0.0008901972323656082,-0.0005830572918057442
1772562812468521700,5.123521728515625,0.001531513873487711,-0.0005206712521612644,0.0004021294880658388
1772562812478589000,5.1335888671875,-0.0002376241609454155,-0.00023065321147441864,-0.0006596727762371302
1772562812488657000,5.143656982421875,0.0019197448855265975,0.00012812111526727676,0.0016154213808476925
1772562812498724000,5.15372412109375,0.0007961571682244539,0.0011981790885329247,-0.00011616596020758152
1772562812508791000,5.163791015625,-0.0012640508357435465,-0.0025061722844839096,0.0008021227549761534
1772562812518858000,5.17385791015625,0.00010401499457657337,0.00016710860654711723,-0.0017164286691695452
1772562812528926000,5.183926025390625,0.0020161201246082783,0.0002877856604754925,-0.001426973845809698
1772562812538993000,5.193992919921875,0.0003039739094674587,-0.0012701633386313915,-0.0011513368226587772
1772562812549059800,5.204059814453125,0.0012002636212855577,-0.002910437062382698,-0.0015723061515018344
1772562812559126800,5.214126708984375,-0.0003654088359326124,0.0010520804207772017,0.0005526300519704819
1772562812569193700,5.22419384765625,-0.0005822323728352785,-0.000017636921256780624,-0.0015399149851873517
1772562812579261000,5.234260986328125,0.00016984413377940655,0.0010055494494736195,0.00047370116226375103
1772562812589329000,5.244328857421875,0.0009560477919876575,0.0025715758092701435,-0.0014142555883154273
1772562812599396000,5.25439599609375,0.001281752367503941,0.0000889771617949009,0.0005929688923060894
1772562812609463000,5.264463134765625,-0.0007108568679541349,0.002672113012522459,-0.0019255614606663585
1772562812619530000,5.274530029296875,-0.00038515240885317326,-0.0008973218500614166,-0.0015348757151514292
1772562812629597000,5.284596923828125,0.002080371603369713,0.0008420683443546295,0.0004952256567776203
1772562812639663900,5.294663818359375,0.0014737033052369952,0.0005587083287537098,-0.0007050610147416592
1772562812649731800,5.30473193359375,-0.00195857766084373,0.0005989037454128265,-0.00042539997957646847
1772562812659798800,5.314798828125,0.0012132474221289158,0.00047879526391625404,-0.000023795291781425476
1772562812669865700,5.32486572265625,0.000766081502661109,-0.0013766791671514511,-0.002150026150047779
1772562812679933000,5.334932861328125,0.0013325358740985394,-0.0006922464817762375,-0.002442175056785345
1772562812690000000,5.344999755859375,0.001058447640389204,0.000013134907931089401,0.00234922394156456
1772562812700066800,5.35506689453125,-0.00026993732899427414,-0.0009083189070224762,0.0005222952459007502
1772562812710135000,5.365135009765625,0.003286997089162469,0.001019125571474433,-0.0018995905993506312
1772562812720202000,5.375201904296875,0.0005223697517067194,0.00035253632813692093,0.002378511242568493
1772562812730269000,5.38526904296875,0.001380817499011755,-0.000012941192835569382,0.002613021992146969
1772562812740335900,5.3953359375,-0.0004367898218333721,-0.0030124597251415253,0.0011578709818422794
1772562812750402800,5.40540283203125,-0.001752565149217844,0.00009863171726465225,-0.0004680827260017395
1772562812760470000,5.415469970703125,0.0007627906743437052,-0.0007879347540438175,0.0005287386011332273
1772562812770537700,5.425537841796875,0.00036935973912477493,-0.000990825705230236,-0.003658709581941366
1772562812780605000,5.43560498046875,0.0017030707094818354,-0.0009748470038175583,-0.0012506793718785048
1772562812790672000,5.445671875,-0.00015015248209238052,-0.0010126200504601002,-0.0017721219919621944
1772562812800738800,5.45573876953125,-0.0007949038408696651,-0.002898404374718666,0.0008873108308762312
1772562812810805800,5.4658056640625,-0.000491477083414793,0.0003260653465986252,-0.0035528503358364105
1772562812820873000,5.475873046875,-0.00022542732767760754,-0.0016691749915480614,0.0007183272391557693
1772562812830941000,5.48594091796875,-0.00136505626142025,-0.0005960110574960709,0.0012771759647876024
1772562812841007900,5.4960078125,-0.0004923383239656687,-0.00012889225035905838,0.0007847573142498732
1772562812851074800,5.50607470703125,-0.0009541132021695375,-0.00020090024918317795,-0.00002203509211540222
1772562812861142000,5.51614208984375,-0.0007858013268560171,-0.0003031659871339798,-0.0014430978335440159
1772562812871209000,5.526208984375,0.0016532795270904899,0.0006958399899303913,0.003258298384025693
1772562812881277000,5.53627685546875,0.0011885579442605376,0.0017773495055735111,-0.00037585129030048847
1772562812891344000,5.54634375,0.0007923818193376064,0.0009315782226622105,-0.000734016066417098
1772562812901410800,5.556410888671875,0.0011585664469748735,0.0015462357550859451,0.000851363642141223
1772562812911477800,5.566477783203125,0.0021916397381573915,-0.0025840215384960175,-0.00214106822386384
1772562812921544700,5.576544677734375,-0.00010027666576206684,-0.0020663030445575714,0.001919186906889081
1772562812931612000,5.58661181640625,0.0013998522190377116,0.00041484367102384567,-0.0010202506091445684
1772562812941679900,5.596679931640625,0.0015133029082790017,-0.002013692632317543,-0.0014388995477929711
1772562812951746800,5.606746826171875,0.0012810123153030872,0.0001959702931344509,-0.0025511961430311203
1772562812961814000,5.61681396484375,0.0011502511333674192,0.0016548498533666134,0.0011854851618409157
1772562812971881000,5.626880859375,0.0018701357766985893,0.0017260152380913496,0.0007907673716545105
1772562812981948000,5.636947998046875,0.0004008698742836714,-0.0003933282569050789,-0.0008694471325725317
1772562812992014800,5.647014892578125,-0.0015197782777249813,-0.0019338554702699184,-0.0036884937435388565
1772562813002082800,5.657082763671875,-0.0008222963660955429,0.0031903330236673355,-0.000010135583579540253
1772562813012149800,5.667149658203125,0.0007857449818402529,0.001510244095697999,-0.001519343233667314
1772562813022216700,5.677216796875,-0.0015000463463366032,0.0001259329728782177,0.001099609537050128
1772562813032284000,5.687283935546875,-0.00021103466860949993,0.001316143898293376,-0.0031665069982409477
1772562813042351000,5.69735107421875,-0.00032049044966697693,-0.0031731463968753815,0.0002157075796276331
1772562813052418000,5.70741796875,0.000782122602686286,0.00013442058116197586,-0.0003853742964565754
1772562813062486000,5.717486083984375,-0.001047202618792653,-0.0000019334256649017334,0.0033603617921471596
1772562813072553000,5.727552978515625,-0.001125116366893053,-0.0010688100010156631,0.002100507728755474
1772562813082620000,5.737619873046875,-0.0012678615748882294,0.0020673281978815794,-0.004520377144217491
1772562813092686800,5.747686767578125,-0.002485626609995961,0.0006806529127061367,0.0036781092640012503
1772562813102753800,5.75775390625,-0.002758600516244769,0.003108390374109149,0.00013610534369945526
1772562813112820700,5.76782080078125,0.0007090659346431494,0.00015404261648654938,-0.0012660210486501455
1772562813122888700,5.777888671875,0.0006195837631821632,-0.0019802148453891277,0.0003009829670190811
1772562813132956000,5.787955810546875,0.00018162373453378677,0.0020802230574190617,-0.0006485716439783573
1772562813143023000,5.798023193359375,-0.000534233869984746,-0.00021701958030462265,-0.0034598044585436583
1772562813153090000,5.808090087890625,-0.0011737963650375605,-0.0013854089193046093,0.0013947382103651762
1772562813163157000,5.818156982421875,0.002261681482195854,-0.00037074461579322815,-0.00010408880189061165
1772562813173224000,5.828223876953125,-0.0006678812205791473,-0.0021229139529168606,-0.0010611857287585735
1772562813183292000,5.8382919921875,-0.0010345983318984509,-0.0007284828461706638,-0.0007903422228991985
1772562813193358800,5.84835888671875,-0.00011663278564810753,0.0005788682028651237,-0.0007905836682766676
1772562813203425800,5.85842578125,0.0006178671028465033,0.00041907839477062225,-0.0036108712665736675
1772562813213493000,5.868492919921875,-0.0004025162197649479,0.0003279545344412327,0.0004904235247522593
1772562813223560000,5.878559814453125,0.0012308004079386592,-0.0013381191529333591,0.0017485006246715784
1772562813233627000,5.888626953125,-0.0003165723755955696,-0.0014061210677027702,-0.00048358342610299587
1772562813243695000,5.898695068359375,0.00007437961176037788,-0.0018532657995820045,-0.00026014423929154873
1772562813253762000,5.908761962890625,-0.0013441205956041813,0.0007449346594512463,-0.000581483356654644
1772562813263829000,5.9188291015625,0.0005475229118019342,-0.0010460414923727512,0.00036473781801760197
1772562813273896000,5.92889599609375,-0.0006599316839128733,-0.0009694648906588554,-0.0010831579566001892
1772562813283963000,5.938962890625,-0.000605336856096983,-0.0009612091816961765,-0.0022035499569028616
1772562813294029800,5.94902978515625,0.0018702379893511534,-0.0010514073073863983,-0.0015154213178902864
1772562813304097800,5.959097900390625,-0.000043509528040885925,0.00032384879887104034,-0.0008467014413326979
1772562813314165000,5.9691650390625,0.0003774804063141346,-0.003146898467093706,-0.0039909337647259235
1772562813324232000,5.97923193359375,-0.00017725606448948383,-0.0018512704409658909,-0.0033959837164729834
1772562813334299000,5.989298828125,-0.0003382568247616291,0.0018613412976264954,0.000023333588615059853
1772562813344365800,5.99936572265625,-0.0012120399624109268,-0.0003275107592344284,0.000514686806127429
1772562813354432800,6.009432861328125,-0.001346255885437131,0.0018311419989913702,0.0015726899728178978
1772562813364501000,6.0195009765625,-0.0013121671508997679,-0.0005920683033764362,0.0008773389272391796
1772562813374568000,6.02956787109375,0.00033154431730508804,-0.00030366377905011177,-0.00323705212213099
1772562813384635000,6.039634765625,0.00047215912491083145,0.0019088902045041323,0.00030202255584299564
1772562813394702000,6.0497021484375,-0.0008770045824348927,-0.00016855169087648392,0.0014201700687408447
1772562813404769000,6.05976904296875,0.000939537538215518,0.00026074983179569244,-0.00024750130251049995
1772562813414837000,6.0698369140625,0.0011270049726590514,0.00005621928721666336,-0.0006350837647914886
1772562813424904000,6.079904052734375,-0.0010240301489830017,-0.00031529180705547333,0.002292263088747859
1772562813434971000,6.089970947265625,0.00029495335184037685,-0.0005077449604868889,0.0009099885355681181
1772562813445037800,6.100037841796875,-0.0012416904792189598,0.0010840261820703745,-0.001235720468685031
1772562813455104800,6.110104736328125,-0.0002620886079967022,0.0006356644444167614,0.0007334696128964424
1772562813465171700,6.120171630859375,-0.0013720940332859755,-0.0011702249757945538,-0.002638624981045723
1772562813475240000,6.130239990234375,0.000149482861161232,-0.0001919930800795555,-0.0007381243631243706
1772562813485307000,6.140306884765625,-0.0015839687548577785,-0.0004308787174522877,0.0011543179862201214
1772562813495374000,6.1503740234375,-0.0025282392743974924,0.0018447206821292639,-0.002608266193419695
1772562813505441000,6.16044091796875,0.0003647527191787958,-0.000700994860380888,0.0008924589492380619
1772562813515508000,6.170508056640625,-0.003611803986132145,-0.0021885326132178307,0.0022850334644317627
1772562813525575000,6.180574951171875,0.0003560397308319807,0.0014599983114749193,-0.0025344891473650932
1772562813535643000,6.190642822265625,-0.0002300397027283907,-0.0007057120092213154,0.0016289663035422564
1772562813545709800,6.200709716796875,-0.0027693638112396,0.00016114674508571625,-0.0007891841232776642
1772562813555776800,6.21077685546875,0.0014590331120416522,-0.00023085344582796097,-0.003466180991381407
1772562813565843700,6.22084375,-0.0019436876755207777,-0.0004356503486633301,0.0011354947928339243
1772562813575911000,6.230910888671875,0.0014394365716725588,0.0014010542072355747,-0.002469373168423772
1772562813585977900,6.240977783203125,0.0008932221680879593,0.00195312756113708,0.0014974053483456373
1772562813596046000,6.251046142578125,-0.00033272989094257355,0.001384996110573411,0.0024550524540245533
1772562813606113000,6.261113037109375,0.00002972641959786415,-0.0002709575928747654,0.0011303960345685482
1772562813616180000,6.271179931640625,0.0017894059419631958,0.00011778762564063072,-0.0032183134462684393
1772562813626247000,6.281246826171875,0.0022791612427681684,-0.00024839723482728004,0.0010832243133336306
1772562813636313900,6.29131396484375,0.0003558422904461622,-0.0008933027274906635,-0.0012547291116788983
1772562813646380800,6.301380859375,-0.00015468569472432137,0.0010635880753397942,0.0014630267396569252
1772562813656448800,6.31144873046875,0.0009844887536019087,0.004044374451041222,-0.0011783272493630648
1772562813666515700,6.321515625,0.0005466649308800697,0.0008368636481463909,-0.0024710255675017834
1772562813676583000,6.3315830078125,0.0012133391574025154,-0.00013888627290725708,-0.004259120672941208
1772562813686649900,6.34164990234375,0.0006367648020386696,0.002426536986604333,-0.00026411237195134163
1772562813696716800,6.351716796875,0.00014412612654268742,0.002804998541250825,-0.0008448990993201733
1772562813706784000,6.361783935546875,0.000392865389585495,-0.001095733605325222,0.001545820850878954
1772562813716852000,6.37185205078125,-0.0006090456154197454,0.0004158369265496731,0.002652262570336461
1772562813726919000,6.3819189453125,-0.0009832195937633514,-0.0008057546801865101,0.0009909828659147024
1772562813736985900,6.39198583984375,0.0010562019888311625,-0.0001987139694392681,-0.0010519681964069605
1772562813747052800,6.402052734375,-0.0004889639094471931,0.000005816575139760971,-0.0009089563973248005
1772562813757120000,6.4121201171875,-0.00004580989480018616,-0.00028696609660983086,-0.0009271143935620785
1772562813767187700,6.422187744140625,-0.0003723134286701679,0.0026062920223921537,0.0014433653559535742
1772562813777255000,6.4322548828125,-0.00014214031398296356,0.0029917978681623936,-0.0003070533275604248
1772562813787321900,6.44232177734375,0.0007047448307275772,-0.0009438213892281055,-0.00019147200509905815
1772562813797388800,6.452388916015625,-0.0003993075806647539,-0.003260682336986065,-0.001463807886466384
1772562813807456000,6.4624560546875,-0.0004349939990788698,0.0006176796741783619,-0.0012313139159232378
1772562813817523000,6.47252294921875,-0.0001421703491359949,-0.0018643168732523918,0.0001657924149185419
1772562813827591000,6.4825908203125,0.0010147069115191698,-0.0018701758235692978,0.001645444892346859
1772562813837657900,6.492657958984375,0.000978460069745779,0.0007911091670393944,-0.0014355690218508244
1772562813847724800,6.502724853515625,0.000293228542432189,-0.0018392950296401978,0.00012051593512296677
1772562813857792000,6.5127919921875,0.0004956219345331192,-0.0009813783690333366,-0.002131565473973751
1772562813867859000,6.52285888671875,0.0009174665901809931,0.0009459513239562511,-0.0005147603806108236
1772562813877926000,6.53292578125,-0.0037457714788615704,-0.001581624150276184,0.0011206550989300013
1772562813887993900,6.542993896484375,0.0009025097824633121,-0.0020037353970110416,-0.0012258560163900256
1772562813898060800,6.553060791015625,0.0014240625314414501,0.00020268047228455544,-0.0034780558198690414
1772562813908127700,6.563127685546875,-0.0013786482159048319,0.001659962348639965,0.0027151249814778566
1772562813918195700,6.57319580078125,0.0020766870584338903,0.0018309226725250483,-0.0035384404473006725
1772562813928262700,6.5832626953125,-0.0007481279317289591,-0.0011733891442418098,-0.0005474442150443792
1772562813938329600,6.59332958984375,0.0007618614472448826,0.0016505660023540258,-0.0002655822318047285
1772562813948397600,6.6033974609375,0.0005536023527383804,0.0007456238381564617,-0.001052546314895153
1772562813958464500,6.613464599609375,0.00011579249985516071,-0.00007200846448540688,-0.00021727196872234344
1772562813968531700,6.62353173828125,0.0013645488070324063,0.002468913560733199,-0.0027757708448916674
1772562813978598700,6.6335986328125,0.00009245239198207855,0.00042142532765865326,0.0005278782919049263
1772562813988665600,6.64366552734375,-0.0009523057378828526,-0.00022705458104610443,0.0021092635579407215
1772562813998733800,6.65373388671875,0.00017494824714958668,-0.0025787176564335823,-0.0015039752470329404
1772562814008800800,6.66380078125,0.0011613829992711544,-0.0024985563941299915,-0.0020512547343969345
1772562814018867700,6.67386767578125,0.001217251643538475,-0.0011585154570639133,-0.0019198269583284855
1772562814028934700,6.6839345703125,0.00010085455141961575,0.0007491065189242363,-0.0003661387600004673
1772562814039001600,6.694001708984375,0.0008321746718138456,0.0005783922970294952,-0.0019317505648359656
1772562814049068800,6.70406884765625,-0.001835513859987259,-0.0009473329409956932,0.0022190522868186235
1772562814059136500,6.714136474609375,0.0006908164359629154,-0.0010850117541849613,-0.0023951209150254726
1772562814069203700,6.72420361328125,0.0021901761647313833,-0.00005143927410244942,-0.0013588849687948823
1772562814079270700,6.734270751953125,-0.00010090507566928864,0.000469947699457407,0.00007351674139499664
1772562814089337600,6.744337646484375,0.0006985759828239679,-0.001422228291630745,-0.0004695015959441662
1772562814099404500,6.754404541015625,-0.00136897386983037,0.0017414886970072985,-0.0015056731645017862
1772562814109471500,6.764471435546875,-0.00020011235028505325,0.0007449337281286716,-0.002210079226642847
1772562814119539700,6.774539794921875,0.0012059052241966128,-0.00011083809658885002,0.0005562433507293463
1772562814129606700,6.784606689453125,-0.0006047780625522137,-0.00023201201111078262,-0.0022235640790313482
1772562814139673600,6.794673583984375,0.002332949312403798,-0.0008885799907147884,-0.001111890422180295
1772562814149740800,6.80474072265625,-0.0006551174446940422,-0.0014640889130532742,0.0006244906689971685
1772562814159807700,6.814807861328125,-0.0010621584951877594,-0.0009110146202147007,-0.00212812889367342
1772562814169874700,6.824874755859375,0.0023333716671913862,0.0019446930382400751,-0.0008788399863988161
1772562814179942700,6.834942626953125,-0.0011862197425216436,-0.0000887191854417324,-0.0003149537369608879
1772562814190009600,6.845009521484375,0.0010084914974868298,-0.0010173632763326168,0.0013447280507534742
1772562814200076500,6.85507666015625,0.002158663934096694,0.0029072342440485954,-0.00464987987652421
1772562814210143500,6.8651435546875,-0.0014427287969738245,0.00022676261141896248,0.0013667335733771324
1772562814220210400,6.87521044921875,-0.00365567859262228,-0.0007934160530567169,0.0015356969088315964
1772562814230277600,6.885277587890625,0.00043227383866906166,0.00016052834689617157,0.0003194310702383518
1772562814240345600,6.895345703125,-0.00020586582832038403,0.0018589168321341276,0.00009738490916788578
1772562814250412800,6.905412841796875,-0.0018293289467692375,-0.001305451150983572,-0.002228886354714632
1772562814260479700,6.915479736328125,-0.0014401518274098635,0.0015177445020526648,-0.0023915530182421207
1772562814270546700,6.925546630859375,-0.0005887392908334732,-0.0016753855161368847,-0.0001582261174917221
1772562814280613600,6.935613525390625,0.0014043074334040284,0.0009921339806169271,-0.0001769568771123886
1772562814290681600,6.945681640625,0.0005651453975588083,0.00042674504220485687,-0.002010543365031481
1772562814300748500,6.95574853515625,0.0008602843154221773,-0.0008974024094641209,0.0006539670284837484
1772562814310815500,6.9658154296875,-0.0016145911067724228,0.0021047790069133043,-0.0006642977241426706
1772562814320882400,6.97588232421875,0.0009107217192649841,-0.00042474642395973206,-0.00008506746962666512
1772562814330949600,6.98594970703125,0.00034160399809479713,-0.0011930684559047222,-0.0008350135758519173
1772562814341016800,6.996016845703125,0.00034100329503417015,-0.0006832093931734562,0.00015900353901088238
1772562814351084800,7.006084716796875,-0.0005450304597616196,0.001896328292787075,0.0005044157151132822
1772562814361151700,7.01615185546875,0.002340844366699457,-0.0007379213348031044,0.00028715189546346664
1772562814371218700,7.02621875,-0.0000043353065848350525,-0.0005238032899796963,0.0026677516289055347
1772562814381285600,7.03628564453125,-0.00015800888650119305,0.0015565245412290096,-0.0022417486179620028
1772562814391352600,7.0463525390625,-0.0008493654895573854,0.0010073806624859571,0.0012597753666341305
1772562814401419500,7.05641943359375,0.0009179129265248775,-0.0007676761597394943,-0.0013184926938265562
1772562814411487500,7.066487548828125,0.001773053896613419,-0.00040149129927158356,-0.004196570720523596
1772562814421554700,7.0765546875,0.001233939197845757,0.0033776904456317425,-0.004257356747984886
1772562814431621600,7.08662158203125,-0.0024694527965039015,0.0002844291739165783,0.00023512961342930794
1772562814441688600,7.0966884765625,-0.00042072171345353127,-0.0002795322798192501,-0.002850628225132823
1772562814451755800,7.106755859375,-0.002701186342164874,0.0000839894637465477,0.001315088476985693
1772562814461822700,7.11682275390625,-0.0007572008762508631,0.00030999258160591125,-0.00007365690544247627
1772562814471890700,7.126890625,0.0011472254991531372,0.001969141885638237,-0.0008917800150811672
1772562814481957600,7.13695751953125,-0.0009040539152920246,0.0002582273446023464,0.000590204494073987
1772562814492024600,7.147024658203125,-0.0007906032260507345,-0.00003685103729367256,0.0010386807844042778
1772562814502091500,7.157091552734375,0.0014767800457775593,0.0017236496787518263,-0.0020061335526406765
1772562814512158700,7.16715869140625,0.0011063343845307827,-0.0016769408248364925,0.0036496215034276247
1772562814522226700,7.177226806640625,-0.0006207388360053301,-0.0009374227374792099,-0.0008790525607764721
1772562814532293600,7.187293701171875,-0.0012915891129523516,-0.001431439071893692,-0.0009935686830431223
1772562814542360600,7.197360595703125,-0.001495900796726346,-0.0005298866890370846,-0.0014475329080596566
1772562814552427800,7.207427734375,-0.0008333062287420034,-0.002777594607323408,0.0034247201401740313
1772562814562494700,7.21749462890625,0.0000804730225354433,0.0007056379690766335,0.0019133465830236673
1772562814572561700,7.227561767578125,-0.001517689786851406,0.0010909975972026587,0.00032876571640372276
1772562814582629600,7.237629638671875,0.0013544718967750669,0.0023605264723300934,-0.0006370241753757
1772562814592696600,7.247696533203125,-0.0009534235578030348,-0.0005385908298194408,0.001224791631102562
1772562814602763800,7.257763671875,-0.0010348143987357616,-0.0011823773384094238,-0.0015572458505630493
1772562814612830700,7.267830810546875,0.0004823885392397642,-0.001922469586133957,0.0012254912871867418
1772562814622897700,7.277897705078125,-0.001133886631578207,0.0009116576984524727,-0.0010369981173425913
1772562814632964600,7.287964599609375,0.0007862525526434183,0.0004365495406091213,0.0020823623053729534
1772562814643032600,7.298032470703125,-0.00045356107875704765,0.0011240269523113966,-0.0017714062705636024
1772562814653099500,7.308099609375,-0.003293822519481182,0.0012321514077484608,0.0010949540883302689
1772562814663166700,7.318166748046875,0.00016215513460338116,-0.00031779753044247627,0.002603634726256132
1772562814673233700,7.328233642578125,0.0015752284089103341,0.0019160618539899588,-0.002398580778390169
1772562814683300600,7.338300537109375,-0.00009711622260510921,-0.000999476294964552,0.0006499665323644876
1772562814693367800,7.348367919921875,-0.00028779846616089344,-0.0006511351093649864,-0.0015519349835813046
1772562814703435800,7.358435791015625,-0.00043219979852437973,-0.0016276850365102291,-0.0007410922553390265
1772562814713502700,7.368502685546875,0.0014525193255394697,-0.00043884990736842155,-0.0015807868912816048
1772562814723569700,7.378569580078125,-0.0005380513612180948,-0.0004100804217159748,0.0015675814356654882
1772562814733636600,7.38863671875,-0.0002504298463463783,-0.001409564632922411,-0.0001403039786964655
1772562814743703600,7.39870361328125,0.001304438104853034,0.001084931893274188,0.00237073446623981
1772562814753771500,7.408771484375,-0.0009999952744692564,-0.00047621317207813263,-0.0011587527114897966
1772562814763838700,7.418838623046875,-0.0009752938058227301,-0.001978878863155842,0.0006144128274172544
1772562814773905700,7.42890576171875,0.0012567013036459684,0.0007948032580316067,0.00011640181764960289
1772562814783972900,7.438972900390625,-0.00267353979870677,-0.00001918245106935501,-0.0009451117366552353
1772562814794039800,7.449039794921875,-0.00035259476862847805,-0.0006058765575289726,-0.0007056933827698231
1772562814804106800,7.459106689453125,0.00035119568929076195,-0.0011858153156936169,-0.002509312704205513
1772562814814174700,7.4691748046875,0.001621523522771895,0.0010469788685441017,0.0003687653224915266
1772562814824241700,7.47924169921875,-0.00018397020176053047,-0.000260048545897007,0.00008817622438073158
1772562814834308600,7.48930859375,0.0010112563613802195,0.00013356655836105347,-0.003219736274331808
1772562814844375600,7.49937548828125,0.0003240327350795269,0.0014243046753108501,-0.00024221697822213173
1772562814854442500,7.5094423828125,0.0007179141975939274,0.0018035387620329857,-0.0002230422105640173
1772562814864509700,7.519509765625,0.00032714218832552433,-0.00033760396763682365,0.000186932273209095
1772562814874577700,7.52957763671875,0.0020589958876371384,0.00033644214272499084,0.00017707864753901958
1772562814884644900,7.539644775390625,-0.00023079290986061096,0.0007478361949324608,-0.00010372186079621315
1772562814894711800,7.5497119140625,0.00015270221047103405,0.0007188078016042709,-0.0012518104631453753
1772562814904778800,7.55977880859375,0.00116542330943048,0.0014798101037740707,-0.0007382524199783802
1772562814914845700,7.569845703125,0.00029190629720687866,-0.000428610946983099,-0.0014304079813882709
1772562814924912000,7.579912109375,-0.002599334344267845,0.00016296235844492912,-0.0013067505788058043
1772562814934980000,7.58997998046875,0.0006742230616509914,-0.0002138749696314335,0.0003380177076905966
1772562814945047000,7.600047119140625,0.0003268627915531397,0.0006720274686813354,-0.0004278805572539568
1772562814955114200,7.6101142578125,-0.0003067031502723694,0.0014864220283925533,0.0026531305629760027
1772562814965181200,7.62018115234375,0.0004543229006230831,-0.000017529353499412537,-0.0011012114118784666
1772562814975248100,7.630248046875,-0.0006631396245211363,-0.0020937295630574226,0.002306569367647171
1772562814985316000,7.640316162109375,0.0019382063765078783,0.0016422090120613575,-0.0009560093749314547
1772562814995383300,7.65038330078125,0.0015840060077607632,0.005002319347113371,-0.0009323072154074907
1772562815005450200,7.6604501953125,0.0016650917241349816,-0.003520452417433262,-0.003210461465641856
1772562815015517200,7.67051708984375,0.002489872742444277,-0.002108178101480007,0.000625289510935545
1772562815025584000,7.680584228515625,0.0015276060439646244,-0.0016136039048433304,-0.0011953103821724653
1772562815035651300,7.6906513671875,0.0007845840882509947,0.001904165605083108,-0.0030645830556750298
1772562815045719000,7.700718994140625,0.0004487377591431141,-0.001649320125579834,0.0036297114565968513
1772562815055786200,7.7107861328125,-0.001481521176174283,-0.0009054993279278278,0.00037346454337239265
1772562815065853200,7.720853271484375,-0.00002440623939037323,-0.00016142800450325012,0.002336831297725439
1772562815075920100,7.730920166015625,0.0004991712048649788,0.00010408926755189896,0.00006249174475669861
1772562815085987000,7.740987060546875,0.0015053717652335763,-0.0006848890334367752,-0.003526716260239482
1772562815096054000,7.751053955078125,-0.0008459331002086401,0.0005601388402283192,0.0006672297604382038
1772562815106122200,7.761122314453125,0.000855394871905446,-0.0026687602512538433,0.0003880592994391918
1772562815116189200,7.771189208984375,0.001545952633023262,-0.0023792744614183903,-0.00026228465139865875
1772562815126256000,7.781256103515625,0.0007586311548948288,0.0028076006565243006,0.00036843609996140003
1772562815136323300,7.7913232421875,0.0004081591032445431,0.00021581212058663368,0.0027298610657453537
1772562815146390300,7.801390380859375,0.0012798459501937032,-0.0014752363786101341,-0.0001007739920169115
1772562815156458200,7.811458251953125,0.0017472307663410902,0.00016926554962992668,0.000558358384296298
1772562815166525200,7.821525146484375,-0.0005673151463270187,-0.001330413855612278,0.0018255088943988085
1772562815176592100,7.831592041015625,0.0034370138309895992,0.0005055693909525871,0.0004308114293962717
1772562815186659000,7.8416591796875,-0.0003357646055519581,-0.001687323208898306,-0.003132085083052516
1772562815196726000,7.85172607421875,0.0015140670584514737,0.003194517455995083,-0.00017943838611245155
1772562815206793000,7.86179296875,-0.0011307001113891602,-0.0029389532282948494,0.002515148837119341
1772562815216861200,7.871861083984375,-0.0007714396342635155,-0.0007232027128338814,-0.0015024957247078419
1772562815226928000,7.88192822265625,0.0007645837031304836,0.002017282648012042,-0.00019237096421420574
1772562815236995300,7.891995361328125,-0.0004618018865585327,0.0019142183009535074,-0.0008544328156858683
1772562815247062300,7.902062255859375,-0.0018986202776432037,0.0009561092592775822,0.00010700360871851444
1772562815257129200,7.912129150390625,0.0002124677412211895,0.0012123053893446922,-0.0025625491980463266
1772562815267196200,7.922196044921875,0.0004466399550437927,-0.001428364310413599,-0.0018858953844755888
1772562815277264100,7.93226416015625,0.0003041608724743128,-0.0004129009321331978,0.00011733430437743664
1772562815287331000,7.9423310546875,-0.00016206293366849422,-0.0011180257424712181,0.0020701587200164795
1772562815297398000,7.95239794921875,-0.0011639443691819906,-0.0004013688303530216,-0.0018974185222759843
1772562815307465000,7.96246484375,0.0015467515913769603,0.002016277052462101,-0.001881476491689682
1772562815317532200,7.9725322265625,-0.0007195984944701195,-0.0008902968838810921,-0.0025576530024409294
1772562815327600000,7.98260009765625,0.002413166221231222,0.0010490019340068102,0.0009643989615142345
1772562815337667300,7.992667236328125,0.0014440419618040323,0.0010247670579701662,-0.000543749425560236
1772562815347734300,8.002734375,0.00031140586361289024,-0.00012116320431232452,-0.0010431194677948952
1772562815357801200,8.01280126953125,-0.002084373729303479,0.0005478230305016041,0.0001478460617363453
1772562815367868200,8.0228681640625,0.00010350695811212063,-0.0024685831740498543,0.001311036990955472
1772562815377935000,8.03293505859375,-0.001153771299868822,-0.0003508375957608223,-0.00030017527751624584
1772562815388003000,8.043003173828126,0.002308580093085766,0.0020778337493538857,-0.0013012379640713334
1772562815398070000,8.053070068359375,-0.00047682016156613827,0.00022773584350943565,-0.0005038876552134752
1772562815408137000,8.063136962890624,-0.0017556357197463512,-0.002467942889779806,-0.0003934809938073158
1772562815418204200,8.0732041015625,-0.0002019472885876894,0.000968866515904665,0.0003338283859193325
1772562815428271000,8.08327099609375,-0.0003611622378230095,0.002022222150117159,0.0011689027305692434
1772562815438338000,8.093338134765625,0.0004036976024508476,0.0002943631261587143,0.000270352466031909
1772562815448406300,8.10340625,0.0014624249888584018,-0.00046216556802392006,-0.0004815754946321249
1772562815458473200,8.11347314453125,-0.00041323923505842686,-0.000729813240468502,0.0016609374433755875
1772562815468540200,8.1235400390625,0.00028813513927161694,0.0014026816934347153,-0.0021520117297768593
1772562815478607000,8.133607177734374,0.0004998564254492521,0.0023995027877390385,0.0012523068580776453
1772562815488674000,8.143674072265625,-0.0006520100869238377,-0.0021178354509174824,0.0012668869458138943
1772562815498741200,8.1537412109375,0.0002500026021152735,0.0013978034257888794,-0.0008023893460631371
1772562815508809200,8.163809326171876,0.0004950538277626038,0.002963791135698557,-0.0010678055696189404
1772562815518876200,8.173876220703125,-0.000376066192984581,0.0012889290228486061,0.0010906867682933807
1772562815528943000,8.183943115234374,0.0016340785659849644,0.0015715535264462233,-0.0001990718301385641
1772562815539010000,8.194010009765625,-0.0007635653018951416,0.00006473716348409653,0.002174869878217578
1772562815549077200,8.2040771484375,-0.0007529398426413536,-0.0020104628056287766,0.002404619939625263
1772562815559145200,8.214145263671876,0.003363508265465498,0.00311399158090353,-0.00031073903664946556
1772562815569212200,8.224212158203125,0.0024017675314098597,-0.00006115715950727463,0.0006107299122959375
1772562815579279000,8.234279052734376,0.00010292697697877884,0.0030688559636473656,0.002523146104067564
1772562815589346000,8.244345947265625,0.00046888459473848343,-0.0010022353380918503,-0.004623007029294968
1772562815599413200,8.254413330078124,0.00044544879347085953,-0.0001460290513932705,0.0016756351105868816
1772562815609480200,8.264480224609375,0.001084288116544485,0.0003536161966621876,0.0011924151331186295
1772562815619548200,8.274548095703125,0.002509079407900572,0.0004313807003200054,0.0016699200496077538
1772562815629615000,8.284614990234376,-0.0002536324318498373,-0.00021390197798609734,-0.0018555475398898125
1772562815639682000,8.29468212890625,-0.0005348622798919678,0.000556550920009613,0.0013937752228230238
1772562815649749000,8.3047490234375,-0.0020333346910774708,0.0007702447474002838,-0.00038777454756200314
1772562815659816200,8.314816162109375,-0.0001920249778777361,-0.00199092086404562,-0.0009294615592807531
1772562815669883100,8.324883056640624,0.001066667726263404,0.0006172936409711838,-0.0013841695617884398
1772562815679951000,8.334951171875,-0.00030272966250777245,0.0006511155515909195,-0.000023826956748962402
1772562815690018300,8.345018310546875,-0.002090021036565304,0.0009198507759720087,0.0003482487518340349
1772562815700085200,8.355085205078124,-0.0013800221495330334,0.0005749715492129326,-0.0013764143222942948
1772562815710152200,8.365152099609375,-0.0004577874206006527,-0.00019237585365772247,0.00045525142922997475
1772562815720219100,8.37521923828125,0.0019070996204391122,0.0013109787832945585,-0.0013149516889825463
1772562815730287000,8.385287109375,-0.0005555720999836922,0.000692055094987154,-0.000040311599150300026
1772562815740354000,8.39535400390625,-0.0003590306732803583,-0.001937017310410738,0.0004555690102279186
1772562815750421000,8.4054208984375,-0.002793907653540373,0.0019394627306610346,-0.0014120624400675297
1772562815760488200,8.41548828125,-0.000058042118325829506,-0.0005838824436068535,-0.0013665223959833384
1772562815770555100,8.42555517578125,-0.0012302377726882696,-0.0012016906403005123,-0.001047563273459673
1772562815780622300,8.435622314453125,0.00004195398651063442,0.0005802302621304989,0.0018520867452025414
1772562815790690300,8.445690185546875,0.000022926367819309235,-0.0012996727600693703,-0.00047034071758389473
1772562815800757200,8.45575732421875,-0.00012035178951919079,0.00020927423611283302,-0.0008434494957327843
1772562815810824200,8.46582421875,0.000502976356074214,-0.001483737025409937,-0.0003275678027421236
1772562815820891100,8.47589111328125,-0.0016515208408236504,0.00008353358134627342,0.001330249710008502
1772562815830958000,8.4859580078125,0.0006786766462028027,0.0006812824867665768,-0.0019316185498610139
1772562815841025000,8.49602490234375,-0.0010425243526697159,-0.0010830620303750038,0.0016639153473079205
1772562815851093000,8.506093017578126,-0.0004830639809370041,-0.001128531526774168,-0.002028039190918207
1772562815861160000,8.516159912109375,0.00038113188929855824,0.0008592519443482161,-0.0011113793589174747
1772562815871227400,8.526227294921876,0.0013900172198191285,0.0008489361498504877,0.00001558614894747734
1772562815881294300,8.53629443359375,0.001057654619216919,-0.00099477032199502,-0.0007865580264478922
1772562815891361300,8.546361328125,-0.0005263288039714098,-0.0020842542871832848,0.00009600701741874218
1772562815901429200,8.55642919921875,-0.00030874856747686863,0.0004761088639497757,0.0005735119339078665
1772562815911496200,8.56649609375,0.0014023490948602557,0.0017450053710490465,-0.00023214006796479225
1772562815921563000,8.57656298828125,0.0009946192149072886,-0.0009743482805788517,0.001975886756554246
1772562815931629800,8.5866298828125,0.001202225685119629,0.0007412726990878582,-0.002450081519782543
1772562815941696800,8.59669677734375,0.0023132963106036186,-0.0019668960012495518,-0.0011283548083156347
1772562815951764000,8.606763916015625,-0.0008545017335563898,-0.002858819905668497,-0.0008980047423392534
1772562815961832000,8.61683203125,-0.0015152320265769958,0.00243581086397171,-0.0024759278167039156
1772562815971899000,8.62689892578125,-0.0005804682150483131,-0.00013754982501268387,-0.0012988223461434245
1772562815981966000,8.636966064453125,-0.000015611760318279266,-0.0009564715437591076,-0.00037150969728827477
1772562815992033000,8.647032958984376,0.0008050738833844662,-0.001007959246635437,0.003631766652688384
1772562816002100000,8.657099853515625,-0.00040639820508658886,0.0008445354178547859,-0.0010452766437083483
1772562816012167000,8.6671669921875,0.001318911905400455,-0.0015274081379175186,-0.0023676983546465635
1772562816022235000,8.67723486328125,0.0010933422017842531,-0.0008227359503507614,0.0020033479668200016
1772562816032301800,8.6873017578125,0.0008821326773613691,0.0019274377264082432,-0.0025563016533851624
1772562816042368800,8.69736865234375,-0.00013892329297959805,-0.002342674881219864,-0.004252469167113304
1772562816052436000,8.70743603515625,0.0012776318471878767,-0.00030431803315877914,-0.0009551460389047861
1772562816062503000,8.7175029296875,0.0012944097397848964,-0.00003187684342265129,0.0003980060573667288
1772562816072571000,8.72757080078125,0.0014564789598807693,0.0009511024691164494,-0.002259089145809412
1772562816082637800,8.737637939453125,-0.000409864354878664,0.00006453599780797958,0.001624332508072257
1772562816092705000,8.747705078125,-0.0006354157812893391,-0.0006305836141109467,0.0008741305209696293
1772562816102770700,8.757770751953124,-0.0005824188701808453,-0.0009323200210928917,-0.0010108547285199165
1772562816112838000,8.767837890625,0.0003780859988182783,0.00019227899610996246,-0.0024071549996733665
1772562816122905900,8.77790576171875,-0.0005052846390753984,0.00080906692892313,0.0001303048338741064
1772562816132973000,8.78797314453125,0.002865927992388606,-0.0003476911224424839,-0.0016721241408959031
1772562816143040000,8.7980400390625,-0.00019058212637901306,-0.0002486216835677624,-0.001993034966289997
1772562816153107000,8.80810693359375,0.0001509294379502535,-0.000709685031324625,0.0007900032214820385
1772562816163174000,8.818173828125,-0.0000591939315199852,-0.00021353829652071,0.0008126404136419296
1772562816173240800,8.82824072265625,-0.00021259929053485394,-0.0003201994113624096,0.0036997750867158175
1772562816183308800,8.838308837890626,0.0009072599932551384,-0.0007974379695951939,0.001980704488232732
1772562816193375700,8.848375732421875,0.0005610673688352108,-0.0010403143242001534,-0.0035476547200232744
1772562816203442700,8.858442626953124,-0.0012189897242933512,0.0030162124894559383,-0.0019827813375741243
1772562816213510000,8.868510009765625,0.0005536845419555902,-0.0010104612447321415,-0.00041334284469485283
1772562816223577000,8.8785771484375,0.0010783273028209805,0.0009000906720757484,-0.0012383901048451662
1772562816233645000,8.88864501953125,0.001187697285786271,-0.0008010086603462696,0.0007007282692939043
1772562816243712000,8.8987119140625,-0.002195049775764346,0.0016288596671074629,-0.0009368495084345341
1772562816253779000,8.908779052734374,0.00005838274955749512,0.0008387567941099405,0.0015642729122191668
1772562816263846000,8.918845947265625,0.0023716045543551445,0.00016950443387031555,-0.00001604692079126835
1772562816273912800,8.928912841796874,-0.0034465135540813208,-0.0006392290815711021,0.002197025576606393
1772562816283979800,8.938979736328125,0.000768737867474556,-0.0009622708894312382,-0.0024728274438530207
1772562816294047700,8.9490478515625,0.0009095915593206882,0.0009239118080586195,-0.0013470497215166688
1772562816304115000,8.959114990234376,0.0006478028371930122,0.0012621332425624132,-0.0023457352072000504
1772562816314182000,8.969181884765625,0.0022917790338397026,0.0004991395398974419,0.0014302225317806005
1772562816324248800,8.979248779296874,0.00007043639197945595,-0.0008971556089818478,0.0006760153919458389
1772562816334316000,8.98931591796875,0.00041926419362425804,0.0016194938216358423,-0.00423418078571558
1772562816344383000,8.999383056640625,-0.0014939506072551012,0.0019827489741146564,0.00008866260759532452
1772562816354451000,9.009450927734376,0.0007185100112110376,-0.0009045707993209362,-0.002343499567359686
1772562816364518000,9.019517822265625,0.00122504320461303,0.0009180966299027205,-0.00020711170509457588
1772562816374584800,9.029584716796874,0.00010200287215411663,0.00042702071368694305,-0.0008104078005999327
1772562816384651800,9.03965185546875,0.0023627602495253086,0.0002778833732008934,-0.0022852662950754166
1772562816394719000,9.049718994140624,0.000961139565333724,-0.0004132031463086605,-0.0016127333510667086
1772562816404787000,9.059786865234376,0.0008117363322526217,0.000269897747784853,0.0009676034096628428
1772562816414854000,9.06985400390625,0.0011361875804141164,0.0011638514697551727,0.0003327885642647743
1772562816424920800,9.0799208984375,0.001396911102347076,0.0002703610807657242,0.0032151276245713234
1772562816434988000,9.089988037109375,0.0002600208390504122,0.000604929868131876,-0.0013907795073464513
1772562816445055000,9.100054931640624,0.0022102538496255875,0.0008355593308806419,0.0014361657667905092
1772562816455122000,9.110121826171875,-0.00020073563791811466,-0.0011429334990680218,0.0024786365684121847
1772562816465190000,9.12018994140625,-0.0013179315719753504,-0.0015671751461923122,-0.0017717685550451279
1772562816475256800,9.1302568359375,0.0011621215380728245,0.00010892795398831367,0.003601547796279192
1772562816485324000,9.140323974609375,-0.00036094035021960735,-0.0011462201364338398,-0.00022488203831017017
1772562816495391700,9.150391845703124,-0.0015174795407801867,-0.0010703494772315025,-0.0033476506359875202
1772562816505459000,9.160458984375,0.0005981354042887688,0.000040455255657434464,0.0006441613659262657
1772562816515527000,9.17052685546875,0.0010771305533125997,0.002010470489040017,-0.004327625967562199
1772562816525594000,9.180593994140626,0.0001823084894567728,-0.0003424324095249176,-0.0038541159592568874
1772562816535661000,9.1906611328125,0.001234262716025114,0.0011146191973239183,0.0011475298088043928
1772562816545728000,9.20072802734375,-0.0018526073545217514,-0.0028162063099443913,-0.00032972567714750767
1772562816555795000,9.210794921875,-0.0012481336016207933,-0.0010116836056113243,-0.0013911764835938811
1772562816565863000,9.22086279296875,0.001680011861026287,0.001794489100575447,-0.0011128762271255255
1772562816575929900,9.230929931640626,0.0011427366407588124,-0.0017114747315645218,0.0009570859838277102
1772562816585996800,9.240996826171875,-0.00036407983861863613,-0.00012556230649352074,0.00042738323099911213
1772562816596063700,9.251063720703126,-0.00017330795526504517,0.00302058644592762,-0.003387759206816554
1772562816606131000,9.261130859375,0.00044774124398827553,0.002177695743739605,-0.0029845566023141146
1772562816616198000,9.271197998046874,0.0011118851834908128,-0.0005948655307292938,-0.0016728992341086268
1772562816626266000,9.28126611328125,0.0009712702594697475,-0.0004704962484538555,0.0018970679957419634
1772562816636333000,9.2913330078125,0.00012948736548423767,0.000852065859362483,-0.0000058996956795454025
1772562816646400000,9.30139990234375,-0.0028596448246389627,-0.0032350877299904823,0.0032439555507153273
1772562816656467000,9.311467041015625,-0.00010976078920066357,-0.0017314082942903042,-0.004147413186728954
1772562816666534000,9.321533935546874,0.0002487008459866047,-0.00032685743644833565,-0.00006638513877987862
1772562816676600800,9.331600830078125,0.00032194959931075573,0.0006918255239725113,0.0014509770553559065
1772562816686668800,9.341668701171875,-0.00008285068906843662,-0.0011534783989191055,0.00004962179809808731
1772562816696735700,9.35173583984375,-0.0007492126896977425,-0.0018793568015098572,-0.0009156824089586735
1772562816706803000,9.361802978515625,0.0004553350154310465,-0.000864426139742136,0.0033823931589722633
1772562816716870000,9.371869873046874,-0.0014969275798648596,0.000815229956060648,-0.0025882592890411615
1772562816726936800,9.381936767578125,0.0006522433832287788,0.0017001982778310776,-0.0025155548937618732
1772562816737005000,9.392005126953125,-0.00227352580986917,0.0002958010882139206,-0.0021473218221217394
1772562816747072000,9.402072021484376,0.00021626334637403488,-0.0013010301627218723,0.00269963126629591
1772562816757139000,9.412138916015625,0.0012503585312515497,-0.00021325470879673958,-0.0018388329772278666
1772562816767206000,9.422205810546876,-0.0003275643102824688,0.0005034017376601696,-0.002458284143358469
1772562816777272800,9.43227294921875,-0.00030749873258173466,-0.0006412146613001823,0.001287292456254363
1772562816787340000,9.442340087890624,0.00007439847104251385,-0.000744545366615057,-0.002494396176189184
1772562816797407700,9.45240771484375,-0.0004657483659684658,0.0007722452282905579,0.0013975105248391628
1772562816807475000,9.462474853515625,0.0022868949454277754,0.001970667624846101,0.00031706620939075947
1772562816817542000,9.4725419921875,-0.00138828344643116,-0.0028041978366672993,-0.0003312972839921713
1772562816827608800,9.48260888671875,-0.0009954674169421196,-0.0009146849624812603,0.0004825647920370102
1772562816837675800,9.49267578125,-0.0007848311215639114,0.002933987183496356,-0.002135722665116191
1772562816847742700,9.50274267578125,0.0004854965955018997,0.00015710899606347084,-0.0008084031287580729
1772562816857811000,9.51281103515625,-0.0006505276542156935,-0.0014686924405395985,-0.001000713324174285
1772562816867878000,9.5228779296875,-0.0006233633030205965,-0.00005934759974479675,-0.0025815656408667564
1772562816877944800,9.53294482421875,0.0003972351551055908,-0.001807974185794592,0.003244266379624605
1772562816888012000,9.543011962890626,0.0006979058962315321,-0.0010734745301306248,0.000744357006624341
1772562816898079000,9.553078857421875,0.0002244473434984684,-0.0009633447043597698,0.002171758795157075
1772562816908147000,9.56314697265625,-0.0011638584546744823,0.00046703917905688286,0.0019800111185759306
1772562816918214100,9.573214111328125,-0.00013517122715711594,0.00013032276183366776,-0.0007327150087803602
1772562816928281000,9.583281005859375,-0.0016646245494484901,0.002175630535930395,-0.00007944158278405666
1772562816938348000,9.59334814453125,-0.00017191539518535137,0.00099841202609241,-0.0005868666339665651
1772562816948415000,9.6034150390625,0.00031624198891222477,0.0007190462201833725,0.0018882753793150187
1772562816958482200,9.613482177734374,0.0016865171492099762,0.0012982639018446207,0.001265206141397357
1772562816968550100,9.623550048828125,-0.0018411059863865376,0.0006660292856395245,-0.00006877142004668713
1772562816978617000,9.6336171875,-0.0007776853162795305,0.0015173463616520166,0.0008307085372507572
1772562816988684300,9.643684326171876,0.00019277050159871578,-0.002137575764209032,-0.0011171277146786451
1772562816998751200,9.653751220703125,-0.0011502164416015148,0.0008895331993699074,0.0004550425801426172
1772562817008818200,9.663818115234376,-0.0007254425436258316,0.001662116264924407,0.00045850477181375027
1772562817018886100,9.67388623046875,-0.001350863603875041,0.0009359146934002638,0.0017269658856093884
1772562817028953000,9.683953125,0.000015604309737682343,0.0005819806829094887,-0.0001510954461991787
1772562817039020000,9.69402001953125,-0.0022577582858502865,0.0017531500197947025,0.0012097600847482681
1772562817049087000,9.7040869140625,-0.0005139203276485205,-0.0027688974514603615,-0.001379098859615624
1772562817059154200,9.714154296875,0.0011700487229973078,0.0003876429982483387,0.0010841602925211191
1772562817069221400,9.724221435546875,-0.0018161539919674397,-0.002022517379373312,-0.0018439851701259613
1772562817079289000,9.7342890625,-0.00019041518680751324,0.00007629208266735077,-0.003124306909739971
1772562817089356300,9.744356201171875,-0.0004005385562777519,0.0014973548240959644,0.00004405598156154156
1772562817099423200,9.75442333984375,-0.0008368242997676134,0.0019871164113283157,0.0008069400209933519
1772562817109490200,9.764490234375,-0.0008924845606088638,0.0017421056982129812,-0.0009717852808535099
1772562817119557000,9.77455712890625,-0.00028479844331741333,-0.0009014117531478405,0.00012675626203417778
1772562817129624000,9.7846240234375,-0.00008719204925000668,0.0009534801356494427,-0.003460255451500416
1772562817139692000,9.794692138671875,0.001204855041578412,0.0006302534602582455,-0.0005896191578358412
1772562817149759000,9.804759033203124,-0.000901438994333148,-0.00022994773462414742,0.00044182315468788147
1772562817159826000,9.814825927734375,0.0006777755916118622,0.00029611820355057716,0.0001400006003677845
1772562817169893400,9.824893310546875,-0.000641554594039917,0.0017392851877957582,-0.0002139334101229906
1772562817179960300,9.834960205078126,-0.0003474927507340908,-0.0010419031605124474,-0.0007115253247320652
1772562817190028300,9.8450283203125,0.00036650081165134907,0.0009429510682821274,0.001217402284964919
1772562817200095200,9.85509521484375,-0.0005278715398162603,-0.0013246098533272743,0.0015630759298801422
1772562817210162200,9.865162109375,0.00043699168600142,-0.0008795959874987602,-0.0008931576739996672
1772562817220229000,9.87522900390625,0.002879659179598093,0.0004894295707345009,0.0014132352080196142
1772562817230296000,9.885296142578126,-0.0009917779825627804,0.0001413547433912754,-0.001761785475537181
1772562817240363000,9.895363037109375,0.0006066386122256517,0.0008424841798841953,-0.0019674631766974926
1772562817250431000,9.905430908203124,-0.0006072302348911762,0.0005146488547325134,-0.002063336782157421
1772562817260498000,9.915497802734375,0.00021537416614592075,-0.00038307299837470055,-0.0018716889899224043
1772562817270565400,9.9255654296875,-0.00022830837406218052,-0.0003804098814725876,0.0005182316526770592
1772562817280632300,9.93563232421875,0.0013614961644634604,0.00004965253174304962,-0.002764459466561675
1772562817290699300,9.94569921875,0.0014059708919376135,0.004014034289866686,-0.0010829395614564419
1772562817300767200,9.955767333984374,0.0008263024501502514,-0.0020466651767492294,0.00036816694773733616
1772562817310834200,9.965834228515625,-0.00048237480223178864,0.0016532647423446178,-0.00004195980727672577
1772562817320901000,9.975901123046874,-0.0012338871601969004,0.0023153803776949644,-0.0011519594117999077
1772562817330968000,9.985968017578125,0.000024190405383706093,-0.0006596366874873638,-0.0003050742670893669
1772562817341035000,9.996034912109375,0.0014685638016089797,-0.0003391820937395096,-0.0012843423755839467
1772562817351102200,10.006102294921876,-0.00008512428030371666,-0.00014317361637949944,-0.0006638257764279842
1772562817361170200,10.016170166015625,0.0006048157811164856,-0.00024113524705171585,-0.002168368548154831
1772562817371237000,10.026237060546874,0.00026499642990529537,0.0007791216485202312,-0.0006314583588391542
1772562817381304300,10.03630419921875,0.0007677348330616951,0.001555657247081399,0.0006679538637399673
1772562817391371300,10.046371337890625,0.003332359017804265,-0.000503765419125557,0.0015097791329026222
1772562817401438200,10.056438232421876,0.0008766998071223497,0.0009283865801990032,0.00015288195572793484
1772562817411505200,10.066505126953125,0.0011041336692869663,0.0023846030235290527,0.001729739597067237
1772562817421573000,10.076572998046874,-0.0008202691096812487,-0.0005679917521774769,-0.0006673156749457121
1772562817431640000,10.08664013671875,0.0008053246419876814,-0.0009347088634967804,-0.0005546638276427984
1772562817441707000,10.09670703125,0.0012277698842808604,-0.0010770889930427074,-0.0015631860587745905
1772562817451774200,10.106774169921875,0.00041151116602122784,0.000691782683134079,0.00038038892671465874
1772562817461841200,10.116841064453125,0.0007485309615731239,0.003013401757925749,-0.0014554137596860528
1772562817471909000,10.1269091796875,0.00133788853418082,0.0006394600495696068,0.0010663336142897606
1772562817481976300,10.136976318359375,-0.002739246701821685,0.0004405979998409748,0.0010210589971393347
1772562817492043300,10.147043212890624,0.00021020392887294292,-0.002040136605501175,-0.0009411582723259926
1772562817502110200,10.157110107421875,-0.0005599136929959059,0.00018765218555927277,0.0000024882610887289047
1772562817512177200,10.16717724609375,-0.00007228879258036613,-0.0006571025587618351,0.0003297906368970871
1772562817522244000,10.177244140625,-0.0009254780597984791,0.0007504401728510857,0.0014366807881742716
1772562817532312000,10.18731201171875,-0.0003033638931810856,0.0019549878779798746,0.00010430160909891129
1772562817542379300,10.197379150390624,0.0013147910358384252,-0.0003758515231311321,0.0004936330951750278
1772562817552446200,10.2074462890625,0.000043131643906235695,-0.0004490884020924568,-0.0006379440892487764
1772562817562513200,10.21751318359375,-0.00032479618676006794,0.000035931821912527084,0.00005660834722220898
1772562817572580000,10.227580078125,0.0006443280726671219,0.00044206390157341957,0.0014209458604454994
1772562817582648000,10.23764794921875,0.0007399984169751406,0.0028616171330213547,-0.0029380780179053545
1772562817592715300,10.24771533203125,0.0025698563549667597,-0.00125855952501297,-0.0008754597511142492
1772562817602782200,10.2577822265625,0.0015883012674748898,-0.0003073844127357006,0.0005844803526997566
1772562817612849200,10.26784912109375,0.0023811243008822203,0.001837259391322732,-0.001460827304981649
1772562817622916000,10.277916015625,-0.00029806001111865044,-0.001945052295923233,-0.00026878248900175095
1772562817632983300,10.2879833984375,-0.000826164847239852,-0.0021069725044071674,0.001955755753442645
1772562817643051300,10.29805126953125,-0.0007152720354497433,0.00013667484745383263,0.002660453552380204
1772562817653118200,10.3081181640625,0.0014328337274491787,0.0015971523243933916,-0.0005233555566519499
1772562817663185200,10.31818505859375,-0.0024233204312622547,-0.00013752654194831848,0.0017460724338889122
1772562817673252000,10.328252197265625,0.0005951062776148319,0.0008742082864046097,0.000180133618414402
1772562817683319000,10.338319091796874,-0.0010657352395355701,-0.001309722661972046,-0.000029001617804169655
1772562817693386000,10.348385986328125,-0.00026652030646800995,0.0028219050727784634,-0.0010985269909724593
1772562817703454200,10.3584541015625,-0.0006752407643944025,-0.0011840690858662128,-0.0005194009281694889
1772562817713521200,10.368521240234376,0.00017830217257142067,0.0013515267055481672,-0.0001803804188966751
1772562817723588400,10.37858837890625,0.0015682546654716134,-0.00002034427598118782,-0.001442497130483389
1772562817733655300,10.3886552734375,0.0012593279825523496,0.000580198597162962,-0.0013250517658889294
1772562817743722200,10.39872216796875,0.0012371041812002659,0.0007076417095959187,0.0002111832145601511
1772562817753790200,10.408790283203125,0.002620882820338011,0.0004999153316020966,0.0003256993368268013
1772562817763857200,10.418857177734376,0.001411374076269567,0.0015666517429053783,-0.002785111078992486
1772562817773924000,10.428924072265625,0.0009482502937316895,-0.0008930438198149204,0.0007803288754075766
1772562817783991000,10.438990966796876,0.0002535744570195675,0.0009971964173018932,-0.0016736576799303293
1772562817794058000,10.44905810546875,0.00008100178092718124,-0.0008877888321876526,0.0013192025944590569
1772562817804125200,10.459125244140624,0.00038040056824684143,-0.000468268059194088,0.0014774578157812357
1772562817814193200,10.469193115234376,-0.0005181499291211367,-0.00031939754262566566,0.0020713426638394594
1772562817824260400,10.47926025390625,0.0010401257313787937,0.00020512007176876068,-0.00013493304140865803
1772562817834327300,10.489327392578126,-0.00047760969027876854,-0.00042631570249795914,-0.0019722478464245796
1772562817844394200,10.499394287109375,0.0008436772041022778,0.0007961892988532782,-0.0006863623857498169
1772562817854461200,10.509461181640624,0.0002276881132274866,0.00015010638162493706,0.00014214706607162952
1772562817864528100,10.519528076171875,0.0015646930551156402,0.00028433045372366905,-0.0017075096257030964
1772562817874596000,10.52959619140625,-0.00048114731907844543,0.0007810099050402641,-0.00018870900385081768
1772562817884663000,10.5396630859375,-0.0009336885996162891,0.0003196229226887226,0.00007754494436085224
1772562817894730000,10.54972998046875,0.0006487618666142225,0.0008557173423469067,0.0010740996804088354
1772562817904797200,10.559797119140624,-0.00020219944417476654,-0.00033128680661320686,0.0004196625668555498
1772562817914864000,10.569864013671875,-0.00027783308178186417,-0.001300677191466093,-0.000430418411269784
1772562817924932400,10.579932373046875,0.0013940942008048296,-0.0009760088287293911,-0.001116323983296752
1772562817934999600,10.58999951171875,0.00199064239859581,-0.00002819020301103592,-0.0036971934605389833
1772562817945066500,10.60006640625,-0.0020710881799459457,-0.00012021884322166443,-0.0007604386191815138
1772562817955133400,10.610133544921876,-0.001724078319966793,-0.0021578031592071056,0.0013285446912050247
1772562817965200400,10.620200439453125,-0.0026751509867608547,0.0006104768253862858,0.0016544293612241745
1772562817975267300,10.630267333984374,-0.0006335717625916004,0.0018722822424024343,-0.0007259042467921972
1772562817985335300,10.640335205078125,0.0030436234083026648,0.000550644937902689,-0.002128864638507366
1772562817995402200,10.65040234375,-0.0005146260373294353,0.0008995188400149345,-0.0010508170817047358
1772562818005469400,10.660469482421876,0.0024962718598544598,0.001754013355821371,-0.001245927531272173
1772562818015536400,10.670536376953125,-0.0010931366123259068,-0.0007229926995933056,-0.00017959787510335445
1772562818025603300,10.680603271484374,0.00060639763250947,0.00011947005987167358,-0.0012987990630790591
1772562818035671600,10.690671630859375,0.0004870879929512739,-0.0020190482027828693,-0.0008961290586739779
1772562818045738500,10.700738525390625,-0.0005733480211347342,-0.00044555962085723877,-0.001446764450520277
1772562818055805400,10.710805419921876,0.0004272016230970621,0.0001896042376756668,-0.0019117523916065693
1772562818065872400,10.720872314453125,-0.0012883995659649372,-0.0007491982541978359,0.000492156483232975
1772562818075939300,10.730939208984376,0.0013646413572132587,0.0004167337901890278,0.0006088027730584145
1772562818086006500,10.741006591796875,-0.00030832691118121147,-0.00016733352094888687,-0.0042051887139678
1772562818096074200,10.75107421875,-0.00014773826114833355,0.0005437307991087437,-0.0022051548585295677
1772562818106141400,10.761141357421875,-0.00016716495156288147,0.0005531990900635719,0.0010120265651494265
1772562818116208400,10.77120849609375,-0.0003487924113869667,0.00010339124128222466,-0.0020348960533738136
1772562818126275300,10.781275390625,-0.0004369090311229229,0.0011110210325568914,0.0006379473488777876
1772562818136342300,10.79134228515625,0.0001393989659845829,-0.0019968878477811813,-0.0009498291183263063
1772562818146410500,10.801410400390624,-0.0013382635079324245,0.0016987896524369717,-0.0007517323829233646
1772562818156477400,10.8114775390625,-0.0015374678187072277,-0.0008445293642580509,0.0004834418650716543
1772562818166544400,10.82154443359375,0.0004798686131834984,0.0006326180882751942,0.00047829141840338707
1772562818176611300,10.831611328125,0.0014585803728550673,0.0008134464733302593,-0.0012876507826149464
1772562818186678500,10.841678466796875,0.0007690635975450277,-0.0006965026259422302,-0.0007666377350687981
1772562818196745500,10.851745361328126,-0.0009239078499376774,0.002141361590474844,0.0021087771747261286
1772562818206813400,10.8618134765625,0.0018163684289902449,0.00016890838742256165,0.0005610398948192596
1772562818216880400,10.87188037109375,-0.0003194867167621851,0.0014799826312810183,-0.001213424257002771
1772562818226947300,10.881947265625,0.0006695536430925131,0.0006110030226409435,0.0011200085282325745
1772562818237014300,10.89201416015625,-0.00000955234281718731,0.0011966321617364883,0.0005583479069173336
1772562818247081500,10.90208154296875,-0.0010331752710044384,-0.0013371049426496029,0.002399422461166978
1772562818257148400,10.9121484375,-0.00004540872760117054,0.0004232446663081646,0.00006489548832178116
1772562818267216400,10.92221630859375,-0.0006329384632408619,-0.0009127100929617882,0.003325166879221797
1772562818277283300,10.932283447265625,0.0015037156408652663,-0.0008602458983659744,-0.0017223223112523556
1772562818287350500,10.9423505859375,-0.0026856500189751387,0.0017955380026251078,0.00016655540093779564
1772562818297417500,10.95241748046875,0.00012158812023699284,0.0008551757782697678,0.0012544568162411451
1772562818307484400,10.962484375,-0.0015459356363862753,-0.0011146832257509232,0.0003715043421834707
1772562818317552400,10.972552490234374,0.0008098967373371124,0.0013580620288848877,-0.0017869877628982067
1772562818327619300,10.982619384765625,-0.00030635506846010685,-0.0014739208854734898,-0.0005692483391612768
1772562818337686300,10.992686279296874,0.00027128448709845543,-0.0016699293628335,-0.0004174483474344015
1772562818347753200,11.002753173828125,0.00035653659142553806,0.00039293430745601654,0.0001455999445170164
1772562818357820400,11.0128203125,-0.001003539888188243,-0.0016853967681527138,0.0014002150855958462
1772562818367887600,11.0228876953125,-0.002019891981035471,-0.00128195621073246,0.003700925735756755
1772562818377955300,11.032955322265625,-0.00005820742808282375,-0.00008246861398220062,0.0015914358664304018
1772562818388022500,11.0430224609375,-0.0008473393972963095,-0.0004862775094807148,0.0008981956634670496
1772562818398089500,11.05308935546875,0.00007038586772978306,-0.00146578811109066,-0.0004855829756706953
1772562818408156400,11.063156494140625,-0.0013808845542371273,0.0016725393943488598,0.0016528347041457891
1772562818418223400,11.073223388671876,0.0013238216051831841,-0.0011466830037534237,-0.0005258976016193628
1772562818428291300,11.083291259765625,-0.0006031610537320375,-0.0004189801402390003,0.001378311077132821
1772562818438358300,11.093358154296874,0.0004977895878255367,-0.0010323058813810349,0.0017365061212331057
1772562818448425200,11.10342529296875,0.00020004482939839363,-0.0012047579512000084,-0.00035169487819075584
1772562818458492400,11.113492431640625,-0.00033684843219816685,-0.0017837290652096272,-0.0013088349951431155
1772562818468559600,11.1235595703125,0.0009313477203249931,0.00012295879423618317,-0.0012642759829759598
1772562818478626600,11.13362646484375,-0.0001371125690639019,-0.002308773808181286,0.0012183228973299265
1772562818488694500,11.143694580078124,-0.00035894056782126427,-0.00040590064600110054,-0.0025837484281510115
1772562818498761500,11.153761474609375,-0.0011277953162789345,0.0023105235304683447,0.002776395995169878
1772562818508828400,11.163828369140624,0.0003862520679831505,0.0005035377107560635,0.0013508901465684175
1772562818518895400,11.173895263671875,-0.0015341532416641712,0.0007477495819330215,0.0007452871650457382
1772562818528962300,11.18396240234375,-0.001381763955578208,0.0002420763485133648,-0.00476433802396059
1772562818539030300,11.1940302734375,-0.000940744299441576,0.0018391739577054977,0.0018277845811098814
1772562818549097200,11.20409716796875,0.0006969517562538385,-0.0002660779282450676,-0.0011496014194563031
1772562818559164200,11.2141640625,-0.0018106806091964245,0.0003246110863983631,-0.0022002183832228184
1772562818569231600,11.224231689453125,0.00013903900980949402,0.0021415958181023598,0.0007286984473466873
1772562818579298600,11.234298583984375,0.0014109646435827017,0.002437473041936755,0.00031857145950198174
1772562818589365500,11.244365478515626,-0.00012903520837426186,-0.000023474451154470444,-0.0017739711329340935
1772562818599433500,11.25443359375,-0.000717859948053956,-0.0012756926007568836,0.0005690779071301222
1772562818609500400,11.26450048828125,-0.0001405992079526186,-0.0006630043499171734,0.0012251674197614193
1772562818619567400,11.2745673828125,0.00032119289971888065,-0.00045714201405644417,0.0009396763052791357
1772562818629634300,11.28463427734375,-0.0025657634250819683,0.00014181854203343391,0.0003394645173102617
1772562818639701200,11.294701171875,-0.0012024911120533943,-0.0010363641194999218,0.0004318763967603445
1772562818649768400,11.3047685546875,-0.0007902071811258793,-0.0008402373641729355,-0.002510485937818885
1772562818659836400,11.31483642578125,-0.0007654398214071989,-0.00022344943135976791,0.001642181072384119
1772562818669903600,11.324903564453125,-0.0007958449423313141,-0.0007088202983140945,-0.0017073818016797304
1772562818679970600,11.334970458984374,-0.0006246035918593407,0.000009434297680854797,0.0002300678752362728
1772562818690037500,11.34503759765625,-0.00006938097067177296,-0.00024739978834986687,-0.00008778087794780731
1772562818700104400,11.3551044921875,-0.00011385581456124783,0.000588566530495882,0.0024025412276387215
1772562818710172400,11.36517236328125,0.0004750278312712908,-0.0011531109921634197,0.0003607317339628935
1772562818720239400,11.3752392578125,-0.00006532762199640274,-0.0015014526434242725,0.0006518152076750994
1772562818730306300,11.385306396484374,-0.0008046869188547134,-0.000674145296216011,-0.00003779446706175804
1772562818740373200,11.395373291015625,-0.0020638296846300364,0.0016356143169105053,0.0027963416650891304
1772562818750440400,11.4054404296875,-0.00015658955089747906,-0.0005034706555306911,-0.0005186086054891348
1772562818760507400,11.41550732421875,-0.0005171813536435366,-0.00041585275903344154,-0.000049892114475369453
1772562818770575400,11.425575439453125,-0.0006051368545740843,-0.0016984110698103905,-0.0022864092607051134
1772562818780642600,11.435642578125,0.00029900623485445976,-0.0009894776158034801,-0.0004941017832607031
1772562818790709500,11.44570947265625,0.00046703778207302094,-0.0012607770040631294,-0.002147464081645012
1772562818800776400,11.4557763671875,-0.0018341995310038328,-0.001695405226200819,-0.0009767382871359587
1772562818810843400,11.465843505859375,0.0005612832028418779,-0.00042651407420635223,-0.0011776096653193235
1772562818820910300,11.475910400390624,-0.0005931970663368702,-0.001026524230837822,0.0014844860415905714
1772562818830978300,11.485978271484376,0.00012596766464412212,-0.00020052911713719368,-0.002272960264235735
1772562818841045500,11.49604541015625,-0.00034434651024639606,0.0018397185485810041,-0.001877214526757598
1772562818851112400,11.506112548828124,0.002100700978189707,0.0001413365826010704,0.0008927090093493462
1772562818861179400,11.516179443359375,0.0010298436973243952,0.000010575633496046066,0.0024770237505435944
1772562818871246300,11.526246337890624,0.00008707493543624878,0.0019132269080728292,-0.000954026822000742
1772562818881314600,11.536314453125,0.0009448791388422251,0.0008698003366589546,-0.0020267481449991465
1772562818891381500,11.546381591796875,-0.00046839192509651184,-0.0003197742626070976,-0.000756631838157773
1772562818901448400,11.556448486328126,0.0018842446152120829,0.0014666742645204067,-0.0007734098471701145
1772562818911515400,11.566515380859375,-0.00018385681323707104,-0.0004409598186612129,0.00014791777357459068
1772562818921582300,11.576582275390624,0.0014103115536272526,-0.002265757881104946,0.0013551285956054926
1772562818931649500,11.5866494140625,0.0024960855953395367,0.0004755565896630287,-0.0005969209596514702
1772562818941717500,11.596717529296875,-0.0006075624842196703,-0.0007233982905745506,-0.0001897234469652176
1772562818951784700,11.60678466796875,0.0012305480195209384,-0.0008634510450065136,-0.002259975066408515
