time,seconds_elapsed,z,y,x
1772457419971109400,0.057109375,-0.9736480712890625,-0.2821044921875,0.029144287109375
1772457419981177600,0.067177490234375,-0.956939697265625,-0.2830657958984375,0.0369720458984375
1772457419991246300,0.077246337890625,-0.9438629150390625,-0.283233642578125,0.043060302734375
1772457420001315300,0.0873154296875,-0.9442138671875,-0.281890869140625,0.043914794921875
1772457420011383600,0.097383544921875,-0.9596710205078125,-0.278076171875,0.0356903076171875
1772457420021452500,0.10745263671875,-0.97308349609375,-0.2740478515625,0.0291595458984375
1772457420031521500,0.117521484375,-0.968536376953125,-0.275115966796875,0.0313720703125
1772457420041590500,0.127590576171875,-0.9605560302734375,-0.27801513671875,0.03521728515625
1772457420051658500,0.137658447265625,-0.956451416015625,-0.2780609130859375,0.037994384765625
1772457420061727500,0.1477275390625,-0.947509765625,-0.2772064208984375,0.0406951904296875
1772457420071796500,0.15779638671875,-0.94281005859375,-0.28143310546875,0.038177490234375
1772457420081864400,0.167864501953125,-0.9508514404296875,-0.2854461669921875,0.029022216796875
1772457420091933400,0.177933349609375,-0.9651641845703125,-0.28411865234375,0.0214385986328125
1772457420102002400,0.18800244140625,-0.971405029296875,-0.2866363525390625,0.017578125
1772457420112070700,0.198070556640625,-0.961761474609375,-0.2879486083984375,0.0185394287109375
1772457420122139400,0.208139404296875,-0.9509429931640625,-0.2908782958984375,0.01904296875
1772457420132208600,0.218208740234375,-0.94232177734375,-0.2931365966796875,0.020538330078125
1772457420142276600,0.228276611328125,-0.9442138671875,-0.2946929931640625,0.016021728515625
1772457420152345300,0.238345458984375,-0.954010009765625,-0.2934417724609375,0.0117034912109375
1772457420162414600,0.24841455078125,-0.959381103515625,-0.2904815673828125,0.0111846923828125
1772457420172482600,0.258482666015625,-0.9559173583984375,-0.2872161865234375,0.0149078369140625
1772457420182551300,0.26855126953125,-0.9484405517578125,-0.2867279052734375,0.0208740234375
1772457420192620500,0.27862060546875,-0.940338134765625,-0.2881927490234375,0.0229034423828125
1772457420202688500,0.2886884765625,-0.9351348876953125,-0.2875518798828125,0.0242156982421875
1772457420212757500,0.298757568359375,-0.9398040771484375,-0.28302001953125,0.02178955078125
1772457420222826500,0.308826416015625,-0.9523468017578125,-0.279205322265625,0.018157958984375
1772457420232894500,0.31889453125,-0.9609527587890625,-0.277069091796875,0.0155792236328125
1772457420242963500,0.32896337890625,-0.959259033203125,-0.27471923828125,0.015777587890625
1772457420253032400,0.339032470703125,-0.9508209228515625,-0.277191162109375,0.0172882080078125
1772457420263100400,0.349100341796875,-0.942230224609375,-0.2782135009765625,0.026611328125
1772457420273169400,0.35916943359375,-0.9415130615234375,-0.2787628173828125,0.0295562744140625
1772457420283238400,0.36923828125,-0.94769287109375,-0.2793731689453125,0.0283966064453125
1772457420293306600,0.379306640625,-0.9570770263671875,-0.277496337890625,0.026458740234375
1772457420303375400,0.389375244140625,-0.9602813720703125,-0.275970458984375,0.0238037109375
1772457420313444400,0.3994443359375,-0.960723876953125,-0.2781219482421875,0.0241851806640625
1772457420323513600,0.409513671875,-0.956878662109375,-0.279754638671875,0.028411865234375
1772457420333581600,0.41958154296875,-0.9510345458984375,-0.2803192138671875,0.0267486572265625
1772457420343650600,0.429650634765625,-0.953765869140625,-0.2811279296875,0.026580810546875
1772457420353719600,0.439719482421875,-0.9739227294921875,-0.2791748046875,0.0186614990234375
1772457420363787500,0.44978759765625,-0.986083984375,-0.2781829833984375,0.0139923095703125
1772457420373856500,0.4598564453125,-0.9801177978515625,-0.2800750732421875,0.0182952880859375
1772457420383925500,0.469925537109375,-0.9674072265625,-0.282989501953125,0.0216827392578125
1772457420393993500,0.479993408203125,-0.9493255615234375,-0.284515380859375,0.027313232421875
1772457420404062500,0.4900625,-0.943267822265625,-0.2860565185546875,0.025146484375
1772457420414131500,0.50013134765625,-0.95111083984375,-0.286529541015625,0.021270751953125
1772457420424199700,0.51019970703125,-0.95904541015625,-0.2819366455078125,0.01708984375
1772457420434268400,0.520268310546875,-0.9547882080078125,-0.2820587158203125,0.0149688720703125
1772457420444337400,0.53033740234375,-0.9462890625,-0.2844390869140625,0.0162200927734375
1772457420454405600,0.540405517578125,-0.9373931884765625,-0.2842559814453125,0.0198211669921875
1772457420464474400,0.550474365234375,-0.9311981201171875,-0.2816314697265625,0.021087646484375
1772457420474543600,0.560543701171875,-0.93585205078125,-0.28240966796875,0.0188446044921875
1772457420484611600,0.570611572265625,-0.9492645263671875,-0.28057861328125,0.0155792236328125
1772457420494680300,0.580680419921875,-0.959503173828125,-0.27880859375,0.0085296630859375
1772457420504749600,0.59074951171875,-0.9599609375,-0.2808380126953125,0.0035247802734375
1772457420514817500,0.600817626953125,-0.9477691650390625,-0.2859344482421875,0.0068206787109375
1772457420524886300,0.61088623046875,-0.942626953125,-0.287750244140625,0.0108642578125
1772457420534955500,0.62095556640625,-0.94342041015625,-0.2877349853515625,0.0125732421875
1772457420545023500,0.6310234375,-0.9462890625,-0.285003662109375,0.0134124755859375
1772457420555092500,0.641092529296875,-0.955291748046875,-0.285491943359375,0.00836181640625
1772457420565161500,0.651161376953125,-0.9642486572265625,-0.285369873046875,0.004058837890625
1772457420575229400,0.6612294921875,-0.958953857421875,-0.28497314453125,0.0054931640625
1772457420585298400,0.67129833984375,-0.9475555419921875,-0.286712646484375,0.0063018798828125
1772457420595367400,0.681367431640625,-0.940704345703125,-0.289581298828125,0.0131072998046875
1772457420605435400,0.691435302734375,-0.94207763671875,-0.289581298828125,0.0151519775390625
1772457420615504400,0.70150439453125,-0.946990966796875,-0.285308837890625,0.0126190185546875
1772457420625573400,0.711573486328125,-0.9455413818359375,-0.2863311767578125,0.0135955810546875
1772457420635642600,0.721642578125,-0.942413330078125,-0.2861175537109375,0.0154266357421875
1772457420645710600,0.731710693359375,-0.938720703125,-0.28631591796875,0.0148468017578125
1772457420655779300,0.741779296875,-0.9378662109375,-0.2848663330078125,0.0140228271484375
1772457420665848600,0.7518486328125,-0.948089599609375,-0.2823333740234375,0.0101318359375
1772457420675916500,0.76191650390625,-0.958740234375,-0.2803955078125,0.0075836181640625
1772457420685985500,0.771985595703125,-0.9586029052734375,-0.2819061279296875,0.0046539306640625
1772457420696054500,0.782054443359375,-0.951751708984375,-0.28497314453125,0.0086822509765625
1772457420706122500,0.79212255859375,-0.947021484375,-0.2865142822265625,0.0101470947265625
1772457420716191500,0.80219140625,-0.945556640625,-0.2911834716796875,0.0094757080078125
1772457420726260500,0.812260498046875,-0.9466094970703125,-0.292633056640625,0.009918212890625
1772457420736328400,0.822328369140625,-0.9497222900390625,-0.2911376953125,0.006134033203125
1772457420746397400,0.8323974609375,-0.9524688720703125,-0.2908172607421875,0.0069580078125
1772457420756466400,0.842466552734375,-0.95159912109375,-0.2907867431640625,0.0089874267578125
1772457420766534700,0.85253466796875,-0.9488067626953125,-0.2869415283203125,0.01348876953125
1772457420776603400,0.862603271484375,-0.94818115234375,-0.2855682373046875,0.0178070068359375
1772457420786672600,0.872672607421875,-0.9518280029296875,-0.28399658203125,0.0161895751953125
1772457420796740600,0.88274072265625,-0.9562225341796875,-0.283782958984375,0.0113372802734375
1772457420806809300,0.892809326171875,-0.9605865478515625,-0.286773681640625,0.0059356689453125
1772457420816878800,0.90287890625,-0.9606475830078125,-0.28729248046875,0.00048828125
1772457420826946800,0.91294677734375,-0.9575347900390625,-0.2891082763671875,0.00006103515625
1772457420837015800,0.923015869140625,-0.9484405517578125,-0.2872772216796875,0.00390625
1772457420847084800,0.933084716796875,-0.94061279296875,-0.2897186279296875,0.0083770751953125
1772457420857153000,0.943153076171875,-0.939361572265625,-0.288848876953125,0.0086212158203125
1772457420867221800,0.9532216796875,-0.9481201171875,-0.2882080078125,0.00885009765625
1772457420877291000,0.963291015625,-0.952484130859375,-0.28887939453125,0.010711669921875
1772457420887359000,0.97335888671875,-0.944915771484375,-0.289886474609375,0.0120391845703125
1772457420897427700,0.983427734375,-0.936553955078125,-0.2922515869140625,0.01544189453125
1772457420907497000,0.9934970703125,-0.935577392578125,-0.2935333251953125,0.0148162841796875
1772457420917565000,1.00356494140625,-0.9320068359375,-0.29547119140625,0.0147705078125
1772457420927633700,1.013633544921875,-0.9355316162109375,-0.2967376708984375,0.01263427734375
1772457420937703000,1.023702880859375,-0.9423675537109375,-0.296539306640625,0.0077362060546875
1772457420947772000,1.03377197265625,-0.9488525390625,-0.2952728271484375,0.00750732421875
1772457420957840000,1.04383984375,-0.954620361328125,-0.2917327880859375,0.0100555419921875
1772457420967908900,1.053908935546875,-0.958587646484375,-0.2862548828125,0.0093841552734375
1772457420977976800,1.063976806640625,-0.957550048828125,-0.2883148193359375,0.0116424560546875
1772457420988045800,1.0740458984375,-0.9508514404296875,-0.292388916015625,0.0154266357421875
1772457420998114800,1.08411474609375,-0.9457550048828125,-0.29254150390625,0.014312744140625
1772457421008184000,1.09418408203125,-0.9466705322265625,-0.292236328125,0.0128936767578125
1772457421018251800,1.104251708984375,-0.9475860595703125,-0.2941131591796875,0.009735107421875
1772457421028320800,1.11432080078125,-0.947601318359375,-0.29400634765625,0.0086669921875
1772457421038390000,1.12439013671875,-0.953582763671875,-0.2899932861328125,0.010162353515625
1772457421048458000,1.1344580078125,-0.9541015625,-0.288726806640625,0.0097198486328125
1772457421058526700,1.144526611328125,-0.9503173828125,-0.29022216796875,0.01080322265625
1772457421068596000,1.154595947265625,-0.9474945068359375,-0.2897491455078125,0.0092010498046875
1772457421078664000,1.164663818359375,-0.94598388671875,-0.2923736572265625,0.007080078125
1772457421088733000,1.17473291015625,-0.949493408203125,-0.290740966796875,0.00372314453125
1772457421098802000,1.184802001953125,-0.9568328857421875,-0.292755126953125,0.002685546875
1772457421108870000,1.194869873046875,-0.9547576904296875,-0.2931976318359375,0.0050811767578125
1772457421118939000,1.20493896484375,-0.945587158203125,-0.2957916259765625,0.0099334716796875
1772457421129007900,1.2150078125,-0.9365386962890625,-0.296722412109375,0.013214111328125
1772457421139075800,1.225075927734375,-0.9354095458984375,-0.295074462890625,0.01806640625
1772457421149144800,1.235144775390625,-0.9415740966796875,-0.2923126220703125,0.0167694091796875
1772457421159213800,1.2452138671875,-0.9470367431640625,-0.2937164306640625,0.0126953125
1772457421169282000,1.255281982421875,-0.9495391845703125,-0.2941131591796875,0.007843017578125
1772457421179350800,1.265350830078125,-0.95062255859375,-0.2957611083984375,0.0067901611328125
1772457421189419800,1.275419677734375,-0.9485931396484375,-0.296478271484375,0.007171630859375
1772457421199488000,1.285488037109375,-0.942535400390625,-0.296844482421875,0.007965087890625
1772457421209556700,1.295556640625,-0.9410552978515625,-0.2982025146484375,0.0078277587890625
1772457421219626000,1.3056259765625,-0.9472198486328125,-0.2946929931640625,0.00830078125
1772457421229694000,1.31569384765625,-0.94976806640625,-0.2927703857421875,0.00543212890625
1772457421239762700,1.3257626953125,-0.9499053955078125,-0.2901763916015625,0.0077056884765625
1772457421249832000,1.33583203125,-0.948150634765625,-0.29132080078125,0.0072174072265625
1772457421259900000,1.34589990234375,-0.9524993896484375,-0.2917633056640625,0.0054168701171875
1772457421269968600,1.35596875,-0.9552001953125,-0.2904815673828125,0.00750732421875
1772457421280038000,1.366037841796875,-0.9497833251953125,-0.2919158935546875,0.008392333984375
1772457421290105900,1.37610595703125,-0.94268798828125,-0.2924957275390625,0.009521484375
1772457421300174800,1.3861748046875,-0.94110107421875,-0.29400634765625,0.00775146484375
1772457421310243800,1.396243896484375,-0.9477996826171875,-0.2925872802734375,0.0016937255859375
1772457421320311800,1.406311767578125,-0.956512451171875,-0.2930908203125,-0.0026092529296875
1772457421330380800,1.416380859375,-0.95758056640625,-0.2929840087890625,-0.00396728515625
1772457421340449800,1.42644970703125,-0.9587554931640625,-0.2908477783203125,0.002105712890625
1772457421350517800,1.436517822265625,-0.95281982421875,-0.289794921875,0.0114288330078125
1772457421360587000,1.4465869140625,-0.9406890869140625,-0.292724609375,0.017822265625
1772457421370655700,1.45665576171875,-0.93170166015625,-0.295379638671875,0.015411376953125
1772457421380724000,1.466723876953125,-0.9339141845703125,-0.2925567626953125,0.01690673828125
1772457421390793000,1.47679296875,-0.938995361328125,-0.2917633056640625,0.0162811279296875
1772457421400861700,1.48686181640625,-0.9396209716796875,-0.2906036376953125,0.0147857666015625
1772457421410930000,1.496929931640625,-0.9433441162109375,-0.2889556884765625,0.01043701171875
1772457421420999000,1.5069990234375,-0.9503173828125,-0.2880096435546875,0.010162353515625
1772457421431068000,1.51706787109375,-0.953277587890625,-0.285888671875,0.0102081298828125
1772457421441137000,1.527136962890625,-0.958099365234375,-0.286956787109375,0.005035400390625
1772457421451204900,1.537204833984375,-0.960205078125,-0.2889862060546875,0.0006256103515625
1772457421461273900,1.54727392578125,-0.957427978515625,-0.2899627685546875,0.000885009765625
1772457421471342800,1.5573427734375,-0.9529876708984375,-0.2895660400390625,0.003662109375
1772457421481410800,1.567410888671875,-0.9478912353515625,-0.2915496826171875,0.0076141357421875
1772457421491479800,1.577479736328125,-0.945709228515625,-0.2922821044921875,0.0062408447265625
1772457421501548800,1.587548828125,-0.953948974609375,-0.29241943359375,0.0033111572265625
1772457421511617000,1.597616943359375,-0.9593048095703125,-0.290863037109375,0.0041656494140625
1772457421521685800,1.607685791015625,-0.9524688720703125,-0.291717529296875,0.0053253173828125
1772457421531754800,1.617754638671875,-0.9390411376953125,-0.2959442138671875,0.0087890625
1772457421541823000,1.627822998046875,-0.9288330078125,-0.2969512939453125,0.0144805908203125
1772457421551891700,1.6378916015625,-0.927978515625,-0.295684814453125,0.0175628662109375
1772457421561961000,1.6479609375,-0.9349517822265625,-0.2926483154296875,0.0152435302734375
1772457421572029000,1.65802880859375,-0.9505767822265625,-0.2908477783203125,0.0062713623046875
1772457421582097700,1.66809765625,-0.96429443359375,-0.28863525390625,0.000152587890625
1772457421592167000,1.6781669921875,-0.9565277099609375,-0.2918243408203125,0.0008087158203125
1772457421602235000,1.68823486328125,-0.9442291259765625,-0.2948760986328125,0.0090179443359375
1772457421612303600,1.6983037109375,-0.9375152587890625,-0.293121337890625,0.015045166015625
1772457421622372900,1.708372802734375,-0.9388427734375,-0.292877197265625,0.01318359375
1772457421632440800,1.71844091796875,-0.948272705078125,-0.2899322509765625,0.0139617919921875
1772457421642509800,1.728509765625,-0.9539947509765625,-0.2878875732421875,0.013519287109375
1772457421652578800,1.738578857421875,-0.9531097412109375,-0.28570556640625,0.012359619140625
1772457421662646800,1.748646728515625,-0.9558258056640625,-0.2859649658203125,0.01116943359375
1772457421672715800,1.7587158203125,-0.9544677734375,-0.2877655029296875,0.009490966796875
1772457421682784800,1.76878466796875,-0.949127197265625,-0.28961181640625,0.01068115234375
1772457421692852700,1.778852783203125,-0.9485931396484375,-0.2902984619140625,0.0087738037109375
1772457421702922000,1.788921875,-0.9551544189453125,-0.28948974609375,0.0055389404296875
1772457421712990700,1.79899072265625,-0.9571990966796875,-0.2889404296875,0.0029754638671875
1772457421723059000,1.809058837890625,-0.951507568359375,-0.2892913818359375,0.0060272216796875
1772457421733128000,1.8191279296875,-0.94989013671875,-0.2909088134765625,0.011322021484375
1772457421743197000,1.829197021484375,-0.9470062255859375,-0.2911224365234375,0.011474609375
1772457421753265000,1.839264892578125,-0.9432525634765625,-0.293304443359375,0.0115814208984375
1772457421763334000,1.849333984375,-0.9438323974609375,-0.2925872802734375,0.010833740234375
1772457421773403000,1.85940283203125,-0.9467010498046875,-0.2921295166015625,0.0097198486328125
1772457421783470800,1.869470947265625,-0.949859619140625,-0.289398193359375,0.01336669921875
1772457421793539800,1.879539794921875,-0.9505157470703125,-0.2878570556640625,0.0135650634765625
1772457421803608800,1.88960888671875,-0.9479217529296875,-0.28570556640625,0.0134124755859375
1772457421813676800,1.8996767578125,-0.94854736328125,-0.2871856689453125,0.013031005859375
1772457421823745300,1.909745361328125,-0.9501190185546875,-0.2871551513671875,0.0129241943359375
1772457421833814300,1.919814208984375,-0.95147705078125,-0.289642333984375,0.01287841796875
1772457421843882200,1.92988232421875,-0.9451751708984375,-0.290374755859375,0.0131988525390625
1772457421853951200,1.939951171875,-0.9391937255859375,-0.2910308837890625,0.0135955810546875
1772457421864020200,1.950020263671875,-0.944122314453125,-0.2910614013671875,0.0116729736328125
1772457421874088200,1.960088134765625,-0.952056884765625,-0.2910919189453125,0.0087432861328125
1772457421884157200,1.9701572265625,-0.957733154296875,-0.289154052734375,0.0062713623046875
1772457421894226400,1.980226318359375,-0.95623779296875,-0.28790283203125,0.0042266845703125
1772457421904294100,1.990294189453125,-0.94989013671875,-0.2891845703125,0.0103607177734375
1772457421914363100,2.000363037109375,-0.9405364990234375,-0.2921600341796875,0.0155181884765625
1772457421924432400,2.010432373046875,-0.9433746337890625,-0.2936248779296875,0.0148162841796875
1772457421934501000,2.020501220703125,-0.94970703125,-0.2925872802734375,0.010498046875
1772457421944569000,2.030569091796875,-0.951690673828125,-0.2929229736328125,0.009429931640625
1772457421954638300,2.040638427734375,-0.956817626953125,-0.2906036376953125,0.00909423828125
1772457421964707000,2.05070703125,-0.9548797607421875,-0.2878265380859375,0.0110931396484375
1772457421974775300,2.060775390625,-0.94439697265625,-0.2901763916015625,0.0122528076171875
1772457421984844300,2.07084423828125,-0.9402313232421875,-0.293304443359375,0.0127410888671875
1772457421994913300,2.080913330078125,-0.9424591064453125,-0.2919921875,0.009033203125
1772457422004981200,2.090981201171875,-0.948089599609375,-0.2931976318359375,0.0081634521484375
1772457422015050200,2.10105029296875,-0.954925537109375,-0.2957763671875,0.00604248046875
1772457422025119200,2.111119140625,-0.9573211669921875,-0.29388427734375,0.008270263671875
1772457422035187200,2.121187255859375,-0.949127197265625,-0.2929840087890625,0.0104522705078125
1772457422045256200,2.131256103515625,-0.9350128173828125,-0.29571533203125,0.0131988525390625
1772457422055325200,2.1413251953125,-0.924468994140625,-0.295684814453125,0.01641845703125
1772457422065393200,2.15139306640625,-0.927459716796875,-0.2936553955078125,0.01910400390625
1772457422075462400,2.16146240234375,-0.94049072265625,-0.2902679443359375,0.0149993896484375
1772457422085531100,2.17153125,-0.9539794921875,-0.288421630859375,0.0102996826171875
1772457422095599000,2.18159912109375,-0.95849609375,-0.292083740234375,0.0034637451171875
1772457422105668400,2.19166845703125,-0.9540557861328125,-0.294097900390625,-0.0003814697265625
1772457422115737000,2.201737060546875,-0.9451751708984375,-0.293548583984375,0.001312255859375
1772457422125805000,2.21180517578125,-0.9365234375,-0.29296875,0.007781982421875
1772457422135874300,2.221874267578125,-0.938323974609375,-0.2922515869140625,0.0112457275390625
1772457422145943000,2.231943115234375,-0.9442291259765625,-0.2881317138671875,0.0093231201171875
1772457422156011300,2.24201123046875,-0.95196533203125,-0.2847137451171875,0.0074920654296875
1772457422166080300,2.252080322265625,-0.956268310546875,-0.2833404541015625,0.01318359375
1772457422176149200,2.262149169921875,-0.9512481689453125,-0.283660888671875,0.0156097412109375
1772457422186217200,2.27221728515625,-0.94378662109375,-0.2872467041015625,0.017486572265625
1772457422196286200,2.2822861328125,-0.941436767578125,-0.28857421875,0.0189971923828125
1772457422206355500,2.29235546875,-0.9520263671875,-0.286712646484375,0.0144195556640625
1772457422216423200,2.302423095703125,-0.963653564453125,-0.285797119140625,0.009674072265625
1772457422226492200,2.3124921875,-0.9676666259765625,-0.2843017578125,0.008270263671875
1772457422236561400,2.3225615234375,-0.957244873046875,-0.2889251708984375,0.01141357421875
1772457422246629000,2.332629150390625,-0.946807861328125,-0.2900238037109375,0.0157318115234375
1772457422256698000,2.342697998046875,-0.942291259765625,-0.2908477783203125,0.017364501953125
1772457422266767400,2.352767333984375,-0.9423370361328125,-0.293426513671875,0.0162811279296875
1772457422276835300,2.36283544921875,-0.947509765625,-0.292144775390625,0.0122222900390625
1772457422286904300,2.372904296875,-0.9585418701171875,-0.2910308837890625,0.0106658935546875
1772457422296973300,2.382973388671875,-0.957427978515625,-0.2902069091796875,0.0111083984375
1772457422307041300,2.393041259765625,-0.9530181884765625,-0.2886962890625,0.0166778564453125
1772457422317110300,2.4031103515625,-0.948974609375,-0.287628173828125,0.02105712890625
1772457422327179300,2.41317919921875,-0.9481353759765625,-0.28717041015625,0.01983642578125
1772457422337247200,2.423247314453125,-0.951904296875,-0.2879638671875,0.01312255859375
1772457422347316200,2.433316162109375,-0.9573516845703125,-0.2883453369140625,0.0083465576171875
1772457422357385200,2.44338525390625,-0.9574432373046875,-0.2886505126953125,0.0065765380859375
1772457422367453400,2.453453369140625,-0.9475860595703125,-0.2909698486328125,0.0096588134765625
1772457422377522200,2.463522216796875,-0.941497802734375,-0.29022216796875,0.013153076171875
1772457422387591200,2.473591064453125,-0.9403076171875,-0.2887725830078125,0.014923095703125
1772457422397659400,2.483659423828125,-0.9447479248046875,-0.2892608642578125,0.0140838623046875
1772457422407728000,2.49372802734375,-0.9499359130859375,-0.28948974609375,0.0106658935546875
1772457422417797400,2.50379736328125,-0.9550323486328125,-0.2880859375,0.0081787109375
1772457422427866000,2.5138662109375,-0.9587249755859375,-0.286956787109375,0.0091705322265625
1772457422437934000,2.52393408203125,-0.954803466796875,-0.28704833984375,0.0131988525390625
1772457422448003300,2.53400341796875,-0.9493560791015625,-0.288421630859375,0.0166778564453125
1772457422458071300,2.5440712890625,-0.9445648193359375,-0.289581298828125,0.0157623291015625
1772457422468140000,2.55414013671875,-0.9448089599609375,-0.2905120849609375,0.0124969482421875
1772457422478209300,2.564209228515625,-0.952056884765625,-0.292022705078125,0.00830078125
1772457422488277200,2.57427734375,-0.9607391357421875,-0.290435791015625,0.0041961669921875
1772457422498346200,2.58434619140625,-0.9594879150390625,-0.290924072265625,0.0076751708984375
1772457422508415200,2.594415283203125,-0.9486541748046875,-0.292724609375,0.01226806640625
1772457422518484200,2.604484130859375,-0.9409942626953125,-0.2947998046875,0.015106201171875
1772457422528552200,2.61455224609375,-0.9379730224609375,-0.2932586669921875,0.0149078369140625
1772457422538621200,2.62462109375,-0.93310546875,-0.2939910888671875,0.01361083984375
1772457422548690400,2.6346904296875,-0.9348907470703125,-0.29449462890625,0.0109100341796875
1772457422558758100,2.644758056640625,-0.945556640625,-0.2944488525390625,0.0092315673828125
1772457422568827100,2.6548271484375,-0.9495849609375,-0.290496826171875,0.0071868896484375
1772457422578896400,2.664896484375,-0.9467315673828125,-0.2894287109375,0.010955810546875
1772457422588964000,2.674964111328125,-0.944732666015625,-0.290283203125,0.012603759765625
1772457422599033000,2.685033203125,-0.939178466796875,-0.2897186279296875,0.0153350830078125
1772457422609102300,2.695102294921875,-0.9342803955078125,-0.290252685546875,0.0176544189453125
1772457422619170300,2.70517041015625,-0.935943603515625,-0.2881011962890625,0.019287109375
1772457422629239300,2.7152392578125,-0.939239501953125,-0.2891998291015625,0.0178680419921875
1772457422639308300,2.725308349609375,-0.945159912109375,-0.289093017578125,0.01373291015625
1772457422649376300,2.735376220703125,-0.9536895751953125,-0.28961181640625,0.0086517333984375
1772457422659445200,2.7454453125,-0.95263671875,-0.2886810302734375,0.0076446533203125
1772457422669514200,2.75551416015625,-0.9472198486328125,-0.2894287109375,0.0098724365234375
1772457422679582200,2.765582275390625,-0.947113037109375,-0.2923431396484375,0.0131988525390625
1772457422689651200,2.775651123046875,-0.9504547119140625,-0.2932281494140625,0.01263427734375
1772457422699720200,2.78572021484375,-0.9542083740234375,-0.2930755615234375,0.0124969482421875
1772457422709788400,2.795788330078125,-0.9550628662109375,-0.291778564453125,0.0116119384765625
1772457422719857200,2.805857177734375,-0.9553070068359375,-0.2898712158203125,0.0127105712890625
1772457422729926100,2.815926025390625,-0.9512786865234375,-0.2879638671875,0.0189208984375
1772457422739994400,2.825994384765625,-0.9452972412109375,-0.2896881103515625,0.0212249755859375
1772457422750063000,2.83606298828125,-0.942657470703125,-0.2887115478515625,0.0245361328125
1772457422760132400,2.84613232421875,-0.947357177734375,-0.2863922119140625,0.0197601318359375
1772457422770200300,2.856200439453125,-0.9621429443359375,-0.287353515625,0.0113677978515625
1772457422780269000,2.86626904296875,-0.9667205810546875,-0.2884368896484375,0.006988525390625
1772457422790338300,2.87633837890625,-0.958526611328125,-0.2889862060546875,0.004608154296875
1772457422800406300,2.88640625,-0.945556640625,-0.2888031005859375,0.009857177734375
1772457422810475000,2.89647509765625,-0.9411163330078125,-0.288665771484375,0.016754150390625
1772457422820545000,2.906544921875,-0.94000244140625,-0.2872314453125,0.02056884765625
1772457422830613000,2.916613037109375,-0.9425201416015625,-0.2847442626953125,0.0218353271484375
1772457422840681700,2.926681640625,-0.945281982421875,-0.2855682373046875,0.0207366943359375
1772457422850751000,2.9367509765625,-0.9403228759765625,-0.2883758544921875,0.0179901123046875
1772457422860819000,2.94681884765625,-0.93572998046875,-0.2942352294921875,0.0156402587890625
1772457422870888000,2.956887939453125,-0.938140869140625,-0.29522705078125,0.017791748046875
1772457422880957000,2.96695703125,-0.9440155029296875,-0.2939453125,0.0146484375
1772457422891025000,2.97702490234375,-0.9530792236328125,-0.286407470703125,0.0162811279296875
1772457422901094000,2.987093994140625,-0.95965576171875,-0.2845306396484375,0.015716552734375
1772457422911163000,2.997162841796875,-0.9600372314453125,-0.287933349609375,0.0131072998046875
1772457422921230800,3.00723095703125,-0.9529876708984375,-0.290924072265625,0.0129852294921875
1772457422931299800,3.0172998046875,-0.9436492919921875,-0.293182373046875,0.0147705078125
1772457422941368800,3.027368896484375,-0.9347076416015625,-0.2960052490234375,0.0180206298828125
1772457422951437000,3.03743701171875,-0.937347412109375,-0.2952117919921875,0.019012451171875
1772457422961505800,3.047505859375,-0.9449310302734375,-0.29217529296875,0.019744873046875
1772457422971574800,3.05757470703125,-0.950927734375,-0.2867279052734375,0.0177001953125
1772457422981643000,3.06764306640625,-0.9564666748046875,-0.2857208251953125,0.0176544189453125
1772457422991711700,3.077711669921875,-0.9561004638671875,-0.2855987548828125,0.0160369873046875
1772457423001781000,3.087781005859375,-0.9494781494140625,-0.2893524169921875,0.0143280029296875
1772457423011849000,3.097848876953125,-0.944183349609375,-0.2915191650390625,0.0121612548828125
1772457423021917700,3.107917724609375,-0.939697265625,-0.291473388671875,0.01605224609375
1772457423031987000,3.117987060546875,-0.93994140625,-0.291839599609375,0.0135650634765625
1772457423042055000,3.128054931640625,-0.945220947265625,-0.288970947265625,0.01190185546875
1772457423052124000,3.1381240234375,-0.9503021240234375,-0.2864990234375,0.0102996826171875
1772457423062193000,3.14819287109375,-0.950286865234375,-0.285797119140625,0.0084075927734375
1772457423072260900,3.1582607421875,-0.9516448974609375,-0.2883453369140625,0.010284423828125
1772457423082330000,3.168330078125,-0.9495391845703125,-0.2891082763671875,0.01153564453125
1772457423092398800,3.17839892578125,-0.948333740234375,-0.2903594970703125,0.012359619140625
1772457423102466800,3.188466796875,-0.952423095703125,-0.287628173828125,0.0111846923828125
1772457423112536000,3.1985361328125,-0.9542388916015625,-0.2867584228515625,0.0115203857421875
1772457423122604800,3.208604736328125,-0.95013427734375,-0.28564453125,0.01629638671875
1772457423132674000,3.218674072265625,-0.9496002197265625,-0.2849884033203125,0.015777587890625
1772457423142742000,3.228741943359375,-0.9564208984375,-0.2794647216796875,0.0182952880859375
1772457423152810800,3.238810791015625,-0.9587860107421875,-0.2793121337890625,0.01971435546875
1772457423162880000,3.2488798828125,-0.958953857421875,-0.28009033203125,0.01849365234375
1772457423172948000,3.258947998046875,-0.9571075439453125,-0.282501220703125,0.0216827392578125
1772457423183016700,3.2690166015625,-0.9541168212890625,-0.28155517578125,0.025054931640625
1772457423193086000,3.2790859375,-0.9480438232421875,-0.281463623046875,0.0254364013671875
1772457423203154000,3.28915380859375,-0.9432373046875,-0.28466796875,0.0231781005859375
1772457423213223000,3.299222900390625,-0.944580078125,-0.287628173828125,0.016571044921875
1772457423223292000,3.3092919921875,-0.94622802734375,-0.2894439697265625,0.0126495361328125
1772457423233360000,3.31935986328125,-0.9500885009765625,-0.2889862060546875,0.009796142578125
1772457423243428900,3.329428955078125,-0.9577484130859375,-0.2872772216796875,0.0098876953125
1772457423253497900,3.339497802734375,-0.961639404296875,-0.28717041015625,0.012359619140625
1772457423263565800,3.34956591796875,-0.9593353271484375,-0.2884979248046875,0.01385498046875
1772457423273634800,3.359634765625,-0.9570465087890625,-0.2867431640625,0.0160369873046875
1772457423283703800,3.369703857421875,-0.95623779296875,-0.2856292724609375,0.0163726806640625
1772457423293772000,3.37977197265625,-0.9492034912109375,-0.2868804931640625,0.0142364501953125
1772457423303840800,3.3898408203125,-0.943756103515625,-0.2879791259765625,0.01422119140625
1772457423313910000,3.399909912109375,-0.94482421875,-0.2882537841796875,0.012786865234375
1772457423323978000,3.40997802734375,-0.947021484375,-0.2889251708984375,0.0111236572265625
1772457423334046700,3.420046630859375,-0.941497802734375,-0.2882843017578125,0.0135498046875
1772457423344116000,3.430115966796875,-0.935455322265625,-0.2904205322265625,0.0117645263671875
1772457423354184000,3.440183837890625,-0.9370880126953125,-0.290618896484375,0.0082244873046875
1772457423364253000,3.4502529296875,-0.9445648193359375,-0.28912353515625,0.010040283203125
1772457423374322000,3.460322021484375,-0.94903564453125,-0.288787841796875,0.009735107421875
1772457423384390000,3.470389892578125,-0.946044921875,-0.2901153564453125,0.0111846923828125
1772457423394459100,3.480459228515625,-0.936431884765625,-0.2905120849609375,0.0126800537109375
1772457423404527900,3.49052783203125,-0.92608642578125,-0.2930450439453125,0.0193023681640625
1772457423414595800,3.500595947265625,-0.9205322265625,-0.2942352294921875,0.02227783203125
1772457423424665000,3.5106650390625,-0.9305572509765625,-0.2909088134765625,0.0194549560546875
1772457423434733800,3.52073388671875,-0.9506378173828125,-0.286865234375,0.0152740478515625
1772457423444801800,3.5308017578125,-0.9658660888671875,-0.2828826904296875,0.0148773193359375
1772457423454871000,3.54087109375,-0.9731903076171875,-0.2802581787109375,0.0153961181640625
1772457423464939800,3.550939697265625,-0.9648284912109375,-0.2798004150390625,0.0184326171875
1772457423475007700,3.5610078125,-0.952056884765625,-0.2818450927734375,0.02288818359375
1772457423485077000,3.571076904296875,-0.9451904296875,-0.283233642578125,0.0221099853515625
1772457423495145700,3.581145751953125,-0.9504547119140625,-0.2813873291015625,0.0175933837890625
1772457423505214000,3.5912138671875,-0.9624786376953125,-0.2796630859375,0.0147705078125
1772457423515283000,3.601282958984375,-0.9649658203125,-0.2765655517578125,0.0122833251953125
1772457423525352000,3.61135205078125,-0.958770751953125,-0.277069091796875,0.0150909423828125
1772457423535420000,3.621419921875,-0.95257568359375,-0.27880859375,0.01885986328125
1772457423545489000,3.631489013671875,-0.9455718994140625,-0.2815399169921875,0.024200439453125
1772457423555558000,3.641557861328125,-0.9390716552734375,-0.2830047607421875,0.024444580078125
1772457423565625900,3.6516259765625,-0.937286376953125,-0.2854766845703125,0.02392578125
1772457423575694800,3.66169482421875,-0.9479217529296875,-0.28387451171875,0.019989013671875
1772457423585763800,3.671763916015625,-0.9579925537109375,-0.2815093994140625,0.01385498046875
1772457423595831800,3.681831787109375,-0.958038330078125,-0.2856292724609375,0.0095977783203125
1772457423605901000,3.691901123046875,-0.9525604248046875,-0.287841796875,0.01123046875
1772457423615969800,3.7019697265625,-0.94757080078125,-0.29254150390625,0.0129852294921875
1772457423626037800,3.712037841796875,-0.9484710693359375,-0.2914886474609375,0.0145263671875
1772457423636107000,3.72210693359375,-0.94964599609375,-0.2925567626953125,0.0177154541015625
1772457423646175700,3.73217578125,-0.948333740234375,-0.2918243408203125,0.0167999267578125
1772457423656243700,3.74224365234375,-0.94989013671875,-0.2880706787109375,0.016632080078125
1772457423666313000,3.75231298828125,-0.9504852294921875,-0.28753662109375,0.017974853515625
1772457423676382000,3.7623818359375,-0.951202392578125,-0.2866668701171875,0.0184326171875
1772457423686450000,3.772449951171875,-0.95257568359375,-0.2844696044921875,0.018646240234375
1772457423696519000,3.782518798828125,-0.9501190185546875,-0.2825775146484375,0.0214080810546875
1772457423706588000,3.792587890625,-0.9457550048828125,-0.2798919677734375,0.0211029052734375
1772457423716655900,3.80265576171875,-0.947784423828125,-0.27886962890625,0.0230255126953125
1772457423726724900,3.812724853515625,-0.9561614990234375,-0.2772064208984375,0.01849365234375
1772457423736794000,3.822794189453125,-0.9603271484375,-0.2758636474609375,0.0124359130859375
1772457423746861800,3.83286181640625,-0.958984375,-0.2778778076171875,0.0112762451171875
1772457423756930800,3.842930908203125,-0.9513397216796875,-0.28125,0.0123291015625
1772457423767000000,3.853,-0.9433746337890625,-0.2845001220703125,0.01385498046875
1772457423777067800,3.86306787109375,-0.9411468505859375,-0.2853240966796875,0.0173492431640625
1772457423787136800,3.87313671875,-0.9475250244140625,-0.2845611572265625,0.0226287841796875
1772457423797206000,3.8832060546875,-0.9537811279296875,-0.28033447265625,0.01983642578125
1772457423807274000,3.89327392578125,-0.9595947265625,-0.2806243896484375,0.01531982421875
1772457423817343000,3.903343017578125,-0.95928955078125,-0.2822265625,0.012847900390625
1772457423827411000,3.913410888671875,-0.958953857421875,-0.2838134765625,0.0113372802734375
1772457423837479000,3.92347900390625,-0.95538330078125,-0.28472900390625,0.0107421875
1772457423847548000,3.9335478515625,-0.949066162109375,-0.28826904296875,0.0110321044921875
1772457423857617000,3.943616943359375,-0.951171875,-0.286773681640625,0.013336181640625
1772457423867685000,3.95368505859375,-0.95050048828125,-0.282806396484375,0.0145721435546875
1772457423877753900,3.96375390625,-0.9460906982421875,-0.282989501953125,0.0146484375
1772457423887822800,3.97382275390625,-0.9471282958984375,-0.2819671630859375,0.016448974609375
1772457423897891000,3.98389111328125,-0.9509735107421875,-0.281036376953125,0.0150909423828125
1772457423907958000,3.9939580078125,-0.9494171142578125,-0.2808380126953125,0.014739990234375
1772457423918027000,4.004027099609375,-0.945953369140625,-0.2798309326171875,0.018524169921875
1772457423928096000,4.014095947265625,-0.946929931640625,-0.2806854248046875,0.0180206298828125
1772457423938164000,4.0241640625,-0.949676513671875,-0.28118896484375,0.0156402587890625
1772457423948233000,4.03423291015625,-0.9463348388671875,-0.2837066650390625,0.0126953125
1772457423958302000,4.044302001953125,-0.943878173828125,-0.28558349609375,0.01080322265625
1772457423968370000,4.054369873046875,-0.9445953369140625,-0.2855987548828125,0.012451171875
1772457423978439200,4.064439208984375,-0.9476470947265625,-0.2847137451171875,0.013153076171875
1772457423988508000,4.0745078125,-0.9548797607421875,-0.2836456298828125,0.0102691650390625
1772457423998575900,4.084575927734375,-0.9570159912109375,-0.2828521728515625,0.007720947265625
1772457424008645000,4.09464501953125,-0.956390380859375,-0.284210205078125,0.0103607177734375
1772457424018713900,4.1047138671875,-0.951416015625,-0.2863006591796875,0.01116943359375
1772457424028781800,4.11478173828125,-0.9447479248046875,-0.2868804931640625,0.0120697021484375
1772457424038851000,4.12485107421875,-0.9418792724609375,-0.28662109375,0.0122833251953125
1772457424048919800,4.134919921875,-0.941253662109375,-0.283935546875,0.0126190185546875
1772457424058987800,4.14498779296875,-0.94580078125,-0.2850494384765625,0.0117034912109375
1772457424069057000,4.15505712890625,-0.95318603515625,-0.2838134765625,0.0086212158203125
1772457424079125800,4.165125732421875,-0.9604949951171875,-0.2826080322265625,0.0102386474609375
1772457424089194000,4.175194091796875,-0.9535980224609375,-0.284912109375,0.010040283203125
1772457424099263000,4.185262939453125,-0.9385223388671875,-0.2879791259765625,0.01239013671875
1772457424109332000,4.19533203125,-0.9333038330078125,-0.2877197265625,0.01763916015625
1772457424119400000,4.20539990234375,-0.9397125244140625,-0.28118896484375,0.024322509765625
1772457424129469000,4.215468994140625,-0.9496917724609375,-0.2759246826171875,0.0277252197265625
1772457424139538200,4.2255380859375,-0.95849609375,-0.275146484375,0.0259857177734375
1772457424149606000,4.23560595703125,-0.965057373046875,-0.2737274169921875,0.0183258056640625
1772457424159675000,4.2456748046875,-0.9712066650390625,-0.273590087890625,0.0138092041015625
1772457424169744100,4.255744140625,-0.9751739501953125,-0.2745208740234375,0.0123291015625
1772457424179811800,4.265811767578125,-0.968017578125,-0.27752685546875,0.0118408203125
1772457424189881000,4.275881103515625,-0.958740234375,-0.2795562744140625,0.0149383544921875
1772457424199950000,4.2859501953125,-0.9482574462890625,-0.280853271484375,0.0170135498046875
1772457424210017800,4.296017822265625,-0.9422760009765625,-0.2807769775390625,0.01763916015625
1772457424220087000,4.306087158203125,-0.942657470703125,-0.2814178466796875,0.0149383544921875
1772457424230156000,4.316156005859375,-0.9463653564453125,-0.281646728515625,0.0102996826171875
1772457424240224000,4.32622412109375,-0.9529266357421875,-0.2823944091796875,0.005157470703125
1772457424250293000,4.33629296875,-0.9535369873046875,-0.2826995849609375,0.0078125
1772457424260362000,4.346362060546875,-0.94732666015625,-0.2854766845703125,0.0098876953125
1772457424270432000,4.356431884765625,-0.9405059814453125,-0.28741455078125,0.013946533203125
1772457424280500000,4.3665,-0.9380340576171875,-0.28704833984375,0.0167999267578125
1772457424290569000,4.37656884765625,-0.9431915283203125,-0.287109375,0.0117340087890625
1772457424300638000,4.386637939453125,-0.9538726806640625,-0.2833251953125,0.008514404296875
1772457424310706000,4.396705810546875,-0.9609527587890625,-0.28399658203125,0.005828857421875
1772457424320775000,4.40677490234375,-0.953094482421875,-0.2886810302734375,0.0059661865234375
1772457424330844000,4.416843994140625,-0.9490509033203125,-0.2909698486328125,0.0100250244140625
1772457424340911900,4.426911865234375,-0.9447174072265625,-0.2894287109375,0.0119476318359375
1772457424350981000,4.436981201171875,-0.9405364990234375,-0.2886962890625,0.0197601318359375
1772457424361049900,4.4470498046875,-0.9461517333984375,-0.2857818603515625,0.0214691162109375
1772457424371118000,4.4571181640625,-0.95654296875,-0.283966064453125,0.018890380859375
1772457424381187000,4.46718701171875,-0.961151123046875,-0.2811279296875,0.01739501953125
1772457424391255800,4.477255859375,-0.95794677734375,-0.28045654296875,0.018798828125
1772457424401324000,4.487323974609375,-0.9525909423828125,-0.282684326171875,0.0184173583984375
1772457424411393000,4.49739306640625,-0.9525146484375,-0.280853271484375,0.018951416015625
1772457424421462000,4.5074619140625,-0.955535888671875,-0.2796630859375,0.0198211669921875
1772457424431530000,4.517530029296875,-0.954498291015625,-0.28021240234375,0.0194244384765625
1772457424441599000,4.527598876953125,-0.946807861328125,-0.2806396484375,0.0199127197265625
1772457424451668000,4.53766796875,-0.947357177734375,-0.2787628173828125,0.0179901123046875
1772457424461736000,4.54773583984375,-0.9474029541015625,-0.28204345703125,0.0157012939453125
1772457424471805000,4.557804931640625,-0.94305419921875,-0.2833251953125,0.016510009765625
1772457424481874000,4.5678740234375,-0.94012451171875,-0.285888671875,0.0156707763671875
1772457424491942000,4.57794189453125,-0.94482421875,-0.28643798828125,0.0143280029296875
1772457424502011100,4.58801123046875,-0.9496002197265625,-0.2844696044921875,0.0155181884765625
1772457424512080000,4.598079833984375,-0.9521484375,-0.28271484375,0.0169830322265625
1772457424522147800,4.60814794921875,-0.9449462890625,-0.28472900390625,0.0162353515625
1772457424532217000,4.618217041015625,-0.9359893798828125,-0.289886474609375,0.0167694091796875
1772457424542285800,4.628285888671875,-0.9384918212890625,-0.2880096435546875,0.0131988525390625
1772457424552353800,4.638353759765625,-0.9483489990234375,-0.285400390625,0.0070953369140625
1772457424562423000,4.648423095703125,-0.9593353271484375,-0.2861175537109375,0.0052947998046875
1772457424572491800,4.65849169921875,-0.9631805419921875,-0.286163330078125,0.0032806396484375
1772457424582560000,4.66856005859375,-0.95770263671875,-0.2871246337890625,0.004974365234375
1772457424592629000,4.67862890625,-0.9537811279296875,-0.2866363525390625,0.01104736328125
1772457424602698000,4.688697998046875,-0.9490509033203125,-0.2877044677734375,0.0128631591796875
1772457424612766000,4.698765869140625,-0.9462432861328125,-0.2907867431640625,0.01031494140625
1772457424622835000,4.7088349609375,-0.947784423828125,-0.29058837890625,0.006744384765625
1772457424632904000,4.718904052734375,-0.9501800537109375,-0.289642333984375,0.0049591064453125
1772457424642972000,4.728971923828125,-0.9492950439453125,-0.2877655029296875,0.0046844482421875
1772457424653041000,4.739041015625,-0.9455413818359375,-0.287506103515625,0.0090179443359375
1772457424663110100,4.749110107421875,-0.9481201171875,-0.2875823974609375,0.012481689453125
1772457424673177900,4.759177734375,-0.9565582275390625,-0.2824554443359375,0.0140533447265625
1772457424683247000,4.7692470703125,-0.9596099853515625,-0.2802886962890625,0.014373779296875
1772457424693316000,4.779316162109375,-0.9537353515625,-0.28155517578125,0.016815185546875
1772457424703383800,4.7893837890625,-0.9555206298828125,-0.28192138671875,0.0178070068359375
1772457424713453000,4.799453125,-0.96417236328125,-0.2790374755859375,0.0204620361328125
1772457424723522000,4.80952197265625,-0.968597412109375,-0.2766265869140625,0.0200347900390625
1772457424733589800,4.81958984375,-0.95654296875,-0.2770538330078125,0.0206756591796875
1772457424743659000,4.829658935546875,-0.947021484375,-0.2813720703125,0.020294189453125
1772457424753728000,4.83972802734375,-0.943450927734375,-0.28289794921875,0.0213470458984375
1772457424763796000,4.8497958984375,-0.947479248046875,-0.282501220703125,0.01983642578125
1772457424773865000,4.859864990234375,-0.9565277099609375,-0.2825469970703125,0.01739501953125
1772457424783934000,4.869933837890625,-0.9587554931640625,-0.2833251953125,0.01861572265625
1772457424794002200,4.880002197265625,-0.9525909423828125,-0.2874298095703125,0.0171966552734375
1772457424804071000,4.89007080078125,-0.94390869140625,-0.2892913818359375,0.0167083740234375
1772457424814140200,4.90014013671875,-0.9366607666015625,-0.28936767578125,0.0162353515625
1772457424824208600,4.910208740234375,-0.934844970703125,-0.2905426025390625,0.0159759521484375
1772457424834277600,4.920277587890625,-0.9388885498046875,-0.2884368896484375,0.0155029296875
1772457424844347000,4.930346923828125,-0.9475860595703125,-0.284759521484375,0.012054443359375
1772457424854414600,4.94041455078125,-0.9554595947265625,-0.2807769775390625,0.009246826171875
1772457424864483800,4.95048388671875,-0.959991455078125,-0.280487060546875,0.0097503662109375
1772457424874552800,4.960552734375,-0.9615020751953125,-0.2801971435546875,0.0110321044921875
1772457424884620500,4.97062060546875,-0.9573974609375,-0.2794189453125,0.011199951171875
1772457424894689800,4.980689697265625,-0.9550323486328125,-0.279296875,0.0110321044921875
1772457424904758800,4.9907587890625,-0.95465087890625,-0.280242919921875,0.0082550048828125
1772457424914826800,5.00082666015625,-0.9525909423828125,-0.2796173095703125,0.0066375732421875
1772457424924895700,5.010895751953125,-0.948455810546875,-0.2817535400390625,0.0077667236328125
1772457424934964700,5.02096484375,-0.9446258544921875,-0.2835235595703125,0.0133819580078125
1772457424945033000,5.031032958984375,-0.9330902099609375,-0.2868499755859375,0.0161590576171875
1772457424955101700,5.041101806640625,-0.9364471435546875,-0.2885284423828125,0.01690673828125
1772457424965170700,5.051170654296875,-0.94598388671875,-0.2884521484375,0.014251708984375
1772457424975239000,5.061239013671875,-0.947540283203125,-0.2859344482421875,0.01202392578125
1772457424985307600,5.0713076171875,-0.951171875,-0.286529541015625,0.0128173828125
1772457424995377000,5.081376953125,-0.9549407958984375,-0.285858154296875,0.011993408203125
1772457425005444900,5.09144482421875,-0.9513397216796875,-0.287567138671875,0.013031005859375
1772457425015513600,5.101513671875,-0.9494476318359375,-0.2904815673828125,0.0122833251953125
1772457425025582800,5.111582763671875,-0.9551544189453125,-0.290069580078125,0.0103912353515625
1772457425035650800,5.12165087890625,-0.9568939208984375,-0.290313720703125,0.00860595703125
1772457425045719600,5.131719482421875,-0.9494781494140625,-0.2933349609375,0.00946044921875
1772457425055788800,5.141788818359375,-0.9434051513671875,-0.293182373046875,0.015350341796875
1772457425065856800,5.151856689453125,-0.937164306640625,-0.2938385009765625,0.0189971923828125
1772457425075925800,5.16192578125,-0.9379119873046875,-0.2926177978515625,0.019775390625
1772457425085994800,5.171994873046875,-0.946136474609375,-0.29010009765625,0.0163421630859375
1772457425096062700,5.182062744140625,-0.9569854736328125,-0.2875213623046875,0.01373291015625
1772457425106131700,5.192131591796875,-0.95989990234375,-0.28619384765625,0.012359619140625
1772457425116200700,5.20220068359375,-0.9548187255859375,-0.286590576171875,0.0104522705078125
1772457425126268700,5.2122685546875,-0.94842529296875,-0.28765869140625,0.012969970703125
1772457425136337700,5.222337646484375,-0.9438629150390625,-0.2884674072265625,0.014739990234375
1772457425146406700,5.23240673828125,-0.9375457763671875,-0.289886474609375,0.018402099609375
1772457425156475000,5.242474853515625,-0.9330596923828125,-0.2905731201171875,0.016326904296875
1772457425166543600,5.252543701171875,-0.94061279296875,-0.2905426025390625,0.0136260986328125
1772457425176612600,5.262612548828125,-0.9571685791015625,-0.286865234375,0.0072021484375
1772457425186680800,5.272680908203125,-0.963348388671875,-0.283050537109375,0.0064239501953125
1772457425196749600,5.28274951171875,-0.9547576904296875,-0.2817230224609375,0.0130462646484375
1772457425206818800,5.29281884765625,-0.9433135986328125,-0.2831268310546875,0.022216796875
1772457425216886800,5.30288671875,-0.9379119873046875,-0.2829742431640625,0.0304718017578125
1772457425226955800,5.312955810546875,-0.94036865234375,-0.28094482421875,0.0301361083984375
1772457425237024800,5.323024658203125,-0.946044921875,-0.28277587890625,0.0252532958984375
1772457425247092700,5.3330927734375,-0.95123291015625,-0.2811126708984375,0.01751708984375
1772457425257161700,5.34316162109375,-0.953216552734375,-0.28179931640625,0.015167236328125
1772457425267230700,5.353230712890625,-0.9524993896484375,-0.2824554443359375,0.0155181884765625
1772457425277298700,5.363298583984375,-0.9504852294921875,-0.28546142578125,0.01898193359375
1772457425287368000,5.373367919921875,-0.9506072998046875,-0.285797119140625,0.0200653076171875
1772457425297436700,5.383436767578125,-0.9535675048828125,-0.2881011962890625,0.0152587890625
1772457425307504600,5.393504638671875,-0.9539642333984375,-0.290802001953125,0.0121307373046875
1772457425317574000,5.403573974609375,-0.948760986328125,-0.2933807373046875,0.0101318359375
1772457425327642600,5.413642578125,-0.94757080078125,-0.29510498046875,0.0095367431640625
1772457425337710600,5.423710693359375,-0.9463348388671875,-0.2943878173828125,0.010650634765625
1772457425347779800,5.43377978515625,-0.942352294921875,-0.2955169677734375,0.0119171142578125
1772457425357848600,5.4438486328125,-0.9409332275390625,-0.293975830078125,0.0111541748046875
1772457425367916800,5.453916748046875,-0.9473876953125,-0.294677734375,0.0086822509765625
1772457425377985800,5.46398583984375,-0.9535369873046875,-0.292144775390625,0.0052337646484375
1772457425388054500,5.474054443359375,-0.9535980224609375,-0.291900634765625,0.005828857421875
1772457425398122800,5.484122802734375,-0.94744873046875,-0.2938232421875,0.008270263671875
1772457425408191700,5.494191650390625,-0.9445648193359375,-0.293853759765625,0.010986328125
1772457425418260700,5.5042607421875,-0.9410552978515625,-0.292205810546875,0.013031005859375
1772457425428328700,5.51432861328125,-0.9388427734375,-0.2918243408203125,0.0128173828125
1772457425438397700,5.524397705078125,-0.94378662109375,-0.289154052734375,0.0098114013671875
1772457425448466700,5.534466796875,-0.95391845703125,-0.28668212890625,0.009918212890625
1772457425458534700,5.54453466796875,-0.9535675048828125,-0.28533935546875,0.0119476318359375
1772457425468603600,5.554603759765625,-0.950714111328125,-0.2862701416015625,0.015411376953125
1772457425478672600,5.564672607421875,-0.9498748779296875,-0.2889251708984375,0.0154876708984375
1772457425488740600,5.57474072265625,-0.9477386474609375,-0.288543701171875,0.0160675048828125
1772457425498809900,5.584809814453125,-0.9446258544921875,-0.29022216796875,0.0152740478515625
1772457425508878600,5.594878662109375,-0.93914794921875,-0.2920074462890625,0.015777587890625
1772457425518946600,5.604946533203125,-0.9397735595703125,-0.289459228515625,0.0166168212890625
1772457425529015800,5.615015869140625,-0.9469451904296875,-0.2861785888671875,0.0181884765625
1772457425539084800,5.625084716796875,-0.951263427734375,-0.2855377197265625,0.018096923828125
1772457425549152500,5.635152587890625,-0.9517364501953125,-0.284423828125,0.01641845703125
1772457425559221800,5.6452216796875,-0.9507293701171875,-0.284454345703125,0.014556884765625
1772457425569290800,5.655290771484375,-0.953887939453125,-0.2860260009765625,0.0133056640625
1772457425579358700,5.665358642578125,-0.9618377685546875,-0.28594970703125,0.0082244873046875
1772457425589427700,5.675427734375,-0.9639892578125,-0.282867431640625,0.0068511962890625
1772457425599497000,5.6854970703125,-0.95758056640625,-0.2830963134765625,0.0099945068359375
1772457425609564700,5.695564697265625,-0.9490814208984375,-0.2848663330078125,0.01629638671875
1772457425619633700,5.705633544921875,-0.9387054443359375,-0.2851104736328125,0.021270751953125
1772457425629703000,5.715702880859375,-0.932891845703125,-0.285125732421875,0.025146484375
1772457425639770600,5.7257705078125,-0.935211181640625,-0.2852630615234375,0.0234832763671875
1772457425649839600,5.735839599609375,-0.944580078125,-0.2860870361328125,0.0192108154296875
1772457425659908900,5.745908935546875,-0.9527435302734375,-0.28399658203125,0.0154876708984375
1772457425669976800,5.755976806640625,-0.9542236328125,-0.285125732421875,0.0118560791015625
1772457425680045600,5.766045654296875,-0.9524688720703125,-0.2864990234375,0.0096435546875
1772457425690114800,5.77611474609375,-0.950897216796875,-0.28802490234375,0.0126953125
1772457425700182800,5.786182861328125,-0.9489593505859375,-0.28692626953125,0.0158843994140625
1772457425710251800,5.796251708984375,-0.9443206787109375,-0.286956787109375,0.0158843994140625
1772457425720320800,5.80632080078125,-0.9439697265625,-0.28814697265625,0.01702880859375
1772457425730388700,5.816388671875,-0.9466705322265625,-0.2894134521484375,0.0115814208984375
1772457425740457700,5.826457763671875,-0.9537811279296875,-0.2886962890625,0.013153076171875
1772457425750526700,5.836526611328125,-0.9603118896484375,-0.287445068359375,0.009918212890625
1772457425760594700,5.8465947265625,-0.958099365234375,-0.28875732421875,0.0110321044921875
1772457425770663700,5.85666357421875,-0.9530029296875,-0.2908477783203125,0.012725830078125
1772457425780732700,5.866732666015625,-0.9510040283203125,-0.2910614013671875,0.0145416259765625
1772457425790801000,5.87680078125,-0.9509124755859375,-0.2906646728515625,0.0140838623046875
1772457425800869600,5.88686962890625,-0.9539642333984375,-0.287017822265625,0.0114898681640625
1772457425810939000,5.89693896484375,-0.9561920166015625,-0.2850799560546875,0.0118255615234375
1772457425821006800,5.9070068359375,-0.95281982421875,-0.2859344482421875,0.013092041015625
1772457425831075300,5.917075439453125,-0.94891357421875,-0.2862548828125,0.01519775390625
1772457425841144600,5.92714453125,-0.9431610107421875,-0.285552978515625,0.0155181884765625
1772457425851212500,5.937212646484375,-0.9449005126953125,-0.284698486328125,0.0139617919921875
1772457425861281300,5.94728125,-0.9486083984375,-0.284759521484375,0.0149993896484375
1772457425871350500,5.9573505859375,-0.9506072998046875,-0.2861785888671875,0.0146331787109375
1772457425881418500,5.96741845703125,-0.9459686279296875,-0.2868194580078125,0.0130767822265625
1772457425891487500,5.977487548828125,-0.94281005859375,-0.288421630859375,0.01556396484375
1772457425901556500,5.987556396484375,-0.940216064453125,-0.2883148193359375,0.017730712890625
1772457425911624400,5.99762451171875,-0.93951416015625,-0.2886810302734375,0.0179290771484375
1772457425921693400,6.007693359375,-0.93853759765625,-0.286956787109375,0.018585205078125
1772457425931762400,6.017762451171875,-0.94232177734375,-0.2871856689453125,0.0175018310546875
1772457425941830400,6.027830322265625,-0.94927978515625,-0.2843475341796875,0.016357421875
1772457425951899600,6.037899658203125,-0.954437255859375,-0.2855987548828125,0.0137786865234375
1772457425961968400,6.047968505859375,-0.962890625,-0.2857208251953125,0.006500244140625
1772457425972036400,6.058036376953125,-0.9633941650390625,-0.2867279052734375,0.0078277587890625
1772457425982105600,6.068105712890625,-0.952850341796875,-0.287933349609375,0.0100860595703125
1772457425992174300,6.07817431640625,-0.943389892578125,-0.289093017578125,0.0143585205078125
1772457426002242600,6.08824267578125,-0.939453125,-0.2906036376953125,0.017822265625
1772457426012311600,6.0983115234375,-0.94134521484375,-0.288482666015625,0.0167999267578125
1772457426022380500,6.108380615234375,-0.9458770751953125,-0.2899627685546875,0.012542724609375
1772457426032448500,6.118448486328125,-0.95123291015625,-0.288543701171875,0.0061187744140625
1772457426042517500,6.128517578125,-0.9532012939453125,-0.2884521484375,0.005126953125
1772457426052586500,6.13858642578125,-0.9522552490234375,-0.2898101806640625,0.0089263916015625
1772457426062654500,6.148654541015625,-0.9431610107421875,-0.28753662109375,0.013916015625
1772457426072723500,6.158723388671875,-0.93646240234375,-0.2878265380859375,0.0194549560546875
1772457426082792400,6.16879248046875,-0.9378814697265625,-0.286590576171875,0.02197265625
1772457426092860400,6.1788603515625,-0.9481048583984375,-0.2850494384765625,0.02197265625
1772457426102929700,6.1889296875,-0.9544525146484375,-0.283935546875,0.0182952880859375
1772457426112998400,6.198998291015625,-0.9504547119140625,-0.2840423583984375,0.016998291015625
1772457426123066400,6.20906640625,-0.9439239501953125,-0.2872467041015625,0.0180816650390625
1772457426133135600,6.219135498046875,-0.94024658203125,-0.289306640625,0.0174102783203125
1772457426143204400,6.229204345703125,-0.938201904296875,-0.2874298095703125,0.0150299072265625
1772457426153272300,6.239272216796875,-0.9416961669921875,-0.2876434326171875,0.01519775390625
1772457426163341600,6.249341552734375,-0.9514312744140625,-0.2862701416015625,0.0128631591796875
1772457426173410300,6.259410400390625,-0.9650421142578125,-0.2829742431640625,0.0135345458984375
1772457426183478300,6.269478271484375,-0.9661102294921875,-0.2836151123046875,0.0152435302734375
1772457426193547500,6.279547607421875,-0.9550933837890625,-0.2879638671875,0.017486572265625
1772457426203616300,6.2896162109375,-0.946014404296875,-0.2877044677734375,0.018798828125
1772457426213684500,6.2996845703125,-0.951507568359375,-0.285858154296875,0.0210723876953125
1772457426223753500,6.30975341796875,-0.9531402587890625,-0.2836151123046875,0.0242767333984375
1772457426233822500,6.319822509765625,-0.954498291015625,-0.2805328369140625,0.0228118896484375
1772457426243890400,6.329890380859375,-0.956085205078125,-0.279876708984375,0.0212860107421875
1772457426253959400,6.33995947265625,-0.9587249755859375,-0.2804718017578125,0.01776123046875
1772457426264028700,6.350028564453125,-0.9597015380859375,-0.28070068359375,0.0156707763671875
1772457426274096400,6.360096435546875,-0.9565277099609375,-0.2827301025390625,0.0155792236328125
1772457426284165400,6.370165283203125,-0.9482574462890625,-0.2844085693359375,0.0167083740234375
1772457426294234600,6.380234619140625,-0.9402618408203125,-0.2840118408203125,0.0175628662109375
1772457426304302300,6.39030224609375,-0.93560791015625,-0.28265380859375,0.0218353271484375
1772457426314371600,6.40037158203125,-0.9312744140625,-0.2814788818359375,0.0237274169921875
1772457426324440600,6.410440673828125,-0.931060791015625,-0.2796173095703125,0.0219268798828125
1772457426334508500,6.420508544921875,-0.9356842041015625,-0.2804107666015625,0.0198211669921875
1772457426344577500,6.43057763671875,-0.9467926025390625,-0.28265380859375,0.014923095703125
1772457426354646500,6.440646484375,-0.9505767822265625,-0.2853851318359375,0.0109100341796875
1772457426364714500,6.450714599609375,-0.9528656005859375,-0.28558349609375,0.0126495361328125
1772457426374783500,6.460783447265625,-0.9521026611328125,-0.2846221923828125,0.0134735107421875
1772457426384852500,6.4708525390625,-0.95263671875,-0.2845001220703125,0.0176849365234375
1772457426394920700,6.480920654296875,-0.9525299072265625,-0.2842559814453125,0.0189208984375
1772457426404989400,6.490989501953125,-0.9500579833984375,-0.285430908203125,0.01837158203125
1772457426415058400,6.501058349609375,-0.9538116455078125,-0.28826904296875,0.015380859375
1772457426425126700,6.511126708984375,-0.9586029052734375,-0.2902679443359375,0.010040283203125
1772457426435195400,6.5211953125,-0.96527099609375,-0.288421630859375,0.008636474609375
1772457426445264600,6.5312646484375,-0.96649169921875,-0.2871246337890625,0.0116424560546875
1772457426455332600,6.54133251953125,-0.9558258056640625,-0.2869415283203125,0.01751708984375
1772457426465401300,6.5514013671875,-0.9491729736328125,-0.2855072021484375,0.0225372314453125
1772457426475470600,6.561470703125,-0.943572998046875,-0.2849578857421875,0.0280609130859375
1772457426485538600,6.57153857421875,-0.939727783203125,-0.282623291015625,0.0295562744140625
1772457426495607300,6.581607177734375,-0.9410247802734375,-0.2801666259765625,0.0270843505859375
1772457426505676500,6.591676513671875,-0.9473724365234375,-0.2802581787109375,0.02130126953125
1772457426515744500,6.60174462890625,-0.9566192626953125,-0.2796173095703125,0.01593017578125
1772457426525813500,6.6118134765625,-0.9659423828125,-0.276397705078125,0.0140228271484375
1772457426535882500,6.621882568359375,-0.96795654296875,-0.2734527587890625,0.0153961181640625
1772457426545950500,6.631950439453125,-0.960418701171875,-0.27398681640625,0.018524169921875
1772457426556019500,6.64201953125,-0.9541473388671875,-0.2781524658203125,0.02001953125
1772457426566088400,6.65208837890625,-0.95037841796875,-0.27984619140625,0.017974853515625
1772457426576156400,6.662156494140625,-0.945831298828125,-0.2812957763671875,0.016754150390625
1772457426586225400,6.672225341796875,-0.9453125,-0.2829132080078125,0.01727294921875
1772457426596294400,6.68229443359375,-0.9480438232421875,-0.2820892333984375,0.0143585205078125
1772457426606362600,6.692362548828125,-0.95489501953125,-0.28253173828125,0.0111236572265625
1772457426616431400,6.702431396484375,-0.9525146484375,-0.2831268310546875,0.0101318359375
1772457426626500400,6.712500244140625,-0.946807861328125,-0.284759521484375,0.013702392578125
1772457426636568600,6.722568603515625,-0.9445343017578125,-0.28411865234375,0.0154266357421875
1772457426646637300,6.73263720703125,-0.944091796875,-0.2834320068359375,0.01446533203125
1772457426656706600,6.74270654296875,-0.94415283203125,-0.2829437255859375,0.01702880859375
1772457426666774500,6.7527744140625,-0.9441986083984375,-0.2818603515625,0.0167083740234375
1772457426676843500,6.762843505859375,-0.94256591796875,-0.28179931640625,0.0133056640625
1772457426686912500,6.77291259765625,-0.9454803466796875,-0.2826690673828125,0.0116729736328125
1772457426696980500,6.78298046875,-0.9501190185546875,-0.281585693359375,0.0117340087890625
1772457426707049500,6.793049560546875,-0.954315185546875,-0.2798309326171875,0.013397216796875
1772457426717118500,6.803118408203125,-0.95562744140625,-0.278228759765625,0.015472412109375
1772457426727186400,6.8131865234375,-0.9514617919921875,-0.2796783447265625,0.01763916015625
1772457426737255700,6.823255615234375,-0.9464874267578125,-0.2801666259765625,0.0212249755859375
1772457426747324400,6.833324462890625,-0.9405670166015625,-0.2794342041015625,0.0223236083984375
1772457426757392400,6.843392333984375,-0.9403839111328125,-0.2818450927734375,0.022125244140625
1772457426767461600,6.853461669921875,-0.9509124755859375,-0.2804718017578125,0.0189361572265625
1772457426777530400,6.8635302734375,-0.9620361328125,-0.27752685546875,0.0125579833984375
1772457426787598300,6.873598388671875,-0.961273193359375,-0.2779388427734375,0.0122833251953125
1772457426797667600,6.88366748046875,-0.960113525390625,-0.2801666259765625,0.01708984375
1772457426807736300,6.893736328125,-0.9593658447265625,-0.2779388427734375,0.018798828125
1772457426817804500,6.903804443359375,-0.9560394287109375,-0.2787933349609375,0.0207672119140625
1772457426827873800,6.913873779296875,-0.9535980224609375,-0.2781219482421875,0.0203704833984375
1772457426837942500,6.923942626953125,-0.956268310546875,-0.2792816162109375,0.01568603515625
1772457426848010500,6.934010498046875,-0.9597625732421875,-0.278656005859375,0.0131683349609375
1772457426858079700,6.944079833984375,-0.96429443359375,-0.279266357421875,0.00689697265625
1772457426868148500,6.9541484375,-0.9651947021484375,-0.2796630859375,0.007904052734375
1772457426878216400,6.964216552734375,-0.9578094482421875,-0.2808685302734375,0.0107574462890625
1772457426888285700,6.97428564453125,-0.9467926025390625,-0.28387451171875,0.0160980224609375
1772457426898353700,6.984353759765625,-0.9349212646484375,-0.2847442626953125,0.0199432373046875
1772457426908422700,6.994422607421875,-0.92413330078125,-0.2840423583984375,0.024017333984375
1772457426918491600,7.00449169921875,-0.923919677734375,-0.28375244140625,0.02789306640625
1772457426928560400,7.014560302734375,-0.932098388671875,-0.2776031494140625,0.028778076171875
1772457426938628600,7.024628662109375,-0.943328857421875,-0.2724456787109375,0.0242919921875
1772457426948697600,7.034697509765625,-0.95367431640625,-0.272216796875,0.0200653076171875
1772457426958765600,7.044765625,-0.96234130859375,-0.27532958984375,0.01495361328125
1772457426968834600,7.05483447265625,-0.963470458984375,-0.2777862548828125,0.010589599609375
1772457426978903600,7.064903564453125,-0.959716796875,-0.2772674560546875,0.010711669921875
1772457426988971800,7.0749716796875,-0.9597930908203125,-0.2742462158203125,0.0137939453125
1772457426999040500,7.08504052734375,-0.9647674560546875,-0.2707672119140625,0.01513671875
1772457427009109500,7.095109619140625,-0.9658050537109375,-0.2670745849609375,0.01861572265625
1772457427019177700,7.105177734375,-0.9622650146484375,-0.266571044921875,0.017791748046875
1772457427029246500,7.11524658203125,-0.9638214111328125,-0.269683837890625,0.017059326171875
1772457427039315700,7.125315673828125,-0.956573486328125,-0.2725372314453125,0.02008056640625
1772457427049383700,7.1353837890625,-0.9494781494140625,-0.2772369384765625,0.0218658447265625
1772457427059452400,7.145452392578125,-0.9436187744140625,-0.27789306640625,0.024322509765625
1772457427069521700,7.155521728515625,-0.938751220703125,-0.2777252197265625,0.0265655517578125
1772457427079589600,7.165589599609375,-0.9369049072265625,-0.2797088623046875,0.0246734619140625
1772457427089658600,7.17565869140625,-0.9402923583984375,-0.279876708984375,0.022186279296875
1772457427099727600,7.1857275390625,-0.950408935546875,-0.2791748046875,0.017333984375
1772457427109795600,7.195795654296875,-0.9566650390625,-0.2767486572265625,0.0124359130859375
1772457427119864600,7.205864501953125,-0.960540771484375,-0.279052734375,0.00958251953125
1772457427129933600,7.21593359375,-0.9610595703125,-0.281768798828125,0.007476806640625
1772457427140001500,7.22600146484375,-0.96209716796875,-0.282012939453125,0.010040283203125
1772457427150070800,7.23607080078125,-0.9602813720703125,-0.28033447265625,0.01495361328125
1772457427160139500,7.246139404296875,-0.9563140869140625,-0.2802276611328125,0.017730712890625
1772457427170207500,7.25620751953125,-0.953460693359375,-0.279327392578125,0.0195465087890625
1772457427180276700,7.26627685546875,-0.9595184326171875,-0.277191162109375,0.018768310546875
1772457427190345500,7.276345458984375,-0.9635009765625,-0.2758331298828125,0.0173187255859375
1772457427200413700,7.28641357421875,-0.963104248046875,-0.27374267578125,0.0171966552734375
1772457427210482700,7.296482666015625,-0.958526611328125,-0.2725830078125,0.0201416015625
1772457427220551400,7.306551513671875,-0.94866943359375,-0.271209716796875,0.0259246826171875
1772457427230619600,7.31661962890625,-0.944244384765625,-0.273956298828125,0.027099609375
1772457427240688600,7.326688720703125,-0.94439697265625,-0.2725830078125,0.0254364013671875
1772457427250757600,7.336757568359375,-0.9464874267578125,-0.273162841796875,0.022216796875
1772457427260825600,7.34682568359375,-0.94989013671875,-0.2736663818359375,0.0160369873046875
1772457427270894600,7.35689453125,-0.9561767578125,-0.2741851806640625,0.0153045654296875
1772457427280963600,7.366963623046875,-0.9548797607421875,-0.2734832763671875,0.0178985595703125
1772457427291031600,7.377031494140625,-0.9482574462890625,-0.275115966796875,0.0229644775390625
1772457427301100500,7.3871005859375,-0.9436187744140625,-0.2772979736328125,0.02447509765625
1772457427311169500,7.39716943359375,-0.9429779052734375,-0.277801513671875,0.024566650390625
1772457427321237500,7.407237548828125,-0.948760986328125,-0.2771453857421875,0.0205230712890625
1772457427331306800,7.417306640625,-0.954620361328125,-0.277252197265625,0.017852783203125
1772457427341375500,7.42737548828125,-0.9589691162109375,-0.27703857421875,0.0144500732421875
1772457427351443500,7.437443359375,-0.9610443115234375,-0.2763214111328125,0.01348876953125
1772457427361512700,7.4475126953125,-0.961639404296875,-0.277099609375,0.0134429931640625
1772457427371581400,7.45758154296875,-0.96026611328125,-0.2771453857421875,0.0169677734375
1772457427381649400,7.4676494140625,-0.953765869140625,-0.2772369384765625,0.0195465087890625
1772457427391718700,7.47771875,-0.9472198486328125,-0.2774658203125,0.0211029052734375
1772457427401787400,7.487787353515625,-0.944854736328125,-0.2764434814453125,0.021484375
1772457427411855600,7.497855712890625,-0.95111083984375,-0.2769775390625,0.020904541015625
1772457427421924600,7.507924560546875,-0.95654296875,-0.27490234375,0.0181121826171875
1772457427431993600,7.51799365234375,-0.9572601318359375,-0.276092529296875,0.014404296875
1772457427442061600,7.5280615234375,-0.953582763671875,-0.2773590087890625,0.01385498046875
1772457427452130600,7.538130615234375,-0.9491729736328125,-0.2770538330078125,0.0149383544921875
1772457427462199800,7.54819970703125,-0.94464111328125,-0.2790985107421875,0.0190582275390625
1772457427472267500,7.558267578125,-0.9392242431640625,-0.27764892578125,0.0209197998046875
1772457427482336500,7.56833642578125,-0.9428863525390625,-0.27642822265625,0.0216064453125
1772457427492405800,7.57840576171875,-0.9456024169921875,-0.27813720703125,0.019500732421875
1772457427502473500,7.588473388671875,-0.950347900390625,-0.27764892578125,0.0162506103515625
1772457427512542500,7.59854248046875,-0.9582366943359375,-0.2775115966796875,0.0123443603515625
1772457427522611700,7.60861181640625,-0.959625244140625,-0.2761993408203125,0.010284423828125
1772457427532679700,7.6186796875,-0.9556732177734375,-0.276458740234375,0.0157928466796875
1772457427542748700,7.628748779296875,-0.94970703125,-0.2770843505859375,0.0197906494140625
1772457427552817700,7.638817626953125,-0.947784423828125,-0.27716064453125,0.0183563232421875
1772457427562885600,7.6488857421875,-0.9557647705078125,-0.277008056640625,0.0160369873046875
1772457427572954600,7.65895458984375,-0.9601898193359375,-0.2748565673828125,0.016204833984375
1772457427583023600,7.669023681640625,-0.959747314453125,-0.274505615234375,0.0169525146484375
1772457427593091600,7.679091552734375,-0.9600067138671875,-0.2763824462890625,0.0195770263671875
1772457427603160600,7.68916064453125,-0.9584197998046875,-0.2754058837890625,0.0204925537109375
1772457427613229600,7.6992294921875,-0.9541473388671875,-0.2770538330078125,0.02197265625
1772457427623297800,7.7092978515625,-0.9473876953125,-0.2783355712890625,0.0247955322265625
1772457427633366500,7.719366455078125,-0.9399871826171875,-0.2765960693359375,0.0285491943359375
1772457427643435800,7.729435791015625,-0.9355010986328125,-0.2752685546875,0.03057861328125
1772457427653503700,7.739503662109375,-0.93756103515625,-0.273101806640625,0.029083251953125
1772457427663572500,7.749572509765625,-0.94610595703125,-0.2733612060546875,0.0231170654296875
1772457427673641700,7.759641845703125,-0.955810546875,-0.2732696533203125,0.01708984375
1772457427683709700,7.769709716796875,-0.9619293212890625,-0.27606201171875,0.0117950439453125
1772457427693778400,7.7797783203125,-0.9612579345703125,-0.2774200439453125,0.009185791015625
1772457427703847700,7.78984765625,-0.9597625732421875,-0.2764739990234375,0.010406494140625
1772457427713915600,7.79991552734375,-0.9547271728515625,-0.2760467529296875,0.0113525390625
1772457427723984400,7.809984375,-0.9515380859375,-0.27532958984375,0.014495849609375
1772457427734053600,7.8200537109375,-0.9537353515625,-0.2752227783203125,0.01666259765625
1772457427744121600,7.83012158203125,-0.95428466796875,-0.2753448486328125,0.01580810546875
1772457427754190600,7.840190673828125,-0.95428466796875,-0.27410888671875,0.01373291015625
1772457427764259600,7.850259521484375,-0.9529266357421875,-0.2776031494140625,0.015106201171875
1772457427774327600,7.86032763671875,-0.9541168212890625,-0.2804412841796875,0.01275634765625
1772457427784396500,7.870396484375,-0.955047607421875,-0.28131103515625,0.010986328125
1772457427794465500,7.880465576171875,-0.9523468017578125,-0.281982421875,0.012939453125
1772457427804533500,7.890533447265625,-0.9496612548828125,-0.2824249267578125,0.015838623046875
1772457427814602500,7.9006025390625,-0.9490203857421875,-0.2825164794921875,0.018829345703125
1772457427824671000,7.9106708984375,-0.9463348388671875,-0.283843994140625,0.01947021484375
1772457427834739000,7.920739013671875,-0.9500732421875,-0.283355712890625,0.0175323486328125
1772457427844808000,7.930807861328125,-0.9568023681640625,-0.285125732421875,0.0167236328125
1772457427854876200,7.940876220703125,-0.959228515625,-0.283935546875,0.01666259765625
1772457427864945000,7.95094482421875,-0.957794189453125,-0.283599853515625,0.017303466796875
1772457427875014100,7.96101416015625,-0.9529876708984375,-0.2826995849609375,0.0223236083984375
1772457427885082000,7.97108203125,-0.9493865966796875,-0.280059814453125,0.0245819091796875
1772457427895150800,7.98115087890625,-0.95330810546875,-0.2786712646484375,0.0241851806640625
1772457427905220000,7.99122021484375,-0.957733154296875,-0.2743377685546875,0.0249481201171875
1772457427915287000,8.001287109375,-0.960235595703125,-0.2719268798828125,0.0256195068359375
1772457427925356000,8.01135595703125,-0.9617156982421875,-0.271331787109375,0.0258941650390625
1772457427935425000,8.021425048828124,-0.9570465087890625,-0.2706146240234375,0.022735595703125
1772457427945493000,8.031492919921876,-0.9517364501953125,-0.2734527587890625,0.0210418701171875
1772457427955562000,8.04156201171875,-0.947998046875,-0.27813720703125,0.0192718505859375
1772457427965631000,8.051630859375,-0.9449310302734375,-0.2766876220703125,0.020782470703125
1772457427975699000,8.061698974609374,-0.94189453125,-0.2742919921875,0.02117919921875
1772457427985768200,8.071768310546876,-0.9453582763671875,-0.27667236328125,0.0201873779296875
1772457427995837000,8.0818369140625,-0.9509735107421875,-0.274383544921875,0.0178375244140625
1772457428005905000,8.09190478515625,-0.9546661376953125,-0.27459716796875,0.0167388916015625
1772457428015974100,8.10197412109375,-0.949859619140625,-0.280609130859375,0.0140838623046875
1772457428026043000,8.11204296875,-0.948089599609375,-0.284942626953125,0.012298583984375
1772457428036110800,8.12211083984375,-0.9515380859375,-0.2838592529296875,0.011444091796875
1772457428046180000,8.13218017578125,-0.9515838623046875,-0.2841339111328125,0.0097808837890625
1772457428056248800,8.142248779296875,-0.9501800537109375,-0.28533935546875,0.0083160400390625
1772457428066317000,8.152317138671876,-0.943695068359375,-0.2856597900390625,0.012969970703125
1772457428076386000,8.162385986328125,-0.9371337890625,-0.287078857421875,0.0128326416015625
1772457428086454800,8.172454833984375,-0.9419403076171875,-0.2882537841796875,0.0126800537109375
1772457428096523000,8.18252294921875,-0.952728271484375,-0.2842559814453125,0.0115966796875
1772457428106592000,8.192592041015626,-0.960357666015625,-0.282318115234375,0.010040283203125
1772457428116661000,8.202660888671875,-0.959075927734375,-0.27996826171875,0.01385498046875
1772457428126729000,8.21272900390625,-0.953582763671875,-0.2811279296875,0.017822265625
1772457428136798000,8.2227978515625,-0.9437103271484375,-0.2802581787109375,0.02435302734375
1772457428146867000,8.232866943359374,-0.9373779296875,-0.277801513671875,0.0263214111328125
1772457428156935000,8.242934814453125,-0.9337310791015625,-0.278564453125,0.0287322998046875
1772457428167004000,8.25300390625,-0.941131591796875,-0.277435302734375,0.0280914306640625
1772457428177072000,8.263072021484374,-0.95184326171875,-0.2748260498046875,0.0250701904296875
1772457428187140900,8.273140869140626,-0.9548187255859375,-0.2751922607421875,0.02313232421875
1772457428197210000,8.283210205078126,-0.9538726806640625,-0.2770538330078125,0.022247314453125
1772457428207278000,8.293278076171875,-0.951690673828125,-0.278411865234375,0.022064208984375
1772457428217346800,8.303346923828125,-0.9496002197265625,-0.2798919677734375,0.0211029052734375
1772457428227416000,8.313416015625,-0.9524078369140625,-0.2796630859375,0.0212860107421875
1772457428237484000,8.323484130859375,-0.958160400390625,-0.2771759033203125,0.0202789306640625
1772457428247552800,8.333552734375,-0.9635467529296875,-0.2757720947265625,0.017608642578125
1772457428257622000,8.3436220703125,-0.96490478515625,-0.2786102294921875,0.0164642333984375
1772457428267691000,8.35369091796875,-0.9609375,-0.28106689453125,0.014801025390625
1772457428277760000,8.363760009765626,-0.957061767578125,-0.282318115234375,0.0137939453125
1772457428287828000,8.373827880859375,-0.9547882080078125,-0.2808380126953125,0.0137939453125
1772457428297897000,8.38389697265625,-0.9496917724609375,-0.28070068359375,0.016571044921875
1772457428307966000,8.393966064453124,-0.94464111328125,-0.2811126708984375,0.022308349609375
1772457428318034000,8.404033935546876,-0.9400634765625,-0.280670166015625,0.0261383056640625
1772457428328103200,8.414103271484375,-0.940704345703125,-0.2814178466796875,0.0244598388671875
1772457428338172000,8.424171875,-0.942779541015625,-0.283294677734375,0.0180511474609375
1772457428348240000,8.434239990234374,-0.944366455078125,-0.2818756103515625,0.0141448974609375
1772457428358309000,8.44430908203125,-0.9428863525390625,-0.2838287353515625,0.014404296875
1772457428368377900,8.4543779296875,-0.937835693359375,-0.2830657958984375,0.01953125
1772457428378445800,8.46444580078125,-0.937255859375,-0.278778076171875,0.023040771484375
1772457428388515000,8.47451513671875,-0.9481964111328125,-0.2767181396484375,0.0232391357421875
1772457428398583800,8.484583740234376,-0.9600372314453125,-0.2747802734375,0.018310546875
1772457428408652000,8.494652099609375,-0.966094970703125,-0.2744598388671875,0.014495849609375
1772457428418721000,8.504720947265625,-0.9669189453125,-0.2760467529296875,0.0091400146484375
1772457428428790000,8.5147900390625,-0.96661376953125,-0.27874755859375,0.009002685546875
1772457428438858000,8.52485791015625,-0.9613189697265625,-0.2782440185546875,0.012847900390625
1772457428448927000,8.534927001953125,-0.9506988525390625,-0.2773590087890625,0.0184783935546875
1772457428458996000,8.544995849609375,-0.9469757080078125,-0.2774200439453125,0.021881103515625
1772457428469064000,8.55506396484375,-0.9457855224609375,-0.277130126953125,0.0239715576171875
1772457428479133000,8.5651328125,-0.94696044921875,-0.276519775390625,0.0225982666015625
1772457428489202000,8.575201904296875,-0.9501800537109375,-0.280120849609375,0.0206298828125
1772457428499270000,8.585269775390625,-0.9481964111328125,-0.2786407470703125,0.0186614990234375
1772457428509339000,8.5953388671875,-0.9484710693359375,-0.2783966064453125,0.0214691162109375
1772457428519407900,8.605407958984374,-0.9493408203125,-0.278564453125,0.020172119140625
1772457428529475800,8.615475830078125,-0.9528350830078125,-0.278564453125,0.0177459716796875
1772457428539545000,8.625545166015625,-0.9600982666015625,-0.2775115966796875,0.0190887451171875
1772457428549614000,8.635614013671875,-0.9606170654296875,-0.2802734375,0.0188751220703125
1772457428559681800,8.645681884765626,-0.95721435546875,-0.28350830078125,0.0169677734375
1772457428569751000,8.6557509765625,-0.95703125,-0.2864532470703125,0.0144500732421875
1772457428579820000,8.665820068359375,-0.9530792236328125,-0.286224365234375,0.0142059326171875
1772457428589887700,8.6758876953125,-0.945526123046875,-0.2862396240234375,0.017303466796875
1772457428599957000,8.68595703125,-0.94842529296875,-0.2835540771484375,0.0181121826171875
1772457428610026000,8.69602587890625,-0.9535675048828125,-0.280303955078125,0.0186920166015625
1772457428620094000,8.706093994140625,-0.953582763671875,-0.27947998046875,0.0177001953125
1772457428630163000,8.716162841796875,-0.9583892822265625,-0.2779541015625,0.017333984375
1772457428640231000,8.72623095703125,-0.9561004638671875,-0.2778778076171875,0.018646240234375
1772457428650300000,8.7362998046875,-0.9492034912109375,-0.27557373046875,0.0189056396484375
1772457428660369000,8.746368896484375,-0.9423370361328125,-0.275543212890625,0.0209808349609375
1772457428670436900,8.756436767578125,-0.9363861083984375,-0.2741546630859375,0.0211944580078125
1772457428680506000,8.766506103515624,-0.93487548828125,-0.2731781005859375,0.0213623046875
1772457428690574800,8.776574951171876,-0.94195556640625,-0.2737884521484375,0.01849365234375
1772457428700643000,8.78664306640625,-0.9479522705078125,-0.2719268798828125,0.0178070068359375
1772457428710712000,8.796712158203125,-0.947906494140625,-0.2731781005859375,0.0174407958984375
1772457428720781000,8.806781005859374,-0.9503631591796875,-0.2768707275390625,0.0152740478515625
1772457428730849000,8.81684912109375,-0.953033447265625,-0.2785186767578125,0.017486572265625
1772457428740918000,8.82691796875,-0.9541473388671875,-0.2800140380859375,0.015838623046875
1772457428750987000,8.836987060546875,-0.95440673828125,-0.281524658203125,0.0147857666015625
1772457428761055000,8.847054931640624,-0.9539642333984375,-0.279815673828125,0.0153961181640625
1772457428771124000,8.8571240234375,-0.952423095703125,-0.280609130859375,0.01519775390625
1772457428781193000,8.86719287109375,-0.952880859375,-0.280792236328125,0.015777587890625
1772457428791261000,8.877260986328125,-0.94964599609375,-0.28009033203125,0.0157623291015625
1772457428801330200,8.887330078125,-0.9518280029296875,-0.2814788818359375,0.01385498046875
1772457428811399000,8.89739892578125,-0.9566650390625,-0.27972412109375,0.0133514404296875
1772457428821467000,8.907466796875,-0.9586181640625,-0.2784576416015625,0.0148162841796875
1772457428831537000,8.917536865234375,-0.9582672119140625,-0.27685546875,0.01629638671875
1772457428841605600,8.927605712890625,-0.9543609619140625,-0.2773284912109375,0.018035888671875
1772457428851673900,8.937673828125,-0.951812744140625,-0.27911376953125,0.022247314453125
1772457428861742800,8.947742919921875,-0.95556640625,-0.275848388671875,0.018585205078125
1772457428871811600,8.9578115234375,-0.9614410400390625,-0.27294921875,0.017242431640625
1772457428881879800,8.9678798828125,-0.95867919921875,-0.2743988037109375,0.0166778564453125
1772457428891948800,8.97794873046875,-0.9520111083984375,-0.2766265869140625,0.017486572265625
1772457428902017800,8.988017822265626,-0.944366455078125,-0.27532958984375,0.020263671875
1772457428912085800,8.998085693359375,-0.944122314453125,-0.2764739990234375,0.02203369140625
1772457428922154800,9.00815478515625,-0.9498138427734375,-0.27783203125,0.0193328857421875
1772457428932223700,9.0182236328125,-0.95379638671875,-0.27789306640625,0.0192413330078125
1772457428942291700,9.028291748046875,-0.9561309814453125,-0.274871826171875,0.018310546875
1772457428952360700,9.038360595703125,-0.9532318115234375,-0.2753448486328125,0.0164642333984375
1772457428962429700,9.0484296875,-0.944793701171875,-0.278045654296875,0.0162353515625
1772457428972497700,9.05849755859375,-0.943572998046875,-0.277557373046875,0.0130767822265625
1772457428982567000,9.06856689453125,-0.94512939453125,-0.2772216796875,0.013153076171875
1772457428992635600,9.0786357421875,-0.9542083740234375,-0.2777252197265625,0.012359619140625
1772457429002703600,9.08870361328125,-0.960540771484375,-0.278411865234375,0.010589599609375
1772457429012772900,9.09877294921875,-0.9586944580078125,-0.280670166015625,0.0084991455078125
1772457429022841600,9.108841552734376,-0.9472808837890625,-0.2825164794921875,0.0118408203125
1772457429032909600,9.11890966796875,-0.936279296875,-0.28271484375,0.0172882080078125
1772457429042978800,9.128978759765625,-0.9322357177734375,-0.2824554443359375,0.019989013671875
1772457429053047600,9.139047607421874,-0.937225341796875,-0.278961181640625,0.0206451416015625
1772457429063115800,9.14911572265625,-0.9487152099609375,-0.2752685546875,0.0181884765625
1772457429073184800,9.159184814453125,-0.9575653076171875,-0.274566650390625,0.0141143798828125
1772457429083253500,9.16925341796875,-0.965576171875,-0.274658203125,0.0098114013671875
1772457429093321700,9.17932177734375,-0.97479248046875,-0.27197265625,0.0066986083984375
1772457429103390700,9.189390625,-0.969146728515625,-0.274169921875,0.0099639892578125
1772457429113459700,9.199459716796875,-0.9543304443359375,-0.2767791748046875,0.017425537109375
1772457429123527700,9.209527587890625,-0.9458160400390625,-0.2769775390625,0.021484375
1772457429133596700,9.2195966796875,-0.9443206787109375,-0.274749755859375,0.021942138671875
1772457429143665700,9.229665771484376,-0.9504241943359375,-0.273651123046875,0.0198974609375
1772457429153733600,9.239733642578125,-0.9531097412109375,-0.2746734619140625,0.0167694091796875
1772457429163802600,9.249802734375,-0.9509735107421875,-0.2772064208984375,0.017181396484375
1772457429173870800,9.259870849609374,-0.951202392578125,-0.27801513671875,0.0196380615234375
1772457429183939600,9.269939697265626,-0.949188232421875,-0.2779083251953125,0.019805908203125
1772457429194008800,9.2800087890625,-0.94952392578125,-0.278717041015625,0.0225372314453125
1772457429204076800,9.290076904296875,-0.9518280029296875,-0.27801513671875,0.0185089111328125
1772457429214145500,9.3001455078125,-0.9562225341796875,-0.2776336669921875,0.01708984375
1772457429224214800,9.31021484375,-0.9552001953125,-0.2780303955078125,0.0131378173828125
1772457429234282800,9.32028271484375,-0.956390380859375,-0.2808990478515625,0.0120391845703125
1772457429244351700,9.330351806640625,-0.955322265625,-0.28204345703125,0.0128173828125
1772457429254420700,9.340420654296874,-0.955780029296875,-0.2823638916015625,0.0120697021484375
1772457429264488700,9.35048876953125,-0.957489013671875,-0.281707763671875,0.013031005859375
1772457429274558000,9.360557861328125,-0.9589385986328125,-0.2833709716796875,0.01239013671875
1772457429284626700,9.370626708984375,-0.960357666015625,-0.2803802490234375,0.0139617919921875
1772457429294694700,9.380694580078124,-0.958892822265625,-0.2791900634765625,0.0139617919921875
1772457429304764000,9.390763916015626,-0.9586181640625,-0.27728271484375,0.0161895751953125
1772457429314832600,9.40083251953125,-0.9547271728515625,-0.2786865234375,0.015106201171875
1772457429324900600,9.410900634765625,-0.9492340087890625,-0.278961181640625,0.0112152099609375
1772457429334969900,9.420969970703124,-0.951904296875,-0.278076171875,0.0105133056640625
1772457429345038600,9.43103857421875,-0.9569854736328125,-0.2739105224609375,0.0098419189453125
1772457429355106800,9.44110693359375,-0.9522552490234375,-0.2705230712890625,0.0142822265625
1772457429365175800,9.45117578125,-0.9456024169921875,-0.2706298828125,0.0194244384765625
1772457429375244500,9.46124462890625,-0.9414825439453125,-0.2717437744140625,0.0216217041015625
1772457429385312800,9.471312744140626,-0.93939208984375,-0.2719573974609375,0.023284912109375
1772457429395381800,9.4813818359375,-0.93988037109375,-0.2725372314453125,0.0177764892578125
1772457429405450800,9.49145068359375,-0.9488067626953125,-0.2761077880859375,0.0120086669921875
1772457429415518700,9.501518798828124,-0.957427978515625,-0.2742156982421875,0.0094146728515625
1772457429425587700,9.511587646484376,-0.9539642333984375,-0.273712158203125,0.0147857666015625
1772457429435656700,9.52165673828125,-0.94598388671875,-0.276031494140625,0.018829345703125
1772457429445724700,9.531724609375,-0.943389892578125,-0.27520751953125,0.0229644775390625
1772457429455793700,9.541793701171875,-0.9496002197265625,-0.2762451171875,0.0184326171875
1772457429465862700,9.551862548828124,-0.960723876953125,-0.2774505615234375,0.011474609375
1772457429475930600,9.5619306640625,-0.9683380126953125,-0.27520751953125,0.0075531005859375
1772457429485999900,9.571999755859375,-0.968170166015625,-0.279022216796875,0.00531005859375
1772457429496068600,9.582068603515625,-0.960113525390625,-0.2791595458984375,0.008880615234375
1772457429506136600,9.592136474609376,-0.95062255859375,-0.280181884765625,0.0150299072265625
1772457429516205800,9.602205810546875,-0.9474945068359375,-0.2780609130859375,0.0191497802734375
1772457429526274600,9.612274658203125,-0.9530487060546875,-0.27459716796875,0.0187835693359375
1772457429536342500,9.622342529296875,-0.957427978515625,-0.2727203369140625,0.0164642333984375
1772457429546411800,9.632411865234374,-0.9601898193359375,-0.27142333984375,0.0147705078125
1772457429556480800,9.642480712890626,-0.956512451171875,-0.273223876953125,0.01318359375
1772457429566548700,9.652548828125,-0.950927734375,-0.2757110595703125,0.0145263671875
1772457429576617700,9.66261767578125,-0.9431915283203125,-0.274993896484375,0.018402099609375
1772457429586686700,9.672686767578124,-0.9399261474609375,-0.274810791015625,0.0202484130859375
1772457429596754700,9.682754638671875,-0.94476318359375,-0.2740631103515625,0.0221405029296875
1772457429606823700,9.69282373046875,-0.9515838623046875,-0.27130126953125,0.0199737548828125
1772457429616893000,9.702892822265625,-0.953643798828125,-0.27215576171875,0.0196533203125
1772457429626960600,9.712960693359374,-0.9560546875,-0.2707061767578125,0.017242431640625
1772457429637029600,9.723029541015626,-0.9569854736328125,-0.271759033203125,0.0158843994140625
1772457429647097900,9.733097900390625,-0.96063232421875,-0.27471923828125,0.014251708984375
1772457429657166600,9.74316650390625,-0.95672607421875,-0.27557373046875,0.015594482421875
1772457429667235600,9.753235595703124,-0.9510650634765625,-0.2768707275390625,0.0164794921875
1772457429677304800,9.763304931640626,-0.952056884765625,-0.27783203125,0.016082763671875
1772457429687372800,9.773372802734375,-0.95465087890625,-0.27484130859375,0.01739501953125
1772457429697441800,9.78344189453125,-0.957061767578125,-0.272491455078125,0.0216522216796875
1772457429707509800,9.793509765625,-0.9558868408203125,-0.2700347900390625,0.0260009765625
1772457429717578800,9.803578857421876,-0.9517974853515625,-0.2714691162109375,0.02764892578125
1772457429727647700,9.813647705078125,-0.95086669921875,-0.272491455078125,0.0257568359375
1772457429737715700,9.8237158203125,-0.9536895751953125,-0.275726318359375,0.0193328857421875
1772457429747784700,9.83378466796875,-0.961761474609375,-0.2743072509765625,0.0150909423828125
1772457429757853700,9.843853759765626,-0.9623565673828125,-0.2730560302734375,0.0111846923828125
1772457429767921700,9.853921630859375,-0.9568634033203125,-0.2732086181640625,0.0098876953125
1772457429777991000,9.863990966796875,-0.9551239013671875,-0.27435302734375,0.0123291015625
1772457429788059600,9.8740595703125,-0.9510040283203125,-0.2754669189453125,0.0156097412109375
1772457429798127600,9.884127685546876,-0.951171875,-0.276275634765625,0.017578125
1772457429808196900,9.89419677734375,-0.9495086669921875,-0.2754364013671875,0.0195159912109375
1772457429818265600,9.904265625,-0.944122314453125,-0.2779388427734375,0.0207977294921875
1772457429828333600,9.91433349609375,-0.937469482421875,-0.2839508056640625,0.01788330078125
1772457429838402800,9.92440283203125,-0.9341888427734375,-0.283782958984375,0.0161590576171875
1772457429848471600,9.934471435546875,-0.9378509521484375,-0.2815399169921875,0.012908935546875
1772457429858539800,9.944539794921875,-0.9477081298828125,-0.2788543701171875,0.0109405517578125
1772457429868608800,9.95460888671875,-0.9583282470703125,-0.2776031494140625,0.010406494140625
1772457429878677500,9.964677490234376,-0.9687957763671875,-0.2775726318359375,0.007171630859375
1772457429888745700,9.974745849609375,-0.9741058349609375,-0.2780609130859375,0.0037384033203125
1772457429898814700,9.984814697265625,-0.9695892333984375,-0.28240966796875,0.0036773681640625
1772457429908883700,9.9948837890625,-0.9578857421875,-0.2846527099609375,0.008392333984375
1772457429918951700,10.00495166015625,-0.950927734375,-0.286865234375,0.0116424560546875
1772457429929020700,10.015020751953125,-0.944732666015625,-0.284271240234375,0.014434814453125
1772457429939089700,10.025089599609375,-0.947601318359375,-0.2816162109375,0.0179443359375
1772457429949157600,10.03515771484375,-0.95465087890625,-0.277099609375,0.019256591796875
1772457429959226600,10.0452265625,-0.96148681640625,-0.2742462158203125,0.018585205078125
1772457429969295600,10.055295654296875,-0.968017578125,-0.2728729248046875,0.0161895751953125
1772457429979363600,10.065363525390625,-0.9616851806640625,-0.275604248046875,0.013153076171875
1772457429989432800,10.075432861328125,-0.9511566162109375,-0.27716064453125,0.015045166015625
1772457429999501800,10.085501708984374,-0.94384765625,-0.27911376953125,0.0172882080078125
1772457430009569500,10.095569580078125,-0.93939208984375,-0.280181884765625,0.0161590576171875
1772457430019638800,10.105638671875,-0.9452972412109375,-0.2783203125,0.01513671875
1772457430029707800,10.115707763671875,-0.9527130126953125,-0.276519775390625,0.0173492431640625
1772457430039775500,10.125775390625,-0.950439453125,-0.275054931640625,0.02001953125
1772457430049844700,10.1358447265625,-0.9454193115234375,-0.27703857421875,0.0224609375
1772457430059913700,10.145913818359375,-0.9405975341796875,-0.2802276611328125,0.022552490234375
1772457430069981700,10.155981689453125,-0.9367523193359375,-0.2800445556640625,0.0252685546875
1772457430080050700,10.16605078125,-0.937469482421875,-0.2820281982421875,0.0238037109375
1772457430090120000,10.176119873046876,-0.943572998046875,-0.2823028564453125,0.0156707763671875
1772457430100188000,10.18618798828125,-0.95159912109375,-0.280670166015625,0.0127105712890625
1772457430110256600,10.196256591796875,-0.95147705078125,-0.2813568115234375,0.011322021484375
1772457430120326000,10.206325927734374,-0.95013427734375,-0.28204345703125,0.013275146484375
1772457430130393900,10.216393798828125,-0.9520721435546875,-0.2812957763671875,0.0148468017578125
1772457430140462600,10.226462646484375,-0.9608001708984375,-0.281097412109375,0.0135650634765625
1772457430150531800,10.23653173828125,-0.9658203125,-0.277130126953125,0.01373291015625
1772457430160599800,10.246599853515624,-0.9603729248046875,-0.2775726318359375,0.0132598876953125
1772457430170668800,10.256668701171876,-0.94635009765625,-0.27960205078125,0.015838623046875
1772457430180737800,10.26673779296875,-0.939361572265625,-0.282562255859375,0.0177764892578125
1772457430190805800,10.2768056640625,-0.938140869140625,-0.2829742431640625,0.0174560546875
1772457430200874800,10.286874755859374,-0.943206787109375,-0.2807464599609375,0.0191192626953125
1772457430210942700,10.296942626953125,-0.945556640625,-0.2802886962890625,0.016326904296875
1772457430221011700,10.30701171875,-0.9486541748046875,-0.280517578125,0.0128326416015625
1772457430231080700,10.317080810546875,-0.9482879638671875,-0.2821197509765625,0.0100860595703125
1772457430241148700,10.327148681640624,-0.947845458984375,-0.2828826904296875,0.0110626220703125
1772457430251218000,10.337218017578126,-0.9476470947265625,-0.2845306396484375,0.0134429931640625
1772457430261286700,10.34728662109375,-0.94390869140625,-0.282379150390625,0.0157012939453125
1772457430271354600,10.357354736328125,-0.9437408447265625,-0.283233642578125,0.016387939453125
1772457430281424000,10.367423828125,-0.948577880859375,-0.2844696044921875,0.0152130126953125
1772457430291492600,10.37749267578125,-0.9504241943359375,-0.282196044921875,0.013916015625
1772457430301560600,10.387560546875,-0.9515838623046875,-0.2808990478515625,0.015594482421875
1772457430311629800,10.3976298828125,-0.9549407958984375,-0.2803955078125,0.017120361328125
1772457430321698600,10.407698486328124,-0.956329345703125,-0.2779998779296875,0.0206451416015625
1772457430331766500,10.4177666015625,-0.9508056640625,-0.2791595458984375,0.023162841796875
1772457430341835800,10.427835693359375,-0.9443206787109375,-0.2805328369140625,0.0267486572265625
1772457430351904500,10.437904541015625,-0.940032958984375,-0.279937744140625,0.02484130859375
1772457430361972700,10.44797265625,-0.9401397705078125,-0.2797088623046875,0.0249481201171875
1772457430372041700,10.458041748046876,-0.945465087890625,-0.27911376953125,0.024810791015625
1772457430382110700,10.46811083984375,-0.9581298828125,-0.273956298828125,0.020111083984375
1772457430392178700,10.4781787109375,-0.968231201171875,-0.274505615234375,0.015533447265625
1772457430402247700,10.48824755859375,-0.9676361083984375,-0.277313232421875,0.0121917724609375
1772457430412316700,10.498316650390626,-0.9617156982421875,-0.281768798828125,0.0125579833984375
1772457430422384600,10.508384521484375,-0.9505767822265625,-0.28143310546875,0.015838623046875
1772457430432453600,10.51845361328125,-0.94097900390625,-0.284393310546875,0.018768310546875
1772457430442523000,10.52852294921875,-0.9379119873046875,-0.2808685302734375,0.021270751953125
1772457430452590600,10.538590576171876,-0.9406280517578125,-0.2792205810546875,0.0219573974609375
1772457430462659800,10.548659912109375,-0.94366455078125,-0.2794036865234375,0.023040771484375
1772457430472728800,10.558728759765625,-0.943695068359375,-0.2804718017578125,0.0200653076171875
1772457430482796500,10.568796630859374,-0.9468536376953125,-0.2790985107421875,0.0182952880859375
1772457430492865800,10.57886572265625,-0.9526824951171875,-0.2789459228515625,0.0161590576171875
1772457430502934800,10.588934814453125,-0.9511260986328125,-0.2820587158203125,0.0157623291015625
1772457430513002800,10.599002685546875,-0.948150634765625,-0.28216552734375,0.012451171875
1772457430523071700,10.60907177734375,-0.952362060546875,-0.283355712890625,0.0132293701171875
1772457430533140700,10.619140625,-0.962188720703125,-0.281097412109375,0.0115509033203125
1772457430543209000,10.629208984375,-0.9651947021484375,-0.2814178466796875,0.0124359130859375
1772457430553277700,10.639277587890625,-0.9632110595703125,-0.28228759765625,0.0119781494140625
1772457430563346700,10.6493466796875,-0.9612884521484375,-0.2832489013671875,0.0145111083984375
1772457430573415000,10.659414794921876,-0.9573211669921875,-0.2823944091796875,0.015869140625
1772457430583483600,10.669483642578125,-0.9554443359375,-0.2830047607421875,0.0200042724609375
1772457430593551600,10.679551513671875,-0.9517669677734375,-0.28350830078125,0.0210723876953125
1772457430603620900,10.689620849609375,-0.951995849609375,-0.284210205078125,0.0182342529296875
1772457430613689600,10.699689697265624,-0.955322265625,-0.2826385498046875,0.0146484375
1772457430623757800,10.7097578125,-0.9588470458984375,-0.27947998046875,0.0152130126953125
1772457430633826800,10.719826904296875,-0.955535888671875,-0.2813568115234375,0.017974853515625
1772457430643895600,10.7298955078125,-0.9484710693359375,-0.279876708984375,0.0193328857421875
1772457430653963800,10.7399638671875,-0.940277099609375,-0.2805633544921875,0.021728515625
1772457430664032800,10.75003271484375,-0.9397735595703125,-0.28118896484375,0.0185546875
1772457430674101800,10.760101806640625,-0.942230224609375,-0.2811126708984375,0.016937255859375
1772457430684169700,10.770169677734375,-0.947998046875,-0.27996826171875,0.014923095703125
1772457430694238700,10.78023876953125,-0.947784423828125,-0.2787322998046875,0.015289306640625
1772457430704307700,10.7903076171875,-0.9478759765625,-0.279205322265625,0.01873779296875
1772457430714375700,10.800375732421875,-0.9455413818359375,-0.280181884765625,0.0197906494140625
1772457430724444700,10.810444580078125,-0.9442901611328125,-0.278472900390625,0.02294921875
1772457430734513700,10.820513671875,-0.946319580078125,-0.278594970703125,0.02117919921875
1772457430744581600,10.83058154296875,-0.948883056640625,-0.2785797119140625,0.018829345703125
1772457430754651000,10.84065087890625,-0.9528045654296875,-0.279205322265625,0.0163421630859375
1772457430764719600,10.8507197265625,-0.956146240234375,-0.2785491943359375,0.0153350830078125
1772457430774787600,10.86078759765625,-0.956390380859375,-0.2787017822265625,0.0164947509765625
1772457430784856800,10.87085693359375,-0.95269775390625,-0.2783966064453125,0.0161590576171875
1772457430794925600,10.880925537109375,-0.953887939453125,-0.2814788818359375,0.018402099609375
1772457430804993500,10.89099365234375,-0.9541473388671875,-0.280029296875,0.0152435302734375
1772457430815062800,10.901062744140624,-0.952545166015625,-0.28033447265625,0.01654052734375
1772457430825131800,10.9111318359375,-0.95263671875,-0.281005859375,0.01513671875
1772457430835199200,10.92119921875,-0.957000732421875,-0.279296875,0.0135345458984375
1772457430845268500,10.9312685546875,-0.9585113525390625,-0.2785491943359375,0.0115966796875
1772457430855337500,10.94133740234375,-0.9518585205078125,-0.2818756103515625,0.0115203857421875
1772457430865405400,10.951405517578126,-0.9511260986328125,-0.2833099365234375,0.01202392578125
1772457430875474400,10.961474365234375,-0.9507598876953125,-0.2838134765625,0.01422119140625
1772457430885543400,10.97154345703125,-0.9487762451171875,-0.2833709716796875,0.012847900390625
1772457430895611400,10.981611328125,-0.9385986328125,-0.285308837890625,0.01324462890625
1772457430905680400,10.991680419921876,-0.937103271484375,-0.2863616943359375,0.0164642333984375
1772457430915749400,11.001749267578125,-0.9462432861328125,-0.28448486328125,0.0154876708984375
1772457430925817600,11.011817626953125,-0.9473724365234375,-0.2821807861328125,0.0114898681640625
1772457430935886300,11.02188623046875,-0.9492645263671875,-0.2819061279296875,0.0107269287109375
1772457430945955300,11.031955322265626,-0.9498291015625,-0.2796173095703125,0.011810302734375
1772457430956023600,11.0420234375,-0.9446868896484375,-0.279144287109375,0.0153045654296875
1772457430966092300,11.05209228515625,-0.943084716796875,-0.2828826904296875,0.0172882080078125
1772457430976160300,11.06216015625,-0.9482269287109375,-0.28009033203125,0.0148773193359375
1772457430986229500,11.0722294921875,-0.9535675048828125,-0.2777862548828125,0.0203704833984375
1772457430996298200,11.08229833984375,-0.9542083740234375,-0.278076171875,0.0196685791015625
1772457431006366500,11.092366455078125,-0.9462432861328125,-0.27984619140625,0.0205230712890625
1772457431016435500,11.102435546875,-0.9393310546875,-0.2811737060546875,0.0216522216796875
1772457431026504200,11.112504150390626,-0.937408447265625,-0.2791595458984375,0.0240631103515625
1772457431036572400,11.122572509765625,-0.93829345703125,-0.2766876220703125,0.025390625
1772457431046641400,11.132641357421875,-0.9428863525390625,-0.2762603759765625,0.0255126953125
1772457431056710400,11.14271044921875,-0.9605712890625,-0.27276611328125,0.022705078125
1772457431066778400,11.1527783203125,-0.9727783203125,-0.271240234375,0.0169219970703125
1772457431076847400,11.162847412109375,-0.9710845947265625,-0.2731170654296875,0.013336181640625
1772457431086916400,11.172916259765625,-0.9647369384765625,-0.27587890625,0.0150299072265625
1772457431096984300,11.182984375,-0.95892333984375,-0.2783355712890625,0.0149383544921875
1772457431107053300,11.19305322265625,-0.9573974609375,-0.27496337890625,0.0166015625
1772457431117122300,11.203122314453125,-0.9629058837890625,-0.273651123046875,0.019073486328125
1772457431127190300,11.213190185546875,-0.9716339111328125,-0.2708587646484375,0.014404296875
1772457431137259500,11.223259521484374,-0.9770355224609375,-0.2715911865234375,0.0068511962890625
1772457431147328300,11.233328369140626,-0.9481048583984375,-0.28045654296875,0.019775390625
1772457431157396200,11.243396240234375,-0.935760498046875,-0.2759857177734375,0.0323944091796875
1772457431167465500,11.253465576171875,-0.9373016357421875,-0.2773590087890625,0.03857421875
1772457431177534500,11.263534423828125,-0.94122314453125,-0.271148681640625,0.0350494384765625
1772457431187602200,11.273602294921876,-0.9454803466796875,-0.270782470703125,0.0281219482421875
1772457431197671400,11.28367138671875,-0.9540863037109375,-0.27099609375,0.0234375
1772457431207740400,11.293740478515625,-0.9517822265625,-0.27587890625,0.0156402587890625
1772457431217808400,11.303808349609374,-0.9421234130859375,-0.28485107421875,0.011688232421875
1772457431227877400,11.31387744140625,-0.9425048828125,-0.2893829345703125,0.0077362060546875
1772457431237946400,11.3239462890625,-0.9501190185546875,-0.2906646728515625,0.0055084228515625
1772457431248014300,11.334014404296875,-0.9561309814453125,-0.283111572265625,0.010040283203125
