time,seconds_elapsed,z,y,x
1772562789457367300,0.0663671875,0.0036966907791793346,-0.05420559644699097,-0.0049935318529605865
1772562789467434200,0.076434326171875,0.0014107791939750314,-0.06060652434825897,-0.008170132525265217
1772562789477501200,0.086501220703125,0.00035483576357364655,-0.01824362389743328,-0.0016557740746065974
1772562789487568400,0.096568359375,-0.00043133809231221676,0.03502819687128067,0.007005778141319752
1772562789497635300,0.10663525390625,0.00010315841063857079,0.05236777290701866,0.005989782512187958
1772562789507702300,0.116702392578125,-0.0028644949197769165,0.024459823966026306,0.0026057539507746696
1772562789517770200,0.126770263671875,-0.0003318286035209894,-0.021468251943588257,-0.0037876965943723917
1772562789527837200,0.136837158203125,0.0014283324126154184,-0.04347684234380722,-0.004043371416628361
1772562789537904400,0.146904296875,0.00127227115444839,-0.026400117203593254,-0.0013341375160962343
1772562789547971300,0.156971435546875,-0.0008071055635809898,0.010103515349328518,0.003358804853633046
1772562789558038300,0.167038330078125,-0.0012489240616559982,0.032388582825660706,0.0026493386831134558
1772562789568105200,0.177105224609375,-0.001436423510313034,0.026682384312152863,0.0010291116777807474
1772562789578173200,0.187173095703125,-0.000036133453249931335,-0.004447571933269501,0.001737246522679925
1772562789588240100,0.197240234375,0.0009106232319027185,-0.029213719069957733,-0.00017452379688620567
1772562789598307300,0.207307373046875,0.0026280959136784077,-0.025569714605808258,-0.0010381870670244098
1772562789608374300,0.217374267578125,0.0005370697472244501,-0.004226457327604294,-0.0015224007656797767
1772562789618441200,0.227441162109375,-0.0016794789116829634,0.021175038069486618,0.0056742592714726925
1772562789628508400,0.23750830078125,-0.0010982095263898373,0.025070372968912125,0.002016345737501979
1772562789638576400,0.247576416015625,-0.00007395795546472073,0.008273283019661903,0.0009244496468454599
1772562789648643300,0.257643310546875,0.0006754579953849316,-0.017787424847483635,-0.0006155434530228376
1772562789658710300,0.267710205078125,0.00039955461397767067,-0.02631273679435253,-0.004304554313421249
1772562789668777200,0.277777099609375,0.001245211809873581,-0.011269955895841122,-0.0011795785976573825
1772562789678844200,0.28784423828125,-0.002291732234880328,0.012532046064734459,0.0027557744178920984
1772562789688911000,0.2979111328125,-0.002435284201055765,0.023041490465402603,0.0023806882090866566
1772562789698979300,0.307979248046875,-0.000389177817851305,0.01174196507781744,0.0026440746150910854
1772562789709046300,0.31804638671875,0.000023145927116274834,-0.006884515751153231,0.0006560538895428181
1772562789719113500,0.328113525390625,-0.0008386527188122272,-0.01836620271205902,-0.0008294573053717613
1772562789729180400,0.338180419921875,-0.0008060578256845474,-0.012894556857645512,0.0007090731523931026
1772562789739247400,0.348247314453125,-0.0013474784791469574,0.0022300679702311754,0.0017777998000383377
1772562789749314300,0.358314208984375,0.001504046143963933,0.015020474791526794,0.0028510424308478832
1772562789759382300,0.36838232421875,-0.0008318126201629639,0.011961568146944046,0.0037703653797507286
1772562789769449200,0.37844921875,0.00045494595542550087,-0.0007244427688419819,0.0007018826436251402
1772562789779516200,0.38851611328125,0.0008493601344525814,-0.007720567286014557,0.0008161321748048067
1772562789789583000,0.3985830078125,0.0015758058289065957,-0.013093775138258934,-0.0013215028448030353
1772562789799650300,0.408650390625,0.001504699350334704,-0.0048883091658353806,-0.0020818354096263647
1772562789809717200,0.41871728515625,-0.0013863500207662582,0.0075465659610927105,-0.001760669518262148
1772562789819785500,0.428785400390625,-0.001934694591909647,0.012602044269442558,0.001166144385933876
1772562789829852400,0.438852294921875,0.0013170131715014577,0.007384803146123886,0.0020050799939781427
1772562789839919400,0.44891943359375,0.001606765086762607,-0.0001002768985927105,-0.0032112535554915667
1772562789849986300,0.458986328125,0.0004746427293866873,-0.008680558763444424,0.000010945135727524757
1772562789860053200,0.46905322265625,-0.002245776355266571,-0.00884167943149805,-0.0007560451049357653
1772562789870120200,0.4791201171875,0.0005984667222946882,-0.0015378021635115147,-0.0008862337563186884
1772562789880188200,0.489188232421875,0.0010815642308443785,0.006867666728794575,-0.00000952114351093769
1772562789890254800,0.4992548828125,0.00040937517769634724,0.010211077518761158,0.0011104913428425789
1772562789900322000,0.509322021484375,0.0014812974259257317,0.007187058217823505,-0.0028514936566352844
1772562789910389000,0.519388916015625,0.000760398805141449,-0.004374038428068161,0.0015429086051881313
1772562789920456000,0.5294560546875,0.0009782453998923302,-0.008025499060750008,0.0007748531643301249
1772562789930523000,0.53952294921875,-0.0004795510321855545,-0.003802041057497263,0.0006807635072618723
1772562789940590800,0.5495908203125,0.0003383057191967964,0.0012337297666817904,-0.001340043032541871
1772562789950657800,0.55965771484375,0.0003551444970071316,0.005602658726274967,0.0019089290872216225
1772562789960724700,0.569724853515625,0.0007405038923025131,0.001440138090401888,0.00012567639350891113
1772562789970792000,0.5797919921875,0.0007824061904102564,-0.0006056297570466995,-0.003306277096271515
1772562789980859000,0.58985888671875,0.0011280844919383526,-0.0035468246787786484,-0.0011568397749215364
1772562789990925800,0.59992578125,0.0022641851101070642,-0.003235314507037401,-0.0006616450846195221
1772562790000994000,0.609994140625,0.001097187865525484,-0.0007095723412930965,0.0002590096555650234
1772562790011061000,0.62006103515625,-0.0023646887857466936,0.001195169985294342,-0.0007595692295581102
1772562790021128000,0.6301279296875,0.0001871522981673479,0.0010180696845054626,-0.000008291332051157951
1772562790031195000,0.64019482421875,0.00000836770050227642,0.001735137077048421,0.001696521881967783
1772562790041261800,0.65026171875,0.0014302294002845883,-0.0001663598231971264,0.000513279577717185
1772562790051329000,0.6603291015625,-0.0012368597090244293,-0.0022471239790320396,-0.000713803106918931
1772562790061396700,0.670396728515625,0.0014870214508846402,-0.00005161389708518982,0.0005328226834535599
1772562790071464000,0.6804638671875,0.003099978668615222,-0.0008485033176839352,-0.002377808094024658
1772562790081531000,0.69053076171875,0.0011316363234072924,-0.0000010854564607143402,-0.003344002878293395
1772562790091597800,0.700597900390625,-0.0024334657937288284,-0.00026786280795931816,0.0011275066062808037
1772562790101664800,0.710664794921875,-0.001011071726679802,0.0011153833474963903,-0.0008978275582194328
1772562790111731700,0.720731689453125,0.0007726938929408789,0.0008132229559123516,-0.0023466269485652447
1772562790121800000,0.730800048828125,-0.0008252030238509178,0.0006558303721249104,-0.0012009351048618555
1772562790131867000,0.740866943359375,0.0010757967829704285,0.0006532883271574974,0.0008168586064130068
1772562790141933800,0.750933837890625,-0.0014741797931492329,0.002474091714248061,-0.000745085533708334
1772562790152001000,0.7610009765625,-0.0000986855011433363,-0.0018180455081164837,-0.0005714190192520618
1772562790162068000,0.77106787109375,-0.00002012215554714203,0.0008435177151113749,0.0025873566046357155
1772562790172135000,0.781135009765625,0.0004783887416124344,-0.0006499830633401871,-0.0007601508405059576
1772562790182203000,0.791202880859375,0.0006621468346565962,0.0002621496096253395,0.0028353827074170113
1772562790192269800,0.801269775390625,0.0008890966419130564,0.001215179916471243,-0.00046778679825365543
1772562790202336800,0.811336669921875,-0.000727442093193531,-0.0010394523851573467,0.001568732550367713
1772562790212403700,0.82140380859375,0.0024197683669626713,0.0025799772702157497,-0.0001378832384943962
1772562790222471000,0.831470947265625,0.003090885002166033,0.0007186941802501678,-0.0011717224260792136
1772562790232538000,0.8415380859375,-0.0014317743480205536,-0.0004680105485022068,0.0017760442569851875
1772562790242605800,0.851605712890625,0.0018116895807906985,-0.00012552784755825996,-0.000738778617233038
1772562790252673000,0.861673095703125,0.0012171613052487373,0.00033823633566498756,-0.003302197903394699
1772562790262740000,0.871739990234375,0.00020489376038312912,-0.00008973339572548866,-0.002076345030218363
1772562790272807000,0.881806884765625,-0.00021573714911937714,0.0014479565434157848,0.002438065130263567
1772562790282873900,0.891873779296875,-0.00014010327868163586,-0.0039593251422047615,0.000018849503248929977
1772562790292940800,0.90194091796875,0.0037357916589826345,-0.0014801030047237873,-0.0012959331506863236
1772562790303008800,0.9120087890625,-0.0003092836122959852,-0.004301722627133131,-0.0009382704738527536
1772562790313075700,0.92207568359375,0.0006496505811810493,0.0016681342385709286,-0.0000013334210962057114
1772562790323142700,0.932142578125,0.00011115940287709236,0.0017086141742765903,-0.0030525170732289553
1772562790333210000,0.942210205078125,-0.0019475743174552917,0.002468039048835635,0.001760867889970541
1772562790343277000,0.952277099609375,-0.0018695434555411339,-0.0002896641381084919,0.00021357135847210884
1772562790353344000,0.962343994140625,0.0003671345766633749,-0.0008790218271315098,-0.0027063346933573484
1772562790363412000,0.972411865234375,0.000754091888666153,0.0011359259951859713,-0.0008290724363178015
1772562790373479000,0.98247900390625,-0.00029802671633660793,-0.00018199346959590912,-0.00027331779710948467
1772562790383545900,0.9925458984375,0.0009240978397428989,0.0026105972938239574,0.003679878544062376
1772562790393612800,1.00261279296875,0.0007209635805338621,-0.001033442560583353,-0.00002190330997109413
1772562790403679700,1.0126796875,0.0002796777989715338,0.000841689296066761,0.0016319197602570057
1772562790413747000,1.022746826171875,-0.0008640142623335123,0.0011848858557641506,0.0008490171749144793
1772562790423814700,1.032814697265625,-0.002557518659159541,-0.0029595252126455307,-0.001979260006919503
1772562790433882000,1.042882080078125,0.001594793051481247,-0.0018694386817514896,0.0015027206391096115
1772562790443949000,1.052948974609375,-0.001593809574842453,0.0011135681997984648,0.0017775590531527996
1772562790454016000,1.06301611328125,0.0007975585758686066,0.0011864479165524244,-0.0008040724787861109
1772562790464083000,1.0730830078125,0.0015352540649473667,0.00025940127670764923,0.0017626823391765356
1772562790474150000,1.08314990234375,0.0030787198338657618,-0.0005284342914819717,0.00030364934355020523
1772562790484217900,1.0932177734375,-0.002167707309126854,0.00004840642213821411,0.0006623771041631699
1772562790494284800,1.103284912109375,-0.0008213024120777845,-0.0019456539303064346,0.002995067508891225
1772562790504351700,1.113351806640625,0.00007618265226483345,-0.0022907997481524944,-0.004530492704361677
1772562790514419000,1.1234189453125,0.0004330887459218502,0.0001498740166425705,-0.00024234759621322155
1772562790524486000,1.13348583984375,-0.0009040846489369869,-0.0012525464408099651,-0.001841309480369091
1772562790534552800,1.143552734375,0.004311202093958855,0.0007278723642230034,-0.004011394921690226
1772562790544621000,1.15362109375,0.0006975589785724878,0.003071187762543559,0.0019394385162740946
1772562790554688000,1.16368798828125,-0.0007685723248869181,-0.0016329088248312473,0.0002962446305900812
1772562790564755000,1.1737548828125,-0.001888431841507554,-0.0003537922166287899,0.0009186253882944584
1772562790574822000,1.18382177734375,-0.0021285894326865673,0.0001418711617588997,0.00005449960008263588
1772562790584888800,1.193888916015625,0.00039928313344717026,-0.0032677743583917618,0.0013506601098924875
1772562790594956000,1.2039560546875,0.001445869798772037,-0.0008586808107793331,-0.0018627657555043697
1772562790605023700,1.214023681640625,-0.0004228702746331692,0.00034932931885123253,0.001269910717383027
1772562790615091000,1.224091064453125,0.000494637293741107,-0.0002630334347486496,0.0028299610130488873
1772562790625158000,1.234157958984375,0.0004853163845837116,0.0016768130008131266,0.0017372658476233482
1772562790635224800,1.244224853515625,0.00009255390614271164,-0.0006976677104830742,-0.004303240217268467
1772562790645291800,1.254291748046875,-0.0002925391308963299,-0.0009623859077692032,0.0015642358921468258
1772562790655358700,1.264358642578125,0.001216592499986291,0.0016732325311750174,-0.0011463850969448686
1772562790665427000,1.274427001953125,0.0006986076477915049,-0.0037455009296536446,0.001802532933652401
1772562790675494000,1.284493896484375,0.0003034318797290325,-0.002168424427509308,0.002722389530390501
1772562790685560800,1.294560791015625,0.0005748081021010876,-0.0008331155404448509,0.000016085105016827583
1772562790695628000,1.3046279296875,-0.0008634228724986315,0.0009272750467061996,-0.0015625091036781669
1772562790705695000,1.314695068359375,0.0021584657952189445,0.0005088923498988152,-0.00036808126606047153
1772562790715763000,1.324762939453125,0.0009493848774582148,-0.001073747407644987,-0.003083794144913554
1772562790725830000,1.334829833984375,0.00035150512121617794,0.0009412001818418503,-0.001152203418314457
1772562790735896800,1.344896728515625,0.00046723056584596634,-0.0008673514239490032,0.0020662008319050074
1772562790745963800,1.3549638671875,-0.001320017036050558,-0.0021363478153944016,-0.002168491715565324
1772562790756030700,1.36503076171875,0.0006377384997904301,0.00234280526638031,0.0007195512298494577
1772562790766097700,1.37509765625,-0.00203927094116807,0.05566142126917839,0.008559897541999817
1772562790776166000,1.385165771484375,-0.0032573591452091932,0.08330274373292923,0.0014673268888145685
1772562790786232800,1.39523291015625,-0.0006514561828225851,0.052050549536943436,0.005435703322291374
1772562790796300000,1.405300048828125,-0.000729978084564209,-0.00676010875031352,0.005435374565422535
1772562790806367000,1.415366943359375,0.0009030723012983799,-0.049582675099372864,-0.009871676564216614
1772562790816434000,1.425433837890625,0.0005147268529981375,-0.05188696086406708,-0.006235005334019661
1772562790826500900,1.4355009765625,-0.0012376329395920038,-0.018839530646800995,0.0008809610735625029
1772562790836568800,1.44556884765625,-0.001512948889285326,0.005982570815831423,0.0026053180918097496
1772562790846635800,1.4556357421875,-0.0012098811566829681,-0.021469026803970337,0.0016638906672596931
1772562790856702700,1.46570263671875,0.0018392057390883565,-0.05873478204011917,-0.008528060279786587
1772562790866769700,1.475769775390625,0.002079156693071127,-0.035233981907367706,-0.007247346453368664
1772562790876836900,1.4858369140625,-0.0022243913263082504,0.009774047881364822,0.0039238776080310345
1772562790886904000,1.495904052734375,-0.002354886382818222,0.03755934163928032,0.006497290451079607
1772562790896972500,1.50597265625,-0.0013832482509315014,0.03820594772696495,0.0034809033386409283
1772562790907039500,1.51603955078125,0.0021579572930932045,0.007283185608685017,0.000468601705506444
1772562790917106400,1.5261064453125,0.0018627840327098966,-0.02969897910952568,-0.002537596970796585
1772562790927173400,1.53617333984375,-0.002020370913669467,-0.03882589936256409,-0.0005599337164312601
1772562790937240300,1.546240234375,0.0027384613640606403,-0.010513272136449814,0.0002931503113359213
1772562790947307300,1.556307373046875,-0.0004946161061525345,0.02309102565050125,-0.00181687215808779
1772562790957375200,1.566375244140625,-0.00114709441550076,0.030855709686875343,0.0040129804983735085
1772562790967442200,1.576442138671875,-0.0012211303692311049,0.010386919602751732,0.0030427908059209585
1772562790977509400,1.58650927734375,0.001619858667254448,-0.01546727865934372,0.00031720963306725025
1772562790987576600,1.59657666015625,0.0008099912665784359,-0.02527516707777977,-0.0036146813072264194
1772562790997643500,1.6066435546875,-0.00046307058073580265,-0.012801949866116047,-0.004222516901791096
1772562791007710500,1.61671044921875,0.0003862115554511547,0.0056122103706002235,-0.0028672339394688606
1772562791017778400,1.6267783203125,-0.0006494089029729366,0.017159078270196915,0.0020609740167856216
1772562791027845400,1.636845458984375,-0.001506946748122573,0.01406048983335495,-0.00021709385327994823
1772562791037912300,1.646912353515625,0.00031591998413205147,-0.0017134551890194416,0.0036285221576690674
1772562791047979300,1.656979248046875,0.0006253793835639954,-0.016384810209274292,-0.0017550581833347678
1772562791058046500,1.66704638671875,0.00046835863031446934,-0.01312556117773056,-0.0026005497202277184
1772562791068113400,1.677113525390625,0.00031842244789004326,0.0014701597392559052,0.0004769992083311081
1772562791078181400,1.687181396484375,0.0017466703429818153,0.010733669623732567,-0.0008469312451779842
1772562791088248600,1.69724853515625,-0.00021448149345815182,0.010000500828027725,-0.0012607865501195192
1772562791098315500,1.7073154296875,-0.0001461042556911707,0.0025765527971088886,0.003236085409298539
1772562791108382500,1.717382568359375,0.0016211695037782192,-0.006593510042876005,-0.0031648222357034683
1772562791118449400,1.727449462890625,-0.0009760512039065361,-0.009496724233031273,-0.0008280337788164616
1772562791128516400,1.737516357421875,0.0007771078962832689,-0.003513932693749666,-0.0014301745686680079
1772562791138584300,1.747584228515625,-0.001642497256398201,0.007036952301859856,0.001949012978002429
1772562791148651300,1.7576513671875,0.0011226627975702286,0.010377887636423111,0.00002221600152552128
1772562791158718500,1.767718505859375,0.0008340473286807537,0.004792375024408102,0.0004912274889647961
1772562791168785400,1.777785400390625,0.0007088787388056517,-0.004546531476080418,0.0006201243959367275
1772562791178852400,1.787852294921875,-0.00042145769111812115,-0.009980597533285618,-0.001583324046805501
1772562791188920600,1.797920654296875,0.001399079104885459,-0.003547998145222664,-0.0011548214824870229
1772562791198987500,1.807987548828125,0.0003090444952249527,0.002612425945699215,0.0009418854024261236
1772562791209054500,1.818054443359375,-0.0007953685708343983,0.007679356262087822,0.0038886729162186384
1772562791219121400,1.828121337890625,-0.00013808649964630604,0.006825310178101063,0.0009424909949302673
1772562791229188400,1.838188232421875,0.0016499599441885948,-0.002327442169189453,-0.0002854925114661455
1772562791239255600,1.848255615234375,0.0013072970323264599,-0.007878383621573448,0.0008889108430594206
1772562791249323300,1.8583232421875,0.0010897167958319187,-0.008215540088713169,-0.0020592084620147943
1772562791259390500,1.868390380859375,-0.0004859217442572117,-0.0018499665893614292,0.0015552111435681581
1772562791269457400,1.87845751953125,0.0006355354562401772,0.006241781637072563,0.0004558584187179804
1772562791279524400,1.8885244140625,-0.00001875101588666439,0.007711405865848064,0.0011904267594218254
1772562791289591300,1.89859130859375,0.000011076219379901886,0.001001038821414113,-0.0007137332577258348
1772562791299658200,1.908658203125,0.0014784992672502995,-0.004782675765454769,-0.001674302271567285
1772562791309726500,1.9187265625,-0.0015929245855659246,-0.005136876367032528,-0.0020258394069969654
1772562791319793400,1.92879345703125,0.002503372495993972,-0.001841329038143158,0.0005376683548092842
1772562791329860400,1.9388603515625,-0.0006556690204888582,0.00016136793419718742,-0.00287224305793643
1772562791339927600,1.948927490234375,0.0016591460444033146,0.007258238270878792,0.002142642391845584
1772562791349994500,1.958994384765625,0.0012261159718036652,0.0035881358198821545,-0.0010691300267353654
1772562791360061400,1.9690615234375,0.0006277072243392467,0.000929956091567874,0.0016932138241827488
1772562791370129400,1.97912939453125,-0.0003906853962689638,-0.002887418959289789,-0.0004972359165549278
1772562791380196400,1.9891962890625,0.00026800110936164856,-0.0034089814871549606,-0.0013377806171774864
1772562791390263300,1.99926318359375,-0.0004550472367554903,-0.0012709954753518105,-0.0012629458215087652
1772562791400330200,2.009330322265625,-0.0023051442112773657,0.003402507631108165,-0.001199183170683682
1772562791410397200,2.019397216796875,-0.0024747878778725863,0.0013673198409378529,0.002106598811224103
1772562791420465400,2.02946533203125,-0.0010417201556265354,0.002955845557153225,0.001248448621481657
1772562791430532400,2.039532470703125,-0.0002947037573903799,0.0006532766856253147,-0.0005467880982905626
1772562791440599600,2.049599609375,0.0006080789025872946,-0.0034097805619239807,0.002219137502834201
1772562791450666500,2.05966650390625,0.0004203259013593197,-0.0025237463414669037,0.0013027435634285212
1772562791460733400,2.0697333984375,0.0010467884130775928,-0.0009360844269394875,-0.0010656565427780151
1772562791470800400,2.07980029296875,0.0005290696863085032,0.0017590345814824104,0.0019549005664885044
1772562791480868400,2.089868408203125,-0.0008771680295467377,0.0016339023131877184,0.0036726349499076605
1772562791490935300,2.099935302734375,-0.0009160502813756466,-0.00003696465864777565,0.0008171938825398684
1772562791501002200,2.110002197265625,0.0015766486758366227,-0.0020065605640411377,0.0011824651155620813
1772562791511069200,2.120069091796875,-0.0012132790870964527,-0.0020523671992123127,0.0019369388464838266
1772562791521136400,2.130136474609375,0.0013013582210987806,-0.00013884250074625015,-0.0032328672241419554
1772562791531203300,2.140203369140625,-0.00034127943217754364,0.0014430750161409378,0.0004383004270493984
1772562791541271600,2.150271484375,0.0003569209948182106,-0.0007988954894244671,-0.000013148412108421326
1772562791551338500,2.16033837890625,-0.0000926207285374403,0.00036037852987647057,0.0004904554225504398
1772562791561405400,2.170405517578125,-0.00036214455030858517,0.0003140396438539028,-0.0005301940254867077
1772562791571472400,2.180472412109375,-0.000652428949251771,0.0009177783504128456,0.0009838133119046688
1772562791581539300,2.190539306640625,-0.0003870120272040367,0.0014908469747751951,-0.001024641445837915
1772562791591606300,2.200606201171875,0.0007677346002310514,-0.0000820159912109375,0.0017935156356543303
1772562791601674200,2.21067431640625,0.00007553771138191223,-0.000907782930880785,-0.0008443326223641634
1772562791611741200,2.2207412109375,-0.000836595194414258,-0.0029533570632338524,0.0016832735855132341
1772562791621808400,2.230808349609375,-0.0003361960407346487,-0.00017386535182595253,-0.001615823246538639
1772562791631875300,2.240875244140625,-0.001294933957979083,-0.0010447190143167973,0.0007242963183671236
1772562791641942500,2.250942626953125,-0.0009981249459087849,0.000811323057860136,0.0015206551179289818
1772562791652009500,2.261009521484375,0.0002234671264886856,-0.0020422539673745632,-0.0016788665670901537
1772562791662077400,2.271077392578125,-0.0002632040996104479,-0.0020487168803811073,0.0000263056717813015
1772562791672144400,2.281144287109375,0.0013352251844480634,-0.0004825117066502571,-0.0011926231672987342
1772562791682211300,2.29121142578125,0.00025687506422400475,0.0009493899997323751,-0.0006133757997304201
1772562791692278300,2.3012783203125,-0.000909589696675539,-0.00016194721683859825,-0.002603822387754917
1772562791702345500,2.311345458984375,0.0001727829221636057,-0.0008780774660408497,-0.000665880274027586
1772562791712413200,2.3214130859375,-0.00019286898896098137,-0.0006264089606702328,0.0016302971635013819
1772562791722480400,2.33148046875,0.0005453075282275677,-0.0009231572039425373,-0.0006173059809952974
1772562791732547300,2.34154736328125,-0.000023011118173599243,0.00045103393495082855,0.0032171134371310472
1772562791742614300,2.3516142578125,0.002272288780659437,0.0007225321605801582,-0.0009584752842783928
1772562791752681500,2.361681396484375,-0.0002806175034493208,-0.00043514370918273926,-0.0028501185588538647
1772562791762748400,2.37174853515625,0.0013779585715383291,-0.00010556681081652641,0.0005013211630284786
1772562791772816400,2.38181640625,0.00013932236470282078,0.00001747114583849907,0.0006824161391705275
1772562791782883300,2.39188330078125,0.0009211436845362186,0.0011647746432572603,-0.002983753103762865
1772562791792950300,2.4019501953125,0.0003613473381847143,0.002810075646266341,0.000003780936822295189
1772562791803017500,2.412017578125,-0.002271972130984068,-0.0006570643745362759,0.00002986588515341282
1772562791813084400,2.42208447265625,-0.0006580967456102371,-0.0017652055248618126,0.0002847304567694664
1772562791823151400,2.4321513671875,-0.0004361448809504509,-0.0013235816732048988,-0.002397878561168909
1772562791833219300,2.44221923828125,0.0027284894604235888,-0.0005219699814915657,0.002434960100799799
1772562791843286300,2.452286376953125,-0.0014638821594417095,-0.0011079306714236736,-0.00095518515445292
1772562791853353500,2.462353515625,-0.0007634707726538181,0.0007546842098236084,0.0013716185931116343
1772562791863420400,2.47242041015625,-0.0001469445414841175,0.0027370108291506767,-0.0012125310022383928
1772562791873487400,2.4824873046875,-0.000571186188608408,0.0007217968814074993,-0.00037763011641800404
1772562791883555300,2.492555419921875,-0.000028594862669706345,-0.00012958887964487076,0.0015588703099638224
1772562791893622300,2.502622314453125,-0.0002022329717874527,0.00018999027088284492,0.0007830916438251734
1772562791903689200,2.512689208984375,-0.0007982782553881407,0.0007179570384323597,-0.0003846711479127407
1772562791913756200,2.522756103515625,0.0004323686007410288,0.0039755357429385185,0.0006734027992933989
1772562791923823000,2.532822998046875,0.0012944834306836128,0.00027602771297097206,-0.004305795766413212
1772562791933890000,2.54289013671875,0.000188472680747509,0.0004608510062098503,-0.0002543290611356497
1772562791943958000,2.5529580078125,-0.0013293379452079535,-0.0013666274026036263,0.002282110508531332
1772562791954025000,2.56302490234375,0.0015468760393559933,-0.0006851246580481529,-0.00017279130406677723
1772562791964092000,2.573091796875,0.00024886266328394413,0.0005406788550317287,-0.0021438514813780785
1772562791974159000,2.5831591796875,0.0004347513895481825,0.0007087243720889091,-0.0009936322458088398
1772562791984226000,2.59322607421875,0.0008960140403360128,-0.00018082046881318092,-0.001360886381007731
1772562791994293000,2.60329296875,-0.0006723213009536266,0.0009150705300271511,0.0006529958918690681
1772562792004361200,2.613361328125,0.0002458628732711077,0.0006189784035086632,0.0023547669406980276
1772562792014428200,2.62342822265625,-0.00039169774390757084,-0.0007424298673868179,-0.0011696602450683713
1772562792024495000,2.6334951171875,-0.0023197149857878685,-0.002052675001323223,0.0004635215736925602
1772562792034562000,2.64356201171875,-0.001127684023231268,-0.00038633495569229126,-0.00001744530163705349
1772562792044629000,2.65362890625,-0.0013974371831864119,-0.0001607881858944893,0.0000020689330995082855
1772562792054696200,2.6636962890625,-0.0007886386010795832,0.000541753601282835,0.0012068827636539936
1772562792064764000,2.673763916015625,-0.0007006239611655474,-0.0011852020397782326,0.000331708462908864
1772562792074831000,2.6838310546875,-0.0008899748791009188,-0.0019601816311478615,-0.002473132684826851
1772562792084898000,2.69389794921875,-0.000026365509256720543,0.0002559106796979904,-0.002403713297098875
1772562792094965000,2.703965087890625,-0.0015118769370019436,0.0008255606517195702,0.0006219041533768177
1772562792105032000,2.714031982421875,0.0005610841326415539,0.0027477506082504988,-0.002643745858222246
1772562792115100200,2.72410009765625,0.0015919937286525965,-0.0008674906566739082,0.0021542052272707224
1772562792125167000,2.7341669921875,0.0014127598842605948,0.00027143582701683044,0.0006656849291175604
1772562792135234000,2.744234130859375,0.00031926599331200123,-0.0007307115010917187,-0.0001340624876320362
1772562792145301000,2.754301025390625,0.00045726564712822437,-0.0010773688554763794,0.0025878220330923796
1772562792155368200,2.7643681640625,0.0003515381831675768,0.0019514444284141064,0.00024743610993027687
1772562792165435100,2.77443505859375,0.00043975841253995895,-0.002054224256426096,-0.003570998553186655
1772562792175503000,2.784503173828125,0.0004775754641741514,-0.0001852177083492279,-0.0004870581906288862
1772562792185570000,2.794570068359375,0.0016058679902926087,-0.0003111190162599087,0.0021722186356782913
1772562792195637000,2.804636962890625,0.0020681926980614662,0.0007445579394698143,0.001716551836580038
1772562792205704000,2.814703857421875,0.0015948953805491328,-0.0006747841835021973,0.00043914816342294216
1772562792215771000,2.82477099609375,-0.0012352459598332644,-0.0008438951335847378,-0.0003795074298977852
1772562792225837800,2.834837890625,0.00006809039041399956,-0.0019687116146087646,0.003626951016485691
1772562792235906000,2.844906005859375,-0.0010341922752559185,0.000800709705799818,0.0009494088590145111
1772562792245973000,2.854972900390625,0.0007380279712378979,-0.0012658145278692245,0.00041736289858818054
1772562792256040200,2.865040283203125,0.0004091276787221432,-0.0015731430612504482,-0.00018264725804328918
1772562792266107100,2.875107177734375,0.002119786571711302,0.00012356648221611977,-0.0006830901838839054
1772562792276174000,2.885174072265625,0.0016481406055390835,0.0017345123924314976,0.0007313147652894258
1772562792286242000,2.895241943359375,0.00044016377069056034,0.0024007291067391634,0.0003481751773506403
1772562792296309000,2.90530908203125,-0.0019337781704962254,-0.0009242272935807705,0.0016962673980742693
1772562792306376000,2.9153759765625,0.0004003837238997221,0.0008231280371546745,0.0019083430524915457
1772562792316443000,2.92544287109375,-0.0002017570659518242,0.0016689479816704988,0.0006161772180348635
1772562792326510000,2.935510009765625,0.00036570453085005283,0.00031547294929623604,-0.00037324498407542706
1772562792336577000,2.945576904296875,0.0001534505281597376,-0.0013159797526896,0.0010832375846803188
1772562792346645000,2.95564501953125,0.00037261960096657276,-0.002048920840024948,0.004605331923812628
1772562792356712200,2.965712158203125,0.0024371021427214146,0.004554653540253639,-0.001659754547290504
1772562792366779100,2.975779052734375,0.00028065498918294907,-0.0003598625771701336,0.0003575957380235195
1772562792376846000,2.98584619140625,-0.00118168699555099,-0.0012243245728313923,0.0032143688295036554
1772562792386913000,2.9959130859375,0.0015246205730363727,0.0004820716567337513,-0.0025117185432463884
1772562792396980000,3.00597998046875,0.0016013196436688304,0.0009404015727341175,-0.001846727100200951
1772562792407048000,3.0160478515625,0.0014833657769486308,0.0009093540720641613,0.001765439985319972
1772562792417115000,3.026114990234375,0.0012559317983686924,0.0008409107103943825,-0.001085474155843258
1772562792427182000,3.03618212890625,0.0011290875263512135,0.0008777768816798925,-0.0012736634816974401
1772562792437249000,3.0462490234375,0.0015035278629511595,-0.001509480644017458,0.002980203600600362
1772562792447316200,3.056316162109375,0.002272721379995346,0.00022659637033939362,-0.0021142931655049324
1772562792457384200,3.06638427734375,-0.0013489113189280033,-0.0016341540031135082,0.003393656574189663
1772562792467451100,3.076451171875,0.001237198244780302,0.0006263586692512035,-0.0009604024235159159
1772562792477518000,3.08651806640625,0.0012478507123887539,-0.0008748653344810009,-0.003162836655974388
1772562792487585000,3.0965849609375,0.0010146035347133875,0.0008232905529439449,0.0002485185395926237
1772562792497652000,3.10665185546875,0.0014556230744346976,-0.001028405036777258,-0.0010732081718742847
1772562792507719000,3.116718994140625,-0.00014415476471185684,0.000397432129830122,-0.0024062711745500565
1772562792517787000,3.126786865234375,0.0014758460456505418,0.0008744040969759226,0.002285419497638941
1772562792527854000,3.13685400390625,-0.0006818128749728203,0.0007294644601643085,-0.0017785427626222372
1772562792537921000,3.146921142578125,0.0010998416692018509,-0.00008998997509479523,0.0016004762146621943
1772562792547988000,3.156988037109375,-0.0006493609398603439,-0.0004478734917938709,0.0011564814485609531
1772562792558055200,3.16705517578125,-0.0024509895592927933,0.0021841286215931177,-0.0011261140462011099
1772562792568122000,3.1771220703125,0.0008928196039050817,0.0006421548314392567,0.0014703045599162579
1772562792578190000,3.187190185546875,0.0022433088161051273,-0.0009994176216423512,0.0010921359062194824
1772562792588257000,3.197257080078125,-0.0018598937895148993,-0.0006966032087802887,0.00037200888618826866
1772562792598324000,3.207323974609375,-0.0010524231474846601,-0.0008926116861402988,0.002424506936222315
1772562792608391200,3.21739111328125,0.002197063062340021,0.0012101465836167336,-0.004010867793112993
1772562792618458000,3.2274580078125,-0.0019939534831792116,-0.0018903054296970367,-0.00013650092296302319
1772562792628526000,3.237526123046875,-0.001167096197605133,-0.00013145850971341133,-0.001996512059122324
1772562792638593000,3.247593017578125,-0.0015849461778998375,-0.0009285425767302513,-0.000058263540267944336
1772562792648660000,3.257659912109375,0.0024354392662644386,0.0027572105173021555,-0.0033357860520482063
1772562792658727200,3.26772705078125,0.0009563195053488016,-0.0004566921852529049,0.00032526138238608837
1772562792668794000,3.277794189453125,-0.00010673073120415211,0.0009323579724878073,-0.001983823487535119
1772562792678861000,3.287861083984375,-0.0002513404469937086,0.0024112113751471043,-0.0007305399049073458
1772562792688929000,3.297928955078125,0.0027444614097476006,0.0007385746575891972,-0.001878051902167499
1772562792698996000,3.307995849609375,-0.002042836742475629,-0.001602610107511282,-0.000904932850971818
1772562792709063200,3.318063232421875,0.00071375397965312,0.002899265382438898,0.0004334324039518833
1772562792719130000,3.328130126953125,-0.0007219563703984022,0.0008941714186221361,0.0004675209056586027
1772562792729197000,3.338197021484375,-0.0013235579244792461,0.0009311218746006489,0.0016769950743764639
1772562792739264000,3.348263916015625,-0.0007517775520682335,-0.0012295008637011051,-0.0008269092068076134
1772562792749332000,3.35833203125,-0.00029081525281071663,-0.0015556411817669868,-0.0009777199011296034
1772562792759399000,3.36839892578125,0.00020506535656750202,0.000054772477596998215,-0.0004283096641302109
1772562792769466000,3.378466064453125,0.0007543973624706268,0.0017950921319425106,0.0012364676222205162
1772562792779533000,3.388532958984375,0.0006587898824363947,-0.00013569975271821022,0.0017781546339392662
1772562792789600300,3.398600341796875,0.0011769672855734825,-0.00024306122213602066,0.0004865829832851887
1772562792799668000,3.40866796875,0.0021077420096844435,0.0026462022215127945,0.0014879314694553614
1772562792809735200,3.418735107421875,-0.001314415829256177,-0.0010607885196805,0.0014147539623081684
1772562792819802000,3.428802001953125,0.0005343507509678602,-0.002095959149301052,0.0025607123970985413
1772562792829869000,3.438869140625,0.002472534077242017,0.00014981301501393318,-0.00027224444784224033
1772562792839936000,3.44893603515625,0.000161709263920784,-0.0018062787130475044,0.0001562582328915596
1772562792850003000,3.4590029296875,-0.00004010600969195366,0.0018402216956019402,0.0002935233060270548
1772562792860071000,3.46907080078125,-0.0007242723368108273,0.0002207532525062561,0.003710359102115035
1772562792870138000,3.47913818359375,0.0005387982819229364,-0.0014920933172106743,0.0018801260739564896
1772562792880205000,3.489205078125,-0.00111715542152524,0.0013564235996454954,0.0048346370458602905
1772562792890272300,3.499272216796875,0.001033090753480792,-0.0010405005887150764,-0.0007745728362351656
1772562792900339500,3.50933935546875,-0.0005909048486500978,-0.0015518274158239365,-0.00007016677409410477
1772562792910406400,3.519406494140625,0.001310901832766831,0.002806547097861767,-0.0008129901252686977
1772562792920474400,3.529474365234375,-0.00012853671796619892,0.00042008841410279274,-0.0019661388359963894
1772562792930541300,3.539541259765625,0.0012252514716237783,-0.00026268279179930687,0.0005621456075459719
1772562792940608300,3.549608154296875,-0.00002909754402935505,-0.001247519627213478,0.0018300763331353664
1772562792950675200,3.55967529296875,0.0011285038199275732,-0.0008988906629383564,0.00012841587886214256
1772562792960742100,3.5697421875,-0.0007120068185031414,0.0002486654557287693,-0.0009765294380486012
1772562792970810000,3.57981005859375,0.001256267074495554,-0.000008220318704843521,0.0003265796694904566
1772562792980877000,3.589876953125,0.0007156454958021641,0.0002833958715200424,-0.0013647939777001739
1772562792990944300,3.5999443359375,-0.0005342534277588129,0.0004768422804772854,-0.002417321316897869
1772562793001011500,3.610011474609375,0.000973894726485014,0.0010709937196224928,-0.0005637612193822861
1772562793011078400,3.620078369140625,-0.0009274340700358152,0.0005985009483993053,0.0012736578937619925
1772562793021145300,3.630145263671875,0.00018763146363198757,-0.002786642871797085,-0.0011503510177135468
1772562793031213300,3.64021337890625,0.0011733532883226871,0.0008932291530072689,-0.0012929787626489997
1772562793041280300,3.6502802734375,-0.0014530562330037355,-0.0006908192299306393,-0.0035896888002753258
1772562793051347200,3.66034716796875,0.00039075897075235844,0.00044861575588583946,-0.00043602590449154377
1772562793061414100,3.6704140625,-0.001204208005219698,-0.0005226391367614269,-0.0012826449237763882
1772562793071481300,3.6804814453125,-0.0002563837915658951,0.0007366007193922997,-0.0004249040503054857
1772562793081548300,3.69054833984375,-0.0005224335473030806,-0.00010948581621050835,-0.0006185160018503666
1772562793091616300,3.7006162109375,0.0009611095301806927,0.0011645187623798847,0.0008499464020133018
1772562793101683500,3.710683349609375,-0.0007638200186192989,0.00004412699490785599,-0.00016951165162026882
1772562793111750400,3.72075048828125,-0.0006164333317428827,0.0002875775098800659,0.0004635236691683531
1772562793121817300,3.7308173828125,-0.0017402875237166882,-0.000508973840624094,-0.002754906425252557
1772562793131884300,3.74088427734375,-0.001506277360022068,0.000025175511837005615,-0.0000398317351937294
1772562793141952300,3.7509521484375,0.0005384976975619793,-0.00009147077798843384,0.001555135240778327
1772562793152019200,3.761019287109375,-0.0002818743232637644,-0.0011579431593418121,-0.0035650255158543587
1772562793162086100,3.771086181640625,0.0011762063950300217,0.0017542236018925905,-0.0010568604338914156
1772562793172153300,3.7811533203125,-0.0004809894599020481,-0.0012993104755878448,-0.0013371873646974564
1772562793182220300,3.79122021484375,0.001202128129079938,-0.0006159432232379913,-0.000902026891708374
1772562793192287200,3.801287353515625,-0.0005708709359169006,0.0006157150492072105,-0.00006875325925648212
1772562793202355200,3.811355224609375,0.0011125130113214254,0.00044553913176059723,0.0002718649338930845
1772562793212422400,3.82142236328125,0.0018200624035671353,-0.0013545593246817589,-0.002078379737213254
1772562793222489300,3.8314892578125,-0.0002822370734065771,0.0007213745266199112,-0.000010168878361582756
1772562793232556300,3.841556396484375,0.0023480765521526337,-0.0003662463277578354,-0.0015377035597339272
1772562793242623200,3.851623291015625,-0.00022933073341846466,0.00004174979403614998,0.0006290441378951073
1772562793252691200,3.861691162109375,-0.0002430363092571497,0.0009321686811745167,-0.0009322119876742363
1772562793262758100,3.871758056640625,-0.0008659497834742069,-0.0009213914163410664,0.0015242877416312695
1772562793272825300,3.881825439453125,0.0011407521087676287,-0.00014759181067347527,0.0011823216918855906
1772562793282892300,3.891892333984375,-0.003239615121856332,-0.00029113609343767166,0.0004930954892188311
1772562793292959200,3.901959228515625,0.0010774456895887852,-0.00006982497870922089,0.00012511294335126877
1772562793303026200,3.912026123046875,-0.00017876760102808475,-0.001138018909841776,0.004099082201719284
1772562793313094400,3.922094482421875,0.0005238300655037165,-0.00028316397219896317,0.0026571406051516533
1772562793323161300,3.932161376953125,-0.00010893703438341618,0.003841540077701211,-0.0011594353709369898
1772562793333228300,3.942228271484375,-0.003007555613294244,-0.00012376531958580017,0.0010422191116958857
1772562793343295200,3.952295166015625,-0.00019845343194901943,-0.0010755788534879684,-0.0013303911546245217
1772562793353362400,3.962362548828125,0.0012823664583265781,0.0010182547848671675,0.0020491397008299828
1772562793363429400,3.972429443359375,0.0018227217951789498,-0.0006701890379190445,0.0013239611871540546
1772562793373497300,3.982497314453125,0.0012918224092572927,0.0008709728717803955,-0.0010424044448882341
1772562793383564300,3.992564208984375,0.00021457369439303875,0.0018954910337924957,-0.0004796786233782768
1772562793393631200,4.00263134765625,0.00011852756142616272,0.002012750366702676,-0.003852309426292777
1772562793403698200,4.0126982421875,0.000029577873647212982,0.000246542040258646,-0.0018213827861472964
1772562793413765000,4.02276513671875,0.002393907867372036,0.001635099994018674,-0.0025773197412490845
1772562793423833300,4.032833251953125,-0.00034755002707242966,0.0003650384023785591,-0.0005059130489826202
1772562793433900300,4.042900390625,-0.0010838215239346027,0.001803266815841198,0.00031099608168005943
1772562793443967200,4.05296728515625,0.0004850465338677168,0.0004562400281429291,-0.002460555639117956
1772562793454034400,4.063034423828125,0.00013519753701984882,0.0013769983779639006,-0.00020679598674178123
1772562793464101400,4.073101318359375,0.0005258831661194563,0.00037058955058455467,0.0033463933505117893
1772562793474168300,4.083168212890625,0.0018424331210553646,-0.0010298257693648338,0.0011796453036367893
1772562793484236300,4.093236328125,-0.0013062222860753536,-0.0002884017303586006,0.0002105210442095995
1772562793494303200,4.10330322265625,0.000021853484213352203,0.0006105927750468254,0.0007862146012485027
1772562793504370200,4.1133701171875,0.0004455624148249626,0.0009490805678069592,-0.0008468357846140862
1772562793514437000,4.12343701171875,-0.0018320137169212103,0.0003741700202226639,-0.001835998147726059
1772562793524504000,4.133504150390625,0.0015832241624593735,0.0012104026973247528,-0.0029076540376991034
1772562793534572300,4.143572265625,0.000996406888589263,-0.0010072500444948673,0.0005274522118270397
1772562793544639200,4.15363916015625,-0.0004385043866932392,-0.003171600867062807,-0.00036870152689516544
1772562793554706400,4.16370654296875,0.00039784330874681473,-0.0008738171309232712,0.00017683440819382668
1772562793564773400,4.1737734375,0.0013110411819070578,-0.000650377944111824,0.0009614014998078346
1772562793574840300,4.18384033203125,0.0010310248471796513,-0.0007847659289836884,-0.0019418844021856785
1772562793584907300,4.1939072265625,0.000003044726327061653,-0.0016447007656097412,0.00260040326975286
1772562793594975200,4.203975341796875,0.0006690477021038532,-0.001339815091341734,-0.00008922768756747246
1772562793605042200,4.214042236328125,0.001436038059182465,-0.00046443380415439606,0.0010759050492197275
1772562793615109000,4.224109130859375,0.0006398232653737068,0.0006181881763041019,-0.0016754118259996176
1772562793625176000,4.234176025390625,-0.00019454513676464558,-0.0013267183676362038,-0.0019004489295184612
1772562793635243300,4.2442431640625,-0.0013955363538116217,0.00012922519817948341,-0.0012890251819044352
1772562793645310200,4.254310302734375,0.0001488307025283575,-0.0011565489694476128,0.0010833186097443104
1772562793655378400,4.26437841796875,0.0012104157358407974,-0.0012150085531175137,0.0005534759256988764
1772562793665445400,4.2744453125,0.00043144100345671177,0.0013315060641616583,0.0021348607260733843
1772562793675512300,4.28451220703125,0.0005955840460956097,-0.0031294776126742363,-0.00007046503014862537
1772562793685579300,4.294579345703125,-0.0003335927613079548,-0.0009669908322393894,-0.002695542760193348
1772562793695646200,4.304646240234375,0.0014362873043864965,0.0004606652073562145,0.0016559986397624016
1772562793705714200,4.314714111328125,0.0013372176326811314,-0.000012578442692756653,-0.00009582866914570332
1772562793715781000,4.324781005859375,-0.002075772499665618,-0.0030040289275348186,0.0011730063706636429
1772562793725848300,4.334848388671875,0.0007871254347264767,0.0004708636552095413,-0.0010462056379765272
1772562793735915300,4.344915283203125,0.0030991178937256336,0.0010301321744918823,-0.0013956651091575623
1772562793745982200,4.354982177734375,-0.0014599473215639591,0.0004897769540548325,0.0016627092845737934
1772562793756049200,4.365049072265625,-0.00029804068617522717,-0.0014828224666416645,-0.001296976231969893
1772562793766117400,4.375117431640625,0.000348574947565794,0.0016831434331834316,-0.00023650540970265865
1772562793776184300,4.385184326171875,-0.0005762828513979912,0.000006537884473800659,0.0006354842334985733
1772562793786251300,4.395251220703125,0.0016961924266070127,0.0018736803904175758,0.0008085896261036396
1772562793796318200,4.405318115234375,0.0011717455927282572,-0.0014747772365808487,-0.00015933369286358356
1772562793806385200,4.41538525390625,-0.0007758240681141615,-0.0005013919435441494,0.00021830247715115547
1772562793816453000,4.425453125,0.0021189867984503508,-0.00027511268854141235,-0.0009321782272309065
1772562793826520300,4.435520263671875,-0.00031487620435655117,-0.0015209396369755268,0.0035493893083184958
1772562793836587300,4.445587158203125,0.002606600057333708,0.0017623992171138525,-0.0035079941153526306
1772562793846654200,4.455654296875,0.000301900552585721,0.0002510552294552326,-0.0013303273590281606
1772562793856721200,4.46572119140625,0.00022228900343179703,-0.0006805704906582832,0.0002777592744678259
1772562793866788000,4.4757880859375,-0.0011305967345833778,-0.0011610048823058605,-0.00005939672701060772
1772562793876856300,4.485856201171875,0.0018430580385029316,-0.0007894854061305523,-0.0012655426980927587
1772562793886923300,4.49592333984375,0.001779142185114324,0.001616680296137929,0.00007535889744758606
1772562793896989700,4.50598974609375,0.0015236278995871544,0.0030087826307862997,-0.000189612852409482
1772562793907057000,4.516056884765625,0.0020171115174889565,0.0020649582147598267,-0.002513220999389887
1772562793917123800,4.526123779296875,0.0003069888334721327,-0.00047578709200024605,-0.001608881400898099
1772562793927190800,4.536190673828125,-0.0013684059958904982,0.0008371514268219471,-0.00013775122351944447
1772562793937259000,4.546259033203125,-0.00004896242171525955,0.0017407308332622051,0.0013107610866427422
1772562793947326000,4.556325927734375,-0.0007094263564795256,0.0015399283729493618,0.0001309807412326336
1772562793957393000,4.566392822265625,-0.0005577658303081989,0.00025762757286429405,0.00019496073946356773
1772562793967459800,4.5764599609375,0.0007445199880748987,-0.0002683470956981182,-0.0022335760295391083
1772562793977526800,4.58652685546875,-0.0004444268997758627,0.00040539447218179703,-0.00145249895285815
1772562793987594800,4.5965947265625,-0.0013885176740586758,0.0026238078717142344,-0.00042824726551771164
1772562793997662000,4.606661865234375,0.002907517133280635,0.0009140192996710539,-0.002005134243518114
1772562794007729000,4.61672900390625,0.0007658030372112989,0.0006985696963965893,0.0009035703260451555
1772562794017795800,4.6267958984375,0.002642126753926277,0.0006803520955145359,-0.0012163036735728383
1772562794027862800,4.63686279296875,0.0008034803904592991,0.0009522605687379837,0.0022197067737579346
1772562794037929700,4.6469296875,-0.0009268047288060188,-0.001462828367948532,-0.0028946585953235626
1772562794047998000,4.656998046875,0.0003794755320996046,-0.0008116853423416615,0.0008697197772562504
1772562794058065000,4.66706494140625,-0.00032635824754834175,-0.0010230662301182747,0.0010707858018577099
1772562794068131800,4.6771318359375,-0.002195098204538226,-0.001424137968569994,0.0014148661866784096
1772562794078198800,4.68719873046875,0.00033850339241325855,0.0003994237631559372,-0.0016837709117680788
1772562794088266000,4.697265869140625,-0.0008998664561659098,0.0014023701660335064,-0.0008352878503501415
1772562794098333000,4.7073330078125,-0.001374692190438509,0.0008170027285814285,0.001365760574117303
1772562794108401000,4.71740087890625,-0.0022838953882455826,0.00013789674267172813,0.001615565037354827
1772562794118467800,4.7274677734375,0.0013123335083946586,0.00010798405855894089,-0.000060401856899261475
1772562794128534800,4.73753466796875,0.0011043406557291746,0.0005881520919501781,-0.0006167362444102764
1772562794138601700,4.747601806640625,0.0018487153574824333,0.0007422934286296368,-0.002237331122159958
1772562794148668700,4.757668701171875,0.000008471077308058739,0.0004576016217470169,-0.0024245514068752527
1772562794158737000,4.76773681640625,0.00037923059426248074,0.00045655202120542526,-0.0032549677416682243
1772562794168803800,4.777803955078125,0.0014412992168217897,0.0009705424308776855,0.0004715935792773962
1772562794178871000,4.78787109375,-0.000975398113951087,0.0009121194016188383,-0.0022109709680080414
1772562794188938000,4.79793798828125,-0.0011383832897990942,-0.0013656821101903915,-0.00007058843038976192
1772562794199005000,4.8080048828125,0.000651391688734293,-0.00013937661424279213,-0.0005500351544469595
1772562794209071900,4.81807177734375,0.000532614765688777,-0.0009255418553948402,0.0007314779795706272
1772562794219139800,4.828139892578125,-0.0008458197116851807,-0.0014335480518639088,-0.0003689429722726345
1772562794229206800,4.838206787109375,-0.00006924173794686794,-0.0019784308969974518,0.00023213238455355167
1772562794239273700,4.848273681640625,0.0007666426245123148,0.00005254708230495453,-0.0032596096862107515
1772562794249340700,4.858340576171875,-0.0021686938125640154,0.0008541583083570004,0.0013220924884080887
1772562794259408000,4.868407958984375,-0.00017282506451010704,0.0005135037936270237,-0.000963584054261446
1772562794269475800,4.878475830078125,-0.00006336905062198639,-0.0005144765600562096,0.0035211793147027493
1772562794279543000,4.88854296875,0.00035481201484799385,0.0007167570292949677,-0.0015608745161443949
1772562794289610000,4.89860986328125,-0.0014217826537787914,0.0017186379991471767,0.0037180432118475437
1772562794299677000,4.908677001953125,-0.00013144942931830883,-0.00047442270442843437,-0.0030824807472527027
1772562794309743900,4.918743896484375,-0.0008462420664727688,-0.0030606179498136044,-0.0007934938184916973
1772562794319810800,4.928810791015625,0.0008510926272720098,0.0017878934741020203,0.00225909985601902
1772562794329878800,4.938878662109375,0.0015174155123531818,-0.00019269948825240135,-0.0022648118901997805
1772562794339945700,4.94894580078125,0.0013424488715827465,0.0010736477561295033,-0.0004536344204097986
1772562794350012700,4.9590126953125,-0.00018567289225757122,-0.00007763691246509552,-0.001478152466006577
1772562794360080100,4.969080078125,-0.002052777912467718,-0.0006261584348976612,-0.001406898139975965
1772562794370147000,4.97914697265625,-0.0011949734762310982,-0.00009379256516695023,0.002617670688778162
1772562794380214000,4.989214111328125,0.001431019394658506,-0.0003104819916188717,-0.0014052863698452711
1772562794390282000,4.999281982421875,-0.002656666561961174,-0.0026924130506813526,0.0006240424700081348
1772562794400349000,5.009348876953125,-0.0003312760964035988,0.0015575699508190155,-0.0017359969206154346
1772562794410415900,5.019415771484375,-0.0002628329675644636,-0.0006552506238222122,0.0003801509737968445
1772562794420482800,5.02948291015625,0.000812840647995472,-0.0008964128792285919,-0.0005868903826922178
1772562794430549800,5.0395498046875,-0.0009248720016330481,-0.0009400886483490467,0.0006570720579475164
1772562794440617700,5.04961767578125,0.0006718470249325037,0.00017131958156824112,0.0003471996169537306
1772562794450684700,5.0596845703125,0.000961066223680973,0.0019332671072334051,0.0013560052029788494
1772562794460752000,5.069751953125,-0.0010992209427058697,0.00021061673760414124,-0.0010070085991173983
1772562794470819000,5.079819091796875,0.00036791455931961536,-0.0018338924273848534,0.001054810592904687
1772562794480886000,5.089885986328125,0.00008126464672386646,0.00026017241179943085,0.0002941903658211231
1772562794490953000,5.099952880859375,0.0006546434015035629,-0.0004913718439638615,-0.002877634484320879
1772562794501021000,5.11002099609375,0.0008471061009913683,0.0005262973718345165,-0.00022645527496933937
1772562794511087900,5.120087890625,0.0001996916253119707,-0.0019230116158723831,0.0021027452312409878
1772562794521154800,5.13015478515625,0.0004959376528859138,-0.00025019561871886253,-0.00033751153387129307
1772562794531221800,5.1402216796875,0.0007619874086230993,-0.0015452909283339977,0.00018073967657983303
1772562794541289000,5.1502890625,-0.00044110906310379505,0.00041854381561279297,-0.0020386208780109882
1772562794551356700,5.160356689453125,-0.000032313866540789604,0.0005295975133776665,0.001521493075415492
1772562794561424000,5.170423828125,-0.0004837422166019678,0.00027195876464247704,-0.0013324083993211389
1772562794571491000,5.180490966796875,0.0018606383819133043,-0.0019421936012804508,-0.0006684823893010616
1772562794581558000,5.19055810546875,0.00008060084655880928,0.0030897287651896477,0.0014803633093833923
1772562794591625000,5.200625,-0.00043791672214865685,-0.0017170109786093235,0.0014920812100172043
1772562794601692000,5.21069189453125,-0.0015218714252114296,0.00001900549978017807,-0.0006699315272271633
1772562794611759900,5.220759765625,0.00135647295974195,-0.0008382662199437618,-0.0015314642805606127
1772562794621826800,5.230826904296875,-0.00015245634131133556,0.0005528535693883896,-0.0005300359334796667
1772562794631893800,5.240893798828125,-0.00010771513916552067,0.00010011624544858932,0.0019421763718128204
1772562794641961000,5.2509609375,-0.0005152688827365637,0.00043409643694758415,-0.000029993942007422447
1772562794652028000,5.26102783203125,0.0007617166265845299,0.0008032107725739479,-0.001287805032916367
1772562794662094800,5.2710947265625,0.00020072422921657562,-0.0011559836566448212,0.0009758602827787399
1772562794672162800,5.281162841796875,-0.0025561798829585314,-0.0003735469654202461,0.001685858704149723
1772562794682230000,5.29122998046875,-0.00015042908489704132,-0.00022293953225016594,0.0002518699038773775
1772562794692297000,5.301296875,0.002022177679464221,-0.00019870465621352196,-0.0013079436030238867
1772562794702364000,5.311364013671875,0.00019475538283586502,0.0001689842902123928,-0.00111637101508677
1772562794712430800,5.321430908203125,0.0014054283965379,-0.0004310258664190769,-0.0004852018319070339
1772562794722498800,5.331498779296875,-0.0013368460349738598,0.0014844750985503197,0.00028759706765413284
1772562794732565800,5.341565673828125,-0.00038343435153365135,0.00005142809823155403,-0.0014067060546949506
1772562794742633000,5.351633056640625,-0.0014752352144569159,-0.003941099159419537,0.0026316861622035503
1772562794752700000,5.361699951171875,-0.002216659253463149,-0.0018638335168361664,0.003758735954761505
1772562794762766800,5.371766845703125,-0.002421372104436159,-0.0006174030713737011,-0.00024769315496087074
1772562794772833800,5.381833740234375,0.00016722013242542744,-0.0010046265088021755,0.00015497696585953236
1772562794782902000,5.391902099609375,0.0018128029769286513,-0.0003855843096971512,0.00040922011248767376
1772562794792969000,5.401968994140625,0.001045013777911663,-0.0016202260740101337,0.0030249767005443573
1772562794803036000,5.412035888671875,0.001695120008662343,0.0009843718726187944,-0.0016345336334779859
1772562794813102800,5.422102783203125,-0.0009299579542130232,-0.0009781117551028728,0.0008757621981203556
1772562794823170000,5.432170166015625,0.0011920570395886898,0.0003025163896381855,-0.0010335331317037344
1772562794833237800,5.44223779296875,0.0008450471796095371,0.0013102565426379442,-0.0025400833692401648
1772562794843305000,5.452304931640625,0.0007087476551532745,-0.00044268835335969925,-0.002288409508764744
1772562794853372000,5.462371826171875,0.0011529629118740559,0.0024758698418736458,-0.003312394954264164
1772562794863438800,5.47243896484375,0.0002700258046388626,0.0016486532986164093,-0.004378027748316526
1772562794873505800,5.482505859375,-0.0005606142804026604,0.0010315990075469017,0.0013128812424838543
1772562794883572000,5.492572021484375,0.0012017162516713142,-0.001389891840517521,0.0014529824256896973
1772562794893639000,5.502638916015625,0.0024930830113589764,-0.0014058705419301987,0.0014529824256896973
1772562794903707100,5.51270703125,0.0024328746367245913,0.00017348304390907288,-0.0021111001260578632
1772562794913774000,5.522774169921875,-0.0014731837436556816,-0.0018047126941382885,0.0006865505129098892
1772562794923841000,5.532841064453125,0.001571147469803691,-0.00004760967567563057,0.0008051784243434668
1772562794933908000,5.542907958984375,0.00017272168770432472,0.001973196864128113,0.0004613643977791071
1772562794943975000,5.552974853515625,0.0007747679483145475,0.0014826713595539331,0.0001150006428360939
1772562794954041900,5.563041748046875,0.0003366780001670122,-0.0006835437379777431,0.0007312560919672251
1772562794964109800,5.57310986328125,-0.0006008448544889688,-0.00023881811648607254,-0.0002483390271663666
1772562794974176800,5.5831767578125,0.0009754803031682968,-0.00004121148958802223,-0.00033222860656678677
1772562794984244000,5.593243896484375,0.00006883637979626656,-0.0005687163211405277,0.0016332278028130531
1772562794994311000,5.603310791015625,-0.0006952248513698578,-0.0005266382358968258,-0.0005367158446460962
1772562795004377900,5.6133779296875,-0.001138533465564251,0.0002826051786541939,0.0015964130870997906
1772562795014446000,5.623446044921875,-0.0005302675999701023,0.000557443592697382,-0.0019746199250221252
1772562795024513000,5.633512939453125,0.0010236825328320265,0.0011291184928268194,-0.0015496010892093182
1772562795034580000,5.643580078125,-0.0004274738021194935,0.0010271193459630013,0.002202526433393359
1772562795044647000,5.65364697265625,-0.0011788008268922567,-0.0007622954435646534,-0.0009656541515141726
1772562795054713900,5.6637138671875,0.00021003768779337406,0.0007679569534957409,-0.002554495818912983
1772562795064781000,5.673781005859375,0.000017568469047546387,-0.0009421850554645061,-0.0010593882761895657
1772562795074848800,5.683848876953125,-0.0002439538948237896,0.0019271045457571745,0.0010817931033670902
1772562795084916000,5.693916015625,-0.001819022698327899,0.0003629634156823158,-0.0009184612426906824
1772562795094983000,5.70398291015625,0.001150135649368167,0.0010782885365188122,0.00014919997192919254
1772562795105049900,5.7140498046875,0.0002299714833498001,0.0009396481327712536,-0.001288530882447958
1772562795115116800,5.72411669921875,-0.001176976365968585,-0.0006715641357004642,-0.0019394074333831668
1772562795125185000,5.73418505859375,-0.0005436909850686789,0.004327214322984219,-0.00030910177156329155
1772562795135252000,5.744251953125,0.0007343599572777748,0.0002259458415210247,0.00016467459499835968
1772562795145319000,5.75431884765625,-0.0012987933587282896,-0.0005651670508086681,-0.0021114246919751167
1772562795155385900,5.7643857421875,-0.0007517801132053137,0.00021380744874477386,-0.0022147553972899914
1772562795165453000,5.774453125,-0.0006419920828193426,-0.0018557696603238583,-0.003031498519703746
1772562795175520000,5.78452001953125,0.001080274349078536,-0.0005393689498305321,0.000016755657270550728
1772562795185588000,5.794587890625,0.0006724582053720951,0.0018549931701272726,-0.002155318157747388
1772562795195655000,5.804655029296875,-0.00002875225618481636,-0.0009043081663548946,-0.00027379486709833145
1772562795205721900,5.814721923828125,-0.0007271897047758102,-0.003611915744841099,-0.0030870125629007816
1772562795215788800,5.824788818359375,0.000768973957747221,-0.00014794198796153069,-0.0019551690202206373
1772562795225855700,5.834855712890625,0.0005524833686649799,-0.0008332268334925175,-0.00011742953211069107
1772562795235922700,5.844922607421875,-0.0007221053820103407,0.0002426900900900364,-0.0011533992365002632
1772562795245991000,5.854990966796875,-0.0008533778600394726,0.0009714420884847641,-0.0008115570526570082
1772562795256057900,5.865057861328125,0.00032400572672486305,0.0013149897567927837,0.0008068461902439594
1772562795266125800,5.875125732421875,-0.000011731171980500221,0.00006334250792860985,0.0008628629148006439
1772562795276193000,5.885193115234375,0.0016085361130535603,-0.001837888266891241,0.0015387730672955513
1772562795286260700,5.8952607421875,-0.00010616309009492397,-0.0007125856354832649,-0.0019099620403721929
1772562795296328000,5.905327880859375,0.0003958428278565407,-0.0013541411608457565,-0.0008894386701285839
1772562795306395000,5.915394775390625,-0.0012174530420452356,0.0005754558369517326,-0.0006925496272742748
1772562795316462000,5.925462158203125,0.0012987015070393682,-0.00038168439641594887,-0.0006089264061301947
1772562795326529000,5.935529052734375,-0.0007183654233813286,-0.0002954578958451748,0.002166821388527751
1772562795336596000,5.945595947265625,-0.0015591257251799107,0.000013202428817749023,0.0016986376140266657
1772562795346664000,5.955663818359375,-0.002236924832686782,0.0002755196765065193,0.0002899693790823221
1772562795356731000,5.96573095703125,-0.00015140348114073277,0.000006007961928844452,0.001174139091745019
1772562795366797800,5.9757978515625,0.0006474868860095739,0.0013593188486993313,0.0018840073607861996
1772562795376865000,5.985864990234375,0.0005220521707087755,-0.0005381833761930466,0.0008757347241044044
1772562795386932000,5.995931884765625,0.0016809019725769758,0.0007952572777867317,-0.00013454980216920376
1772562795396999000,6.0059990234375,0.00029099825769662857,0.002216320252045989,0.00034748250618577003
1772562795407067000,6.01606689453125,0.0023626545444130898,0.0018250078428536654,0.0005499485414475203
1772562795417133800,6.0261337890625,-0.0015335502102971077,-0.0006725047715008259,-0.0007765719201415777
1772562795427201000,6.036200927734375,0.0014123782748356462,0.0012119486927986145,-0.0005172588862478733
1772562795437268000,6.04626806640625,0.0000030333176255226135,-0.0019502886570990086,0.0003895473200827837
1772562795447335000,6.0563349609375,0.00028113112784922123,0.0017555258236825466,-0.0009310685563832521
1772562795457403000,6.06640283203125,0.0010643668938428164,-0.0005893874913454056,0.00032993825152516365
1772562795467469800,6.0764697265625,-0.0001089868601411581,0.001964038470759988,-0.0010295954998582602
1772562795477537000,6.086537109375,-0.0004107230342924595,0.0005150125361979008,-0.0003014872781932354
1772562795487604000,6.09660400390625,0.0015061702579259872,-0.0017266622744500637,-0.002614373806864023
1772562795497671000,6.1066708984375,-0.00032208976335823536,-0.0006877630949020386,-0.0005056827794760466
1772562795507737900,6.11673779296875,-0.0008572174701839685,-0.00024897465482354164,0.0008933558128774166
1772562795517805800,6.126805908203125,0.0011042007245123386,-0.0016703037545084953,0.0007612630724906921
1772562795527873000,6.136873046875,0.0005085158627480268,-0.0017730873078107834,-0.001818156219087541
1772562795537940000,6.14693994140625,-0.0014811318833380938,-0.00039490172639489174,0.001413057092577219
1772562795548007000,6.1570068359375,0.00014774384908378124,-0.0003456766717135906,0.0005207806825637817
1772562795558074000,6.16707421875,0.0014332515420392156,-0.0001254333183169365,0.00011731195263564587
1772562795568141800,6.177141845703125,0.00006978679448366165,-0.0005748351104557514,0.00020959647372364998
1772562795578209000,6.187208984375,-0.0010849598329514265,0.0017586264293640852,0.0018514355178922415
1772562795588276000,6.19727587890625,0.001057737972587347,0.003201723098754883,-0.004598303698003292
1772562795598343000,6.207343017578125,-0.0003745101857930422,-0.001332840882241726,-0.0026659141294658184
1772562795608409900,6.217409912109375,0.0014248895458877087,0.0011050458997488022,-0.001397176063619554
1772562795618476800,6.227476806640625,-0.000793257262557745,0.0019135817419737577,-0.001411823439411819
1772562795628544800,6.237544677734375,-0.000029329676181077957,0.001019132323563099,0.00016378448344767094
1772562795638612000,6.247612060546875,0.0000023620668798685074,0.0020521727856248617,0.0011768508702516556
1772562795648679000,6.257678955078125,0.0011229605879634619,-0.0008789012208580971,-0.00374769140034914
1772562795658746000,6.26774609375,-0.001305043464526534,0.0002603987231850624,-0.0003239316865801811
1772562795668813000,6.27781298828125,-0.0008613427635282278,0.0023593914229422808,-0.001273151719942689
1772562795678881000,6.287881103515625,-0.0007082107476890087,-0.0005407910794019699,-0.0015839426778256893
1772562795688948000,6.297947998046875,-0.0014229940716177225,0.0015682827215641737,-0.0012996563455089927
1772562795699015000,6.308014892578125,0.00027264049276709557,0.0016420523170381784,-0.0014509239699691534
1772562795709081900,6.318081787109375,-0.0007803917396813631,-0.0008079190738499165,0.00030696485191583633
1772562795719148800,6.328148681640625,-0.0010064940433949232,0.00035082222893834114,0.0006667580455541611
1772562795729215700,6.3382158203125,-0.001135384663939476,-0.0009133275598287582,-0.0033456338569521904
1772562795739284000,6.348283935546875,0.0005948711186647415,-0.001574590802192688,-0.00026515545323491096
1772562795749351000,6.358350830078125,-0.0006001191213726997,0.002050205133855343,0.0005265690851956606
1772562795759418000,6.368418212890625,-0.0008352764416486025,-0.0006025694310665131,0.0006464114412665367
1772562795769485000,6.378485107421875,-0.0009148863609880209,-0.0018378053791821003,0.001791981514543295
1772562795779552000,6.388552001953125,0.0010105790570378304,-0.00013897474855184555,0.0005996841937303543
1772562795789620000,6.398619873046875,0.00016168574802577496,-0.0007300600409507751,0.0014641862362623215
1772562795799687000,6.40868701171875,-0.0021648516412824392,-0.0008445759303867817,0.0011920114047825336
1772562795809753900,6.41875390625,0.000001080334186553955,-0.0007237540557980537,0.0005315907765179873
1772562795819820800,6.42882080078125,0.0018328025471419096,0.0005985051393508911,0.0006226708646863699
1772562795829887700,6.4388876953125,0.00019402825273573399,-0.003046199679374695,0.001973763108253479
1772562795839955000,6.448954833984375,0.0021421306300908327,0.0005485350266098976,-0.0003040386363863945
1772562795850023000,6.45902294921875,-0.0008154565002769232,0.0010905792005360126,-0.0025476026348769665
1772562795860090000,6.469090087890625,0.0001565974671393633,0.00478731282055378,-0.002584620378911495
1772562795870157000,6.479156982421875,0.0011948712635785341,0.0009927530772984028,0.0018405402079224586
1772562795880224000,6.48922412109375,0.0008430676534771919,0.0005027311854064465,-0.0026317064184695482
1772562795890291000,6.499291015625,0.0008567417971789837,0.00003050547093153,-0.0024458831176161766
1772562795900358400,6.5093583984375,-0.0012847059406340122,-0.0007412782870233059,0.002111051930114627
1772562795910426400,6.51942626953125,0.0001251022331416607,-0.0008720061741769314,0.0012888319324702024
1772562795920493300,6.529493408203125,0.0006007426418364048,0.00007900875061750412,-0.0011170676443725824
1772562795930560300,6.539560302734375,0.00030804635025560856,-0.000554246362298727,0.00057210773229599
1772562795940627500,6.54962744140625,0.0012265704572200775,-0.0005057770758867264,-0.0011522890999913216
1772562795950694400,6.5596943359375,0.0006262445822358131,0.0020638054702430964,-0.0025497754104435444
1772562795960762600,6.5697626953125,-0.0000746995210647583,-0.0003484860062599182,-0.0009108660742640495
1772562795970829600,6.57982958984375,0.0006596408784389496,-0.0013230768963694572,0.0016329623758792877
1772562795980896500,6.589896484375,0.00042048911564052105,-0.0010152151808142662,0.0005823452956974506
1772562795990963500,6.59996337890625,0.0003297170624136925,0.0007918369956314564,0.002362216589972377
1772562796001030400,6.610030517578125,-0.0008687051013112068,-0.0017323070205748081,-0.0011401067022234201
1772562796011097300,6.620097412109375,0.0015269628493115306,-0.0023297928273677826,-0.0012982789194211364
1772562796021165300,6.630165283203125,0.0009176316671073437,-0.0004581231623888016,-0.0008266330696642399
1772562796031232300,6.640232177734375,0.001828904845751822,0.0007125688716769218,0.0010206776205450296
1772562796041299500,6.650299560546875,0.00021023559384047985,-0.00098333228379488,-0.003757566213607788
1772562796051366400,6.660366455078125,0.0011293604038655758,-0.0017443704418838024,0.0017605305183678865
1772562796061433300,6.670433349609375,-0.002107977867126465,-0.0003259708173573017,-0.0014645576011389494
1772562796071501600,6.68050146484375,-0.0012871634680777788,0.000640524085611105,-0.000870866933837533
1772562796081568500,6.690568603515625,-0.00006637023761868477,0.0005923211574554443,0.0004836167208850384
1772562796091635500,6.700635498046875,0.0016389744123443961,-0.00005677994340658188,-0.0014689263189211488
1772562796101702400,6.710702392578125,-0.001375990454107523,-0.0006892806850373745,0.000794227933511138
1772562796111769300,6.720769287109375,-0.001393023645505309,-0.0006309947930276394,0.0019454327411949635
1772562796121836500,6.73083642578125,0.0034792297519743443,0.0002678222954273224,-0.00012357719242572784
1772562796131904300,6.740904296875,0.00024437718093395233,-0.0005613737739622593,-0.00026673777028918266
1772562796141971500,6.750971435546875,-0.00029597803950309753,-0.0005746893584728241,-0.0012465148465707898
1772562796152038400,6.761038330078125,0.001753625343553722,0.002545042196288705,-0.0012043945025652647
1772562796162105300,6.771105224609375,-0.0014181993901729584,-0.0018944470211863518,-0.002353015821427107
1772562796172172300,6.78117236328125,0.001878600800409913,-0.00001568486914038658,-0.002374243224039674
1772562796182240500,6.791240478515625,-0.0008830972947180271,-0.001257516909390688,0.0001264649908989668
1772562796192307500,6.801307373046875,-0.0013890524860471487,0.0011577261611819267,0.0012495499104261398
1772562796202374400,6.81137451171875,0.0007185733411461115,-0.0001775827258825302,0.0009368946775794029
1772562796212441300,6.82144140625,-0.0009355710353702307,0.0022337199188768864,-0.0026498972438275814
1772562796222508500,6.831508544921875,0.0002812270540744066,0.0012997493613511324,-0.001348144025541842
1772562796232575500,6.841575439453125,-0.0013105524703860283,0.0006678146310150623,0.0022574961185455322
1772562796242643500,6.8516435546875,-0.0004396985750645399,0.0008270712569355965,-0.0015313830226659775
1772562796252710400,6.86171044921875,0.0026130499318242073,-0.0004345569759607315,-0.0006173483561724424
1772562796262777300,6.87177734375,0.0036514163948595524,0.0037450080271810293,-0.00033398810774087906
1772562796272844300,6.88184423828125,0.0004964324180036783,0.0010152533650398254,0.001805744832381606
1772562796282911200,6.8919111328125,-0.0015861594583839178,-0.001445240806788206,0.002122660866007209
1772562796292979500,6.9019794921875,0.001601800206117332,-0.0004817182198166847,-0.000797556946054101
1772562796303046400,6.91204638671875,0.0005927286110818386,0.002049083821475506,-0.0017195433611050248
1772562796313113300,6.92211328125,0.000006085727363824844,0.0005488558672368526,0.0001900938805192709
1772562796323180500,6.9321806640625,-0.0010160354431718588,0.0020889616571366787,0.0012268626596778631
1772562796333247500,6.94224755859375,0.0006192631553858519,-0.003245254512876272,0.00012169638648629189
1772562796343314400,6.952314453125,-0.0026324563659727573,-0.0008582626469433308,0.0002572513185441494
1772562796353382400,6.96238232421875,-0.00012412341311573982,-0.0001600310206413269,-0.002079449128359556
1772562796363449300,6.972449462890625,0.0006588459946215153,-0.0023840367794036865,0.00006466195918619633
1772562796373516300,6.982516357421875,-0.00010885647498071194,-0.0008065775036811829,0.004020758904516697
1772562796383583200,6.992583251953125,0.0004392222035676241,-0.00003745639696717262,0.0025754617527127266
1772562796393650200,7.002650146484375,-0.0034524404909461737,-0.0021007652394473553,0.001891616266220808
1772562796403717400,7.01271728515625,-0.0013253737706691027,-0.0017678700387477875,0.0004662924911826849
1772562796413785300,7.022785400390625,0.0008992641232907772,0.0031693889759480953,-0.0016852495027706027
1772562796423852500,7.0328525390625,0.001336022512987256,-0.000021610409021377563,0.0016801869496703148
1772562796433919500,7.04291943359375,-0.0003840578719973564,0.0023205140605568886,-0.0001483038067817688
1772562796443986400,7.052986328125,0.0008023802656680346,0.001182279083877802,-0.0002404490951448679
1772562796454053400,7.063053466796875,0.0006648274138569832,-0.0018878025002777576,0.0014375259634107351
1772562796464121300,7.073121337890625,-0.000033986056223511696,0.000826491042971611,-0.0003625047393143177
1772562796474188300,7.083188232421875,0.00105069181881845,0.00044162245467305183,-0.0014768929686397314
1772562796484255200,7.093255126953125,-0.0017448284197598696,-0.0005434812046587467,-0.0014510602923110127
1772562796494322200,7.103322265625,0.0006066665519028902,0.0022909597028046846,0.0038025728426873684
1772562796504389400,7.113389404296875,-0.0018359848763793707,0.0009141056798398495,0.001503732055425644
1772562796514457300,7.123457275390625,0.00022749206982553005,0.0028934613801538944,-0.0045713153667747974
1772562796524524500,7.133524658203125,-0.00016319355927407742,-0.0007023387588560581,0.0006671224255114794
1772562796534591500,7.143591552734375,0.0012816681992262602,0.0014522583223879337,-0.002743925666436553
1772562796544658400,7.153658447265625,-0.0008688343223184347,0.0010162987746298313,-0.0005244470667093992
1772562796554725400,7.163725341796875,-0.0000814446248114109,-0.0008139126002788544,0.000959714874625206
1772562796564792300,7.173792236328125,0.00026343483477830887,0.0008066208101809025,0.000679816585034132
1772562796574860300,7.1838603515625,0.001160541782155633,0.0017618576530367136,-0.004410086199641228
1772562796584927200,7.19392724609375,0.0024620285257697105,0.0014484035782516003,0.0006355384830385447
1772562796594994400,7.203994384765625,0.0012234968598932028,0.0018489521462470293,-0.0007988926954567432
1772562796605061400,7.214061279296875,-0.0012535091955214739,0.0005083167925477028,0.000225891824811697
1772562796615128300,7.22412841796875,-0.00026135193184018135,0.0009072530083358288,-0.0025869477540254593
1772562796625196500,7.234196533203125,0.00036049610935151577,0.0009072530083358288,0.0016645225696265697
1772562796635263500,7.244263427734375,-0.0016284410376101732,-0.001514142844825983,-0.00036492361687123775
1772562796645330400,7.254330322265625,-0.00031843199394643307,-0.0011668666265904903,-0.00020832987502217293
1772562796655397400,7.2643974609375,-0.00023512542247772217,-0.0003807889297604561,0.0006280404049903154
1772562796665464300,7.27446435546875,-0.0014636418782174587,-0.0003147427923977375,0.002571881515905261
1772562796675531300,7.28453125,-0.000917006516829133,0.001730186864733696,0.0002727161627262831
1772562796685599200,7.29459912109375,-0.00010474235750734806,-0.0016826540231704712,0.00014621601440012455
1772562796695666400,7.30466650390625,0.0007752927485853434,-0.00006235530599951744,-0.00024760770611464977
1772562796705733400,7.3147333984375,0.00259822653606534,-0.0016687740571796894,0.0014498913660645485
1772562796715800300,7.32480029296875,0.0016135977348312736,-0.0008126329630613327,0.0010435078293085098
1772562796725867300,7.3348671875,-0.0014660817105323076,0.0007911226712167263,0.0027948026545345783
1772562796735934500,7.3449345703125,0.0026368601247668266,0.0010325415059924126,0.0005887963343411684
1772562796746002400,7.35500244140625,0.0002293623983860016,0.00030150357633829117,0.00017467490397393703
1772562796756069400,7.3650693359375,-0.00038261176086962223,-0.0015951404348015785,-0.0014353056903928518
1772562796766136300,7.37513623046875,0.001296511385589838,0.002075228141620755,-0.0010664579458534718
1772562796776203500,7.38520361328125,0.00032682809978723526,-0.0016188421286642551,-0.0007636949885636568
1772562796786270500,7.3952705078125,0.0002810216974467039,0.0008088955655694008,0.0030840402469038963
1772562796796338400,7.40533837890625,-0.0011017350479960442,0.00190161750651896,0.000920640304684639
1772562796806405400,7.4154052734375,0.0003507533110678196,-0.0003756512887775898,-0.000722263939678669
1772562796816472300,7.425472412109375,-0.00042353360913693905,-0.0018901168368756771,0.0025611023884266615
1772562796826539300,7.435539306640625,-0.000006216345354914665,0.000983433797955513,0.0015166106168180704
1772562796836606500,7.4456064453125,0.0009887863416224718,-0.000488506630063057,0.0026428704150021076
1772562796846673400,7.45567333984375,-0.001211783615872264,0.0030140825547277927,-0.003566289786249399
1772562796856741400,7.465741455078125,-0.00046870065852999687,0.00024427613243460655,-0.00126072287093848
1772562796866808300,7.475808349609375,0.0005486267618834972,0.001064263517037034,0.0018791442271322012
1772562796876875500,7.48587548828125,0.0012879598652943969,0.0014679613523185253,0.00006455020047724247
1772562796886942500,7.4959423828125,0.0007143151015043259,0.0002807243727147579,-0.00113973137922585
1772562796897010400,7.506010498046875,0.0008636994753032923,-0.001965469215065241,0.00040876329876482487
1772562796907078100,7.516078125,0.00004823948256671429,-0.0013508116826415062,0.000004229135811328888
1772562796917145300,7.526145263671875,-0.000029390910640358925,0.0008657821454107761,0.001961932284757495
1772562796927212300,7.53621240234375,0.0005501129198819399,0.0009025339968502522,-0.0013819326413795352
1772562796937279200,7.546279296875,-0.0006791935302317142,-0.0003632213920354843,0.0013727163895964622
1772562796947346200,7.55634619140625,-0.0004922396037727594,-0.00014803791418671608,-0.0008195976261049509
1772562796957413000,7.5664130859375,-0.00021188869141042233,0.0019405351486057043,-0.0009218119084835052
1772562796967481300,7.5764814453125,-0.0014063166454434395,0.0001468961127102375,0.0010265565942972898
1772562796977548300,7.58654833984375,-0.0009442996233701706,-0.0026593091897666454,0.0014199961442500353
1772562796987615200,7.596615234375,-0.0015254011377692223,-0.00009628338739275932,-0.0032839449122548103
1772562796997682400,7.606682373046875,-0.00006176391616463661,0.0008621402084827423,0.0012827503960579634
1772562797007749400,7.616749267578125,-0.001169372582808137,-0.0008204448968172073,0.001400462118908763
1772562797017817300,7.6268173828125,-0.0007520036306232214,-0.0017526904121041298,-0.0012067791540175676
1772562797027884300,7.63688427734375,-0.0005674466956406832,-0.0005771713331341743,0.0033187305089086294
1772562797037951200,7.646951171875,0.00048562721349298954,0.0007487884722650051,-0.0023270605597645044
1772562797048018200,7.65701806640625,0.0021727397106587887,0.002191156381741166,-0.003584871534258127
1772562797058085000,7.667085205078125,0.0012682860251516104,0.0009284052066504955,-0.0009525595232844353
1772562797068152000,7.677152099609375,0.0007220716215670109,0.0026757053565233946,-0.0009869143832474947
1772562797078220300,7.68722021484375,0.0005640843883156776,-0.00007068412378430367,0.0023642133455723524
1772562797088287200,7.697287353515625,0.0001278584823012352,-0.00042062345892190933,-0.002955450676381588
1772562797098354400,7.7073544921875,0.00009718211367726326,0.0007459898479282856,-0.00041041639633476734
1772562797108421400,7.71742138671875,-0.0020535867661237717,0.001977968495339155,-0.0002053531352430582
1772562797118488300,7.72748828125,0.00026762206107378006,0.000023617874830961227,0.0005026385188102722
1772562797128556300,7.737556396484375,0.003491911105811596,-0.0008504316210746765,0.0012041153386235237
1772562797138623200,7.747623291015625,-0.00018954835832118988,0.0011406582780182362,0.0005078772082924843
1772562797148690200,7.757690185546875,0.0011572123039513826,-0.000933411531150341,-0.002339308150112629
1772562797158757000,7.767757080078125,0.001526784268207848,-0.0006406279280781746,-0.002806658623740077
1772562797168824300,7.77782421875,0.0004386166110634804,-0.0019908505491912365,-0.001682538422755897
1772562797178891500,7.7878916015625,0.001541360397823155,0.000027155503630638123,-0.0024181038606911898
1772562797188959500,7.79795947265625,0.00044813286513090134,0.00025751907378435135,-0.001335795153863728
1772562797199026400,7.8080263671875,0.001250197645276785,0.00008567376062273979,-0.00016333721578121185
1772562797209093400,7.81809326171875,0.0013111840235069394,0.0009578587487339973,-0.00017265835776925087
1772562797219160300,7.828160400390625,0.0016267604660242796,-0.0004885722883045673,0.0015550840180367231
1772562797229227300,7.838227294921875,-0.0003791323397308588,0.000703990925103426,-0.0003296351060271263
1772562797239295200,7.848295166015625,0.0001543473917990923,0.0006707063876092434,0.0005569984205067158
1772562797249362200,7.858362060546875,0.0013828636147081852,-0.0019860630854964256,-0.00011225417256355286
1772562797259429000,7.86842919921875,0.00019530486315488815,0.0016538118943572044,-0.000006227055564522743
1772562797269496300,7.878496337890625,-0.00047021894715726376,0.0018213246949017048,0.0006622264627367258
1772562797279563300,7.888563232421875,0.001198043581098318,0.00001757405698299408,-0.0013401031028479338
1772562797289631500,7.898631591796875,-0.002060334198176861,0.0013502200599759817,0.0006519414018839598
1772562797299698400,7.908698486328125,0.002300516702234745,-0.0019847224466502666,0.000007930910214781761
1772562797309765400,7.918765380859375,-0.0012465475592762232,-0.0001391516998410225,0.000749354949221015
1772562797319832300,7.928832275390625,0.0010216373484581709,-0.00037658587098121643,-0.00004431232810020447
1772562797329899300,7.938899169921875,0.002189167309552431,-0.0003699283115565777,0.0009530414827167988
1772562797339966200,7.94896630859375,-0.0003180659841746092,-0.0007925573736429214,-0.00041961949318647385
1772562797350034200,7.9590341796875,-0.0005753273144364357,-0.00036884844303131104,-0.0014135112287476659
1772562797360101000,7.96910107421875,0.0001130453310906887,0.0006275726482272148,0.000009685289114713669
1772562797370168300,7.979168212890625,-0.0019019024912267923,0.0007309033535420895,0.0012366033624857664
1772562797380235300,7.9892353515625,-0.00048410682938992977,0.0031866333447396755,-0.000019721221178770065
1772562797390302500,7.999302490234375,0.00007702107541263103,0.0021456037648022175,-0.00042105955071747303
1772562797400370400,8.009370361328125,0.0015276898629963398,0.0024592613335698843,-0.0012122320476919413
1772562797410437400,8.019437255859375,0.000543385511264205,0.000517816748470068,0.0013257605023682117
1772562797420504300,8.02950439453125,-0.00027386308647692204,-0.0019552670419216156,-0.0004881243221461773
1772562797430571300,8.0395712890625,-0.0007034309674054384,0.00022559519857168198,0.002779574366286397
1772562797440638200,8.04963818359375,0.00035968655720353127,0.00026537152007222176,-0.0014347746036946774
1772562797450705400,8.059705322265625,-0.0003934553824365139,-0.0020292080007493496,0.0005628624930977821
1772562797460773000,8.069773193359374,-0.0008818542119115591,-0.0017197607085108757,-0.0014559064293280244
1772562797470840300,8.07984033203125,0.0010641172993928194,0.0008925339207053185,0.0018181835766881704
1772562797480907300,8.0899072265625,0.0014824981335550547,0.001366807147860527,0.0006586343515664339
1772562797490974200,8.09997412109375,-0.001158292405307293,-0.0022172750905156136,0.0015649080742150545
1772562797501041400,8.11004150390625,-0.0003579098265618086,-0.0025724703446030617,0.0013599772937595844
1772562797511108400,8.1201083984375,-0.0015709795989096165,-0.0008091912604868412,0.0021197767928242683
1772562797521176300,8.13017626953125,0.00044267624616622925,0.0014102510176599026,-0.0014687547227367759
1772562797531243300,8.1402431640625,-0.00011712033301591873,0.0008318121545016766,0.0009552545379847288
1772562797541310200,8.150310302734376,-0.0019909858237951994,-0.0010992125608026981,-0.0014382770750671625
1772562797551377400,8.16037744140625,0.000836492283269763,0.002783143427222967,-0.004443121608346701
1772562797561444400,8.1704443359375,0.001582418568432331,-0.0018351627513766289,-0.0014311546692624688
1772562797571512300,8.18051220703125,-0.000143842538818717,0.0016202889382839203,-0.002243951428681612
1772562797581579300,8.190579345703124,-0.0002165529876947403,0.0008494136855006218,0.0003799514379352331
1772562797591646200,8.200646240234375,0.000917687313631177,0.001077380497008562,0.0012199124321341515
1772562797601713400,8.21071337890625,-0.00046658911742269993,-0.0024520065635442734,0.0015982494223862886
1772562797611780400,8.2207802734375,0.000342212850227952,0.00024018296971917152,0.00011593382805585861
1772562797621847300,8.230847412109375,0.0020949107129126787,0.0014717909507453442,-0.0005876293871551752
1772562797631915300,8.240915283203124,0.0002445464488118887,0.0019966999534517527,-0.0019034972647204995
1772562797641982200,8.250982177734375,-0.0004896398168057203,0.00025442522019147873,-0.0023846973199397326
1772562797652049400,8.26104931640625,0.0005306170787662268,-0.000628679059445858,0.001372756902128458
1772562797662116400,8.271116455078126,0.0011274856515228748,-0.00031946832314133644,0.003052813932299614
1772562797672183300,8.281183349609375,0.0007908621337264776,0.0000014426186680793762,0.00023545557633042336
1772562797682251300,8.291251220703124,0.0035578347742557526,0.0006207115948200226,-0.0011501330882310867
1772562797692318200,8.301318115234375,-0.00021160324104130268,7.273629307746887e-7,-0.001293144770897925
1772562797702385200,8.31138525390625,0.0004063660744577646,0.001417758408933878,-0.0006141774356365204
1772562797712452400,8.321452392578125,-0.00016994192264974117,0.00011414103209972382,-0.002457617549225688
1772562797722519300,8.331519287109375,0.0007209430914372206,-0.00013679452240467072,-0.0023267578799277544
1772562797732586500,8.34158642578125,0.0007872558198869228,0.0007721423171460629,0.00016462942585349083
1772562797742654200,8.351654296875,0.0014663661131635308,0.0007844222709536552,-0.00003764405846595764
1772562797752721400,8.361721435546874,0.000958501361310482,-0.0003319745883345604,0.0026497519575059414
1772562797762788400,8.371788330078125,0.0010588346049189568,0.00009599467739462852,-0.0036724687088280916
1772562797772855300,8.381855224609374,-0.0012285541743040085,-0.0006962958723306656,0.0036994274705648422
1772562797782922200,8.391922119140625,0.0005981193389743567,-0.0004101032391190529,0.0014121097046881914
1772562797792990200,8.401990234375,-0.00015315832570195198,-0.0021550063975155354,-0.0014680990716442466
1772562797803057200,8.41205712890625,0.0010090731084346771,-0.0003979257307946682,-0.0012926645576953888
1772562797813124400,8.422124267578125,-0.000013048062101006508,-0.00001443084329366684,-0.0019523295341059566
1772562797823191300,8.43219140625,-0.001688311342149973,-0.0012549888342618942,-0.001412075012922287
1772562797833258500,8.442258544921875,-0.0017937724478542805,-0.0016885516233742237,0.002676410134881735
1772562797843325400,8.452325439453125,0.00026710680685937405,0.0003727027215063572,-0.0002698819153010845
1772562797853393400,8.462393310546876,0.00016404245980083942,0.00044673820957541466,-0.0006579046603292227
1772562797863460400,8.47246044921875,0.0011185479816049337,-0.0009715189225971699,0.0008350252173841
1772562797873527300,8.48252734375,0.0006197378970682621,0.0013049510307610035,0.0004800255410373211
1772562797883594200,8.49259423828125,0.0014964292058721185,0.0012724304106086493,0.0001937879715114832
1772562797893660000,8.502659912109374,-0.0005893586203455925,0.001756326761096716,-0.00042060320265591145
1772562797903727900,8.512727783203125,-0.001253230031579733,0.0001996997743844986,-0.000017083948478102684
1772562797913794800,8.522794921875,-0.0003285808488726616,-0.002570520620793104,0.003093221690505743
1772562797923861800,8.53286181640625,-0.0009684029500931501,0.0012659539934247732,-0.0006428982596844435
1772562797933928700,8.5429287109375,-0.0013052925933152437,-0.000009966548532247543,-0.0005219907034188509
1772562797943995600,8.55299560546875,-0.0015841948334127665,-0.0010888231918215752,0.0013104579411447048
1772562797954062600,8.5630625,0.001100537832826376,0.0030997968278825283,0.001218578778207302
1772562797964130800,8.573130859375,-0.0010162238031625748,0.00016739312559366226,-0.0011063797865062952
1772562797974197800,8.58319775390625,-0.0032724537886679173,-0.0006898781284689903,0.0027378934901207685
1772562797984265000,8.593264892578125,0.00048133358359336853,-0.000975300557911396,-0.0033062410075217485
1772562797994332000,8.603331787109376,-0.0012662329245358706,0.0007240623235702515,-0.0008960801642388105
1772562798004398800,8.61339892578125,0.00037666945718228817,-0.0008184164762496948,-0.0022896514274179935
1772562798014466800,8.623466796875,-0.0007210855837911367,0.002346483990550041,0.00007470301352441311
1772562798024533800,8.63353369140625,0.002400326542556286,-0.0010388828814029694,-0.0013250496704131365
1772562798034600700,8.6436005859375,-0.0005208950024098158,-0.00040052318945527077,-0.00011783861555159092
1772562798044667600,8.653667724609376,0.0005109743215143681,0.0012588442768901587,-0.003209233982488513
1772562798054734600,8.663734619140625,-0.002074422314763069,-0.00025063566863536835,-0.0020835157483816147
1772562798064802600,8.673802490234374,-0.000862763961777091,0.0009943018667399883,0.0002691354602575302
1772562798074869800,8.683869873046875,-0.00020949053578078747,0.000003606081008911133,0.0013288073241710663
1772562798084937000,8.69393701171875,-0.0017626220360398293,0.0001669195480644703,-0.00031062797643244267
1772562798095004000,8.70400390625,-0.0022507794201374054,-0.0015034149400889874,0.002317379228770733
1772562798105070800,8.71407080078125,0.00012361863628029823,0.0020416462793946266,-0.002851747442036867
1772562798115137800,8.7241376953125,0.000059969257563352585,0.0004213792271912098,0.0009381971322000027
1772562798125205800,8.734205810546875,0.0005314305890351534,0.0016272221691906452,-0.0003505747299641371
1772562798135272700,8.744272705078124,0.000366580905392766,0.00016248365864157677,0.0020686406642198563
1772562798145339600,8.754339599609375,0.0022265107836574316,-0.002064783126115799,-0.0007437362801283598
1772562798155406600,8.764406494140625,-0.0009567658416926861,0.0007808045484125614,0.00037772092036902905
1772562798165473800,8.774473876953126,0.00015633273869752884,0.0012065507471561432,-0.0007150263991206884
1772562798175541800,8.784541748046875,-0.001196286641061306,-0.000122100580483675,0.0025119257625192404
1772562798185609000,8.79460888671875,-0.00015336833894252777,0.001887915888801217,-0.001042875461280346
1772562798195676000,8.804676025390625,-0.002208263613283634,0.0007792417891323566,-0.002079377882182598
1772562798205742800,8.814742919921875,0.00018072081729769707,0.0006757015362381935,0.0020245800260454416
1772562798215809800,8.824809814453126,0.000591113930568099,-0.0009120753966271877,0.0018107283394783735
1772562798225876700,8.834876708984375,-0.0005245811771601439,-0.003100843168795109,0.0016391954850405455
1772562798235944700,8.84494482421875,-0.0008838414214551449,-0.000983896665275097,-0.003849845612421632
1772562798246011600,8.85501171875,-0.0013059030752629042,0.0008009001612663269,0.001366839511319995
1772562798256078800,8.865078857421874,-0.0011897890362888575,0.00019156886264681816,0.00034844642505049706
1772562798266145800,8.875145751953125,0.00020843814127147198,0.0002537011168897152,-0.0033941324800252914
1772562798276212700,8.885212646484375,-0.001836337149143219,-0.00006641075015068054,0.0008248472586274147
1772562798286281000,8.895281005859376,0.0006471013184636831,-0.0007381225004792213,-0.003555065020918846
1772562798296348000,8.905347900390625,0.0011653522960841656,-0.0010276082903146744,0.00013394560664892197
1772562798306414800,8.915414794921874,0.0012478400021791458,0.0018085034098476171,0.001872669905424118
1772562798316481800,8.925481689453125,0.0011493030469864607,0.00019089924171566963,-0.00151913205627352
1772562798326548700,8.935548828125,0.0014588376507163048,-0.0012456844560801983,-0.000004035886377096176
1772562798336615700,8.94561572265625,0.000462549040094018,-0.00034313928335905075,-0.000841866247355938
1772562798346683600,8.95568359375,-0.0022135076578706503,-0.00028735212981700897,0.0011261855252087116
1772562798356750800,8.965750732421874,0.00007601198740303516,-0.0007254420779645443,-0.00033189496025443077
1772562798366817800,8.97581787109375,-0.000036429380998015404,0.0017726903315633535,-0.0011856805067509413
1772562798376884700,8.985884765625,-0.0023658964782953262,-0.0023616007529199123,-0.0013254964724183083
1772562798386951700,8.99595166015625,0.0024355158675462008,0.000049330294132232666,-0.0034268940798938274
1772562798397020000,9.00602001953125,0.002268535550683737,-0.0008739875629544258,-0.0006500158924609423
1772562798407086800,9.0160869140625,0.00018194806762039661,-0.00043355580419301987,0.0002921654377132654
1772562798417153800,9.02615380859375,-0.00013177236542105675,-0.0018466291949152946,0.0007321198936551809
1772562798427220700,9.036220703125,-0.00023973407223820686,-0.0012882901355624199,0.0006792501080781221
1772562798437287700,9.04628759765625,0.00008064438588917255,0.0006409035995602608,-0.0012097300495952368
1772562798447355000,9.05635498046875,-0.0010699306149035692,0.00028944388031959534,0.0008778397459536791
1772562798457422800,9.0664228515625,0.0008691167458891869,0.0003850511275231838,-0.000546684954315424
1772562798467489800,9.07648974609375,-0.0004413460846990347,0.0001627737656235695,-0.0012864215532317758
1772562798477556700,9.086556640625,-0.0023750674445182085,-0.0009291223250329494,0.0016939220950007439
1772562798487623700,9.096623779296875,0.00126157165504992,0.003041256917640567,-0.002330278279259801
1772562798497690600,9.106690673828124,-0.00011315220035612583,0.0009847639594227076,0.0032125588040798903
1772562798507757600,9.116757568359375,0.0014895112253725529,0.000009196344763040543,-0.003710326040163636
1772562798517825800,9.12682568359375,0.0005757806356996298,-0.0012635281309485435,-0.0011678063310682774
1772562798527892700,9.136892822265626,-0.0005493937060236931,-0.0007880404591560364,0.00041083828546106815
1772562798537960000,9.1469599609375,0.002661313395947218,0.0021454314701259136,-0.0032358281314373016
1772562798548027000,9.15702685546875,-0.0006046909838914871,0.001091300044208765,-0.000022475142031908035
1772562798558093800,9.16709375,0.0003915976267307997,0.0006273775361478329,0.0022225696593523026
1772562798568161800,9.177161865234375,-0.00023367558605968952,0.00027035828679800034,-0.0007449912372976542
1772562798578228700,9.187228759765626,-0.0018408934120088816,0.0002759508788585663,-0.0006240839138627052
1772562798588295700,9.197295654296875,-0.00008073309436440468,-0.0002130512148141861,-0.0006914569530636072
1772562798598362600,9.207362548828126,0.00010781874880194664,0.0004159873351454735,-0.0010829416569322348
1772562798608429600,9.2174296875,0.002733218017965555,0.00040507130324840546,-0.002442056080326438
1772562798618496800,9.227496826171874,0.0015009734779596329,-0.0007970794104039669,-0.0008873026818037033
1772562798628564700,9.237564697265626,0.0004856057930737734,0.0006724949926137924,0.002413790440186858
1772562798638632000,9.2476318359375,0.0009561863262206316,-0.0015190201811492443,0.002407665131613612
1772562798648699000,9.257698974609376,0.0004416792653501034,0.0018435074016451836,-0.0018404123838990927
1772562798658765800,9.267765869140625,-0.0013900429476052523,-0.0003410833887755871,-0.0031283171847462654
1772562798668832800,9.277832763671874,0.000003066146746277809,-0.0008878055959939957,-0.0006917200516909361
1772562798678900700,9.287900634765625,0.0006866995245218277,0.0015849394258111715,-0.0018789571477100253
1772562798688967700,9.2979677734375,0.00020895502530038357,0.0008273236453533173,0.0018001599237322807
1772562798699034600,9.30803466796875,0.0016284198500216007,-0.0010661841370165348,0.0015663346275687218
1772562798709101600,9.3181015625,-0.0020175131503492594,0.0001257164403796196,-0.0009150449186563492
1772562798719168800,9.328168701171874,-0.001362109323963523,-0.0010042628273367882,0.0023084452841430902
1772562798729236700,9.33823681640625,-0.00007043243385851383,-0.0005537145771086216,0.0010856152512133121
1772562798739304000,9.348303955078125,-0.00017615989781916142,0.0013680225238204002,0.002403080929070711
1772562798749371000,9.358370849609376,-0.0018300034571439028,-0.0006294725462794304,0.0004060971550643444
1772562798759437800,9.368437744140625,-0.00007924134843051434,-0.0002622227184474468,-0.001037868671119213
1772562798769504800,9.3785048828125,0.0017343693180009723,0.0008744485676288605,-0.0010822666808962822
1772562798779571700,9.38857177734375,-0.00016073603183031082,-0.00046565383672714233,-0.00015814974904060364
1772562798789639700,9.3986396484375,0.001339660957455635,-0.0010537076741456985,-0.002536048414185643
1772562798799706600,9.40870654296875,0.00011007953435182571,-0.0002172086387872696,0.0007620102260261774
1772562798809773600,9.418773681640625,-0.00020801834762096405,0.002452244283631444,-0.0011593333911150694
1772562798819840800,9.4288408203125,-0.0012357321102172136,-0.0005366210825741291,-0.001886642654426396
1772562798829907700,9.43890771484375,0.001240357756614685,-0.0026928004808723927,-0.0005323400255292654
1772562798839976000,9.448975830078124,-0.001010013511404395,-0.002078942023217678,0.0009574322029948235
1772562798850043000,9.45904296875,0.000527155352756381,-0.0018960926681756973,0.0003995939623564482
1772562798860109800,9.46910986328125,-0.0005602131132036448,0.00046080490574240685,-0.000992972869426012
1772562798870176800,9.4791767578125,0.00220933323726058,-0.0007510469295084476,0.0010857400484383106
1772562798880243000,9.489242919921875,-0.00018564751371741295,-0.0005284068174660206,-0.001569964224472642
1772562798890310000,9.499309814453126,-0.0013465725351125002,-0.0009143184870481491,-0.0013719425769522786
1772562798900376600,9.50937646484375,-0.0006126055959612131,-0.0019106073305010796,0.00004246225580573082
1772562798910444500,9.519444580078124,-0.00009990180842578411,-0.001565014012157917,-0.0011361511424183846
1772562798920511500,9.529511474609375,-0.0002865893766283989,-0.00008909031748771667,0.0014934539794921875
1772562798930578400,9.539578369140624,-0.001586835365742445,0.00175615050829947,-0.0007500443607568741
1772562798940645400,9.549645263671875,0.0009109433740377426,0.00023362133651971817,-0.001505050458945334
1772562798950712300,9.55971240234375,0.0014534854562953115,-0.0002168240025639534,0.00019061868079006672
1772562798960779500,9.569779541015626,-0.00015666172839701176,-0.0028339126147329807,-0.0023601569700986147
1772562798970847500,9.579847412109375,0.0003528634551912546,-0.00016134046018123627,0.0009381810668855906
1772562798980914700,9.589914794921874,-0.0018730065785348415,0.0007079155184328556,-0.0019875678699463606
1772562798990981600,9.599981689453125,-0.00031307758763432503,-0.0008103130385279655,0.0003450114745646715
1772562799001048600,9.610048583984375,-0.0022971327416598797,-0.002653753384947777,0.0010227859020233154
1772562799011115500,9.620115478515626,0.000443421071395278,0.002139262855052948,0.0017411247827112675
1772562799021183500,9.63018359375,0.0014301221817731857,-0.0005087181925773621,-0.0006746284198015928
1772562799031250400,9.64025048828125,0.0018921352457255125,0.001378502231091261,-0.0002088937908411026
1772562799041317400,9.6503173828125,0.0005914473440498114,0.000545199029147625,0.0013469248078763485
1772562799051384600,9.660384521484374,0.0012452441733330488,0.0021348013542592525,-0.001493980991654098
1772562799061451500,9.670451416015625,-0.0019303092267364264,-0.0011219782754778862,-0.0018726824782788754
1772562799071518500,9.6805185546875,-0.0024852086789906025,-0.0005932198837399483,0.0001415293663740158
1772562799081586700,9.690586669921874,-0.0005613411776721478,-0.001789245754480362,0.0006049193907529116
1772562799091653600,9.700653564453125,0.0008323902729898691,-0.000649506226181984,-0.0034005921334028244
1772562799101720600,9.710720458984374,0.0004867119714617729,0.0020892887841910124,-0.002539858454838395
1772562799111787500,9.72078759765625,-0.0010553766041994095,0.000936595257371664,0.0010698754340410233
1772562799121854500,9.7308544921875,0.00082987523637712,0.00000688573345541954,0.0003119399771094322
1772562799131922400,9.74092236328125,0.002212625928223133,-0.000283203087747097,-0.002234748564660549
1772562799141989400,9.7509892578125,-0.0007123241666704416,-0.0016914824955165386,-0.00200012419372797
1772562799152056600,9.761056640625,0.0017112791538238525,-0.0013020774349570274,0.0011971713975071907
1772562799162123500,9.77112353515625,0.002554169623181224,0.0029808185063302517,0.0023830770514905453
1772562799172190500,9.7811904296875,-0.000988769344985485,0.0021100807934999466,-0.00021900678984820843
1772562799182257400,9.79125732421875,0.0002634492702782154,-0.00044202664867043495,-0.0028526068199425936
1772562799192325600,9.80132568359375,-0.0009974879212677479,-0.0013564643450081348,0.0019458241295069456
1772562799202392600,9.811392578125,0.0008033416233956814,-0.001066712662577629,-0.0014190799556672573
1772562799212459500,9.82145947265625,0.0005565695464611053,-0.0019153328612446785,-0.0011551284696906805
1772562799222526500,9.8315263671875,-0.0002759345807135105,-0.0007739020511507988,-0.0008994650561362505
1772562799232593700,9.84159375,0.0014042621478438377,-0.0004698461852967739,-0.0023630065843462944
1772562799242661400,9.851661376953125,-0.0006695413030683994,0.000612995121628046,-0.0011866881977766752
1772562799252728600,9.861728515625,-0.0018936428241431713,0.000827545765787363,-0.002410266548395157
1772562799262795500,9.87179541015625,0.0009660592768341303,0.0005519082769751549,-0.00019318494014441967
1772562799272862500,9.881862548828124,0.00018973369151353836,0.0014898160006850958,-0.0017529517645016313
1772562799282929400,9.891929443359375,-0.0004448976833373308,-0.0007941108196973801,0.0005022131372243166
1772562799292996400,9.901996337890624,-0.0021990169771015644,-0.0012497804127633572,0.0011964489240199327
1772562799303064600,9.912064697265626,0.0013168882578611374,0.0007611727342009544,-0.0017990748165175319
1772562799313131500,9.922131591796875,-0.0009659987408667803,-0.00022133905440568924,0.00041237170808017254
1772562799323198500,9.932198486328126,0.000756000867113471,-0.0006799353286623955,-0.0003575482405722141
1772562799333265700,9.942265625,0.000181625597178936,-0.0008925879374146461,-0.00032656104303896427
1772562799343332600,9.95233251953125,0.00043622381053864956,-0.00042200740426778793,-0.0009555995929986238
1772562799353400600,9.962400634765626,0.0006379506085067987,-0.000521581619977951,0.001971256686374545
1772562799363467500,9.972467529296875,-0.00022491347044706345,0.001015061978250742,0.0009163788054138422
1772562799373534500,9.982534423828126,0.0006198021583259106,0.00042259274050593376,0.0004469614941626787
1772562799383601400,9.992601318359375,0.00004775519482791424,-0.0013627903535962105,-0.0009695738554000854
1772562799393668400,10.00266845703125,0.001564591540955007,0.0010759113356471062,-0.0018469325732439756
1772562799403735300,10.0127353515625,-0.0006865786854177713,0.0024301286321133375,0.0006708200089633465
1772562799413803500,10.022803466796875,-0.00227584526874125,-0.0008194851689040661,0.000525725306943059
1772562799423870500,10.032870361328126,0.001552714966237545,0.0011227582581341267,0.0024210968986153603
1772562799433937700,10.042937744140625,0.000387576874345541,-0.0005313665606081486,0.0003497544676065445
1772562799444004600,10.053004638671876,-0.000771696912124753,-0.00048742443323135376,0.0017042383551597595
1772562799454071600,10.063071533203125,0.0032149432227015495,0.0007875747978687286,-0.0015000932617112994
1772562799464139500,10.073139404296874,0.00016269437037408352,-0.0006752996705472469,0.00021072151139378548
1772562799474206500,10.08320654296875,0.0015206695534288883,0.00031694304198026657,-0.0010559351649135351
1772562799484273400,10.0932734375,-0.0011086692102253437,0.001018153503537178,-0.0015843063592910767
1772562799494340400,10.10334033203125,-0.00027185771614313126,-0.0011058384552598,-0.0018289361614733934
1772562799504407300,10.1134072265625,0.0005718315951526165,-0.0009380592964589596,0.0001260903663933277
1772562799514474500,10.123474609375,0.0005506642628461123,-0.0007804953493177891,-0.0023057640064507723
1772562799524542500,10.13354248046875,0.00007129530422389507,-0.00022256327793002129,-0.00016777846030890942
1772562799534609700,10.143609619140625,0.0008504944853484631,0.0028975149616599083,-0.005216254852712154
1772562799544676600,10.153676513671876,0.00021959166042506695,0.001810678979381919,0.00007810909301042557
1772562799554743600,10.16374365234375,-0.001209278590977192,-0.00030510313808918,-0.0035330511163920164
1772562799564810500,10.173810546875,0.0004064610693603754,0.0003798617981374264,0.00021801120601594448
1772562799574878500,10.18387841796875,-0.0004337150603532791,0.0002618362195789814,-0.0017553605139255524
1772562799584945400,10.1939453125,0.0006808179896324873,-0.0012140879407525063,-0.0012813177891075611
1772562799595012400,10.204012451171875,-0.00023379549384117126,0.001982840010896325,-0.0011660194722935557
1772562799605079300,10.214079345703125,-0.0001485743559896946,0.0010081231594085693,-0.0013295375974848866
1772562799615146500,10.224146484375,-0.0011035301722586155,0.0009011104702949524,0.0019287699833512306
1772562799625213700,10.234213623046875,0.000022188294678926468,0.0004315953701734543,0.0025801793672144413
1772562799635281700,10.24428173828125,0.0008736001327633858,0.00029099034145474434,-0.0008457547519356012
1772562799645348600,10.2543486328125,0.001915428787469864,0.0012324175331741571,0.001788377994671464
1772562799655415600,10.26441552734375,0.0006150195840746164,0.0013256336096674204,0.00023183505982160568
1772562799665482500,10.274482421875,-0.0007605033461004496,0.0011626482009887695,0.00003316323272883892
1772562799675549400,10.284549560546875,0.0009049945510923862,0.0017064912244677544,-0.00006745592691004276
1772562799685617400,10.294617431640624,0.0006088509690016508,0.0033280900679528713,-0.0011391120497137308
1772562799695684400,10.304684326171875,0.00037539866752922535,0.00021698186174035072,-0.00031564850360155106
1772562799705751300,10.314751220703124,0.0009660879150032997,0.0016907751560211182,-0.00018142512999475002
1772562799715818500,10.324818603515626,0.00045129284262657166,-0.0011644032783806324,0.0025635124184191227
1772562799725885400,10.334885498046875,-0.0006499241571873426,-0.0010413648560643196,0.002242335118353367
1772562799735952600,10.34495263671875,-0.00014928984455764294,0.0013492759317159653,-0.0022100915666669607
1772562799746020600,10.3550205078125,0.0011127821635454893,0.0009154472500085831,-0.002276937011629343
1772562799756087600,10.365087646484374,-0.0007806988433003426,0.0007759793661534786,0.002774770837277174
1772562799766154500,10.375154541015625,-0.0004818923771381378,-0.00032630329951643944,0.0028919498436152935
1772562799776221400,10.385221435546875,0.0012237352784723043,0.0006534173153340816,0.00035688187927007675
1772562799786288400,10.395288330078126,0.000253013102337718,0.0014427781570702791,-0.0005959970876574516
1772562799796356400,10.4053564453125,0.0005575167015194893,-0.0008757649920880795,0.0006063731852918863
1772562799806423600,10.415423583984374,0.001421978697180748,0.001110154204070568,-0.002667983528226614
1772562799816490500,10.425490478515625,-0.0009237970225512981,0.0016070632264018059,-0.004633103497326374
1772562799826557400,10.435557373046874,-0.0010782601311802864,-0.0001817820593714714,0.0003171805292367935
1772562799836624600,10.445624755859376,0.0016330796061083674,0.0002914033830165863,-0.00027853529900312424
1772562799846691600,10.455691650390625,0.00002745981328189373,0.000644538551568985,-0.00009530968964099884
1772562799856759600,10.465759521484374,-0.00017714430578052998,0.0003159292973577976,0.0004892135038971901
1772562799866826500,10.475826416015625,-0.000009365146979689598,0.0009630774147808552,0.0001283551100641489
1772562799876893400,10.4858935546875,0.0011491475161165,0.0011433870531618595,0.00042572361417114735
1772562799886960400,10.49596044921875,0.0010490126442164183,-0.0015908805653452873,0.0007056219037622213
1772562799897027600,10.506027587890625,-0.0005884438287466764,-0.00013664411380887032,-0.00003763777203857899
1772562799907095800,10.516095703125,-0.0000656654592603445,-0.0008240058086812496,0.0016979442443698645
1772562799917163000,10.5261630859375,-0.0004158741794526577,0.001088947057723999,-0.0027684480883181095
1772562799927230200,10.536230224609374,-0.0008883192203938961,-0.00030282093212008476,-0.0012429894413799047
1772562799937297200,10.546297119140625,0.001404747599735856,-0.0018696724437177181,-0.0011259245220571756
1772562799947364000,10.556364013671875,-0.0005577357951551676,-0.0003886884078383446,0.0002472011838108301
1772562799957432000,10.56643212890625,0.0002604739274829626,-0.0003658249042928219,-0.0016940522473305464
1772562799967499000,10.5764990234375,0.0011262677144259214,-0.0015482688322663307,0.0004018554463982582
1772562799977566000,10.58656591796875,0.000489773228764534,-0.0008672494441270828,-0.000023818109184503555
1772562799987633000,10.5966328125,0.0009590222034603357,-0.0005053258500993252,-0.002686180407181382
1772562799997700000,10.6067001953125,0.0004885459784418344,0.0019483158830553293,-0.00035251560620963573
1772562800007767000,10.61676708984375,-0.0005855069030076265,-0.002015266567468643,-0.00024998397566378117
1772562800017835000,10.6268349609375,-0.0001848468091338873,0.001148388721048832,-0.002347443252801895
1772562800027902200,10.636902099609374,-0.0014772787690162659,0.0011443940456956625,-0.0027711521834135056
1772562800037969200,10.64696923828125,0.001777765341103077,0.001871580956503749,0.001827895874157548
1772562800048036000,10.6570361328125,-0.0009879274293780327,-0.0013604313135147095,-0.0003527004737406969
1772562800058103000,10.66710302734375,-0.0016439571045339108,0.0015240325592458248,-0.000908777117729187
1772562800068170000,10.677169921875,0.0005920326802879572,0.0003242786042392254,0.002658793469890952
1772562800078238000,10.687238037109376,-0.0012232218869030476,0.0009432192891836166,-0.0012706618290394545
1772562800088305000,10.697304931640625,0.00007240613922476768,-0.001572136301547289,-0.0006237800698727369
1772562800098372000,10.7073720703125,0.0025791176594793797,0.00306131923571229,-0.0013594144256785512
1772562800108439000,10.71743896484375,-0.0010225414298474789,-0.0008354177698493004,0.001594830071553588
1772562800118506000,10.727506103515625,-0.0011657180730253458,-0.0007075951434671879,0.0020828358829021454
1772562800128574000,10.737573974609376,-0.000062903156504035,0.00006871623918414116,0.0002676253207027912
1772562800138641200,10.74764111328125,0.0015528370859101415,-0.0005077626556158066,-0.0013169394806027412
1772562800148708000,10.7577080078125,-0.0005374778993427753,0.00012314040213823318,-0.0007872367277741432
1772562800158775000,10.767775146484375,-0.0018874281086027622,-0.00019989674910902977,0.0020390681456774473
1772562800168842000,10.777842041015624,0.0025853507686406374,0.0007223561406135559,0.001086189178749919
1772562800178910000,10.787909912109376,-0.0014866406563669443,-0.0002040797844529152,-0.000687603373080492
1772562800188977000,10.797976806640625,-0.0018291228916496038,0.0001807468943297863,0.0013425243087112904
1772562800199044000,10.808044189453126,0.0007567624561488628,0.0008067437447607517,-0.0034718625247478485
1772562800209111000,10.818111083984375,-0.0004139633383601904,-0.000012444797903299332,-0.003065197728574276
1772562800219178000,10.828177978515624,-0.001982865622267127,0.0008365907706320286,-0.0016927528195083141
1772562800229245000,10.838244873046875,-0.0003266457933932543,0.0002949037589132786,0.0015086329076439142
1772562800239313200,10.848313232421875,0.0008713467977941036,0.0003941543400287628,-0.002735428512096405
1772562800249380000,10.858380126953126,-0.0017010003793984652,0.0006559430621564388,-0.0003425781615078449
1772562800259447000,10.868447021484375,0.0007822797633707523,0.0006231819279491901,-0.0010994353797286749
1772562800269514000,10.878513916015624,0.0009577821474522352,-0.00017177173867821693,-0.0005082136485725641
1772562800279581200,10.888581298828125,-0.0009735068306326866,-0.0024470132775604725,-0.0011166082695126534
1772562800289649000,10.89864892578125,-0.00245422450825572,0.0004784693010151386,0.0015217855107039213
1772562800299716000,10.908716064453126,-0.0011942696291953325,0.0019291574135422707,-0.0004652885254472494
1772562800309783000,10.918782958984375,0.000018001534044742584,0.0003826599568128586,0.001875630347058177
1772562800319850000,10.92885009765625,-0.00021223234944045544,-0.00016441522166132927,0.00027885776944458485
1772562800329917000,10.9389169921875,-0.0005009190645068884,-0.0016198325902223587,0.001479144673794508
1772562800339984000,10.94898388671875,0.0016404647612944245,0.001509638736024499,-0.0010012758430093527
1772562800350052000,10.959052001953125,0.0009688155259937048,0.00028724782168865204,0.00014308444224298
1772562800360119000,10.969119140625,-0.0008174909744411707,0.0002450374886393547,-0.0018881324212998152
1772562800370186000,10.97918603515625,-0.0000238688662648201,-0.0005110339261591434,-0.0020202251616865396
1772562800380253200,10.989253173828125,0.00044717174023389816,0.00030258484184741974,-0.0018031897488981485
1772562800390320000,10.999320068359374,0.001506044645793736,0.0007207011803984642,0.0015289571601897478
1772562800400388000,11.00938818359375,0.0007050919812172651,-0.00009269267320632935,0.0024250622373074293
1772562800410455000,11.019455078125,0.0013067000545561314,0.0021736575290560722,0.0013017405290156603
1772562800420522000,11.02952197265625,0.0015726449200883508,0.002706799190491438,-0.0021316271740943193
1772562800430589000,11.0395888671875,0.0009121808689087629,0.0008769412524998188,0.0006351307965815067
1772562800440656000,11.04965576171875,-0.0004941800143569708,0.0005140015855431557,0.0027385978028178215
1772562800450722800,11.059722900390625,0.001602792995981872,-0.0008447431027889252,-0.00011684326454997063
1772562800460791000,11.069791015625,-0.00005488842725753784,0.0006386972963809967,0.0014076083898544312
1772562800470858000,11.07985791015625,-0.0004136164207011461,0.0015207361429929733,0.0005034653004258871
1772562800480925200,11.08992529296875,-0.0014665275812149048,0.000636393204331398,0.0011943283025175333
1772562800490992000,11.0999921875,-0.002291841432452202,0.00015036622062325478,-0.0015276884660124779
1772562800501059000,11.11005908203125,-0.0011604910250753164,0.0011291007976979017,-0.0014383699744939804
1772562800511127000,11.120126953125,0.00030797626823186874,0.0019224565476179123,-0.00008175568655133247
1772562800521194000,11.130194091796875,-0.0008479212410748005,-0.0009197401814162731,-0.0002595679834485054
1772562800531261000,11.140260986328125,-0.0014260937459766865,-0.0018196222372353077,-0.0001596994698047638
1772562800541328000,11.150327880859376,-0.0008017760701477528,-0.0015978934243321419,0.0009945102501660585
1772562800551394800,11.160394775390625,0.0013977289199829102,0.002245847135782242,0.0002442975528538227
1772562800561463000,11.170463134765624,-0.0010516517795622349,0.002267618663609028,-0.0013233884237706661
1772562800571530000,11.180530029296875,-0.0005909251049160957,0.004428241401910782,-0.0018448353512212634
1772562800581597200,11.19059716796875,-0.0008344734087586403,0.002482203533872962,-0.00355794676579535
1772562800591664000,11.2006640625,0.002442013705149293,0.0021375904325395823,-0.0011666944483295083
1772562800601731000,11.21073095703125,-0.002318164799362421,-0.0004656757228076458,-0.0003310893662273884
1772562800611798000,11.220798095703126,-0.0007865810766816139,0.0008789543062448502,0.0002542734146118164
1772562800621866000,11.230865966796875,0.0010160161182284355,-0.0007981238886713982,-0.0004302072338759899
1772562800631933000,11.240932861328124,0.0005188039503991604,-0.0014926763251423836,0.0003674095496535301
1772562800642000000,11.250999755859375,0.00030246423557400703,0.0006084060296416283,0.0002001721877604723
1772562800652067000,11.261067138671875,0.0011730515398085117,-0.00032423296943306923,0.0036931743379682302
1772562800662134000,11.271134033203126,-0.0003654088359326124,0.003271615132689476,0.0005202651955187321
1772562800672201000,11.281200927734375,0.0006686965934932232,0.00003640679642558098,0.0020838070195168257
1772562800682269200,11.291269287109374,0.0014513269998133183,-0.00017298199236392975,-0.00008731195703148842
1772562800692336000,11.301336181640625,-0.0013101045042276382,0.0011964156292378902,0.000022676773369312286
1772562800702403000,11.311403076171874,0.0015226365067064762,0.0007782536558806896,-0.0006426896434277296
1772562800712470000,11.321469970703125,-0.002795146545395255,-0.0016398970037698746,0.002387188607826829
1772562800722537000,11.331536865234375,-0.0000757705420255661,0.00021745823323726654,-0.00035969261080026627
1772562800732605000,11.34160498046875,-0.00015033897943794727,0.0017386558465659618,-0.001241997815668583
1772562800742672000,11.351671875,0.0016324232565239072,-0.00007552094757556915,-0.0005901353433728218
1772562800752739000,11.361739013671874,-0.00029570539481937885,0.000409440603107214,-0.0031499655451625586
1772562800762806000,11.371805908203125,0.000742696225643158,-0.00032990192994475365,0.0036846078000962734
1772562800772873000,11.381873046875,0.0005301760975271463,-0.00008648913353681564,-0.0017932479968294501
1772562800782941200,11.391941162109376,-0.0001720862928777933,0.0017737450543791056,0.0022512127179652452
1772562800793008000,11.402008056640625,0.002143532270565629,-0.0001927330158650875,-0.0032484810799360275
1772562800803075000,11.412074951171874,0.000037361402064561844,-0.0009751706384122372,0.0012210886925458908
1772562800813142000,11.42214208984375,0.0007801169995218515,0.0010301899164915085,-0.00053633120842278
1772562800823209000,11.432208984375,0.0005371212027966976,-0.0014102146960794926,-0.00047412444837391376
1772562800833276200,11.442276123046875,0.0022439411841332912,0.00042576855048537254,-0.0013889203546568751
1772562800843344000,11.45234375,-0.0013537951745092869,-0.00005642557516694069,0.0009778731036931276
1772562800853411000,11.4624111328125,0.0006353198550641537,0.0018357504159212112,-0.0021649233531206846
1772562800863478000,11.47247802734375,-0.0010640136897563934,-0.0018885950557887554,0.0005760353524237871
1772562800873545000,11.482544921875,-0.00015667453408241272,0.00028800638392567635,0.0011392936576157808
1772562800883612000,11.49261181640625,0.001630092621780932,-0.0013822410255670547,0.002516896929591894
1772562800893680000,11.50268017578125,0.0009187622927129269,0.0008020834065973759,0.0015584253706037998
1772562800903747000,11.5127470703125,0.0025486350059509277,0.0005296138115227222,0.0016162341926246881
1772562800913814000,11.52281396484375,0.0007850895635783672,0.0006180307827889919,0.0003722717519849539
1772562800923881000,11.532880859375,0.00044021126814186573,-0.0003929515369236469,-0.0042703538201749325
1772562800933948200,11.5429482421875,0.0016261168057098985,0.00014740368351340294,0.0023768963292241096
1772562800944015000,11.55301513671875,0.001538216252811253,0.0002476298250257969,-0.0017459394875913858
1772562800954083000,11.5630830078125,-0.0007965771947056055,0.0009448453783988953,-0.0005645612254738808
1772562800964150000,11.57314990234375,0.001629400416277349,0.0005653919652104378,0.000005976995453238487
1772562800974217000,11.583217041015626,0.0009737301152199507,0.0031910024117678404,-0.0046705338172614574
1772562800984284000,11.593283935546875,0.0011789570562541485,-0.0003024502657353878,-0.0009818344842642546
1772562800994350800,11.603350830078124,0.003777669509872794,0.0011146178003400564,-0.0021182054188102484
