time,seconds_elapsed,z,y,x
1772457581095008300,0.05600830078125,-0.040043823421001434,-0.1009332686662674,-0.10122408717870712
1772457581105077000,0.066076904296875,-0.027059581130743027,-0.09627354145050049,-0.10191810876131058
1772457581115146200,0.076146240234375,-0.011908324435353279,-0.06266790628433228,-0.09682881087064743
1772457581125214200,0.086214111328125,0.0007701861904934049,-0.008294681087136269,-0.0857979953289032
1772457581135283200,0.096283203125,0.01660534180700779,0.023907463997602463,-0.08822306990623474
1772457581145352200,0.106352294921875,0.031074563041329384,0.01601092517375946,-0.09417816251516342
1772457581155421200,0.116421142578125,0.048743836581707,-0.01116503681987524,-0.11067884415388107
1772457581165489200,0.1264892578125,0.06669780611991882,-0.03680488467216492,-0.11646109819412231
1772457581175558100,0.13655810546875,0.0774252861738205,-0.0462106391787529,-0.12895958125591278
1772457581185627100,0.146627197265625,0.08948993682861328,-0.04994891583919525,-0.13571149110794067
1772457581195695000,0.156695068359375,0.10715761035680771,-0.06717850267887115,-0.14760251343250275
1772457581205764000,0.16676416015625,0.11549996584653854,-0.08464031666517258,-0.15770520269870758
1772457581215833000,0.1768330078125,0.11353987455368042,-0.0766492411494255,-0.1592589020729065
1772457581225902000,0.186902099609375,0.10700660943984985,-0.05171193182468414,-0.1440490484237671
1772457581235970000,0.196969970703125,0.09698407351970673,-0.03302159905433655,-0.11941614001989365
1772457581246039000,0.2070390625,0.07648918032646179,-0.02044934779405594,-0.0910785123705864
1772457581256108000,0.21710791015625,0.06530443578958511,0.0010631339391693473,-0.06338643282651901
1772457581266176300,0.22717626953125,0.06157228350639343,-0.0025600967928767204,-0.05270502343773842
1772457581276245000,0.237244873046875,0.06390202045440674,-0.021400364115834236,-0.05468348413705826
1772457581286314200,0.247314208984375,0.07007815688848495,-0.01992896758019924,-0.060626327991485596
1772457581296383200,0.25738330078125,0.07124461978673935,-0.0002926813904196024,-0.051901012659072876
1772457581306451200,0.267451171875,0.06380508095026016,0.01895291917026043,-0.03759424760937691
1772457581316520200,0.277520263671875,0.05337773635983467,0.020251208916306496,-0.017605092376470566
1772457581326589200,0.287589111328125,0.047021303325891495,-0.00384453940205276,-0.007711981888860464
1772457581336657200,0.2976572265625,0.048838645219802856,-0.03810450807213783,0.002776611829176545
1772457581346726100,0.30772607421875,0.05161871761083603,-0.05284057930111885,0.008652610704302788
1772457581356795100,0.317795166015625,0.04786233231425285,-0.03894367069005966,0.02064615674316883
1772457581366864100,0.327864013671875,0.0494501069188118,-0.007291468791663647,0.02497033029794693
1772457581376932000,0.33793212890625,0.04304813593626022,0.008281898684799671,0.028417259454727173
1772457581387001000,0.3480009765625,0.041850775480270386,0.018182998523116112,0.02634745091199875
1772457581397070000,0.358070068359375,0.04338023066520691,0.013035374693572521,0.0237567275762558
1772457581407139000,0.36813916015625,0.04685911908745766,-0.006658968050032854,0.013610617257654667
1772457581417207300,0.378207275390625,0.049668487161397934,-0.02075667679309845,0.009484848007559776
1772457581427276000,0.388276123046875,0.044917941093444824,-0.01955718919634819,0.006807838566601276
1772457581437345000,0.398344970703125,0.03602857515215874,-0.0028626318089663982,0.012114985845983028
1772457581447413200,0.408413330078125,0.027941886335611343,0.018936140462756157,0.018678080290555954
1772457581457482000,0.41848193359375,0.025020664557814598,0.026553846895694733,0.014613830484449863
1772457581467551200,0.42855126953125,0.0268944650888443,-0.0032530513126403093,0.011385812424123287
1772457581477620200,0.4386201171875,0.028203142806887627,-0.022820094600319862,0.002630404196679592
1772457581487688200,0.448688232421875,0.0321882963180542,-0.027900340035557747,-0.002123604528605938
1772457581497757200,0.458757080078125,0.03334011510014534,-0.033000025898218155,-0.013044695369899273
1772457581507826200,0.468826171875,0.03274489566683769,-0.029271336272358894,-0.031977105885744095
1772457581517895200,0.478895263671875,0.036730051040649414,-0.025853434577584267,-0.0598745197057724
1772457581527963100,0.488963134765625,0.048122256994247437,-0.033001624047756195,-0.1091291531920433
1772457581538032000,0.4990322265625,0.06756678968667984,-0.0584300197660923,-0.16407975554466248
1772457581548101000,0.50910107421875,0.07541219890117645,-0.07694405317306519,-0.21101343631744385
1772457581558169000,0.519169189453125,0.0716659277677536,-0.05252446234226227,-0.23957796394824982
1772457581568238000,0.529238037109375,0.056527458131313324,-0.043351735919713974,-0.24771445989608765
1772457581578307000,0.53930712890625,0.03507037088274956,-0.07130001485347748,-0.24461108446121216
1772457581588376000,0.5493759765625,0.02015027590095997,-0.10018332302570343,-0.23772281408309937
1772457581598444300,0.5594443359375,0.014709969982504845,-0.10836242884397507,-0.2220620959997177
1772457581608513000,0.569512939453125,0.009437177330255508,-0.07770438492298126,-0.20023216307163239
1772457581618582300,0.579582275390625,-0.0006761765689589083,-0.04692170396447182,-0.17642030119895935
1772457581628650200,0.589650146484375,-0.019089804962277412,-0.04957980290055275,-0.1640579104423523
1772457581638719000,0.599718994140625,-0.03434252738952637,-0.05949368700385094,-0.16053561866283417
1772457581648788200,0.609788330078125,-0.03858307749032974,-0.07407902181148529,-0.16252286732196808
1772457581658857200,0.619857177734375,-0.02948545478284359,-0.06431028246879578,-0.15709960460662842
1772457581668925000,0.629925048828125,-0.022821692749857903,-0.029158949851989746,-0.1339074671268463
1772457581678994200,0.639994140625,-0.02305232174694538,0.007960987277328968,-0.1056705042719841
1772457581689063200,0.650063232421875,-0.028209267184138298,0.020433902740478516,-0.0738728940486908
1772457581699131100,0.660131103515625,-0.03374038636684418,-0.0021971079986542463,-0.04825408011674881
1772457581709200100,0.6702001953125,-0.03584960848093033,-0.032219722867012024,-0.021395569667220116
1772457581719269000,0.68026904296875,-0.037159886211156845,-0.04971109703183174,-0.001079645473510027
1772457581729338000,0.690338134765625,-0.04156582057476044,-0.056419335305690765,0.020846426486968994
1772457581739406000,0.700406005859375,-0.042499788105487823,-0.05194469168782234,0.03127323463559151
1772457581749475300,0.710475341796875,-0.03870824724435806,-0.05091617628931999,0.03518621623516083
1772457581759544000,0.7205439453125,-0.03479313477873802,-0.040237169712781906,0.043788228183984756
1772457581769613000,0.730613037109375,-0.024054203182458878,-0.03208256885409355,0.04283668100833893
1772457581779681300,0.740681396484375,-0.013490241952240467,-0.013529391027987003,0.04270991310477257
1772457581789750000,0.75075,-0.0017217335989698768,0.02117825485765934,0.044686511158943176
1772457581799819300,0.7608193359375,0.008241684176027775,0.03375769779086113,0.051364921033382416
1772457581809887200,0.77088720703125,0.01269768550992012,0.02652961201965809,0.05473914369940758
1772457581819956000,0.7809560546875,0.01828819327056408,0.015232215635478497,0.06249932944774628
1772457581830025200,0.791025146484375,0.021373199298977852,-0.01158421766012907,0.06416114419698715
1772457581840094200,0.80109423828125,0.02762550301849842,-0.03185300529003143,0.0592886246740818
1772457581850162000,0.811161865234375,0.031919848173856735,-0.02274525910615921,0.057924553751945496
1772457581860231200,0.821231201171875,0.034679949283599854,0.005833654198795557,0.06639154255390167
1772457581870300200,0.831300048828125,0.03399099037051201,0.016860472038388252,0.06964699178934097
1772457581880368000,0.8413681640625,0.03442801535129547,-0.005474127363413572,0.06338562816381454
1772457581890437000,0.85143701171875,0.03484613075852394,-0.04193147271871567,0.05479959771037102
1772457581900506000,0.861506103515625,0.041844651103019714,-0.06939025968313217,0.04384894669055939
1772457581910575000,0.8715751953125,0.03928934782743454,-0.08182083070278168,0.03433933109045029
1772457581920643000,0.88164306640625,0.03696014732122421,-0.07019879668951035,0.024943700060248375
1772457581930712300,0.89171240234375,0.03111957013607025,-0.04932254180312157,0.014308098703622818
1772457581940781000,0.901781005859375,0.018867164850234985,-0.027291009202599525,0.014707573689520359
1772457581950849000,0.91184912109375,0.0062584285624325275,-0.019098060205578804,0.019149726256728172
1772457581960918300,0.921918212890625,-0.0046847667545080185,-0.01942642778158188,0.0162452831864357
1772457581970987000,0.931987060546875,-0.008254733867943287,-0.01582823134958744,0.016822656616568565
1772457581981057000,0.94205712890625,-0.013495302759110928,-0.009301622398197651,0.017436247318983078
1772457581991125000,0.952125,-0.01889113336801529,-0.006225405260920525,0.015602129511535168
1772457582001194000,0.962194091796875,-0.025254489853978157,-0.018975023180246353,0.011530954390764236
1772457582011263000,0.972262939453125,-0.028432440012693405,-0.02641775831580162,0.0008916263468563557
1772457582021331000,0.9823310546875,-0.032397620379924774,-0.030411168932914734,-0.0004743089957628399
1772457582031400000,0.99239990234375,-0.03007614240050316,-0.02707529254257679,-0.0037862160243093967
1772457582041469200,1.00246923828125,-0.028002340346574783,-0.012518188916146755,-0.006945790257304907
1772457582051538000,1.012537841796875,-0.02268720231950283,0.009695770218968391,-0.008741027675569057
1772457582061606000,1.02260595703125,-0.019149459898471832,0.02310105785727501,-0.0027438548859208822
1772457582071675100,1.032675048828125,-0.01383991539478302,0.022231802344322205,0.002239984693005681
1772457582081744000,1.042743896484375,-0.01561384741216898,0.02533172257244587,0.012822587974369526
1772457582091813000,1.052813232421875,-0.018863968551158905,0.01648869551718235,0.01967889629304409
1772457582101881000,1.062881103515625,-0.01954946666955948,0.008539692498743534,0.022890402004122734
1772457582111949800,1.07294970703125,-0.01774650625884533,-0.002198439557105303,0.02189757488667965
1772457582122019000,1.08301904296875,-0.0028418591246008873,-0.005794506054371595,0.014055897481739521
1772457582132087000,1.093087158203125,0.009492571465671062,0.0010972223244607449,0.007428887765854597
1772457582142156000,1.103156005859375,0.01824318617582321,0.013165070675313473,0.018930546939373016
1772457582152225000,1.11322509765625,0.02334660105407238,0.021676799282431602,0.017709754407405853
1772457582162294000,1.1232939453125,0.020715665072202682,0.017361413687467575,0.017854630947113037
1772457582172362000,1.133362060546875,0.020495422184467316,0.0049159289337694645,0.021941784769296646
1772457582182431000,1.143430908203125,0.024884311482310295,-0.005239769350737333,0.019210712984204292
1772457582192500200,1.153500244140625,0.027185814455151558,0.0012090750969946384,0.028685707598924637
1772457582202568000,1.16356787109375,0.028209533542394638,0.030943801626563072,0.05055158957839012
1772457582212637000,1.173636962890625,0.025583656504750252,0.0550435446202755,0.07594190537929535
1772457582222706200,1.1837060546875,0.019293803721666336,0.049136120826005936,0.08715087920427322
1772457582232775000,1.19377490234375,0.015679894015192986,0.02232900820672512,0.0924479067325592
1772457582242843000,1.2038427734375,0.01007820013910532,0.015787752345204353,0.09276881814002991
1772457582252912000,1.213912109375,-0.00009640643111197278,0.038912512362003326,0.1022760346531868
1772457582262980900,1.22398095703125,-0.005261607468128204,0.06284021586179733,0.11593671888113022
1772457582273049000,1.234049072265625,-0.0070525831542909145,0.06792925298213959,0.1293686479330063
1772457582283118000,1.2441181640625,-0.005019259639084339,0.07039587199687958,0.1385325789451599
1772457582293186800,1.254186767578125,0.0013393036788329482,0.05880339443683624,0.140616774559021
1772457582303256000,1.264256103515625,0.009995908476412296,0.033797379583120346,0.12444259226322174
1772457582313324000,1.274323974609375,0.01251951977610588,0.02106666937470436,0.10415782779455185
1772457582323393000,1.28439306640625,0.015392271801829338,0.023318905383348465,0.08816634118556976
1772457582333462000,1.2944619140625,0.017116935923695564,0.028730981051921844,0.08344269543886185
1772457582343530000,1.304530029296875,0.017132380977272987,0.030913973227143288,0.08056088536977768
1772457582353599000,1.314598876953125,0.030060430988669395,0.014394918456673622,0.07745431363582611
1772457582363668000,1.32466796875,0.038117825984954834,-0.0023033679462969303,0.0665164440870285
1772457582373737200,1.3347373046875,0.043598342686891556,-0.017466075718402863,0.05125013738870621
1772457582383805000,1.344804931640625,0.04649772867560387,-0.023268038406968117,0.04200417548418045
1772457582393874000,1.3548740234375,0.04403962939977646,-0.010889398865401745,0.03838813677430153
1772457582403943200,1.364943115234375,0.04241323843598366,0.0023430490400642157,0.03880199044942856
1772457582414012000,1.375011962890625,0.042205244302749634,-0.0010663296561688185,0.032227978110313416
1772457582424080000,1.385079833984375,0.041735995560884476,-0.01666206680238247,0.01847381517291069
1772457582434149000,1.395149169921875,0.04066327214241028,-0.026895796880126,0.010105364955961704
1772457582444217900,1.4052177734375,0.034383006393909454,-0.015670837834477425,0.007664311211556196
1772457582454286000,1.4152861328125,0.01998942159116268,0.006381732877343893,0.00746111199259758
1772457582464355000,1.42535498046875,0.0068299430422484875,0.0243732500821352,0.009074721485376358
1772457582474424000,1.435424072265625,-0.004693022463470697,0.02003416232764721,0.00564004248008132
1772457582484493000,1.4454931640625,-0.007013434544205666,-0.007930094376206398,-0.005026450380682945
1772457582494561000,1.45556103515625,-0.004831773228943348,-0.03605520725250244,-0.020803015679121017
1772457582504630000,1.465630126953125,-0.0014077469240874052,-0.042516302317380905,-0.02823003940284252
1772457582514699000,1.475698974609375,-0.0026048377621918917,-0.01275654137134552,-0.03187750652432442
1772457582524767000,1.48576708984375,-0.006703975144773722,0.031019167974591255,-0.027941886335611343
1772457582534836000,1.4958359375,-0.012350142933428288,0.05379265919327736,-0.020783042535185814
1772457582544905000,1.505905029296875,-0.019690081477165222,0.04535549879074097,-0.018761437386274338
1772457582554974000,1.515973876953125,-0.016235163435339928,0.020254671573638916,-0.010600180365145206
1772457582565042000,1.5260419921875,-0.019408052787184715,-0.003233077470213175,-0.0024767396971583366
1772457582575111000,1.53611083984375,-0.023447003215551376,-0.023555658757686615,0.007980428636074066
1772457582585180200,1.54618017578125,-0.025351695716381073,-0.01732093282043934,0.01619015447795391
1772457582595247900,1.556247802734375,-0.027392741292715073,0.009385512210428715,0.023681893944740295
1772457582605317000,1.566317138671875,-0.024165790528059006,0.02678634040057659,0.023205986246466637
1772457582615386000,1.57638623046875,-0.0193121787160635,0.02220357209444046,0.016206134110689163
1772457582625454800,1.586454833984375,-0.009302421472966671,0.0024711471050977707,0.00669465446844697
1772457582635523000,1.596523193359375,-0.01089552417397499,-0.007992146536707878,0.002261822810396552
1772457582645592000,1.606592041015625,-0.009760751388967037,0.0011414308100938797,0.008074438199400902
1772457582655661000,1.6166611328125,-0.011037470772862434,0.006539924535900354,0.02191009186208248
1772457582665729000,1.62672900390625,-0.014098774641752243,0.012194348499178886,0.03480006009340286
1772457582675798000,1.636798095703125,-0.01489585917443037,0.0037531929556280375,0.03964408114552498
1772457582685867000,1.646866943359375,-0.013085175305604935,-0.01745409145951271,0.04460342228412628
1772457582695936000,1.65693603515625,-0.012181565165519714,-0.032594162970781326,0.048538774251937866
1772457582706004000,1.66700390625,-0.017647702246904373,-0.021639514714479446,0.04192348197102547
1772457582716073000,1.677072998046875,-0.020383035764098167,-0.0018192053539678454,0.03995300829410553
1772457582726142000,1.687141845703125,-0.025164475664496422,0.015395201742649078,0.034683942794799805
1772457582736211000,1.6972109375,-0.02522439695894718,0.0179398525506258,0.030712105333805084
1772457582746279000,1.70727880859375,-0.02467605099081993,0.0019025622168555856,0.023630494251847267
1772457582756348000,1.717347900390625,-0.015179485082626343,-0.0034045851789414883,0.011379154399037361
1772457582766417200,1.727417236328125,-0.013094763271510601,-0.0018194715958088636,-0.0003486077766865492
1772457582776484900,1.73748486328125,-0.014079599641263485,0.0003347593592479825,-0.017179785296320915
1772457582786554000,1.74755419921875,-0.010832141153514385,-0.00009827064059209079,-0.029394639655947685
1772457582796623000,1.757623046875,-0.01407560519874096,-0.01002147514373064,-0.04212268441915512
1772457582806692000,1.767692138671875,-0.01660960353910923,-0.029953105375170708,-0.05205148458480835
1772457582816760000,1.777760009765625,-0.011777829378843307,-0.038189731538295746,-0.056587379425764084
1772457582826829000,1.7878291015625,-0.00794181227684021,-0.01667245291173458,-0.048831187188625336
1772457582836898000,1.79789794921875,-0.005607551895081997,0.01589134894311428,-0.034260500222444534
1772457582846966000,1.807966064453125,-0.005878129042685032,0.030883081257343292,-0.021752167493104935
1772457582857035000,1.818034912109375,-0.003861583536490798,0.021083980798721313,-0.013768009841442108
1772457582867104000,1.82810400390625,-0.004099137615412474,-0.0024343954864889383,-0.014147510752081871
1772457582877173000,1.838173095703125,-0.001234641415067017,-0.019283948466181755,-0.01721440628170967
1772457582887241200,1.8482412109375,-0.0025798040442168713,-0.011524297297000885,-0.012164787389338017
1772457582897310000,1.85831005859375,-0.007084008306264877,0.005339904222637415,-0.008502141572535038
1772457582907379000,1.86837890625,-0.007051517721265554,0.011755991727113724,-0.006053365301340818
1772457582917447200,1.878447265625,-0.007561513222754002,0.006854710169136524,-0.007543403655290604
1772457582927516000,1.888515869140625,-0.009518936276435852,-0.011089136824011803,-0.01443912647664547
1772457582937585200,1.898585205078125,-0.00845660176128149,-0.01654888316988945,-0.022172946482896805
1772457582947654000,1.90865380859375,-0.0073077138513326645,-0.01188169326633215,-0.02244485542178154
1772457582957721900,1.918721923828125,-0.011779960244894028,0.005507417023181915,-0.018143316730856895
1772457582967791000,1.928791015625,-0.020563332363963127,0.018810972571372986,0.001862348522990942
1772457582977860000,1.938860107421875,-0.026248915120959282,0.020350012928247452,0.015247662551701069
1772457582987927300,1.94892724609375,-0.02798236533999443,0.011563711799681187,0.027420172467827797
1772457582997996000,1.95899609375,-0.028121914714574814,0.012174108065664768,0.030904652550816536
1772457583008065300,1.969065185546875,-0.02774907276034355,0.0015009575290605426,0.02105894684791565
1772457583018134000,1.979134033203125,-0.030316893011331558,-0.012232164852321148,0.004274107050150633
1772457583028202000,1.989201904296875,-0.030520359054207802,-0.01962057314813137,-0.0105328019708395
1772457583038271200,1.999271240234375,-0.027453461661934853,-0.00794287770986557,-0.022050973027944565
1772457583048340000,2.009340087890625,-0.027759458869695663,0.006665891967713833,-0.025914154946804047
1772457583058408000,2.019407958984375,-0.025473933666944504,0.006411560345441103,-0.024392157793045044
1772457583068477200,2.029477294921875,-0.025081651285290718,0.0007416903390549123,-0.01589374616742134
1772457583078546000,2.0395458984375,-0.024578047916293144,0.0001179780374513939,-0.002159557305276394
1772457583088615200,2.049615234375,-0.025104554370045662,-0.007389206904917955,0.007223025429993868
1772457583098683100,2.05968310546875,-0.02804681472480297,-0.016143815591931343,0.01570066623389721
1772457583108752100,2.069752197265625,-0.028388764709234238,-0.020237093791365623,0.01631665602326393
1772457583118821000,2.079821044921875,-0.02580389939248562,-0.018336396664381027,0.012034025974571705
1772457583128890000,2.08989013671875,-0.018795792013406754,-0.010645986534655094,0.005274390336126089
1772457583138958300,2.099958251953125,-0.015416773036122322,-0.007921040058135986,0.0005363606614992023
1772457583149027000,2.110027099609375,-0.015929963439702988,-0.013442039489746094,-0.008565790951251984
1772457583159096300,2.120096435546875,-0.013541375286877155,-0.01763412170112133,-0.013275058940052986
1772457583169164300,2.130164306640625,-0.019538547843694687,-0.012411662377417088,-0.019420303404331207
1772457583179233000,2.14023291015625,-0.023203855380415916,0.0035891421139240265,-0.016214389353990555
1772457583189302300,2.15030224609375,-0.028600752353668213,0.008866195566952229,-0.00887711439281702
1772457583199371000,2.16037109375,-0.03196512162685394,-0.0019150790758430958,-0.0036791570018976927
1772457583209439000,2.17043896484375,-0.024284034967422485,-0.016222380101680756,-0.0046629286371171474
1772457583219508200,2.18050830078125,-0.019571570679545403,-0.018994729965925217,-0.01486683078110218
1772457583229577000,2.190576904296875,-0.017947042360901833,-0.02172233909368515,-0.024982847273349762
1772457583239645200,2.200645263671875,-0.023299729451537132,-0.018955048173666,-0.031871646642684937
1772457583249714200,2.210714111328125,-0.03368818759918213,-0.006352970842272043,-0.024473916739225388
1772457583259783000,2.220782958984375,-0.042265430092811584,0.011707788333296776,-0.015906527638435364
1772457583269852200,2.23085205078125,-0.047375503927469254,0.026521887630224228,-0.0022354573011398315
1772457583279920000,2.240920166015625,-0.0518120639026165,0.027537085115909576,0.012411129660904408
1772457583289989000,2.250989013671875,-0.04415813833475113,0.004836300387978554,0.02177560329437256
1772457583300058000,2.26105810546875,-0.03755722939968109,-0.0151017215102911,0.028861476108431816
1772457583310126000,2.2711259765625,-0.03229295834898949,-0.014755776152014732,0.03916524723172188
1772457583320195000,2.281195068359375,-0.029675869271159172,-0.007787881884723902,0.05152364447712898
1772457583330264000,2.29126416015625,-0.024951688945293427,-0.01458799745887518,0.05347973480820656
1772457583340333300,2.301333251953125,-0.025286447256803513,-0.02443397045135498,0.05295749008655548
1772457583350401300,2.3114013671875,-0.01847221702337265,-0.03435690701007843,0.04211709275841713
1772457583360470000,2.321469970703125,-0.013620204292237759,-0.04530782625079155,0.0295467060059309
1772457583370539300,2.331539306640625,-0.009987386874854565,-0.037890657782554626,0.02473464049398899
1772457583380608000,2.34160791015625,-0.0032352081034332514,-0.025480059906840324,0.015422365628182888
1772457583390676000,2.351676025390625,-0.005081044975668192,-0.01721280813217163,0.004977980628609657
1772457583400745200,2.3617451171875,-0.01059245690703392,-0.002186721656471491,0.012492888607084751
1772457583410814000,2.37181396484375,-0.019156383350491524,0.0030477214604616165,0.016929449513554573
1772457583420882200,2.381882080078125,-0.024947160854935646,-0.0032887374982237816,0.0226224884390831
1772457583430951200,2.391951171875,-0.029510222375392914,-0.02846359834074974,0.01890365034341812
1772457583441020200,2.402020263671875,-0.031264446675777435,-0.04638267681002617,0.015134744346141815
1772457583451089200,2.412089111328125,-0.030277211219072342,-0.0432761013507843,0.01344576757401228
1772457583461157000,2.4221572265625,-0.026322949677705765,-0.02580389939248562,0.015270032919943333
1772457583471226000,2.43222607421875,-0.024413730949163437,-0.020543890073895454,0.019837087020277977
1772457583481295000,2.442295166015625,-0.02401558682322502,-0.0201052688062191,0.014112889766693115
1772457583491363000,2.452363037109375,-0.02286350354552269,-0.02142326720058918,0.016577910631895065
1772457583501432000,2.46243212890625,-0.027043601498007774,-0.018704446032643318,0.012153602205216885
1772457583511501000,2.4725009765625,-0.024703215807676315,-0.011866779066622257,0.00714712543413043
1772457583521570300,2.4825703125,-0.024380972608923912,0.00011691277177305892,0.008283495903015137
1772457583531638300,2.49263818359375,-0.024521054700016975,0.005404352676123381,0.009305351413786411
1772457583541707000,2.50270703125,-0.022278141230344772,-0.004974252078682184,0.011005779728293419
1772457583551776300,2.5127763671875,-0.019753465428948402,-0.009690710343420506,0.012268383987247944
1772457583561844200,2.52284423828125,-0.013521933928132057,-0.01558348722755909,0.01125132292509079
1772457583571913200,2.532913330078125,-0.005727394018322229,-0.02280518040060997,0.004515389446169138
1772457583581982200,2.542982177734375,0.0014809839194640517,-0.026634274050593376,-0.0029577065724879503
1772457583592051000,2.553051025390625,0.00771650904789567,-0.007992412894964218,-0.005892510060220957
1772457583602119200,2.563119140625,0.005705023650079966,0.014971492812037468,-0.010979946702718735
1772457583612188200,2.573188232421875,0.008928514085710049,0.02754986844956875,-0.005781989078968763
1772457583622257200,2.583257080078125,0.009753827005624771,0.025053953751921654,-0.0015675366157665849
1772457583632325000,2.5933251953125,0.015607455745339394,0.009383381344377995,0.014363226480782032
1772457583642394000,2.60339404296875,0.014297712594270706,-0.004561462439596653,0.027101125568151474
1772457583652463000,2.613463134765625,0.010982077568769455,-0.004264253657311201,0.03975993022322655
1772457583662532000,2.623531982421875,0.006755108013749123,-0.006798517424613237,0.04759468138217926
1772457583672600000,2.63360009765625,0.0011587414192035794,-0.0024466461036354303,0.04490835219621658
1772457583682669000,2.6436689453125,0.0008106662426143885,0.004178233444690704,0.03888507932424545
1772457583692738000,2.653738037109375,0.006223541218787432,0.002603239845484495,0.04175383970141411
1772457583702806300,2.66380615234375,0.010713363997638226,0.011722169816493988,0.036917537450790405
1772457583712875000,2.673875,0.011109642684459686,0.027363181114196777,0.03821689262986183
1772457583722944000,2.683944091796875,0.006668289192020893,0.035772912204265594,0.03898468241095543
1772457583733013200,2.69401318359375,0.0006173207075335085,0.017100956290960312,0.026387665420770645
1772457583743081200,2.704081298828125,-0.0020788635592907667,-0.00222001108340919,0.019452793523669243
1772457583753150200,2.714150146484375,0.003275954397395253,-0.015419969335198402,0.0037649108562618494
1772457583763219200,2.72421923828125,0.007168963085860014,-0.006654706783592701,-0.004255465231835842
1772457583773288200,2.7342880859375,0.002880475018173456,0.010187656618654728,-0.004239486064761877
1772457583783356200,2.744356201171875,0.002296443795785308,0.021209415048360825,0.0005792375304736197
1772457583793425200,2.754425048828125,0.0002511360798962414,0.016115853562951088,0.0057223341427743435
1772457583803494100,2.764494140625,0.0024855281226336956,0.012750149704515934,0.011403389275074005
1772457583813562000,2.77456201171875,0.0048424256965518,0.014348579570651054,0.019535085186362267
1772457583823631000,2.784631103515625,0.0036855486687272787,0.008555138483643532,0.026627084240317345
1772457583833700000,2.7947001953125,0.003296993440017104,-0.00236195744946599,0.03213130310177803
1772457583843769000,2.80476904296875,-0.003826163476333022,0.0039023298304528,0.03876204416155815
1772457583853837300,2.81483740234375,-0.009183910675346851,0.01236292626708746,0.03688345104455948
1772457583863906000,2.824906005859375,-0.00899855513125658,0.018315358087420464,0.04032371938228607
1772457583873975000,2.83497509765625,-0.010517355985939503,0.021189972758293152,0.04127579927444458
1772457583884043300,2.845043212890625,-0.008130097761750221,0.009736250154674053,0.03971199318766594
1772457583894112000,2.855112060546875,-0.006332464516162872,-0.00968804769217968,0.04114104434847832
1772457583904181200,2.86518115234375,-0.002020540414378047,-0.01635580323636532,0.03608929365873337
1772457583914250200,2.875250244140625,-0.006397445686161518,0.008762066252529621,0.03976791724562645
1772457583924318000,2.88531787109375,-0.007277087774127722,0.036371324211359024,0.04641250520944595
1772457583934387200,2.89538720703125,-0.0031960594933480024,0.04104543849825859,0.03923502191901207
1772457583944456200,2.905456298828125,-0.001945439144037664,0.03471776843070984,0.040893103927373886
1772457583954524200,2.915524169921875,0.008759935386478901,0.02076679654419422,0.03329510614275932
1772457583964593200,2.92559326171875,0.01248143706470728,0.010891263373196125,0.027056118473410606
1772457583974662100,2.935662109375,0.011329620145261288,-0.0017473000334575772,0.016812268644571304
1772457583984731600,2.945731689453125,0.012242019176483154,-0.007786550559103489,0.010869958437979221
1772457583994799900,2.9557998046875,0.01570119895040989,0.0017989652696996927,0.0013222594279795885
1772457584004868900,2.965868896484375,0.014754178933799267,0.02533278614282608,0.0005083974683657289
1772457584014937900,2.975937744140625,0.017374197021126747,0.030540065839886665,-0.0009238505735993385
1772457584025005800,2.986005859375,0.01776221953332424,0.026199912652373314,0.003555319970473647
1772457584035074800,2.99607470703125,0.02460414543747902,0.014724884182214737,0.007453921716660261
1772457584045143800,3.006143798828125,0.028738437220454216,0.003931092098355293,0.0076115806587040424
1772457584055212800,3.016212890625,0.028240159153938293,-0.00424214918166399,0.008705607615411282
1772457584065280800,3.02628076171875,0.027657726779580116,-0.011391937732696533,0.00016325176693499088
1772457584075349800,3.036349853515625,0.02616955153644085,-0.0037441381718963385,-0.004172640852630138
1772457584085418800,3.046418701171875,0.020727382972836494,0.003658917034044862,0.0026764769572764635
1772457584095487000,3.056487060546875,0.009153018705546856,0.00612393906340003,0.00624058535322547
1772457584105555700,3.0665556640625,0.006744988262653351,0.0020596887916326523,0.011361843906342983
1772457584115624700,3.076624755859375,0.005761216394603252,-0.0027148264925926924,0.008153799921274185
1772457584125693700,3.086693603515625,0.005791310220956802,-0.004293548408895731,0.005356681998819113
1772457584135761700,3.09676171875,0.009916546754539013,0.0029917950741946697,-0.0015198660548776388
1772457584145831000,3.106830810546875,0.01209740899503231,0.016643958166241646,0.0001496696495451033
1772457584155899600,3.116899658203125,0.010231598280370235,0.02070634439587593,0.005900765769183636
1772457584165968600,3.12696875,0.006875749211758375,0.011196994222700596,0.007859786972403526
1772457584176036900,3.137036865234375,0.006254167295992374,-0.009415339678525925,0.003156378399580717
1772457584186105900,3.14710595703125,0.007239004597067833,-0.019725767895579338,0.003094326937571168
1772457584196174800,3.1571748046875,0.011025220155715942,-0.013611949048936367,-0.0015180017799139023
1772457584206242800,3.167242919921875,0.014169348403811455,0.007546066772192717,-0.004836566746234894
1772457584216311800,3.177311767578125,0.01823865808546543,0.027234284207224846,-0.006174805108457804
1772457584226380800,3.187380859375,0.020370518788695335,0.026148512959480286,-0.011894210241734982
1772457584236449800,3.19744970703125,0.022580409422516823,0.01038419734686613,-0.012591158971190453
1772457584246517800,3.207517822265625,0.022305838763713837,-0.0019795275293290615,-0.012486230581998825
1772457584256586800,3.217586669921875,0.02514689788222313,-0.005255215801298618,-0.013510216027498245
1772457584266655700,3.22765576171875,0.027115507051348686,0.0014626081101596355,-0.012051336467266083
1772457584276724000,3.237723876953125,0.022224612534046173,0.008670720271766186,-0.0052110073156654835
1772457584286792700,3.247792724609375,0.015916649252176285,0.0075663067400455475,0.007790811359882355
1772457584296861700,3.25786181640625,0.015193333849310875,0.0008133294177241623,0.005426190793514252
1772457584306930700,3.2679306640625,0.013880661688745022,-0.005066131241619587,0.002989931032061577
1772457584316998700,3.27799853515625,0.014828214421868324,-0.015589612536132336,-0.0027273432351648808
1772457584327068000,3.28806787109375,0.01483274158090353,-0.009695503860712051,-0.00752103328704834
1772457584337136600,3.29813671875,0.014275075867772102,0.010817494243383408,-0.00672421557828784
1772457584347204600,3.30820458984375,0.01067821029573679,0.018152372911572456,-0.0022032330743968487
1772457584357273900,3.31827392578125,0.011718175373971462,0.01654888316988945,-0.004090881906449795
1772457584367342600,3.328342529296875,0.01324230246245861,0.005877064075320959,0.0013174657942727208
1772457584377411800,3.338411865234375,0.011994078755378723,-0.005034972447901964,0.00041731735109351575
1772457584387479800,3.348479736328125,0.009148224256932735,-0.020498083904385567,-0.003376089269295335
1772457584397548800,3.358548828125,0.010880877263844013,-0.025078721344470978,-0.007788148242980242
1772457584407617800,3.36861767578125,0.010865696705877781,-0.013741645030677319,-0.013364008627831936
1772457584417685800,3.378685791015625,0.009343966841697693,0.0065130265429615974,-0.012707805261015892
1772457584427754800,3.388754638671875,0.009072057902812958,0.028852153569459915,-0.009363940916955471
1772457584437823700,3.39882373046875,0.005051483865827322,0.04104277491569519,0.0022248048335313797
1772457584447892700,3.408892822265625,0.00011238539445912465,0.043528567999601364,0.013913152739405632
1772457584457961000,3.4189609375,-0.004391286056488752,0.019989952445030212,0.01721147820353508
1772457584468029700,3.42902978515625,-0.008978581055998802,-0.011975969187915325,0.008223309181630611
1772457584478099000,3.439098876953125,-0.004382497631013393,-0.036801956593990326,-0.008594021201133728
1772457584488167000,3.4491669921875,0.0018647453980520368,-0.030040455982089043,-0.030496390536427498
1772457584498235600,3.459235595703125,0.005516738165169954,0.005077849142253399,-0.03512709587812424
1772457584508305000,3.469304931640625,0.008068312890827656,0.03880012780427933,-0.03887735679745674
1772457584518373600,3.47937353515625,0.008021707646548748,0.04501008614897728,-0.03883608058094978
1772457584528441600,3.489441650390625,0.007685616612434387,0.029109682887792587,-0.024405740201473236
1772457584538510800,3.4995107421875,0.011442803777754307,0.008037686347961426,-0.01492408849298954
1772457584548579600,3.50957958984375,0.00863316934555769,-0.015978166833519936,-0.000006924218723725062
1772457584558647800,3.519647705078125,0.01264149323105812,-0.002822417998686433,0.008464591577649117
1772457584568716800,3.529716796875,0.01254908088594675,0.0183491799980402,0.01284602377563715
1772457584578785500,3.53978564453125,0.011064635589718819,0.028738703578710556,0.01064891554415226
1772457584588854800,3.549854736328125,0.014141385443508625,0.0277959443628788,0.004585430957376957
1772457584598922800,3.5599228515625,0.014966699294745922,0.02755892276763916,-0.004767058417201042
1772457584608991700,3.56999169921875,0.017851701006293297,0.030242590233683586,-0.012063587084412575
1772457584619060700,3.580060791015625,0.021942583844065666,0.031435154378414154,-0.012864399701356888
1772457584629129700,3.590129638671875,0.020775053650140762,0.019181950017809868,-0.01079538930207491
1772457584639198000,3.600197998046875,0.01938062161207199,0.014298245310783386,0.00044368262751959264
1772457584649266700,3.6102666015625,0.015389342792332172,0.013738981448113918,0.0145286088809371
1772457584659336000,3.6203359375,0.013015134260058403,0.006851514335721731,0.02996109426021576
1772457584669404000,3.63040380859375,0.009689378552138805,-0.01197144202888012,0.035826705396175385
1772457584679472600,3.64047265625,0.01423539500683546,-0.022663500159978867,0.03267085924744606
1772457584689542000,3.6505419921875,0.015744075179100037,-0.020669858902692795,0.029934994876384735
1772457584699610600,3.660610595703125,0.017587250098586082,-0.007636614143848419,0.02407390996813774
1772457584709678600,3.6706787109375,0.016024772077798843,0.012659602798521519,0.022295452654361725
1772457584719747800,3.680747802734375,0.011031878180801868,0.028245486319065094,0.02688860520720482
1772457584729816600,3.690816650390625,0.006536728702485561,0.026373816654086113,0.029576268047094345
1772457584739884800,3.700884765625,0.007707454264163971,0.011414308100938797,0.03039572201669216
1772457584749953800,3.710953857421875,0.009969543665647507,-0.009498696774244308,0.0172604788094759
1772457584760022800,3.721022705078125,0.010902981273829937,-0.01619414985179901,0.01038393098860979
1772457584770091800,3.731091796875,0.016568057239055634,0.005765477195382118,0.006804909091442823
1772457584780159700,3.74115966796875,0.024081634357571602,0.032342493534088135,0.005510080140084028
1772457584790228700,3.751228759765625,0.032944634556770325,0.04905728995800018,0.0075668394565582275
1772457584800297700,3.761297607421875,0.04049443081021309,0.04393976181745529,0.010914965532720089
1772457584810365700,3.77136572265625,0.04374215379357338,0.029755499213933945,0.017164073884487152
1772457584820434700,3.7814345703125,0.04441726580262184,0.014074806123971939,0.025114940479397774
1772457584830503700,3.791503662109375,0.04962907359004021,0.0038863508962094784,0.027689950540661812
1772457584840573000,3.801572998046875,0.05752401426434517,0.004266384057700634,0.03087162971496582
1772457584850641000,3.811640869140625,0.0681052878499031,0.010771687142550945,0.03995327651500702
1772457584860709600,3.821709716796875,0.08618415147066116,0.023680562153458595,0.045223139226436615
1772457584870779000,3.83177880859375,0.09263858944177628,0.018459966406226158,0.04182707518339157
1772457584880846800,3.841846923828125,0.09457177668809891,0.005603823345154524,0.03768346458673477
1772457584890915800,3.851915771484375,0.09399121254682541,-0.004978513345122337,0.0368240624666214
1772457584900984800,3.86198486328125,0.08911895751953125,-0.011154383420944214,0.02642415091395378
1772457584911053600,3.872053466796875,0.079227976500988,-0.00675244489684701,0.025954103097319603
1772457584921121800,3.882121826171875,0.07104355096817017,0.0023121563717722893,0.03044951893389225
1772457584931190800,3.892190673828125,0.05829819291830063,-0.0051739891059696674,0.027775704860687256
1772457584941259800,3.902259765625,0.046302251517772675,-0.021407820284366608,0.021044032648205757
1772457584951327700,3.91232763671875,0.04229206219315529,-0.03045244701206684,0.017053019255399704
1772457584961396700,3.922396728515625,0.03851516917347908,-0.03099866211414337,0.013939517550170422
1772457584971465700,3.9324658203125,0.03167217597365379,-0.018214423209428787,0.0098052266985178
1772457584981534500,3.942534423828125,0.022541262209415436,-0.0026253440883010626,0.012411129660904408
1772457584991602400,3.9526025390625,0.014096910133957863,0.0019915117882192135,0.0037470676470547915
1772457585001671400,3.96267138671875,0.009325324557721615,-0.0008455536444671452,-0.006773217581212521
1772457585011738400,3.97273828125,0.009680590592324734,-0.002501773415133357,-0.012013785541057587
1772457585021807400,3.982807373046875,0.008143680170178413,-0.00777643034234643,-0.009550095535814762
1772457585031875300,3.992875244140625,0.005804892163723707,-0.012338957749307156,-0.010487262159585953
1772457585041944600,4.002944580078125,0.004031759686768055,-0.019648268818855286,-0.00529622845351696
1772457585052013300,4.013013427734375,0.0026285399217158556,-0.02172100730240345,-0.012089420109987259
1772457585062082300,4.023082275390625,0.003977164626121521,-0.03188123553991318,-0.021280521526932716
1772457585072150500,4.033150634765625,0.00806112214922905,-0.03875938057899475,-0.023078421130776405
1772457585082219300,4.04321923828125,0.0057468353770673275,-0.03592417761683464,-0.021526064723730087
1772457585092288500,4.05328857421875,0.0008024104172363877,-0.02538365311920643,-0.017910290509462357
1772457585102356500,4.0633564453125,0.0011371697764843702,-0.021087441593408585,-0.014396782033145428
1772457585112425200,4.07342529296875,-0.00017869810108095407,-0.01865251362323761,-0.011565576307475567
1772457585122494500,4.083494384765625,0.0034061830956488848,-0.023965254426002502,-0.01581970974802971
1772457585132563500,4.0935634765625,0.005459746345877647,-0.03573136404156685,-0.028322983533143997
1772457585142631200,4.103631103515625,0.0073623089119791985,-0.03225594013929367,-0.03443387523293495
1772457585152700400,4.113700439453125,0.00660384027287364,-0.01068034116178751,-0.03031955659389496
1772457585162769400,4.123769287109375,0.004584898240864277,0.011391405016183853,-0.016232233494520187
1772457585172837400,4.13383740234375,0.0006506102508865297,0.015505456365644932,0.00018722022650763392
1772457585182906400,4.14390625,0.0041398839093744755,0.01037620846182108,0.010078732855618
1772457585192975400,4.153975341796875,0.0018927085911855102,0.0012152004055678844,0.012170646339654922
1772457585203044400,4.16404443359375,0.004772384651005268,-0.006330600008368492,-0.0011941614793613553
1772457585213112300,4.1741123046875,0.004274906124919653,-0.006567355245351791,-0.013515808619558811
1772457585223181600,4.184181640625,0.006401706486940384,0.0018708707066252828,-0.028305940330028534
1772457585233250300,4.194250244140625,0.012162922881543636,0.017971277236938477,-0.0276795644313097
1772457585243318300,4.204318359375,0.013541908003389835,0.02665264904499054,-0.023507989943027496
1772457585253387500,4.214387451171875,0.011034808121621609,0.020412065088748932,-0.013511281460523605
1772457585263456300,4.224456298828125,0.00968325324356556,0.008696818724274635,-0.0036538569256663322
1772457585273525500,4.234525390625,0.00920228660106659,-0.0027020431589335203,-0.001695900922641158
1772457585283593500,4.244593505859375,0.016682041808962822,-0.002490321872755885,-0.006145510356873274
1772457585293662200,4.254662109375,0.01931644044816494,0.007949003018438816,-0.007620369084179401
1772457585303731500,4.2647314453125,0.02382410690188408,0.01333071943372488,-0.011401258409023285
1772457585313799400,4.27479931640625,0.021377727389335632,0.015401060692965984,-0.016981380060315132
1772457585323868200,4.2848681640625,0.021688517183065414,0.003169161733239889,-0.015222628600895405
1772457585333937400,4.2949375,0.020321249961853027,-0.010372213087975979,-0.01829591579735279
1772457585344006400,4.30500634765625,0.017885256558656693,-0.01912549138069153,-0.02695012465119362
1772457585354074400,4.315074462890625,0.019097261130809784,-0.023920778185129166,-0.03227538242936134
1772457585364143400,4.325143310546875,0.01889219880104065,-0.015724634751677513,-0.04181136190891266
1772457585374212600,4.335212646484375,0.018341723829507828,0.0006271744496189058,-0.04427531734108925
1772457585384280300,4.3452802734375,0.017102288082242012,0.011334413662552834,-0.04263987019658089
1772457585394349300,4.355349365234375,0.016291622072458267,0.00811891257762909,-0.0347883403301239
1772457585404418600,4.36541845703125,0.008221711032092571,0.00016884441720321774,-0.024562068283557892
1772457585414487300,4.3754873046875,0.0033896714448928833,-0.013585583306849003,-0.01212537195533514
1772457585424555300,4.38555517578125,-0.0008378304773941636,-0.018026137724518776,-0.0030799456872045994
1772457585434624500,4.39562451171875,-0.010351973585784435,-0.00379021093249321,0.009517605416476727
1772457585444693200,4.405693359375,-0.011532818898558617,0.01498054713010788,0.01660161279141903
1772457585454761500,4.415761474609375,-0.010219347663223743,0.013983460143208504,0.017522534355521202
1772457585464830500,4.42583056640625,-0.00688986387103796,-0.0043801008723676205,0.01518933940678835
1772457585474899200,4.435899169921875,-0.008829976432025433,-0.03349697217345238,0.00866273045539856
1772457585484968400,4.445968505859375,-0.0031292142812162638,-0.032885778695344925,0.0049308426678180695
1772457585495036400,4.456036376953125,-0.000966727442573756,-0.01407640427350998,0.00821105856448412
1772457585505105400,4.46610546875,-0.007093063089996576,0.01136903464794159,0.013923006132245064
1772457585515174400,4.47617431640625,-0.007326888851821423,0.0209518875926733,0.01732119917869568
1772457585525242400,4.486242431640625,-0.007660316303372383,0.009618538431823254,0.01444019190967083
1772457585535311400,4.496311279296875,-0.01594887301325798,-0.009948770515620708,0.006441387813538313
1772457585545380400,4.50638037109375,-0.015037006698548794,-0.028541363775730133,-0.002033855998888612
1772457585555449600,4.51644970703125,-0.014217551797628403,-0.03154461085796356,-0.009724798612296581
1772457585565517300,4.526517333984375,-0.014255634509027004,-0.021434718742966652,-0.016348080709576607
1772457585575586300,4.53658642578125,-0.0174410417675972,-0.004689826630055904,-0.01582263968884945
1772457585585655600,4.546655517578125,-0.017110010609030724,0.009976468048989773,-0.01648842915892601
1772457585595723300,4.55672314453125,-0.0183451846241951,0.010090184397995472,-0.02209172025322914
1772457585605792300,4.566792236328125,-0.015684420242905617,-0.0031814121175557375,-0.02383342757821083
1772457585615861500,4.576861572265625,-0.02400573343038559,-0.00957033596932888,-0.0254619512706995
1772457585625930200,4.58693017578125,-0.027050260454416275,-0.009119728580117226,-0.027939489111304283
1772457585635998500,4.59699853515625,-0.03407967463135719,-0.002170742489397526,-0.024686969816684723
1772457585646067500,4.6070673828125,-0.03051742911338806,0.012449745088815689,-0.023784425109624863
1772457585656136200,4.61713623046875,-0.027595940977334976,0.011989285238087177,-0.03140879049897194
1772457585666204400,4.627204345703125,-0.01690468192100525,0.0103154880926013,-0.03746641427278519
1772457585676273400,4.6372734375,-0.010249974206089973,0.021946577355265617,-0.03494466841220856
1772457585686342400,4.64734228515625,-0.006081328261643648,0.041496843099594116,-0.036246154457330704
1772457585696411400,4.657411376953125,-0.006494384724646807,0.06184046342968941,-0.030475616455078125
1772457585706479400,4.667479248046875,-0.01245214231312275,0.06421653926372528,-0.023556457832455635
1772457585716548400,4.67754833984375,-0.015250591561198235,0.052550558000802994,-0.022998793050646782
1772457585726617300,4.687617431640625,-0.011390605941414833,0.04049922153353691,-0.02160489372909069
1772457585736685300,4.697685302734375,-0.012298744171857834,0.02178359217941761,-0.021577198058366776
1772457585746754300,4.70775439453125,-0.014518755488097668,0.021559087559580803,-0.015995478257536888
1772457585756823300,4.7178232421875,-0.01798113062977791,0.029640449211001396,-0.0034730283077806234
1772457585766892500,4.727892578125,-0.02238493412733078,0.034280743449926376,0.007959389127790928
1772457585776960300,4.737960205078125,-0.027184482663869858,0.0225074402987957,0.013718741945922375
1772457585787029500,4.748029541015625,-0.026490196585655212,0.009878463111817837,0.01696300506591797
1772457585797098500,4.758098388671875,-0.027935760095715523,-0.0023726101499050856,0.015630358830094337
1772457585807166500,4.76816650390625,-0.028660407289862633,0.0023675502743571997,0.009094694629311562
1772457585817235500,4.7782353515625,-0.03248417377471924,0.01793106272816658,0.011032943613827229
1772457585827304400,4.788304443359375,-0.039748210459947586,0.029104622080922127,0.015104117803275585
1772457585837373400,4.79837353515625,-0.04344094917178154,0.021588915959000587,0.019848007708787918
1772457585847441400,4.80844140625,-0.04610384628176689,0.0023675502743571997,0.017484717071056366
1772457585857510400,4.818510498046875,-0.04686471074819565,-0.004692223388701677,0.00827710423618555
1772457585867579400,4.828579345703125,-0.04728708788752556,-0.00890854001045227,-0.0002609897928778082
1772457585877647400,4.8386474609375,-0.04256477206945419,-0.004838697146624327,-0.004457332659512758
1772457585887716400,4.84871630859375,-0.0385013185441494,0.011612447910010815,-0.0019233349012210965
1772457585897785300,4.858785400390625,-0.03032514825463295,0.02177560329437256,0.009294698014855385
1772457585907854300,4.868854248046875,-0.030789071694016457,0.025736521929502487,0.020068783313035965
1772457585917922600,4.878922607421875,-0.03671833500266075,0.004698082339018583,0.02978958748281002
1772457585927991300,4.8889912109375,-0.04247475415468216,-0.03127057105302811,0.02520948275923729
1772457585938060300,4.899060302734375,-0.04386385902762413,-0.06400028616189957,0.013938452117145061
1772457585948128500,4.90912841796875,-0.0444585457444191,-0.06676917523145676,-0.0031068436801433563
1772457585958197200,4.919197265625,-0.036379843950271606,-0.04216955602169037,-0.009542638435959816
1772457585968266500,4.9292666015625,-0.036307673901319504,-0.00626002624630928,-0.008203867822885513
1772457585978335500,4.93933544921875,-0.03965766355395317,0.02544810250401497,-0.005579056218266487
1772457585988404000,4.949404052734375,-0.04303029179573059,0.030849259346723557,0.00037444045301526785
1772457585998473000,4.959472900390625,-0.042327482253313065,0.010000701993703842,0.0011685950448736548
1772457586008542000,4.9695419921875,-0.04078498110175133,-0.01834305375814438,0.004850415047258139
1772457586018610000,4.97960986328125,-0.043239615857601166,-0.031068703159689903,0.006511428859084845
1772457586028679000,4.989678955078125,-0.03937004134058952,-0.0326162651181221,0.00589757040143013
1772457586038748000,4.999747802734375,-0.03856869786977768,-0.022166289389133453,0.005834985990077257
1772457586048817000,5.00981689453125,-0.032157402485609055,-0.004236290231347084,0.000045540054998127744
1772457586058885000,5.019885009765625,-0.02539883367717266,0.005167331546545029,0.0002865561400540173
1772457586068954000,5.0299541015625,-0.01901550218462944,0.009406019002199173,0.0013307816116139293
1772457586079023000,5.040023193359375,-0.015688149258494377,-0.004255198873579502,0.004573978949338198
1772457586089091000,5.050091064453125,-0.007531952112913132,-0.025051290169358253,0.0025683525018393993
1772457586099160000,5.06016015625,-0.0028429245576262474,-0.04035860672593117,0.003964648116379976
1772457586109229000,5.07022900390625,0.004216849338263273,-0.047867655754089355,-0.000696150294970721
1772457586119298000,5.080298095703125,0.005477855913341045,-0.04300658777356148,0.0003914846747647971
1772457586129366000,5.090365966796875,0.004479437135159969,-0.021619807928800583,0.001041562296450138
1772457586139435000,5.10043505859375,-0.0018024274613708258,0.002775812754407525,0.009698700159788132
1772457586149504000,5.11050390625,-0.003721501212567091,0.009377256035804749,0.01822454296052456
1772457586159572200,5.120572265625,-0.0076177059672772884,-0.003885818412527442,0.017046628519892693
1772457586169641000,5.130640869140625,-0.007762848399579525,-0.027098461985588074,0.02209065482020378
1772457586179710000,5.1407099609375,-0.0027861990965902805,-0.04532806575298309,0.017053551971912384
1772457586189779000,5.150779052734375,0.0007717840489931405,-0.03019784949719906,0.018219217658042908
1772457586199847000,5.160846923828125,0.0032735576387494802,0.003582217963412404,0.02797490917146206
1772457586209916200,5.170916259765625,-0.0004982774262316525,0.016044747084379196,0.03832342103123665
1772457586219985000,5.18098486328125,-0.0030005834996700287,0.007680024020373821,0.037031788378953934
1772457586230052900,5.191052978515625,-0.00481472909450531,-0.006882673595100641,0.036432843655347824
1772457586240122000,5.2011220703125,-0.007820372469723225,-0.012595952488481998,0.03013739548623562
1772457586250190800,5.21119091796875,-0.00999164767563343,-0.004478904418647289,0.016766196116805077
1772457586260260000,5.221260009765625,-0.01128168310970068,0.0012314456980675459,0.012984507717192173
1772457586270328000,5.231328125,-0.013563745655119419,-0.007275223266333342,0.007637679576873779
1772457586280397000,5.24139697265625,-0.012133361771702766,-0.010499779134988785,0.008327172137796879
1772457586290466000,5.251466064453125,-0.013206349685788155,-0.01152749266475439,0.008127701468765736
1772457586300534000,5.261533935546875,-0.011572499759495258,-0.004180363845080137,0.004010720644146204
1772457586310603000,5.27160302734375,-0.010445983149111271,0.006385727785527706,0.0031766186002641916
1772457586320672000,5.281672119140625,-0.01426522247493267,0.005352953914552927,-0.0015715312911197543
1772457586330741000,5.291740966796875,-0.014273744076490402,0.0010756507981568575,-0.010998855344951153
1772457586340809200,5.301809326171875,-0.014942198060452938,-0.025240907445549965,-0.013273727148771286
1772457586350878000,5.3118779296875,-0.013848970644176006,-0.03587491065263748,-0.014552577398717403
1772457586360947000,5.321947021484375,-0.014430338516831398,-0.024274446070194244,-0.0054544201120734215
1772457586371015200,5.33201513671875,-0.01600826159119606,-0.0081487400457263,-0.0030836742371320724
1772457586381084000,5.342083984375,-0.014243118464946747,0.00039974047103896737,0.00105301383882761
1772457586391153200,5.352153076171875,-0.016086824238300323,0.006871488410979509,-0.0010879012988880277
1772457586401222000,5.362221923828125,-0.013670005835592747,0.010898454114794731,-0.0018690064316615462
1772457586411289900,5.372289794921875,-0.010982876643538475,0.009461944922804832,0.002861832967028022
1772457586421359000,5.382359130859375,-0.006483998149633408,-0.005577458068728447,0.00392762990668416
1772457586431427800,5.392427734375,-0.005766808986663818,-0.006880542729049921,0.011443070136010647
1772457586441495800,5.402495849609375,-0.00276089902035892,-0.0014378406340256333,0.015956329181790352
1772457586451565000,5.41256494140625,-0.004741225857287645,0.002198173198848963,0.01834465190768242
1772457586461634000,5.422634033203125,-0.006904777605086565,0.002246642718091607,0.022698121145367622
1772457586471703000,5.432703125,-0.007682154420763254,-0.0025217472575604916,0.01347506232559681
1772457586481771000,5.44277099609375,-0.007330084685236216,-0.010153035633265972,0.009388442151248455
1772457586491840000,5.452840087890625,-0.006456035189330578,-0.012241220101714134,0.002883138135075569
1772457586501909000,5.462908935546875,-0.004097007215023041,-0.0073109096847474575,0.0007534082396887243
1772457586511977000,5.47297705078125,-0.0012354403734207153,-0.007935686968266964,-0.0026072347536683083
1772457586522046200,5.483046142578125,-0.0007882956997491419,0.00042024682625196874,-0.0011760519118979573
1772457586532115000,5.493114990234375,-0.008070443756878376,-0.002764893928542733,0.00475560687482357
1772457586542184200,5.50318408203125,-0.015362710691988468,-0.015059643425047398,0.0022160164080560207
1772457586552252200,5.513252197265625,-0.014793593436479568,-0.03405783697962761,0.002966228872537613
1772457586562321000,5.52332080078125,-0.012486763298511505,-0.03708851337432861,-0.005368399899452925
1772457586572390100,5.53339013671875,-0.004324707202613354,-0.01986105553805828,-0.011591142043471336
1772457586582458000,5.5434580078125,-0.0010705908061936498,0.0017068199813365936,-0.015006646513938904
1772457586592526800,5.55352685546875,-0.003261040663346648,0.021287444978952408,-0.010060623288154602
1772457586602596000,5.56359619140625,-0.005578789860010147,0.026135729625821114,-0.0008948221220634878
1772457586612664800,5.573664794921875,-0.01290408056229353,0.015034343115985394,0.015252189710736275
1772457586622733000,5.583733154296875,-0.014909174293279648,-0.0060270000249147415,0.02395220473408699
1772457586632802000,5.593802001953125,-0.018144914880394936,-0.020712202414870262,0.021472003310918808
1772457586642870800,5.603870849609375,-0.020320983603596687,-0.015668975189328194,0.01738990843296051
1772457586652939000,5.61393896484375,-0.021160678938031197,-0.0041127195581793785,0.006552441511303186
1772457586663008000,5.624008056640625,-0.017102021723985672,-0.013922473415732384,-0.010100305080413818
1772457586673077000,5.634076904296875,-0.008019310422241688,-0.016598951071500778,-0.0232376791536808
1772457586683146000,5.64414599609375,0.001972070662304759,-0.029751503840088844,-0.03451962769031525
1772457586693214000,5.6542138671875,0.009362875483930111,-0.04157460853457451,-0.045287054032087326
1772457586703283000,5.664282958984375,0.00911653321236372,-0.029703300446271896,-0.03723658621311188
1772457586713352000,5.67435205078125,0.005338838789612055,-0.007538876496255398,-0.02749793790280819
1772457586723420000,5.684419921875,-0.0008484831196255982,0.0205734521150589,-0.015115036629140377
1772457586733489200,5.6944892578125,-0.005788114387542009,0.03387754037976265,-0.002275404753163457
1772457586743558000,5.704557861328125,-0.012617524713277817,0.026338662952184677,0.0010410296963527799
1772457586753627100,5.714627197265625,-0.01563595049083233,-0.0015640745405107737,-0.002600310370326042
1772457586763695000,5.724695068359375,-0.012655873782932758,-0.026794862002134323,-0.012853480875492096
1772457586773763800,5.734763916015625,-0.014332067221403122,-0.03500805050134659,-0.02713867649435997
1772457586783833000,5.7448330078125,-0.01636326126754284,-0.026932548731565475,-0.033477798104286194
1772457586793901000,5.754901123046875,-0.015476161614060402,-0.012741894461214542,-0.03864726051688194
1772457586803970000,5.764969970703125,-0.020546287298202515,-0.0006386260502040386,-0.03970027342438698
1772457586814039000,5.7750390625,-0.017656225711107254,-0.004910602699965239,-0.04241004213690758
1772457586824108000,5.78510791015625,-0.012589029036462307,-0.02153591811656952,-0.04806286841630936
1772457586834176000,5.795176025390625,-0.009877930395305157,-0.024521853774785995,-0.03911038488149643
1772457586844245000,5.805244873046875,-0.010486995801329613,-0.008799883536994457,-0.027366377413272858
1772457586854314000,5.81531396484375,-0.010026002302765846,0.018801650032401085,-0.01882588490843773
1772457586864382000,5.8253818359375,-0.005928729195147753,0.0305190272629261,-0.004769188817590475
1772457586874451000,5.835450927734375,-0.003091397462412715,0.01998782344162464,0.007017429452389479
1772457586884520000,5.84552001953125,0.0005720470217056572,0.0024021712597459555,0.019666379317641258
1772457586894589000,5.8555888671875,0.0030479878187179565,-0.018145980313420296,0.02207707241177559
1772457586904657200,5.8656572265625,0.005873335525393486,-0.027330690994858742,0.029228724539279938
1772457586914726100,5.87572607421875,0.005904760677367449,-0.029634058475494385,0.030189061537384987
1772457586924795000,5.885794921875,0.0012828446924686432,-0.02448883093893528,0.026805780827999115
1772457586934863000,5.895863037109375,0.0057524279691278934,-0.00953704584389925,0.025653164833784103
1772457586944932000,5.90593212890625,0.009164470247924328,0.005903162993490696,0.02112605795264244
1772457586955001000,5.9160009765625,0.013154418207705021,0.015836220234632492,0.02027491107583046
1772457586965070000,5.926070068359375,0.012883841060101986,0.01967596635222435,0.028488632291555405
1772457586975138000,5.936137939453125,0.012613263912498951,0.01961711049079895,0.04044276475906372
1772457586985207000,5.94620703125,0.01146597322076559,0.00628905463963747,0.04833104833960533
1772457586995275500,5.956275634765625,0.006761499680578709,-0.010634801350533962,0.057078734040260315
1772457587005343500,5.966343505859375,0.007151652593165636,-0.027661189436912537,0.047927312552928925
1772457587015412500,5.97641259765625,0.009123723953962326,-0.03014884702861309,0.04025181382894516
1772457587025481500,5.9864814453125,0.01068087387830019,-0.016685768961906433,0.02984311617910862
1772457587035550700,5.99655078125,0.012782374396920204,0.007967911660671234,0.021683458238840103
1772457587045618400,6.006618408203125,0.006452040281146765,0.025538116693496704,0.019581424072384834
1772457587055687400,6.0166875,0.0016753945965319872,0.01967303641140461,0.013002084568142891
1772457587065756700,6.026756591796875,0.0022927154786884785,0.000847950461320579,0.008375109173357487
1772457587075824400,6.036824462890625,0.002971821464598179,-0.013041766360402107,0.003924966789782047
1772457587085893600,6.0468935546875,0.005310875829309225,-0.01883121207356453,-0.0014804512029513717
1772457587095962600,6.056962646484375,0.013852965086698532,-0.013410880230367184,-0.0013081447687000036
1772457587106031400,6.06703125,0.016146745532751083,-0.006038983818143606,-0.005733785685151815
1772457587116099600,6.077099609375,0.014267885126173496,0.001910285442136228,-0.0013640711549669504
1772457587126168600,6.08716845703125,0.006190517917275429,0.005822202656418085,0.0018293253378942609
1772457587136237600,6.097237548828125,-0.0012610068079084158,0.0007283745799213648,0.005240568425506353
1772457587146305500,6.107305419921875,-0.005770271178334951,-0.016440758481621742,-0.00041199102997779846
1772457587156374500,6.11737451171875,-0.0046445527113974094,-0.02966894581913948,-0.0030599720776081085
1772457587166443500,6.127443603515625,0.00021278657368384302,-0.026079537346959114,-0.006840329151600599
1772457587176512500,6.137512451171875,0.0017097494564950466,-0.0032583775464445353,-0.006225937977433205
1772457587186580500,6.14758056640625,0.0008058725506998599,0.009672600775957108,-0.005518335849046707
1772457587196649500,6.1576494140625,-0.002798982197418809,0.006625145673751831,-0.0030029804911464453
1772457587206718500,6.167718505859375,-0.00794474221765995,-0.002299905987456441,0.001169127761386335
1772457587216786700,6.17778662109375,-0.013755492866039276,-0.004247741773724556,0.006989466026425362
1772457587226855400,6.18785546875,-0.014189056120812893,-0.004550276789814234,0.014228736981749535
1772457587236924400,6.19792431640625,-0.012165053747594357,-0.010409764014184475,0.01575792394578457
1772457587246993700,6.20799365234375,-0.005072789266705513,-0.019534552469849586,0.011416705325245857
1772457587257061400,6.218061279296875,0.0037854171823710203,-0.031077757477760315,-0.0046091326512396336
1772457587267130600,6.228130615234375,0.010045443661510944,-0.025475265458226204,-0.01956038549542427
1772457587277199600,6.23819970703125,0.013689979910850525,-0.0031843415927141905,-0.02388535812497139
1772457587287267300,6.248267333984375,0.01101376861333847,0.018988339230418205,-0.013729394413530827
1772457587297336600,6.258336669921875,0.003555586328729987,0.021133780479431152,0.003912449814379215
1772457587307405600,6.268405517578125,-0.0014689996605738997,0.0027654264122247696,0.01443965919315815
1772457587317473500,6.2784736328125,-0.003620301140472293,-0.017229320481419563,0.019364111125469208
1772457587327542500,6.28854248046875,-0.007261907681822777,-0.02310425415635109,0.020326044410467148
1772457587337611500,6.298611572265625,-0.016093749552965164,-0.02154097892343998,0.01882774941623211
1772457587347680500,6.308680419921875,-0.01902375929057598,-0.021616078913211823,0.008257663808763027
1772457587357748500,6.31874853515625,-0.019290341064333916,-0.01918780989944935,-0.0009731190511956811
1772457587367817500,6.3288173828125,-0.01834545098245144,-0.013953899033367634,-0.010035323910415173
1772457587377886500,6.338886474609375,-0.013282516039907932,-0.012948289513587952,-0.010659302584826946
1772457587387954400,6.348954345703125,-0.010878480039536953,-0.009046225808560848,-0.006596649996936321
1772457587398023700,6.359023681640625,-0.00865926779806614,0.003418699838221073,0.0008889631717465818
1772457587408092400,6.369092529296875,-0.0051721250638365746,0.012616991996765137,0.011183146387338638
1772457587418161700,6.37916162109375,-0.0062360577285289764,0.002442118711769581,0.01998276263475418
1772457587428229600,6.389229736328125,0.00031798143754713237,-0.006846720818430185,0.022113557904958725
1772457587438298400,6.39929833984375,0.003751062322407961,-0.008249940350651741,0.0199822299182415
1772457587448367600,6.40936767578125,0.004293814767152071,-0.004602475091814995,0.018934275954961777
1772457587458435600,6.419435546875,0.007201187312602997,-0.004524976946413517,0.016878049820661545
1772457587468504300,6.42950439453125,0.001978195970878005,-0.0043742419220507145,0.0052142031490802765
1772457587478573600,6.439573486328125,0.0039039277471601963,-0.0036517265252768993,0.006102900020778179
1772457587488642600,6.449642578125,0.006386792752891779,-0.008674181997776031,-0.0006764429272152483
1772457587498710300,6.459710205078125,0.00708640506491065,-0.006975351367145777,-0.004936701618134975
1772457587508779500,6.469779541015625,0.012477176263928413,0.0014588796766474843,-0.006937001831829548
1772457587518848500,6.4798486328125,0.011319499462842941,0.0009217200567945838,-0.006622748915106058
1772457587528916500,6.48991650390625,0.009934656322002411,-0.005113269202411175,-0.008417187258601189
1772457587538985500,6.4999853515625,0.0013528858544304967,-0.011328821070492268,-0.006366020068526268
1772457587549054700,6.5100546875,-0.003213636577129364,-0.0003211772127542645,-0.00046099317842163146
1772457587559123500,6.52012353515625,-0.008078965358436108,0.013863617554306984,0.005024852231144905
1772457587569191400,6.53019140625,-0.01381275150924921,0.012778645381331444,0.005126052536070347
1772457587579260700,6.5402607421875,-0.013038303703069687,0.0022210762836039066,0.005260808393359184
1772457587589329400,6.550329345703125,-0.007675496395677328,-0.01389717310667038,0.0015310513554140925
1772457587599397400,6.5603974609375,-0.005203550215810537,-0.012190885841846466,0.004011253360658884
1772457587609466600,6.570466552734375,-0.008111456409096718,0.00046072687837295234,0.010876350104808807
1772457587619535400,6.580535400390625,-0.014767227694392204,0.005917810369282961,0.015024756081402302
1772457587629604600,6.5906044921875,-0.020442957058548927,0.0015464976895600557,0.02110981196165085
1772457587639672600,6.600672607421875,-0.015724368393421173,-0.003967311233282089,0.0240736436098814
1772457587649741300,6.6107412109375,-0.009712016209959984,-0.016150474548339844,0.023841150104999542
1772457587659810600,6.620810546875,-0.0012479572324082255,-0.021504227072000504,0.013733655214309692
1772457587669878500,6.63087841796875,0.0009334379574283957,-0.014719025231897831,0.009858223609626293
1772457587679947500,6.640947509765625,0.004497013986110687,0.005598763469606638,0.006484264507889748
1772457587690016500,6.6510166015625,-0.0013190637109801173,0.019035743549466133,0.009322129189968109
1772457587700085500,6.66108544921875,-0.007918376475572586,0.02028769440948963,0.00737189594656229
1772457587710153500,6.671153564453125,-0.014722486957907677,0.006641391199082136,0.008774583227932453
1772457587720222500,6.681222412109375,-0.015667377039790154,-0.016940368339419365,0.0032053806353360415
1772457587730291700,6.691291748046875,-0.019221631810069084,-0.029021264985203743,-0.006253635045140982
1772457587740359400,6.701359375,-0.019589945673942566,-0.011942945420742035,-0.007547132205218077
1772457587750428400,6.711428466796875,-0.019482621923089027,0.011119762435555458,-0.015120895579457283
1772457587760497700,6.72149755859375,-0.0181739442050457,0.02582440711557865,-0.02370000258088112
1772457587770565600,6.731565673828125,-0.016512131318449974,0.02034282125532627,-0.02426033280789852
1772457587780634400,6.74163427734375,-0.014304903335869312,0.0032527849543839693,-0.028378644958138466
1772457587790703600,6.75170361328125,-0.012263057753443718,-0.01600080356001854,-0.037578798830509186
1772457587800772400,6.7617724609375,-0.008792160078883171,-0.016103602945804596,-0.031444743275642395
1772457587810840600,6.771840576171875,-0.010268083773553371,-0.00481233187019825,-0.023033946752548218
1772457587820909600,6.78190966796875,-0.011436413042247295,0.0087807085365057,-0.019030682742595673
1772457587830978300,6.791978271484375,-0.014879080466926098,0.016652479767799377,-0.0133288549259305
1772457587841047600,6.802047607421875,-0.012664929032325745,0.015148326754570007,-0.008567389100790024
1772457587851115500,6.812115478515625,-0.009016931056976318,0.004292216617614031,0.0008942894637584686
1772457587861184500,6.8221845703125,-0.005160140804946423,-0.017294567078351974,0.000642620783764869
1772457587871253500,6.83225341796875,-0.0015576828736811876,-0.028354143723845482,-0.0051739891059696674
1772457587881321500,6.842321533203125,-0.0018431737553328276,-0.019583022221922874,-0.002981142606586218
1772457587891390500,6.852390380859375,-0.0012921657180413604,0.00023568976030219346,-0.0011358382180333138
1772457587901459500,6.86245947265625,-0.0008287757518701255,0.010953848250210285,-0.0011534150689840317
1772457587911527400,6.87252734375,-0.0018572885310277343,0.008775115944445133,0.0018287927377969027
1772457587921596400,6.882596435546875,-0.000023169501218944788,0.0057287258096039295,0.00686110183596611
1772457587931665400,6.89266552734375,0.0036669063847512007,-0.005394232925027609,0.011091000400483608
1772457587941734700,6.902734619140625,0.005605421494692564,-0.01631132885813713,0.007500260602682829
1772457587951802400,6.91280224609375,0.0028133634477853775,-0.03269030153751373,0.001187503570690751
1772457587961871600,6.92287158203125,0.0016112125013023615,-0.025497902184724808,-0.01010749489068985
1772457587971940600,6.932940673828125,0.0012394351651892066,-0.008932508528232574,-0.01323883980512619
1772457587982008600,6.943008544921875,-0.00005219795639277436,0.0012689962750300765,-0.014582404866814613
1772457587992077000,6.9530771484375,0.001675128354690969,0.004234426189213991,-0.011269432492554188
1772457588002146300,6.963146240234375,0.0028482507914304733,0.0019390475936233997,-0.00202267081476748
1772457588012215000,6.973215087890625,0.0010306433541700244,0.003579022129997611,0.004662662278860807
1772457588022283000,6.983282958984375,-0.0017576862592250109,-0.0028509139083325863,0.00815193634480238
1772457588032352300,6.993352294921875,-0.0073444657027721405,-0.02581615000963211,0.006006493698805571
1772457588042421000,7.0034208984375,-0.013222328387200832,-0.04795554280281067,-0.004244545940309763
1772457588052489000,7.013489013671875,-0.009493636898696423,-0.05625581368803978,-0.014395184814929962
1772457588062558200,7.02355810546875,-0.008945558220148087,-0.05234123393893242,-0.02184724248945713
1772457588072627000,7.033626953125,-0.005759618245065212,-0.0315944105386734,-0.01781708002090454
1772457588082696200,7.0436962890625,-0.007694937754422426,-0.015138206072151661,-0.009945841506123543
1772457588092764200,7.05376416015625,-0.00923184771090746,-0.015004782006144524,-0.0035212314687669277
1772457588102833200,7.063833251953125,-0.011142665520310402,-0.031440481543540955,0.007426491007208824
1772457588112902100,7.073902099609375,-0.006901049055159092,-0.03748931735754013,0.010843859054148197
1772457588122970000,7.08397021484375,-0.0019489012192934752,-0.029329393059015274,0.010625479742884636
1772457588133039400,7.094039306640625,-0.00003914846820407547,-0.011835088022053242,0.005315935704857111
1772457588143108000,7.104108154296875,0.009979663416743279,0.004772651009261608,-0.0003438140847720206
1772457588153176000,7.114176025390625,0.009987120516598225,0.011451592668890953,-0.004540157038718462
1772457588163245300,7.124245361328125,0.0054570832289755344,-0.0014114753575995564,-0.007896272465586662
1772457588173314000,7.13431396484375,-0.002397377509623766,-0.015931827947497368,-0.0169688630849123
1772457588183383300,7.14438330078125,0.00006364954606397077,-0.018619224429130554,-0.01654861681163311
1772457588193451300,7.154451171875,0.0029728866647928953,-0.0033244239166378975,-0.021528994664549828
1772457588203520000,7.16452001953125,0.005774531979113817,0.015370966866612434,-0.02051006816327572
1772457588213589200,7.17458935546875,0.005541505757719278,0.023428626358509064,-0.0156527291983366
1772457588223657200,7.1846572265625,0.000360059377271682,0.009351690299808979,-0.006447246763855219
1772457588233726000,7.194725830078125,0.00017417073831893504,-0.010910971090197563,0.005920207127928734
1772457588243795200,7.204795166015625,-0.0012114719720557332,-0.027096332982182503,0.013323795050382614
1772457588253864000,7.214864013671875,0.003209908027201891,-0.020184364169836044,0.02094309777021408
1772457588263932200,7.22493212890625,0.008478705771267414,-0.0013049489352852106,0.025350896641612053
1772457588274001200,7.235001220703125,0.006310892757028341,0.015242336317896843,0.02912379615008831
1772457588284070100,7.245070068359375,0.00902625173330307,0.01549373846501112,0.029258819296956062
1772457588294138000,7.25513818359375,0.004282096866518259,0.0010303769959136844,0.028123246505856514
1772457588304207000,7.26520703125,0.0013547500129789114,-0.00629091914743185,0.027571706101298332
1772457588314276000,7.275276123046875,-0.002008023438975215,-0.015308382920920849,0.031075892969965935
1772457588324345000,7.285344970703125,-0.00036458674003370106,-0.014600780792534351,0.027174895629286766
1772457588334413000,7.2954130859375,0.004638161510229111,-0.018606707453727722,0.01944054290652275
1772457588344482300,7.305482421875,0.005826730281114578,-0.008314655162394047,0.01509932428598404
1772457588354551000,7.315551025390625,0.005305815953761339,0.005557218100875616,0.015841014683246613
1772457588364619300,7.325619384765625,0.0008831042214296758,0.013759488239884377,0.02293035015463829
1772457588374688300,7.335688232421875,-0.0020991035271435976,0.008711732923984528,0.02443716675043106
1772457588384757000,7.345757080078125,-0.006325273774564266,-0.00003408846168895252,0.0293714702129364
1772457588394826200,7.355826171875,-0.0026501116808503866,-0.003837881376966834,0.021258683875203133
1772457588404894200,7.365894287109375,-0.0004913532175123692,-0.002189118415117264,0.011097125709056854
1772457588414963200,7.375963134765625,-0.0005342300864867866,0.0037063213530927896,0.0010104032699018717
1772457588425032200,7.3860322265625,0.0039039277471601963,0.0062970444560050964,-0.011639878153800964
1772457588435100200,7.39610009765625,0.0008165251929312944,-0.0018586200894787908,-0.011984224431216717
1772457588445169200,7.406169189453125,-0.004216316621750593,-0.014250574633479118,-0.01062361616641283
1772457588455238100,7.416238037109375,-0.005351355765014887,-0.028717398643493652,-0.008672850206494331
1772457588465307100,7.42630712890625,-0.00896979309618473,-0.041724808514118195,-0.012606605887413025
1772457588475375000,7.436375,-0.00484402384608984,-0.031071899458765984,-0.019655993208289146
1772457588485444000,7.446444091796875,-0.0015502260066568851,-0.0065649584867060184,-0.0256960429251194
1772457588495513000,7.45651318359375,-0.007111971732228994,0.008862201124429703,-0.02514982782304287
1772457588505581000,7.4665810546875,-0.0034503915812820196,0.00703793577849865,-0.01594407856464386
1772457588515650000,7.476650146484375,-0.0026732811238616705,0.0002596582053229213,-0.007620635442435741
1772457588525719000,7.486718994140625,0.0005432848702184856,-0.00860467366874218,-0.003597398055717349
1772457588535788000,7.4967880859375,0.007229150738567114,-0.008284294977784157,-0.0029057750944048166
1772457588545856300,7.506856201171875,0.008103732950985432,-0.0007954862085171044,-0.0017747305100783706
1772457588555925200,7.51692529296875,0.007832623086869717,0.014013287611305714,0.004125769250094891
1772457588565994000,7.526993896484375,0.005091963801532984,0.023916251957416534,0.007435545790940523
1772457588576062200,7.537062255859375,0.0025843314360827208,0.015799736604094505,0.00869202520698309
1772457588586131200,7.547131103515625,-0.002129729837179184,-0.0060387179255485535,0.011589543893933296
1772457588596200200,7.5572001953125,-0.004402471706271172,-0.029522737488150597,0.002912166528403759
1772457588606268200,7.56726806640625,-0.001169127761386335,-0.026991670951247215,-0.0015733955660834908
1772457588616337200,7.577337158203125,-0.0010365023044869304,-0.00692022405564785,0.0014647386269643903
1772457588626406100,7.58740625,0.0010522148804739118,0.019117236137390137,-0.0025483788922429085
1772457588636475100,7.59747509765625,-0.0027750139124691486,0.013468137942254543,-0.0015225291717797518
1772457588646543000,7.607543212890625,-0.003058906877413392,-0.001398159540258348,0.004486627411097288
1772457588656612000,7.617612060546875,-0.003995540551841259,-0.013295832090079784,0.0033398703671991825
1772457588666681000,7.62768115234375,-0.004579837899655104,-0.018764367327094078,-0.004540689755231142
1772457588676750000,7.63775,-0.001315068919211626,-0.012117116712033749,-0.0016668725293129683
1772457588686818000,7.647818115234375,-0.002469016704708338,0.003057841444388032,-0.001785116852261126
1772457588696887300,7.65788720703125,0.0026112294290214777,0.013616209849715233,0.000999750685878098
1772457588706956000,7.6679560546875,0.0029915287159383297,0.010385795496404171,0.007390271872282028
1772457588717024000,7.67802392578125,-0.002359560690820217,-0.001958488719537854,0.00660463934764266
1772457588727093200,7.68809326171875,-0.007897071540355682,-0.002912699244916439,0.001891909632831812
1772457588737162200,7.698162353515625,-0.011186341755092144,-0.00785286258906126,-0.005813946947455406
1772457588747230000,7.70822998046875,-0.01215706393122673,-0.01643436774611473,-0.022523950785398483
1772457588757299200,7.71829931640625,-0.0087820403277874,-0.013010074384510517,-0.03283650800585747
1772457588767368200,7.7283681640625,-0.003480751533061266,-0.0046754456125199795,-0.03644855320453644
1772457588777437200,7.738437255859375,-0.0017084177816286683,-0.00112465291749686,-0.032940108329057693
1772457588787505200,7.748505126953125,-0.003352120751515031,0.0012298477813601494,-0.019102854654192924
1772457588797574100,7.75857421875,-0.004792091902345419,0.013540576212108135,0.008052334189414978
1772457588807643100,7.76864306640625,-0.009710151702165604,0.006715959403663874,0.021517276763916016
1772457588817711000,7.778711181640625,-0.009460613131523132,-0.013399695046246052,0.026924824342131615
1772457588827780400,7.7887802734375,-0.003658917034044862,-0.030015157535672188,0.014357900246977806
1772457588837849000,7.79884912109375,-0.001449292292818427,-0.03393559530377388,0.0012455604737624526
1772457588847918000,7.80891796875,0.002843989757820964,-0.01401488482952118,-0.01696460321545601
1772457588857986300,7.818986328125,0.0027337349019944668,0.008280566893517971,-0.023253923282027245
1772457588868055000,7.829054931640625,-0.004839229863137007,0.022340193390846252,-0.015977367758750916
1772457588878124300,7.839124267578125,-0.010144513100385666,0.02154683694243431,-0.010372745804488659
1772457588888192300,7.849192138671875,-0.016029832884669304,-0.0038043255917727947,-0.003424292430281639
1772457588898261000,7.859260986328125,-0.021381720900535583,-0.03694683313369751,0.0036216326989233494
1772457588908330200,7.869330322265625,-0.02038969285786152,-0.038065358996391296,0.006908239796757698
1772457588918399000,7.87939892578125,-0.02027624286711216,-0.02051299810409546,0.0017097494564950466
1772457588928467000,7.889467041015625,-0.01805330254137516,0.0015749934827908874,0.007375890854746103
1772457588938536200,7.8995361328125,-0.024165257811546326,0.0172618106007576,0.010844391770660877
1772457588948605200,7.909605224609375,-0.027459321543574333,0.008072840049862862,0.006396380253136158
1772457588958673200,7.919673095703125,-0.03453800454735756,-0.004622981417924166,0.007641408126801252
1772457588968742100,7.9297421875,-0.02943059243261814,-0.01001934427767992,0.00800546258687973
1772457588978811100,7.93981103515625,-0.027212180197238922,-0.015483618713915348,0.0017901768442243338
1772457588988880400,7.94988037109375,-0.021616345271468163,-0.01275627501308918,0.003433613572269678
1772457588998948400,7.9599482421875,-0.015561116859316826,-0.00392709719017148,0.010914432816207409
1772457589009017300,7.970017333984375,-0.013732856139540672,-0.00615270109847188,0.009812151081860065
1772457589019086300,7.98008642578125,-0.013744840398430824,-0.01913188211619854,0.007223291788250208
1772457589029154300,7.990154296875,-0.012414591386914253,-0.02328801155090332,0.013147493824362755
1772457589039223600,8.0002236328125,-0.014166153036057949,-0.016446085646748543,0.017483118921518326
1772457589049292300,8.010292236328125,-0.015798404812812805,-0.0041761030443012714,0.011382883414626122
1772457589059361500,8.020361572265625,-0.015331019647419453,0.00009720538218971342,0.011929363943636417
1772457589069429500,8.030429443359376,-0.008780442178249359,-0.002423742786049843,0.0055063520558178425
1772457589079498200,8.040498291015625,-0.0023182816803455353,-0.005789445713162422,0.0002711098059080541
1772457589089567500,8.0505673828125,0.004032824654132128,-0.014593856409192085,-0.005816610064357519
1772457589099635500,8.060635498046874,0.005991047248244286,-0.010234794579446316,-0.002781671704724431
1772457589109704400,8.070704345703126,0.005978796631097794,0.0001656486128922552,0.0009768474847078323
1772457589119773400,8.0807734375,-0.000565122754778713,-0.0010229201288893819,0.0062821307219564915
1772457589129841400,8.09084130859375,-0.004058391321450472,0.00040266994619742036,0.007003314793109894
1772457589139910400,8.100910400390624,-0.005315935704857111,-0.005875199567526579,0.01193921733647585
1772457589149979400,8.1109794921875,-0.004140949342399836,-0.014692925848066807,0.009498430415987968
1772457589160048400,8.12104833984375,0.00047377636656165123,-0.01836276240646839,0.0067841364070773125
1772457589170116400,8.131116455078125,0.0012450277572497725,0.00315957423299551,0.009959423914551735
1772457589180185300,8.141185302734375,-0.0018876485992223024,0.019217902794480324,0.010294449515640736
1772457589190254300,8.15125439453125,-0.005612345412373543,0.014736069366335869,0.014493987895548344
1772457589200322300,8.161322265625,-0.004483431577682495,0.009320797398686409,0.019576897844672203
1772457589210391300,8.171391357421875,-0.008823319338262081,0.008583101443946362,0.019870378077030182
1772457589220460300,8.181460205078125,-0.006374808494001627,0.000035420041967881843,0.020664531737565994
1772457589230529300,8.191529296875,-0.00564084155485034,-0.010030795820057392,0.02111860178411007
1772457589240597500,8.201597412109376,-0.0019230686593800783,-0.004038949962705374,0.01950179599225521
1772457589250666500,8.21166650390625,-0.005641906522214413,-0.006174006499350071,0.012430837377905846
1772457589260735200,8.2217353515625,-0.00791704561561346,-0.011581288650631905,-0.00014407701382879168
1772457589270803500,8.231803466796874,-0.0086041409522295,0.0038898130878806114,0.0017193368403241038
1772457589280872400,8.24187255859375,-0.00481419637799263,0.015809323638677597,0.0035654399544000626
1772457589290941400,8.25194140625,-0.005483981221914291,0.010690194554626942,0.002743055811151862
1772457589301010400,8.262010498046875,-0.007935953326523304,-0.0010495517635717988,0.004193946253508329
1772457589311078400,8.272078369140624,-0.009141300804913044,0.00026791400159709156,0.014274010434746742
1772457589321147400,8.2821474609375,-0.01727006770670414,-0.004634432960301638,0.01679202914237976
1772457589331216400,8.29221630859375,-0.02009834349155426,-0.013670272193849087,0.01576564647257328
1772457589341284400,8.302284423828125,-0.02040700428187847,-0.01146650593727827,0.00894103106111288
1772457589351353300,8.312353271484374,-0.01696300506591797,-0.004192081745713949,0.0015550197567790747
1772457589361422300,8.32242236328125,-0.009741044603288174,0.006369482260197401,-0.005850964691489935
1772457589371491300,8.3324912109375,-0.007425958290696144,0.016267653554677963,-0.005406483076512814
1772457589381560300,8.342560302734375,-0.005397694651037455,0.016217319294810295,-0.003254915354773402
1772457589391629600,8.352629638671875,-0.006505836267024279,0.011582087725400925,0.007608118467032909
1772457589401697300,8.362697265625,-0.003870904678478837,0.006970557849854231,0.011382883414626122
1772457589411766300,8.372766357421876,-0.005934321787208319,-0.006728742737323046,0.012572250328958035
1772457589421835500,8.38283544921875,-0.011426825076341629,-0.00484402384608984,0.010633203200995922
1772457589431903500,8.392903564453125,-0.014801849611103535,0.001555552356876433,0.010939466767013073
1772457589441972500,8.402972412109374,-0.02317536063492298,0.003722300287336111,0.0028091021813452244
1772457589452041500,8.41304150390625,-0.017887121066451073,-0.006406234111636877,-0.004620584659278393
1772457589462110200,8.423110107421875,-0.009696036577224731,-0.010422014631330967,-0.014299577102065086
1772457589472178400,8.433178466796875,-0.0014804512029513717,-0.015659652650356293,-0.022465361282229424
1772457589482247400,8.443247314453124,0.006445914972573519,-0.015020760707557201,-0.025743447244167328
1772457589492316400,8.45331640625,0.004853610880672932,-0.008243015967309475,-0.021457355469465256
1772457589502384400,8.46338427734375,0.002182993106544018,-0.006936469115316868,-0.012901417911052704
1772457589512453400,8.473453369140625,-0.002299905987456441,0.001999501371756196,-0.004234426189213991
1772457589522522400,8.4835224609375,-0.0052083441987633705,0.008476841263473034,0.001702026231214404
1772457589532591400,8.49359130859375,-0.007877896539866924,0.013560550287365913,0.012124840170145035
1772457589542659300,8.503659423828125,-0.0070435283705592155,0.008243282325565815,0.00875194650143385
1772457589552728300,8.513728271484375,-0.0041002025827765465,0.0007422229973599315,0.004260791465640068
1772457589562797300,8.52379736328125,-0.0035902075469493866,-0.008846755139529705,0.000957939017098397
1772457589572865500,8.533865478515626,-0.0005273058777675033,-0.017070330679416656,-0.00878896377980709
1772457589582934300,8.543934326171875,-0.00025033715064637363,-0.02207787148654461,-0.008676046505570412
1772457589593003300,8.554003173828125,-0.0028594359755516052,-0.0076869479380548,-0.001975532853975892
1772457589603072500,8.564072509765625,-0.007684817537665367,0.00914476253092289,0.008123706094920635
1772457589613140200,8.57414013671875,-0.014029799029231071,0.011932292953133583,0.010729077272117138
1772457589623209500,8.58420947265625,-0.01270141452550888,-0.000984836951829493,0.009829993359744549
1772457589633278500,8.594278564453125,-0.01184920221567154,-0.014122476801276207,0.003855191869661212
1772457589643346400,8.604346435546875,-0.00902385450899601,-0.020958011969923973,0.0014106763992458582
1772457589653415400,8.61441552734375,-0.007011037785559893,-0.0202738456428051,-0.006137254647910595
1772457589663484400,8.624484375,-0.011268367059528828,-0.018073009327054024,-0.0054456316865980625
1772457589673553400,8.634553466796875,-0.011929630301892757,-0.00797510240226984,-0.011302721686661243
1772457589683621400,8.644621337890625,-0.013215936720371246,0.003162503708153963,-0.01522848755121231
1772457589693690400,8.6546904296875,-0.011259579099714756,0.0055090151727199554,-0.01125345379114151
1772457589703759400,8.66475927734375,-0.008038751780986786,0.015161641873419285,-0.009307214990258217
1772457589713827300,8.674827392578125,-0.009895773604512215,0.009065666235983372,-0.0019299928098917007
1772457589723896600,8.684896484375,-0.00802943017333746,-0.004938832018524408,-0.00404534162953496
1772457589733965300,8.69496533203125,-0.00777563126757741,-0.009847304783761501,0.009050220251083374
1772457589744034300,8.705034423828126,-0.007383880205452442,-0.008144479244947433,0.005526325665414333
1772457589754102500,8.7151025390625,-0.004208593629300594,-0.0006897587445564568,0.009242766536772251
1772457589764171300,8.725171142578125,-0.000636761833447963,0.008918393403291702,0.006984406150877476
1772457589774240500,8.735240478515625,0.002734533743932843,0.01631345972418785,0.002117745578289032
1772457589784308500,8.74530859375,0.005665342323482037,0.015977634117007256,-0.00833569373935461
1772457589794377200,8.755377197265625,0.006591590121388435,0.00990136619657278,-0.015576829202473164
1772457589804446500,8.765446533203125,0.004315652418881655,0.0026943201664835215,-0.021674668416380882
1772457589814515500,8.775515380859375,0.009309878572821617,0.002787530655041337,-0.025978337973356247
1772457589824583200,8.785583251953126,0.007965780794620514,0.002510561840608716,-0.02419748157262802
1772457589834652400,8.79565234375,0.01660187914967537,0.005600361619144678,-0.02334846556186676
1772457589844721400,8.805721435546875,0.014663897454738617,0.008014516904950142,-0.02346830815076828
1772457589854789400,8.815789306640625,0.01296240370720625,0.0067993164993822575,-0.019240539520978928
1772457589864858400,8.8258583984375,0.010555172339081764,0.0013885721564292908,-0.021527929231524467
1772457589874927400,8.83592724609375,0.010145578533411026,-0.005043494515120983,-0.018122011795639992
1772457589884996400,8.845996337890625,0.0057012951001524925,-0.0023960459511727095,-0.009880593977868557
1772457589895064300,8.856064208984375,0.006469350773841143,0.007472297176718712,0.001978995045647025
1772457589905133600,8.866133544921874,0.0075942701660096645,0.007339671719819307,0.0054512242786586285
1772457589915202300,8.876202392578126,0.010491256602108479,-0.0013134710025042295,0.003512975759804249
1772457589925270300,8.886270263671875,0.012918994762003422,-0.011953332461416721,0.0017544905422255397
1772457589935339500,8.896339599609375,0.011799135245382786,-0.01145851705223322,0.0015422365395352244
1772457589945408300,8.906408203125,0.007813181728124619,-0.003173955250531435,0.0035606464371085167
1772457589955477500,8.9164775390625,0.005224589258432388,-0.0005486111622303724,0.005430984310805798
1772457589965545500,8.92654541015625,0.00688959751278162,0.005736981518566608,0.0017896442441269755
1772457589975614200,8.9366142578125,0.003180080559104681,0.008562861941754818,0.005036570131778717
1772457589985683500,8.946683349609375,-0.0017331852577626705,0.008740761317312717,0.008383364416658878
1772457589995752400,8.95675244140625,-0.005859220866113901,0.001514539704658091,0.007420365698635578
1772457590005821400,8.966821533203126,-0.004948153160512447,-0.0025869945529848337,0.00569916469976306
1772457590015890400,8.976890380859375,-0.004731105640530586,-0.00310604483820498,0.005314870737493038
1772457590025958700,8.986958740234375,0.00031558459158986807,0.00010146643762709573,-0.003317766124382615
1772457590036027400,8.99702734375,0.002560629276558757,-0.0004261057765688747,-0.01224841084331274
1772457590046096400,9.007096435546876,-0.0017949705943465233,0.00012436961696948856,-0.01438293419778347
1772457590056165400,9.017165283203125,-0.001677791471593082,0.0054299188777804375,-0.019474098458886147
1772457590066233300,9.0272333984375,-0.004705273080617189,0.004427771549671888,-0.01426255889236927
1772457590076302600,9.037302490234374,-0.007475759368389845,0.0010050770360976458,-0.009584716521203518
1772457590086371300,9.047371337890626,-0.013561881147325039,-0.0015728629659861326,0.0012381036067381501
1772457590096439300,9.057439208984375,-0.01890098676085472,-0.0005528722540475428,0.011809521354734898
1772457590106508500,9.067508544921875,-0.0254566241055727,-0.0054909056052565575,0.015270565636456013
1772457590116577300,9.077577392578124,-0.02352423407137394,-0.004236290231347084,0.018033063039183617
1772457590126646500,9.087646484375,-0.019180618226528168,-0.00018615495355334133,0.00878976285457611
1772457590136714500,9.097714599609375,-0.01648656465113163,-0.005718073341995478,0.0008812400046736002
1772457590146783200,9.107783203125,-0.008168181404471397,-0.009362875483930111,-0.012763465754687786
1772457590156852500,9.1178525390625,-0.0017201356822624803,-0.01745062880218029,-0.01483567152172327
1772457590166920400,9.12792041015625,-0.001868207473307848,-0.01888980157673359,-0.010822287760674953
1772457590176989400,9.137989501953125,0.0024375913199037313,-0.010628143325448036,-0.004344947170466185
1772457590187058400,9.148058349609375,-0.00004394215648062527,0.004575843457132578,0.007433681283146143
1772457590197127400,9.15812744140625,0.0037681066896766424,0.012856676243245602,0.020669059827923775
1772457590207195600,9.168195556640624,0.00007856325100874528,0.0035563854034990072,0.032466065138578415
1772457590217264400,9.178264404296876,0.004393416922539473,-0.0033843449782580137,0.030835943296551704
1772457590227333600,9.188333740234375,0.003329484025016427,-0.01372087188065052,0.029414614662528038
1772457590237401600,9.198401611328125,0.005964948330074549,-0.024941036477684975,0.02406725287437439
1772457590247470300,9.20847021484375,0.005048288032412529,-0.018686868250370026,0.01793372631072998
1772457590257539600,9.21853955078125,0.0029313412960618734,-0.006585731171071529,0.013522733002901077
1772457590267608300,9.2286083984375,0.0032895365729928017,0.004119910299777985,0.010850250720977783
1772457590277676300,9.23867626953125,0.001059139147400856,0.006610498297959566,0.003805124433711171
1772457590287745500,9.24874560546875,0.0012058793799951673,-0.0016415724530816078,0.0022953785955905914
1772457590297814300,9.258814208984376,-0.0012825783342123032,-0.0038575888611376286,0.009513876400887966
1772457590307883500,9.268883544921875,-0.004240285139530897,-0.00643819198012352,0.012142948806285858
1772457590317951500,9.278951416015625,-0.001710814656689763,-0.012172243557870388,0.01757766120135784
1772457590328020200,9.289020263671874,-0.003087402554228902,-0.009949303232133389,0.020783575251698494
1772457590338089500,9.29908935546875,-0.004433097783476114,-0.008695220574736595,0.017490044236183167
1772457590348157400,9.309157470703125,-0.003977430984377861,-0.0014974954538047314,0.012921657413244247
1772457590358226400,9.319226318359375,-0.00469568558037281,0.003721501212567091,0.017765413969755173
1772457590368295400,9.32929541015625,-0.008039817214012146,0.005738579668104649,0.017306817695498466
1772457590378363400,9.33936328125,-0.008412659168243408,0.0054762582294642925,0.02389601245522499
1772457590388432400,9.349432373046875,-0.007418768014758825,0.0009145294898189604,0.025176992639899254
1772457590398501400,9.35950146484375,-0.0049188584089279175,-0.010812699794769287,0.020145481452345848
1772457590408570600,9.369570556640625,-0.0023339942563325167,-0.01679655723273754,0.016333965584635735
1772457590418638600,9.379638671875,-0.002569417702034116,-0.01501197274774313,0.01631159521639347
1772457590428707300,9.389707275390625,-0.0049561429768800735,-0.0036304211243987083,0.022901320829987526
1772457590438776600,9.399776611328125,-0.006365487817674875,0.00893836747854948,0.02701244316995144
1772457590448844500,9.409844482421875,-0.005474393721669912,0.0031225562561303377,0.030372286215424538
1772457590458913300,9.419913330078124,0.0017068199813365936,-0.00749120581895113,0.02745026722550392
1772457590468982500,9.429982421875,0.0020969731267541647,-0.01540771871805191,0.027003388851881027
1772457590479051300,9.44005126953125,0.0010418286547064781,-0.012377307750284672,0.025063540786504745
1772457590489119500,9.450119384765625,-0.0029968551825731993,-0.006481068674474955,0.017660485580563545
1772457590499188500,9.4601884765625,-0.002103630919009447,0.005534048657864332,0.013278520666062832
1772457590509257200,9.47025732421875,-0.005513275973498821,0.006213154643774033,0.008740228600800037
1772457590519325400,9.480325439453125,-0.004027764778584242,0.0046362970024347305,0.001184574095532298
1772457590529394400,9.49039453125,-0.003347060875967145,-0.0037350833881646395,-0.005738845560699701
1772457590539463400,9.50046337890625,-0.0014037522487342358,-0.009754359722137451,0.002344380598515272
1772457590549532400,9.510532470703126,-0.004544950556010008,-0.013044695369899273,0.005485845264047384
1772457590559600400,9.520600341796875,-0.005319397896528244,-0.012705675326287746,0.011021758429706097
1772457590569669400,9.53066943359375,-0.0070640346966683865,-0.0070435283705592155,0.012491290457546711
1772457590579738400,9.54073828125,-0.010484332218766212,0.002359027974307537,0.014999455772340298
1772457590589806300,9.550806396484376,-0.008667523972690105,0.011490740813314915,0.017435183748602867
1772457590599875300,9.560875244140625,-0.009253419004380703,0.01450064592063427,0.020488230511546135
1772457590609944300,9.5709443359375,-0.007937551476061344,0.006777212489396334,0.020016584545373917
1772457590620013600,9.581013671875,-0.002415753435343504,-0.002180329989641905,0.025106951594352722
1772457590630081500,9.59108154296875,0.0011821772204712033,-0.007413974031805992,0.028841767460107803
1772457590640150500,9.601150634765625,0.00421391986310482,-0.015341139398515224,0.029171733185648918
1772457590650219500,9.611219482421875,0.00452790642157197,-0.016532637178897858,0.023781228810548782
1772457590660287500,9.62128759765625,0.007209709845483303,-0.004763862583786249,0.018544122576713562
1772457590670356500,9.6313564453125,0.012083294801414013,0.0011552792275324464,0.01296613272279501
1772457590680425500,9.641425537109376,0.01587670110166073,0.004020041786134243,0.011576228775084019
1772457590690494500,9.651494384765625,0.023183615878224373,0.0024626250378787518,0.010675547644495964
1772457590700562400,9.6615625,0.02791312336921692,-0.0009598032338544726,0.013307549990713596
1772457590710631400,9.67163134765625,0.02570509724318981,-0.00307595101185143,0.013382917270064354
1772457590720700400,9.681700439453126,0.022832877933979034,-0.010524545796215534,0.018882079049944878
1772457590730769400,9.691769287109375,0.01834278739988804,-0.022282935678958893,0.021498367190361023
1772457590740837400,9.70183740234375,0.017301226034760475,-0.02972407266497612,0.012712333351373672
1772457590750906400,9.71190625,0.01124839298427105,-0.0235252995043993,0.000901480030734092
1772457590760975400,9.721975341796876,0.0044232443906366825,-0.001487109111621976,-0.005530852824449539
1772457590771043600,9.732043701171875,0.00010439591278554872,0.020912472158670425,-0.013678793795406818
1772457590781112300,9.7421123046875,-0.0012026835465803742,0.029955768957734108,-0.009498963132500648
1772457590791181300,9.752181396484374,-0.002633067313581705,0.017053019255399704,-0.00037470675306394696
1772457590801249500,9.76224951171875,0.0012724583502858877,-0.0010282464791089296,0.0002777676854748279
1772457590811318300,9.772318359375,-0.0013366405619308352,-0.014829812571406364,0.006913033314049244
1772457590821387500,9.782387451171875,-0.007110639940947294,-0.02213912457227707,0.003114300547167659
1772457590831456500,9.79245654296875,-0.00815220270305872,-0.019897274672985077,-0.003427488263696432
1772457590841524500,9.8025244140625,-0.01630946435034275,-0.017794709652662277,-0.014642059803009033
1772457590851593500,9.812593505859375,-0.016224775463342667,-0.015209578908979893,-0.019108179956674576
1772457590861662500,9.822662353515625,-0.014121145009994507,-0.011770905926823616,-0.021499432623386383
1772457590871730400,9.83273046875,-0.006339921150356531,-0.0024642229545861483,-0.022171881049871445
1772457590881799400,9.84279931640625,-0.0015225291717797518,0.004462126176804304,-0.017673535272479057
1772457590891868400,9.852868408203125,0.004288222175091505,0.0016945693641901016,-0.014177338220179081
1772457590901937400,9.8629375,0.007882158271968365,-0.009707488119602203,-0.01347799226641655
1772457590912005400,9.87300537109375,0.007987619377672672,-0.012231898494064808,-0.01690814271569252
1772457590922074400,9.883074462890624,0.00977673102170229,-0.007783621083945036,-0.022296249866485596
1772457590932143400,9.893143310546876,0.009783654473721981,-0.00026791400159709156,-0.024394022300839424
1772457590942211300,9.90321142578125,0.013669206760823727,0.02076759561896324,-0.022343387827277184
1772457590952280600,9.913280517578125,0.015851933509111404,0.03549860417842865,-0.01540319062769413
1772457590962349300,9.923349365234374,0.013322729617357254,0.03387514129281044,-0.01004837267100811
1772457590972418600,9.93341845703125,0.0169688630849123,0.03145779296755791,0.0021995047573000193
1772457590982486500,9.943486572265625,0.015673767775297165,0.014778945595026016,0.00788695178925991
1772457590992554800,9.9535546875,0.008246744982898235,0.002781938062980771,0.007709585130214691
1772457591002623700,9.963623779296874,0.0018849853659048676,0.0009688580175861716,0.008421980775892735
1772457591012691700,9.973691650390625,-0.002685797866433859,-0.005459746345877647,0.00914316438138485
1772457591022761000,9.983760986328125,-0.007278685458004475,-0.004285026341676712,0.012328038923442364
1772457591032829700,9.99382958984375,-0.010700847953557968,0.0030858046375215054,0.01913667656481266
1772457591042898700,10.003898681640624,-0.010667291469871998,0.0026756778825074434,0.017066868022084236
1772457591052967000,10.013966796875,-0.005600893869996071,-0.0003603257064241916,0.011476093903183937
1772457591063035600,10.02403564453125,-0.002417883835732937,0.0013004215434193611,0.01429265271872282
1772457591073105000,10.03410498046875,-0.00048602689639665186,0.005146825220435858,0.00857164990156889
1772457591083172900,10.0441728515625,-0.00401711231097579,-0.001514539704658091,0.003961984533816576
1772457591093241600,10.05424169921875,-0.005958823021501303,-0.014397847466170788,0.0003944141499232501
1772457591103310800,10.064310791015625,-0.0070677632465958595,-0.020686369389295578,0.00040799626731313765
1772457591113379800,10.0743798828125,-0.00999271310865879,-0.016954215243458748,0.0006442186422646046
1772457591123447600,10.084447509765624,-0.0064957160502672195,-0.014094247482717037,-0.002740126335993409
1772457591133516800,10.094516845703126,0.001877262257039547,-0.009208944626152515,-0.006747651379555464
1772457591143585800,10.104585693359375,0.008322644978761673,-0.00469595193862915,-0.007198257837444544
1772457591153653800,10.11465380859375,0.010994594544172287,-0.008859803900122643,-0.008717591874301434
1772457591163722800,10.12472265625,0.01230193953961134,-0.016139289364218712,-0.00920388475060463
1772457591173791700,10.134791748046876,0.01210007257759571,-0.022395320236682892,-0.01064864918589592
1772457591183860700,10.14486083984375,0.006191583350300789,-0.005441104527562857,-0.010720022022724152
1772457591193928700,10.1549287109375,0.004297542851418257,0.010665959678590298,-0.004893025849014521
1772457591203998000,10.164998046875,0.00355798308737576,0.004456533584743738,-0.0054514906369149685
1772457591214066700,10.175066650390624,0.006500776391476393,-0.004765992984175682,-0.016533169895410538
1772457591224134700,10.185134765625,0.010794324800372124,-0.0046908920630812645,-0.012676114216446877
1772457591234204000,10.195203857421875,0.014146978035569191,0.0009182579233311117,-0.016057530418038368
1772457591244272600,10.205272705078125,0.016388293355703354,0.0017696705181151628,-0.020963605493307114
1772457591254342000,10.215341796875,0.01727406121790409,0.0028186896815896034,-0.020062390714883804
1772457591264409900,10.225409912109376,0.017491376027464867,0.0037092508282512426,-0.018560102209448814
1772457591274478600,10.235478515625,0.024625185877084732,0.016217585653066635,-0.011663047596812248
1772457591284547800,10.2455478515625,0.017662083730101585,0.020496485754847527,-0.005096225067973137
1772457591294615800,10.25561572265625,0.005839779507368803,0.01176211703568697,0.003251453395932913
1772457591304684800,10.265684814453126,-0.0001984054979402572,0.001422128058038652,0.01254908088594675
1772457591314753800,10.27575390625,-0.00001757686368364375,-0.009718673303723335,0.017835987731814384
1772457591324822800,10.28582275390625,0.0008546083699911833,0.0011925635626539588,0.021079985424876213
1772457591334890800,10.295890869140624,0.00030120351584628224,0.02002697065472603,0.031317174434661865
1772457591344959700,10.305959716796876,0.0019776634871959686,0.018726550042629242,0.02955016866326332
1772457591355029000,10.316029052734375,0.0020682108588516712,0.010885404422879219,0.024989239871501923
1772457591365096700,10.3260966796875,0.0017267935909330845,-0.0026964505668729544,0.0224459208548069
1772457591375165700,10.336165771484374,0.0033457293175160885,-0.004319114610552788,0.01900538243353367
1772457591385235000,10.34623486328125,0.002299373270943761,0.0017070862231776118,0.013696370646357536
1772457591395303700,10.3563037109375,-0.0014144048327580094,0.004327636677771807,0.009828396141529083
1772457591405371600,10.36637158203125,-0.00024314661277458072,-0.00028868665685877204,0.006009689066559076
1772457591415441000,10.37644091796875,-0.00177925790194422,-0.0034642398823052645,0.005365736782550812
1772457591425509600,10.386509521484374,-0.004912200383841991,-0.006185724399983883,0.009039301425218582
1772457591435577900,10.396577880859375,-0.005616606678813696,-0.006220611743628979,0.014986139722168446
1772457591445646800,10.406646728515625,-0.00430127140134573,-0.011011638678610325,0.01666313223540783
1772457591455715600,10.416715576171875,-0.005072522908449173,-0.003176884725689888,0.013412478379905224
1772457591465784800,10.426784912109374,-0.004838164895772934,-0.001969940261915326,0.002969424705952406
1772457591475852800,10.436852783203125,-0.00830613262951374,0.0010482202051207423,-0.003941478207707405
1772457591485921800,10.446921875,-0.010597516782581806,0.008578307926654816,-0.0032117723021656275
1772457591495990800,10.45699072265625,-0.016292953863739967,0.015261510387063026,0.001529453438706696
1772457591506058800,10.467058837890624,-0.019111642614006996,0.010615093633532524,0.009040366858243942
1772457591516127700,10.477127685546876,-0.017228521406650543,0.0020722055342048407,0.008696818724274635
1772457591526196700,10.48719677734375,-0.018581407144665718,-0.007404652889817953,-0.00013608753215521574
1772457591536265700,10.497265625,-0.016992032527923584,-0.01458853017538786,-0.012850817292928696
1772457591546333700,10.507333740234374,-0.01769297756254673,-0.017597636207938194,-0.02237854339182377
1772457591556402700,10.517402587890626,-0.014210094697773457,-0.01558348722755909,-0.02756131999194622
1772457591566472000,10.527471923828125,-0.009602027013897896,-0.01601598411798477,-0.024814270436763763
1772457591576539600,10.53753955078125,-0.00708747049793601,-0.01625194028019905,-0.017544372007250786
1772457591586608600,10.547608642578124,-0.006552175153046846,-0.01013945322483778,-0.002260757377371192
1772457591596678000,10.557677978515626,-0.005047488957643509,0.004311391618102789,0.017588581889867783
1772457591606746600,10.56774658203125,-0.0025574336759746075,0.010331733152270317,0.026324281468987465
1772457591616814800,10.57781494140625,0.0001179780374513939,0.0011504855938255787,0.030851123854517937
1772457591626883800,10.5878837890625,-0.0004958806093782187,-0.012368252500891685,0.031376298516988754
1772457591636952800,10.597952880859374,0.0011478224769234657,-0.020300211384892464,0.026979953050613403
1772457591647020800,10.608020751953125,-0.00027856664382852614,-0.018688732758164406,0.021214473992586136
1772457591657089800,10.61808984375,0.0011851066956296563,-0.01727805659174919,0.020786238834261894
1772457591667158800,10.62815869140625,0.00013262542779557407,-0.011095527559518814,0.01537576038390398
1772457591677227800,10.638227783203124,0.0009097357979044318,0.0213612150400877,0.008403604850172997
1772457591687295700,10.648295654296875,-0.006131662055850029,0.018319617956876755,-0.0011797803454101086
1772457591697364700,10.65836474609375,-0.017948906868696213,-0.011534417048096657,-0.005621400196105242
1772457591707433700,10.668433837890625,-0.030430343002080917,-0.009215336292982101,-0.011204451322555542
1772457591717502000,10.678501953125,-0.022347649559378624,-0.028129905462265015,-0.02369973622262478
1772457591727570700,10.68857080078125,-0.007223558146506548,-0.04368969053030014,-0.028896363452076912
1772457591737639700,10.6986396484375,0.0032927324064075947,-0.03951012343168259,-0.03671380504965782
1772457591747708000,10.7087080078125,0.003983822651207447,-0.01889645867049694,-0.03807494789361954
1772457591757776600,10.718776611328124,0.0015076154377311468,-0.0017872473690658808,-0.026789003983139992
1772457591767846000,10.728845947265626,-0.0065111625008285046,-0.007509581744670868,-0.015014369040727615
1772457591777915000,10.738914794921875,-0.013048158027231693,-0.016334231942892075,0.001806155894882977
1772457591787982600,10.748982666015625,-0.014273211359977722,-0.018764633685350418,0.010861702263355255
1772457591798051800,10.7590517578125,-0.0102579640224576,-0.01613422855734825,0.016154468059539795
1772457591808120800,10.769120849609376,-0.010204967111349106,-0.018604842945933342,0.02215350605547428
1772457591818188500,10.7791884765625,-0.013585050590336323,-0.021691180765628815,0.03230920433998108
1772457591828257800,10.7892578125,-0.018385132774710655,-0.022649651393294334,0.044309940189123154
1772457591838326800,10.799326904296874,-0.012681174091994762,-0.009038768708705902,0.06100796163082123
1772457591848395800,10.809395751953126,-0.012623916380107403,0.0020567593164741993,0.07820478826761246
1772457591858463700,10.819463623046875,-0.006176403257995844,0.017356086522340775,0.09227373450994492
1772457591868532700,10.82953271484375,-0.0026112294290214777,0.018333733081817627,0.09925974160432816
1772457591878601700,10.839601806640625,-0.00040000680019147694,-0.0008428904693573713,0.09936493635177612
1772457591888669700,10.849669677734376,0.006874950136989355,-0.020052803680300713,0.09528044611215591
1772457591898739000,10.859739013671875,0.007397196255624294,-0.03491457551717758,0.09341170638799667
1772457591908807700,10.8698076171875,0.008860336616635323,-0.034201644361019135,0.09120554476976395
1772457591918876700,10.879876708984375,0.009650230407714844,-0.02328881062567234,0.07724764943122864
1772457591928945000,10.88994482421875,0.01811988092958927,-0.01477788109332323,0.05269383639097214
1772457591939013600,10.900013671875,0.029216209426522255,-0.014711035415530205,0.024083498865365982
1772457591949083000,10.910082763671875,0.037274666130542755,-0.01961418054997921,-0.005073588341474533
1772457591959150800,10.92015087890625,0.03989015892148018,-0.03177124634385109,-0.028925390914082527
1772457591969219600,10.930219482421874,0.03790184110403061,-0.03427514806389809,-0.045933403074741364
1772457591979288800,10.940288818359376,0.03355369716882706,-0.009412942454218864,-0.057068612426519394
1772457591989357800,10.95035791015625,0.03391801938414574,0.014722220599651337,-0.0658503845334053
1772457591999425500,10.960425537109375,0.029760025441646576,0.026667030528187752,-0.07857390493154526
1772457592009494500,10.97049462890625,0.02075188420712948,0.035296205431222916,-0.08567815274000168
1772457592019563500,10.9805634765625,0.018308699131011963,0.03213023766875267,-0.09170675277709961
1772457592029631500,10.990631591796875,0.017973674461245537,0.020617660135030746,-0.09337761998176575
1772457592039700500,11.000700439453125,0.011668373830616474,0.023260315880179405,-0.07890253514051437
1772457592049769500,11.01076953125,0.010043046437203884,0.038731418550014496,-0.0780189037322998
1772457592059838500,11.02083837890625,0.010401774197816849,0.02907346375286579,-0.07684178650379181
1772457592069906400,11.030906494140625,-0.003233876544982195,-0.02293567545711994,-0.07070186734199524
1772457592079975700,11.0409755859375,-0.000025566347176209092,-0.09817051142454147,-0.08864784240722656
1772457592090044400,11.05104443359375,0.020137492567300797,-0.10097108781337738,-0.0941411480307579
1772457592100112400,11.0611123046875,0.03184448182582855,-0.1045149564743042,-0.10759170353412628
1772457592110181600,11.071181640625,0.0329132080078125,-0.07954569160938263,-0.13054975867271423
1772457592120250400,11.08125048828125,0.01866023615002632,-0.04460262134671211,-0.15280897915363312
1772457592130319600,11.091319580078125,-0.01691240444779396,0.036431510001420975,-0.15457972884178162
1772457592140387600,11.1013876953125,-0.035766519606113434,0.10393678396940231,-0.155746191740036
1772457592150456300,11.111456298828125,-0.03606665879487991,0.09321063756942749,-0.1557275503873825
