time,seconds_elapsed,z,y,x
1772458560303948300,0.0669482421875,0.09198488295078278,-0.1577140837907791,-0.38286036252975464
1772458560314016300,0.077016357421875,0.05446067824959755,-0.10747914016246796,-0.3599281311035156
1772458560324084200,0.087084228515625,0.025175917893648148,-0.09026165306568146,-0.3403405547142029
1772458560334151200,0.097151123046875,0.0025315904058516026,-0.096319280564785,-0.3250982165336609
1772458560344219400,0.107219482421875,-0.00937787164002657,-0.09984477609395981,-0.30623266100883484
1772458560354287400,0.117287353515625,-0.019011856988072395,-0.11258134245872498,-0.28652340173721313
1772458560364354300,0.127354248046875,-0.016005653887987137,-0.15334637463092804,-0.2909834682941437
1772458560374422300,0.13742236328125,-0.005917333997786045,-0.20830203592777252,-0.30893874168395996
1772458560384490500,0.147490478515625,0.018895700573921204,-0.2625810205936432,-0.3395356237888336
1772458560394558500,0.157558349609375,0.03197581693530083,-0.25587067008018494,-0.3535696864128113
1772458560404625400,0.16762548828125,0.026596374809741974,-0.1915118396282196,-0.3340800106525421
1772458560414693400,0.177693359375,-0.010404519736766815,-0.11459602415561676,-0.29860907793045044
1772458560424761300,0.18776123046875,-0.057224374264478683,-0.04375750571489334,-0.2589426040649414
1772458560434828300,0.197828369140625,-0.09331819415092468,0.025105180218815804,-0.22781077027320862
1772458560444896500,0.207896484375,-0.11899952590465546,0.09782634675502777,-0.2005116045475006
1772458560454964500,0.217964599609375,-0.12542973458766937,0.18949368596076965,-0.1753218173980713
1772458560465032700,0.22803271484375,-0.11620573699474335,0.2973629832267761,-0.143769308924675
1772458560475100000,0.238099853515625,-0.0909280776977539,0.39163196086883545,-0.11422580480575562
1772458560485167600,0.248167724609375,-0.056863658130168915,0.43836015462875366,-0.08497557789087296
1772458560495235600,0.258235595703125,-0.029895422980189323,0.4454721212387085,-0.0576358363032341
1772458560505303800,0.2683037109375,-0.012155704200267792,0.4152359962463379,-0.04980357363820076
1772458560515370800,0.278370849609375,0.008440118283033371,0.3519417345523834,-0.05545879527926445
1772458560525438700,0.288438720703125,0.029833659529685974,0.2853919267654419,-0.07728324830532074
1772458560535506700,0.298506591796875,0.052531782537698746,0.22424840927124023,-0.08440293371677399
1772458560545573600,0.30857373046875,0.06195729225873947,0.1360039860010147,-0.07996437698602676
1772458560555641600,0.3186416015625,0.0681009441614151,0.034983884543180466,-0.06585361808538437
1772458560565709800,0.328709716796875,0.06576107442378998,-0.05200815573334694,-0.036127720028162
1772458560575777800,0.33877783203125,0.05252595990896225,-0.1130366250872612,0.0019485587254166603
1772458560585844700,0.3488447265625,0.02926894836127758,-0.15807285904884338,0.03616314381361008
1772458560595912700,0.35891259765625,0.005290111526846886,-0.20667076110839844,0.049817703664302826
1772458560605980700,0.368980712890625,-0.021193159744143486,-0.2599009573459625,0.04665600135922432
1772458560616047900,0.3790478515625,-0.04781198874115944,-0.33886075019836426,0.008155746385455132
1772458560626115800,0.38911572265625,-0.08671197295188904,-0.46405258774757385,-0.08598984777927399
1772458560636183800,0.399183837890625,-0.13783854246139526,-0.5811821222305298,-0.23149190843105316
1772458560646251800,0.409251708984375,-0.18947745859622955,-0.6430312991142273,-0.3975032567977905
1772458560656318700,0.419318603515625,-0.2346063256263733,-0.62974613904953,-0.5646606087684631
1772458560666387000,0.429386962890625,-0.2825339734554291,-0.5621109008789062,-0.6958873271942139
1772458560676454700,0.43945458984375,-0.3251035511493683,-0.4527167081832886,-0.7652748823165894
1772458560686521900,0.44952197265625,-0.3709520995616913,-0.30253756046295166,-0.756128191947937
1772458560696589800,0.45958984375,-0.4178823232650757,-0.13748441636562347,-0.6953237056732178
1772458560706657500,0.469657470703125,-0.45441240072250366,0.012001985684037209,-0.595102846622467
1772458560716725800,0.479725830078125,-0.4642370641231537,0.14264148473739624,-0.4752451479434967
1772458560726792700,0.489792724609375,-0.44555261731147766,0.23511266708374023,-0.34514155983924866
1772458560736860700,0.499860595703125,-0.4106111526489258,0.26669880747795105,-0.2343418151140213
1772458560746928600,0.5099287109375,-0.3566771447658539,0.25056999921798706,-0.14891143143177032
1772458560756995600,0.51999560546875,-0.28783175349235535,0.18877080082893372,-0.08987314254045486
1772458560767063800,0.530063720703125,-0.21085752546787262,0.12078152596950531,-0.041046448051929474
1772458560777131800,0.5401318359375,-0.13620539009571075,0.0725916251540184,-0.0032958753872662783
1772458560787199700,0.55019970703125,-0.06541018187999725,0.06170790269970894,0.030034292489290237
1772458560797266700,0.5602666015625,-0.010108571499586105,0.07610921561717987,0.05831972509622574
1772458560807334700,0.570334716796875,0.034074071794748306,0.0828171819448471,0.07981330156326294
1772458560817403000,0.58040283203125,0.06746238470077515,0.06264826655387878,0.09195119142532349
1772458560827470800,0.590470947265625,0.08938051760196686,0.009295059368014336,0.101526640355587
1772458560837537800,0.600537841796875,0.09108254313468933,-0.07124665379524231,0.10825325548648834
1772458560847605800,0.610605712890625,0.07892785966396332,-0.15767545998096466,0.11459176242351532
1772458560857673700,0.620673828125,0.06456251442432404,-0.2125999629497528,0.12207631021738052
1772458560867740700,0.63074072265625,0.0521114356815815,-0.251266747713089,0.1376657336950302
1772458560877809000,0.640808837890625,0.04255761206150055,-0.28668999671936035,0.16494636237621307
1772458560887876900,0.650876953125,0.02615378424525261,-0.3221849203109741,0.18950538337230682
1772458560897944600,0.660944580078125,0.01724817231297493,-0.32125574350357056,0.22116051614284515
1772458560908011800,0.67101171875,0.01911635510623455,-0.3219124376773834,0.24136120080947876
1772458560918079700,0.681079833984375,0.03312857449054718,-0.3463940918445587,0.23898166418075562
1772458560928147700,0.691147705078125,0.04822611063718796,-0.40776264667510986,0.21367709338665009
1772458560938214700,0.701214599609375,0.06159384548664093,-0.45207205414772034,0.17892470955848694
1772458560948282600,0.71128271484375,0.07228066772222519,-0.4555540978908539,0.13665220141410828
1772458560958350600,0.7213505859375,0.06478972733020782,-0.4273136556148529,0.09326717257499695
1772458560968418800,0.731418701171875,0.04099129140377045,-0.3934931755065918,0.032249514013528824
1772458560978485800,0.74148583984375,0.005186956375837326,-0.360197514295578,-0.03205490484833717
1772458560988553700,0.7515537109375,-0.0351877361536026,-0.33928099274635315,-0.09715870022773743
1772458560998621700,0.76162158203125,-0.07781722396612167,-0.3236282765865326,-0.1556592881679535
1772458561008688600,0.771688720703125,-0.1201862096786499,-0.28803420066833496,-0.18663960695266724
1772458561018756600,0.781756591796875,-0.16433210670948029,-0.2096046507358551,-0.19374465942382812
1772458561028824800,0.791824951171875,-0.20853306353092194,-0.11786399036645889,-0.1757689267396927
1772458561038892800,0.801892822265625,-0.24591530859470367,-0.036087360233068466,-0.14462777972221375
1772458561048959700,0.811959716796875,-0.2617167830467224,0.024080365896224976,-0.09556278586387634
1772458561059027700,0.82202783203125,-0.25388869643211365,0.06261364370584488,-0.04549456015229225
1772458561069096000,0.832095947265625,-0.23657634854316711,0.07284145802259445,0.002091750968247652
1772458561079163000,0.842162841796875,-0.21259884536266327,0.058541879057884216,0.03247362747788429
1772458561089230800,0.85223095703125,-0.18837524950504303,0.027141232043504715,0.04801880568265915
1772458561099298800,0.862298828125,-0.170370951294899,-0.027079397812485695,0.05332968011498451
1772458561109366500,0.872366455078125,-0.16304457187652588,-0.0861257016658783,0.040055885910987854
1772458561119433700,0.882433837890625,-0.1703706532716751,-0.11498904228210449,0.037177275866270065
1772458561129501700,0.892501708984375,-0.19134967029094696,-0.0886484831571579,0.02948106825351715
1772458561139569700,0.902569580078125,-0.21240168809890747,-0.021059855818748474,0.019216712564229965
1772458561149637600,0.9126376953125,-0.2257254421710968,0.05016703903675079,-0.005284394137561321
1772458561159704600,0.92270458984375,-0.23683536052703857,0.10446330159902573,-0.026161447167396545
1772458561169772800,0.932772705078125,-0.2348148077726364,0.1318679302930832,-0.04898891970515251
1772458561179840800,0.9428408203125,-0.22752706706523895,0.1259448081254959,-0.06359555572271347
1772458561189907700,0.95290771484375,-0.22297129034996033,0.12068153917789459,-0.07178276032209396
1772458561199975700,0.9629755859375,-0.22029374539852142,0.11488942801952362,-0.06580901890993118
1772458561210043600,0.973043701171875,-0.22664959728717804,0.08195201307535172,-0.06389575451612473
1772458561220112000,0.98311181640625,-0.23139642179012299,-0.0017165187746286392,-0.05739763751626015
1772458561230178800,0.9931787109375,-0.23476877808570862,-0.1046048179268837,-0.03652351722121239
1772458561240246800,1.003246826171875,-0.24660173058509827,-0.17103737592697144,0.006701984442770481
1772458561250314800,1.013314697265625,-0.26611918210983276,-0.19040757417678833,0.06924557685852051
1772458561260381700,1.023381591796875,-0.2832278609275818,-0.165399968624115,0.14619947969913483
1772458561270449700,1.03344970703125,-0.2943815290927887,-0.11679088324308395,0.227046936750412
1772458561280518000,1.043517822265625,-0.2716836631298065,-0.07034268975257874,0.30302026867866516
1772458561290585900,1.0535859375,-0.21823033690452576,-0.057161491364240646,0.3646162748336792
1772458561300652800,1.06365283203125,-0.14549462497234344,-0.05600328370928764,0.4091547131538391
1772458561310720800,1.073720703125,-0.07980445772409439,-0.03203462436795235,0.4407322406768799
1772458561320788700,1.083788818359375,-0.033802345395088196,0.024849697947502136,0.4798023998737335
1772458561330856000,1.09385595703125,-0.014242401346564293,0.07761096954345703,0.49292153120040894
1772458561340924000,1.103923828125,0.006476991809904575,0.0952000841498375,0.4930807948112488
1772458561350991600,1.11399169921875,0.04437778890132904,0.07714790850877762,0.48631006479263306
1772458561361059600,1.1240595703125,0.0782792940735817,0.02697049267590046,0.47171756625175476
1772458561371126500,1.13412646484375,0.09387817978858948,-0.04039020091295242,0.440412312746048
1772458561381194800,1.14419482421875,0.10092224180698395,-0.10157259553670883,0.40457573533058167
1772458561391262700,1.1542626953125,0.0857178121805191,-0.15282346308231354,0.3688910901546478
1772458561401329700,1.16432958984375,0.06799234449863434,-0.19798056781291962,0.3203571140766144
1772458561411397600,1.174397705078125,0.043055832386016846,-0.2501145899295807,0.2734796702861786
1772458561421465600,1.184465576171875,0.009727169759571552,-0.32525834441185,0.2053682506084442
1772458561431533800,1.194533935546875,-0.03451620414853096,-0.418783575296402,0.11709202826023102
1772458561441600800,1.204600830078125,-0.08709445595741272,-0.49990907311439514,0.021080009639263153
1772458561451668700,1.214668701171875,-0.1413719803094864,-0.5363200306892395,-0.07872903347015381
1772458561461736700,1.22473681640625,-0.2077890932559967,-0.5016206502914429,-0.16339491307735443
1772458561471803600,1.2348037109375,-0.2712138593196869,-0.38412249088287354,-0.23044931888580322
1772458561481871600,1.24487158203125,-0.32150447368621826,-0.20625901222229004,-0.26650503277778625
1772458561491939600,1.254939697265625,-0.34607139229774475,0.01066635362803936,-0.2802443504333496
1772458561502007800,1.2650078125,-0.3409525156021118,0.18665389716625214,-0.2850241959095001
1772458561512074800,1.27507470703125,-0.3160708248615265,0.30071738362312317,-0.27280500531196594
1772458561522142700,1.285142822265625,-0.2731691598892212,0.3425700068473816,-0.2447824478149414
1772458561532210700,1.295210693359375,-0.2288406640291214,0.34133824706077576,-0.19477985799312592
1772458561542277600,1.305277587890625,-0.19260862469673157,0.3310864269733429,-0.12537626922130585
1772458561552345900,1.315345947265625,-0.16381581127643585,0.32470497488975525,-0.043816640973091125
1772458561562413600,1.32541357421875,-0.14660221338272095,0.2888740003108978,0.03683159872889519
1772458561572481500,1.3354814453125,-0.1294088363647461,0.21091972291469574,0.09685134142637253
1772458561582548700,1.345548828125,-0.10835788398981094,0.09854205697774887,0.14223480224609375
1772458561592616400,1.355616455078125,-0.0915341004729271,-0.030660491436719894,0.14547249674797058
1772458561602684700,1.3656845703125,-0.07606033980846405,-0.13252054154872894,0.12155438959598541
1772458561612752600,1.375752685546875,-0.0606512650847435,-0.18187081813812256,0.07887956500053406
1772458561622819600,1.385819580078125,-0.04017368704080582,-0.16582846641540527,0.025903433561325073
1772458561632887600,1.395887451171875,-0.013942833989858627,-0.130215585231781,-0.03714817762374878
1772458561642955800,1.405955810546875,0.017357829958200455,-0.1181248277425766,-0.10531125217676163
1772458561653022700,1.416022705078125,0.051873281598091125,-0.1301238089799881,-0.18329018354415894
1772458561663090700,1.426090576171875,0.08802276104688644,-0.1414710134267807,-0.2492436319589615
1772458561673158700,1.43615869140625,0.12213614583015442,-0.12355071306228638,-0.30089879035949707
1772458561683226600,1.4462265625,0.1471935659646988,-0.060861241072416306,-0.3148425817489624
1772458561693293600,1.45629345703125,0.16364657878875732,0.0008875187486410141,-0.30705010890960693
1772458561703361800,1.46636181640625,0.17618127167224884,0.05238186568021774,-0.2850302755832672
1772458561713429800,1.4764296875,0.185201495885849,0.07927221804857254,-0.24770790338516235
1772458561723496700,1.48649658203125,0.18920421600341797,0.08108317106962204,-0.21050406992435455
1772458561733564700,1.496564697265625,0.1827714443206787,0.07950370758771896,-0.15370085835456848
1772458561743632600,1.506632568359375,0.17602087557315826,0.0924495980143547,-0.06741870194673538
1772458561753700600,1.51670068359375,0.1779726892709732,0.10138965398073196,0.02896740473806858
1772458561763767800,1.526767822265625,0.1788422167301178,0.09880878776311874,0.11892952024936676
1772458561773835800,1.536835693359375,0.17446956038475037,0.09330344200134277,0.2030477374792099
1772458561783903500,1.546903564453125,0.1767154037952423,0.07971733063459396,0.27143025398254395
1772458561793970700,1.556970703125,0.18939413130283356,0.07006573677062988,0.33257266879081726
1772458561804038700,1.56703857421875,0.21269945800304413,0.07272464036941528,0.39281681180000305
1772458561814106600,1.577106689453125,0.2511066496372223,0.09681973606348038,0.460206001996994
1772458561824174600,1.587174560546875,0.29478195309638977,0.1684931218624115,0.5405272245407104
1772458561834241500,1.597241455078125,0.3393562138080597,0.2483402043581009,0.6332787871360779
1772458561844309500,1.6073095703125,0.37498024106025696,0.267773300409317,0.7122609615325928
1772458561854377700,1.617377685546875,0.4037509262561798,0.24634385108947754,0.7744736671447754
1772458561864444700,1.627444580078125,0.41448426246643066,0.22862158715724945,0.8349343538284302
1772458561874512600,1.6375126953125,0.40999534726142883,0.20308420062065125,0.8659209609031677
1772458561884580600,1.64758056640625,0.38062119483947754,0.14983110129833221,0.8574853539466858
1772458561894648600,1.657648681640625,0.33005693554878235,0.05052526295185089,0.796136736869812
1772458561904715800,1.6677158203125,0.2410421073436737,-0.10362941771745682,0.6941232681274414
1772458561914783700,1.67778369140625,0.11452332884073257,-0.23429155349731445,0.5671152472496033
1772458561924851700,1.687851806640625,-0.021642500534653664,-0.28474780917167664,0.4472714364528656
1772458561934918700,1.697918701171875,-0.14069166779518127,-0.2559316158294678,0.3698940873146057
1772458561944986600,1.707986572265625,-0.24593418836593628,-0.21548084914684296,0.32284215092658997
1772458561955054800,1.718054931640625,-0.33347171545028687,-0.2492934912443161,0.26859045028686523
1772458561965122800,1.728122802734375,-0.39083245396614075,-0.33948516845703125,0.19378544390201569
1772458561975189800,1.738189697265625,-0.40644240379333496,-0.399568110704422,0.1111893355846405
1772458561985257700,1.7482578125,-0.3865208923816681,-0.3759181499481201,0.03854922205209732
1772458561995325400,1.758325439453125,-0.34617820382118225,-0.2715352773666382,-0.0017720434116199613
1772458562005393700,1.7683935546875,-0.2767466604709625,-0.07327038794755936,0.016817618161439896
1772458562015460600,1.778460693359375,-0.18619480729103088,0.2030467689037323,0.08851008862257004
1772458562025528600,1.788528564453125,-0.08831511437892914,0.49151691794395447,0.1720033884048462
1772458562035596500,1.798596435546875,0.002719232579693198,0.6972030401229858,0.23782746493816376
1772458562045663500,1.80866357421875,0.061591070145368576,0.7812801003456116,0.26573631167411804
1772458562055731700,1.818731689453125,0.10548253357410431,0.7772632241249084,0.2566142678260803
1772458562065799700,1.828799560546875,0.15222740173339844,0.6887735724449158,0.22322942316532135
1772458562075867600,1.83886767578125,0.20566339790821075,0.5375996828079224,0.1848035603761673
1772458562085934600,1.8489345703125,0.25800809264183044,0.37297266721725464,0.15219368040561676
1772458562096002600,1.85900244140625,0.30399876832962036,0.21859872341156006,0.13254575431346893
1772458562106070800,1.86907080078125,0.34058821201324463,0.06516069173812866,0.12001717835664749
1772458562116137700,1.8791376953125,0.37246572971343994,-0.0806223675608635,0.09663669019937515
1772458562126205700,1.889205810546875,0.3945196270942688,-0.20466123521327972,0.0613788366317749
1772458562136273700,1.899273681640625,0.40086013078689575,-0.33091673254966736,0.015350721776485443
1772458562146341600,1.909341552734375,0.398825466632843,-0.4528751075267792,-0.026773829013109207
1772458562156408600,1.91940869140625,0.37739548087120056,-0.5299196839332581,-0.05743297189474106
1772458562166476800,1.929476806640625,0.32740581035614014,-0.5088312029838562,-0.0572793073952198
1772458562176544800,1.939544677734375,0.24683323502540588,-0.37732797861099243,-0.030338916927576065
1772458562186611700,1.94961181640625,0.1601015329360962,-0.18857458233833313,0.010254583321511745
1772458562196679700,1.9596796875,0.0814148336648941,-0.014007123187184334,0.03377518430352211
1772458562206747600,1.96974755859375,0.01882469281554222,0.0998520627617836,0.016357041895389557
1772458562216815600,1.979815673828125,-0.026332926005125046,0.1574484258890152,-0.037302374839782715
1772458562226882800,1.9898828125,-0.055384017527103424,0.18845027685165405,-0.10868867486715317
1772458562236950500,1.999950439453125,-0.059149377048015594,0.22718265652656555,-0.1787942349910736
1772458562247018500,2.0100185546875,-0.0429307259619236,0.25658687949180603,-0.23990657925605774
1772458562257085400,2.02008544921875,-0.01984928548336029,0.255003958940506,-0.284721314907074
1772458562267153700,2.030153564453125,0.014259683899581432,0.22576670348644257,-0.31967663764953613
1772458562277221600,2.0402216796875,0.05320661514997482,0.18853899836540222,-0.34534987807273865
1772458562287289600,2.05028955078125,0.09455884993076324,0.15857790410518646,-0.3541193902492523
1772458562297356500,2.0603564453125,0.13413453102111816,0.1422540843486786,-0.3547976613044739
1772458562307424500,2.070424560546875,0.16132193803787231,0.14193983376026154,-0.34105759859085083
1772458562317492700,2.08049267578125,0.18069760501384735,0.1413705050945282,-0.30315643548965454
1772458562327559700,2.0905595703125,0.19819749891757965,0.13509397208690643,-0.24789799749851227
1772458562337627600,2.100627685546875,0.21690651774406433,0.11451558023691177,-0.18266095221042633
1772458562347695600,2.110695556640625,0.2300790399312973,0.06941813975572586,-0.12465118616819382
1772458562357763800,2.120763916015625,0.23569929599761963,0.016549985855817795,-0.07384902238845825
1772458562367830800,2.130830810546875,0.23239430785179138,-0.03666609898209572,-0.027933727949857712
1772458562377898800,2.140898681640625,0.2094554305076599,-0.08924142271280289,0.009752397425472736
1772458562387966700,2.150966796875,0.1886630654335022,-0.16053105890750885,0.03762264549732208
1772458562398034700,2.16103466796875,0.17719680070877075,-0.24001358449459076,0.05207275226712227
1772458562408101600,2.1711015625,0.17150215804576874,-0.3066767752170563,0.06515020877122879
1772458562418169900,2.181169921875,0.16305026412010193,-0.35742735862731934,0.07652711868286133
1772458562428237600,2.191237548828125,0.15631939470767975,-0.40567877888679504,0.07077948749065399
1772458562438304800,2.2013046875,0.14232927560806274,-0.43376296758651733,0.06970657408237457
1772458562448372500,2.21137255859375,0.12794634699821472,-0.4299916625022888,0.05075392127037048
1772458562458440700,2.221440673828125,0.10535196959972382,-0.3989717364311218,0.03784047067165375
1772458562468509000,2.231509033203125,0.07472668588161469,-0.358462393283844,0.019597815349698067
1772458562478575900,2.241575927734375,0.02776746265590191,-0.34165212512016296,-0.0033916402608156204
1772458562488643800,2.251643798828125,-0.041266463696956635,-0.32753098011016846,-0.022683313116431236
1772458562498711800,2.2617119140625,-0.1230073869228363,-0.2855657637119293,-0.022085657343268394
1772458562508778800,2.27177880859375,-0.195695161819458,-0.2103426605463028,-0.0017138071125373244
1772458562518847000,2.281846923828125,-0.24481900036334991,-0.16433359682559967,0.008915992453694344
1772458562528915000,2.2919150390625,-0.27887073159217834,-0.17748428881168365,-0.0193843562155962
1772458562538983000,2.30198291015625,-0.30167967081069946,-0.23108841478824615,-0.07685303688049316
1772458562549049900,2.3120498046875,-0.31540346145629883,-0.2826426923274994,-0.15510281920433044
1772458562559117800,2.322117919921875,-0.33182355761528015,-0.3305489122867584,-0.2547092139720917
1772458562569186000,2.33218603515625,-0.34960654377937317,-0.4021192491054535,-0.3633619248867035
1772458562579253000,2.3422529296875,-0.369296669960022,-0.5082653760910034,-0.4894637167453766
1772458562589321000,2.352321044921875,-0.4029683470726013,-0.5803843140602112,-0.6099845767021179
1772458562599389000,2.362388916015625,-0.44813308119773865,-0.5564107298851013,-0.7071024775505066
1772458562609457000,2.372456787109375,-0.4929482340812683,-0.41479772329330444,-0.7755544781684875
1772458562619523800,2.38252392578125,-0.5372694730758667,-0.20164558291435242,-0.8056968450546265
1772458562629592000,2.392592041015625,-0.5812768936157227,-0.012095628306269646,-0.8030547499656677
1772458562639659800,2.40265966796875,-0.6103708148002625,0.11932264268398285,-0.76976078748703
1772458562649727700,2.412727783203125,-0.6171360611915588,0.2107606828212738,-0.7100732326507568
1772458562659794700,2.422794677734375,-0.6005715727806091,0.28168541193008423,-0.6239100098609924
1772458562669863000,2.43286279296875,-0.5764548182487488,0.34900611639022827,-0.5128012895584106
1772458562679931000,2.442930908203125,-0.5319868326187134,0.43350347876548767,-0.39184388518333435
1772458562689997800,2.452997802734375,-0.4720025658607483,0.5061619281768799,-0.2586844861507416
1772458562700065800,2.463065673828125,-0.38889795541763306,0.5333226919174194,-0.13263367116451263
1772458562710133800,2.4731337890625,-0.3001376986503601,0.4921579957008362,-0.02225390635430813
1772458562720202000,2.483201904296875,-0.19940295815467834,0.37516695261001587,0.07084286212921143
1772458562730269000,2.49326904296875,-0.08701169490814209,0.18791957199573517,0.15065619349479675
1772458562740337000,2.5033369140625,0.041632022708654404,-0.04029699042439461,0.2164101004600525
1772458562750404900,2.51340478515625,0.15904280543327332,-0.2589193284511566,0.27908092737197876
1772458562760471800,2.523471923828125,0.24511952698230743,-0.43326783180236816,0.3473407030105591
1772458562770539800,2.533539794921875,0.28436943888664246,-0.5553255677223206,0.39907047152519226
1772458562780608000,2.54360791015625,0.2934839725494385,-0.6488592028617859,0.41757744550704956
1772458562790676000,2.553676025390625,0.2705373764038086,-0.710639476776123,0.4028871953487396
1772458562800743000,2.563742919921875,0.21223106980323792,-0.7058994770050049,0.3554566502571106
1772458562810811000,2.573810791015625,0.11652904748916626,-0.6236293911933899,0.28183886408805847
1772458562820879000,2.583879150390625,-0.010202029719948769,-0.4822498857975006,0.19182464480400085
1772458562830946000,2.593946044921875,-0.13983085751533508,-0.31111380457878113,0.0999506488442421
1772458562841014000,2.604013916015625,-0.23953719437122345,-0.11927134543657303,0.0012601448688656092
1772458562851081700,2.614081787109375,-0.3025270700454712,0.07022614032030106,-0.09203092008829117
1772458562861149700,2.624149658203125,-0.32472631335258484,0.25075846910476685,-0.1796838939189911
1772458562871217000,2.634216796875,-0.3225822150707245,0.3833966851234436,-0.24358510971069336
1772458562881284900,2.644284912109375,-0.30948197841644287,0.46045106649398804,-0.26773500442504883
1772458562891352800,2.654352783203125,-0.2889644503593445,0.4938606917858124,-0.24658632278442383
1772458562901419800,2.664419677734375,-0.2626124918460846,0.503265380859375,-0.17462284862995148
1772458562911487700,2.67448779296875,-0.24066513776779175,0.4967997968196869,-0.0794803574681282
1772458562921555700,2.6845556640625,-0.21992966532707214,0.4708380103111267,0.024439767003059387
1772458562931624000,2.6946240234375,-0.1969013214111328,0.4094636142253876,0.10177823156118393
1772458562941691000,2.70469091796875,-0.17594288289546967,0.3193769156932831,0.1535256952047348
1772458562951758800,2.7147587890625,-0.15393905341625214,0.22425171732902527,0.18326041102409363
1772458562961826800,2.724826904296875,-0.13588455319404602,0.1207229346036911,0.20079734921455383
1772458562971895000,2.73489501953125,-0.11565624177455902,0.027015885338187218,0.19207176566123962
1772458562981962000,2.7449619140625,-0.10290837287902832,-0.029977334663271904,0.16440130770206451
1772458562992030000,2.755030029296875,-0.08880773186683655,-0.04440314322710037,0.13023720681667328
1772458563002098000,2.765097900390625,-0.0725051760673523,-0.02221069484949112,0.09628362208604813
1772458563012164900,2.775164794921875,-0.060843463987112045,0.0113914730027318,0.06669137626886368
1772458563022232800,2.78523291015625,-0.05708642303943634,0.040159232914447784,0.04330062121152878
1772458563032301000,2.795301025390625,-0.048814911395311356,0.07516062259674072,0.0332554429769516
1772458563042368800,2.80536865234375,-0.04641937464475632,0.09477566927671432,0.022937413305044174
1772458563052436000,2.81543603515625,-0.040216341614723206,0.10214915871620178,0.013348967768251896
1772458563062504000,2.82550390625,-0.03413856774568558,0.12149856984615326,0.011716867797076702
1772458563072571600,2.835571533203125,-0.03181735426187515,0.1611626297235489,0.012040708214044571
1772458563082639000,2.84563916015625,-0.026544608175754547,0.18094216287136078,0.0037502292543649673
1772458563092706800,2.855706787109375,-0.010567504912614822,0.19085285067558289,-0.010610068216919899
1772458563102774800,2.86577490234375,0.015708839520812035,0.18449854850769043,-0.03286184370517731
1772458563112842800,2.8758427734375,0.04487258195877075,0.16482684016227722,-0.06311002373695374
1772458563122909700,2.88590966796875,0.08368494361639023,0.14771676063537598,-0.08385217189788818
1772458563132978000,2.89597802734375,0.13519713282585144,0.14892344176769257,-0.08263244479894638
1772458563143046000,2.9060458984375,0.19763699173927307,0.1647324413061142,-0.04796326905488968
1772458563153112800,2.91611279296875,0.2776561677455902,0.15904979407787323,0.027581555768847466
1772458563163180800,2.926180908203125,0.3636924624443054,0.14891791343688965,0.13156117498874664
1772458563173248800,2.936248779296875,0.45309609174728394,0.20331349968910217,0.29530858993530273
1772458563183317000,2.94631689453125,0.541754424571991,0.3070845305919647,0.49658605456352234
1772458563193384000,2.956384033203125,0.6078921556472778,0.32553383708000183,0.6812483072280884
1772458563203452000,2.966451904296875,0.6594007015228271,0.21154475212097168,0.8061016798019409
1772458563213520000,2.976519775390625,0.6899652481079102,0.0750870332121849,0.865717887878418
1772458563223588000,2.986588134765625,0.6882537007331848,-0.06042705848813057,0.8424329161643982
1772458563233655000,2.996655029296875,0.6581102013587952,-0.23709502816200256,0.7299119234085083
1772458563243723000,3.006722900390625,0.5898005962371826,-0.4585537314414978,0.5361999273300171
1772458563253791000,3.016791015625,0.4764207899570465,-0.6681631803512573,0.30252668261528015
1772458563263858000,3.02685791015625,0.35482534766197205,-0.7783055305480957,0.07962881028652191
1772458563273926000,3.03692578125,0.2532880902290344,-0.7523120045661926,-0.0856885090470314
1772458563283993900,3.046993896484375,0.1631346046924591,-0.6113191843032837,-0.14193548262119293
1772458563294061800,3.057061767578125,0.09133817255496979,-0.359914094209671,-0.07224428653717041
1772458563304128800,3.067128662109375,0.03720683231949806,-0.009663863107562065,0.10976164788007736
1772458563314196700,3.07719677734375,0.019059251993894577,0.39272618293762207,0.34804558753967285
1772458563324264700,3.0872646484375,0.030846228823065758,0.7311199903488159,0.5577392578125
1772458563334332000,3.097331787109375,0.06894993782043457,0.918363094329834,0.6975294351577759
1772458563344400000,3.10739990234375,0.11003006249666214,0.9784049391746521,0.7596757411956787
1772458563354467800,3.1174677734375,0.14996735751628876,0.9311530590057373,0.7561119198799133
1772458563364535800,3.127535888671875,0.18475085496902466,0.8245687484741211,0.7021892070770264
1772458563374602800,3.137602783203125,0.22177518904209137,0.6998763680458069,0.6215319633483887
1772458563384671000,3.1476708984375,0.26099440455436707,0.5810625553131104,0.5185353755950928
1772458563394739000,3.157739013671875,0.2919006645679474,0.44054916501045227,0.4013374149799347
1772458563404807000,3.167806884765625,0.30516913533210754,0.27051910758018494,0.27174535393714905
1772458563414873900,3.177873779296875,0.30304792523384094,0.07366224378347397,0.14592401683330536
1772458563424941800,3.18794189453125,0.2858131527900696,-0.11743722856044769,0.04111488163471222
1772458563435010000,3.198010009765625,0.24436795711517334,-0.2615826725959778,-0.040803685784339905
1772458563445077000,3.208076904296875,0.1876990795135498,-0.38372570276260376,-0.14118367433547974
1772458563455145000,3.21814501953125,0.11985184252262115,-0.5254700779914856,-0.2663458287715912
1772458563465213000,3.228212890625,0.04433488845825195,-0.6811231374740601,-0.4112706482410431
1772458563475280400,3.2382802734375,-0.05428063124418259,-0.7848862409591675,-0.5550699234008789
1772458563485347300,3.248347412109375,-0.1656205952167511,-0.7770586013793945,-0.6529191136360168
1772458563495415600,3.25841552734375,-0.28304895758628845,-0.6037440896034241,-0.6858024597167969
1772458563505483300,3.268483154296875,-0.3841661810874939,-0.293110191822052,-0.655209481716156
1772458563515550500,3.278550537109375,-0.4459613859653473,0.06564157456159592,-0.5880796909332275
1772458563525618400,3.288618408203125,-0.45739105343818665,0.3896341919898987,-0.5143247842788696
1772458563535686100,3.29868603515625,-0.4230133593082428,0.610328197479248,-0.45120811462402344
1772458563545754400,3.30875439453125,-0.36881983280181885,0.7157092094421387,-0.4094899594783783
1772458563555821300,3.3188212890625,-0.3200986385345459,0.7643129229545593,-0.38918307423591614
1772458563565889300,3.32888916015625,-0.2684486508369446,0.760490357875824,-0.3824005722999573
1772458563575957200,3.338957275390625,-0.2089720070362091,0.6836339235305786,-0.3790218234062195
1772458563586024200,3.349024169921875,-0.13962654769420624,0.5418527126312256,-0.362461119890213
1772458563596092400,3.359092529296875,-0.07893949747085571,0.3826308846473694,-0.3221059739589691
1772458563606160400,3.369160400390625,-0.033805157989263535,0.23859156668186188,-0.2591429650783539
1772458563616228400,3.379228271484375,-0.011350182816386223,0.1418469250202179,-0.1737055778503418
1772458563626295300,3.38929541015625,0.003113483777269721,0.09781939536333084,-0.08067765831947327
1772458563636363300,3.39936328125,0.018978998064994812,0.08619389683008194,0.005625008139759302
1772458563646431500,3.409431396484375,0.032829172909259796,0.07234235107898712,0.06848244369029999
1772458563656499500,3.41949951171875,0.045939914882183075,0.034097760915756226,0.10532061755657196
1772458563666566400,3.42956640625,0.052041590213775635,-0.031146638095378876,0.1314925253391266
1772458563676634400,3.43963427734375,0.0580906942486763,-0.10797137022018433,0.1337740570306778
1772458563686702600,3.44970263671875,0.0717051550745964,-0.18790054321289062,0.132489413022995
1772458563696769500,3.45976953125,0.08659595996141434,-0.251196950674057,0.12285037338733673
1772458563706837500,3.46983740234375,0.09234676510095596,-0.30059295892715454,0.11022304743528366
1772458563716905500,3.479905517578125,0.09357554465532303,-0.35005292296409607,0.08766527473926544
1772458563726973200,3.48997314453125,0.09522368013858795,-0.40774574875831604,0.06324149668216705
1772458563737040400,3.500040283203125,0.09332165122032166,-0.48067668080329895,0.03655688837170601
1772458563747108400,3.5101083984375,0.07985822856426239,-0.5500738024711609,0.008789751678705215
1772458563757176300,3.52017626953125,0.042861856520175934,-0.5845505595207214,-0.027202337980270386
1772458563767243300,3.5302431640625,-0.01954513043165207,-0.581588089466095,-0.053414229303598404
1772458563777311200,3.540311279296875,-0.0998130738735199,-0.5716502666473389,-0.0823739767074585
1772458563787379200,3.550379150390625,-0.17624688148498535,-0.5640014410018921,-0.11234690994024277
1772458563797447400,3.560447509765625,-0.24843797087669373,-0.5283039212226868,-0.14190906286239624
1772458563807514400,3.570514404296875,-0.30242598056793213,-0.4477425813674927,-0.16405029594898224
1772458563817582300,3.580582275390625,-0.33642494678497314,-0.31785011291503906,-0.18237416446208954
1772458563827650300,3.590650390625,-0.33919739723205566,-0.1510278880596161,-0.1634807586669922
1772458563837718500,3.600718505859375,-0.31587740778923035,0.0279312115162611,-0.10270022600889206
1772458563847785500,3.610785400390625,-0.25761502981185913,0.13792406022548676,-0.020894240587949753
1772458563857853400,3.620853515625,-0.17837317287921906,0.1488344967365265,0.06073164567351341
1772458563867921400,3.63092138671875,-0.08711465448141098,0.13269957900047302,0.13267582654953003
1772458563877988400,3.64098828125,-0.0033555743284523487,0.13186495006084442,0.18179170787334442
1772458563888056300,3.651056396484375,0.06884746253490448,0.09290429949760437,0.19699156284332275
1772458563898124500,3.66112451171875,0.11031607538461685,-0.06845556199550629,0.1391807347536087
1772458563908192500,3.671192626953125,0.11120295524597168,-0.37123775482177734,-0.0073018549010157585
1772458563918259500,3.681259521484375,0.05519348010420799,-0.7180609703063965,-0.2078530639410019
1772458563928327400,3.691327392578125,-0.05053229629993439,-0.9472289085388184,-0.40598127245903015
1772458563938395100,3.70139501953125,-0.1562909483909607,-1.0552315711975098,-0.5578402876853943
1772458563948462600,3.711462646484375,-0.23021306097507477,-1.0326120853424072,-0.6460845470428467
1772458563958530300,3.7215302734375,-0.28884226083755493,-0.8237456679344177,-0.6427841186523438
1772458563968598300,3.731598388671875,-0.3350531756877899,-0.4425017237663269,-0.5350610613822937
1772458563978666200,3.741666259765625,-0.3570367693901062,-0.0009054066613316536,-0.3591643273830414
1772458563988733200,3.751733154296875,-0.35696205496788025,0.36917686462402344,-0.1586875170469284
1772458563998801400,3.761801513671875,-0.3298063576221466,0.5713022351264954,0.02398776449263096
1772458564008869400,3.771869384765625,-0.292165607213974,0.6462231278419495,0.17427773773670197
1772458564018936300,3.781936279296875,-0.23677131533622742,0.642002522945404,0.29958319664001465
1772458564029004300,3.79200439453125,-0.1487499624490738,0.5695177912712097,0.41335493326187134
1772458564039072300,3.802072265625,-0.04636634141206741,0.4449061155319214,0.5165089964866638
1772458564049140500,3.812140380859375,0.05163770914077759,0.2577288746833801,0.5991884469985962
1772458564059207400,3.82220751953125,0.13665913045406342,0.024717453867197037,0.6407659649848938
1772458564069275400,3.832275390625,0.21472080051898956,-0.2045876681804657,0.6612346768379211
1772458564079343400,3.84234326171875,0.26442497968673706,-0.37772801518440247,0.6630072593688965
1772458564089411300,3.852411376953125,0.2721278667449951,-0.4847467541694641,0.6493396759033203
1772458564099478500,3.862478515625,0.25288838148117065,-0.5539699792861938,0.6057722568511963
1772458564109546500,3.87254638671875,0.2090975046157837,-0.5852642059326172,0.5478246808052063
1772458564119614500,3.882614501953125,0.1542627513408661,-0.5881531834602356,0.46967366337776184
1772458564129681400,3.892681396484375,0.08124539256095886,-0.5520849823951721,0.37671735882759094
1772458564139749400,3.902749267578125,0.006022538058459759,-0.4621180593967438,0.2700662910938263
1772458564149817300,3.9128173828125,-0.0665740966796875,-0.31864237785339355,0.17340631783008575
1772458564159885300,3.92288525390625,-0.1315176784992218,-0.13046342134475708,0.08734386414289474
1772458564169952500,3.932952392578125,-0.18693123757839203,0.068052738904953,0.007088473066687584
1772458564180020200,3.943020263671875,-0.22235740721225739,0.244195818901062,-0.061211224645376205
1772458564190088200,3.953088134765625,-0.23971299827098846,0.35923758149147034,-0.11868221312761307
1772458564200155100,3.963155029296875,-0.245669424533844,0.4106781482696533,-0.15758301317691803
1772458564210223400,3.973223388671875,-0.24811790883541107,0.4095425307750702,-0.1720065325498581
1772458564220290300,3.983290283203125,-0.2513749599456787,0.3858851492404938,-0.1663590371608734
1772458564230358300,3.993358154296875,-0.241277277469635,0.35571804642677307,-0.14498235285282135
1772458564240426200,4.00342626953125,-0.21534128487110138,0.3278624415397644,-0.11868549883365631
1772458564250494500,4.013494384765625,-0.17839552462100983,0.300140380859375,-0.07858476042747498
1772458564260561400,4.0235615234375,-0.13928620517253876,0.2742467224597931,-0.04216870293021202
1772458564270629400,4.03362939453125,-0.11050189286470413,0.2560248374938965,-0.00817185640335083
1772458564280697300,4.043697265625,-0.08804558217525482,0.26833608746528625,0.015061827376484871
1772458564290765300,4.053765380859375,-0.06956943869590759,0.30226263403892517,0.02626601792871952
1772458564300832300,4.063832275390625,-0.051837317645549774,0.3547961711883545,0.025226585566997528
1772458564310900500,4.073900390625,-0.03134910762310028,0.4114700257778168,0.00974178034812212
1772458564320968400,4.083968505859375,-0.00442960811778903,0.4375671446323395,-0.01227616984397173
1772458564331035400,4.094035400390625,0.021920984610915184,0.4488387703895569,-0.03355097398161888
1772458564341103400,4.104103271484375,0.05372179299592972,0.44493404030799866,-0.04543692618608475
1772458564351171300,4.11417138671875,0.08356255292892456,0.4113505482673645,-0.06473546475172043
1772458564361239600,4.124239501953125,0.12249743938446045,0.3524448871612549,-0.09229998290538788
1772458564371306500,4.134306396484375,0.1724514216184616,0.28547748923301697,-0.12434172630310059
1772458564381374500,4.14437451171875,0.23253314197063446,0.21305280923843384,-0.15492811799049377
1772458564391442200,4.154442138671875,0.29176557064056396,0.10602346062660217,-0.1845911294221878
1772458564401509400,4.16450927734375,0.3546648919582367,-0.03961735591292381,-0.22213371098041534
1772458564411577300,4.174577392578125,0.4278731346130371,-0.20382368564605713,-0.2578639090061188
1772458564421645300,4.184645263671875,0.511336088180542,-0.33929601311683655,-0.27920037508010864
1772458564431713300,4.19471337890625,0.5825648903846741,-0.4197748303413391,-0.27589792013168335
1772458564441780200,4.2047802734375,0.6423938870429993,-0.4436487555503845,-0.23597022891044617
1772458564451848200,4.21484814453125,0.6864976286888123,-0.38244304060935974,-0.14572477340698242
1772458564461916400,4.22491650390625,0.7215775847434998,-0.2089943140745163,-0.011005571112036705
1772458564471984600,4.234984619140625,0.7397488951683044,-0.006926961243152618,0.14221248030662537
1772458564482051600,4.245051513671875,0.7333277463912964,0.07692932337522507,0.25751322507858276
1772458564492119600,4.25511962890625,0.6902121901512146,0.04470640793442726,0.30183541774749756
1772458564502187800,4.265187744140625,0.5993856191635132,-0.05485080927610397,0.26279667019844055
1772458564512254700,4.275254638671875,0.46907204389572144,-0.19418056309223175,0.17076139152050018
1772458564522322700,4.28532275390625,0.3461114764213562,-0.34604066610336304,0.0657806396484375
1772458564532390700,4.295390625,0.26064062118530273,-0.4454213082790375,-0.012772496789693832
1772458564542458600,4.305458740234375,0.20283058285713196,-0.43290260434150696,-0.05714528635144234
1772458564552525600,4.315525634765625,0.15066055953502655,-0.335500031709671,-0.06288740783929825
1772458564562593800,4.32559375,0.11855776607990265,-0.1921554058790207,-0.013675389811396599
1772458564572661800,4.335661865234375,0.11587759852409363,-0.031197382137179375,0.08231724053621292
1772458564582728700,4.345728759765625,0.13129118084907532,0.11003378033638,0.2046157270669937
1772458564592796700,4.355796630859375,0.16858334839344025,0.2289648801088333,0.34220537543296814
1772458564602864400,4.365864501953125,0.21152842044830322,0.3244607746601105,0.47761884331703186
1772458564612933600,4.37593359375,0.24779167771339417,0.39364439249038696,0.614813506603241
1772458564623000600,4.38600048828125,0.27467867732048035,0.45054736733436584,0.7369087934494019
1772458564633068500,4.396068603515625,0.29126375913619995,0.4860759973526001,0.8437456488609314
1772458564643136800,4.40613671875,0.301310271024704,0.48156219720840454,0.9147721529006958
1772458564653203700,4.41620361328125,0.3014746606349945,0.44102978706359863,0.9499513506889343
1772458564663271700,4.426271728515625,0.289930135011673,0.35276198387145996,0.9326632022857666
1772458564673339600,4.436339599609375,0.2712413966655731,0.24116837978363037,0.8675457835197449
1772458564683407600,4.44640771484375,0.23955725133419037,0.14550097286701202,0.7550094127655029
1772458564693474600,4.456474609375,0.20977622270584106,0.1035037636756897,0.610641598701477
1772458564703542800,4.466542724609375,0.17552264034748077,0.08627790212631226,0.43278375267982483
1772458564713610800,4.47661083984375,0.1448766589164734,0.06115764006972313,0.23940470814704895
1772458564723677700,4.486677734375,0.11574993282556534,0.011702469550073147,0.04253185912966728
1772458564733745700,4.49674560546875,0.0755273625254631,-0.031198598444461823,-0.13800211250782013
1772458564743813600,4.506813720703125,0.03377591818571091,-0.054560113698244095,-0.29754915833473206
1772458564753881600,4.516881591796875,-0.020093843340873718,-0.08053294569253922,-0.43766090273857117
1772458564763948800,4.52694873046875,-0.07896434515714645,-0.12627087533473969,-0.5674021244049072
1772458564774016500,4.5370166015625,-0.14138928055763245,-0.16995872557163239,-0.6834115982055664
1772458564784084500,4.54708447265625,-0.20459620654582977,-0.17664219439029694,-0.7894229888916016
1772458564794152700,4.557152587890625,-0.2620433270931244,-0.14905685186386108,-0.8646518588066101
1772458564804219600,4.5672197265625,-0.3075711131095886,-0.06773509830236435,-0.9029787182807922
1772458564814287600,4.57728759765625,-0.32799509167671204,0.07658619433641434,-0.8883224129676819
1772458564824355600,4.58735546875,-0.32680198550224304,0.2486189305782318,-0.8308684825897217
1772458564834422500,4.597422607421875,-0.29766231775283813,0.40649518370628357,-0.7409499287605286
1772458564844490500,4.607490478515625,-0.24421212077140808,0.5382246971130371,-0.624422550201416
1772458564854558700,4.617558837890625,-0.1797778159379959,0.6392050981521606,-0.5061384439468384
1772458564864626700,4.627626708984375,-0.09934023022651672,0.6881004571914673,-0.40768298506736755
1772458564874693600,4.637693603515625,-0.0051928055472671986,0.666247546672821,-0.3324854075908661
1772458564884761600,4.64776171875,0.08749798685312271,0.5674101710319519,-0.28137242794036865
1772458564894829600,4.65782958984375,0.16355648636817932,0.4023573696613312,-0.24901491403579712
1772458564904897800,4.667897705078125,0.2157166302204132,0.20869016647338867,-0.2135796844959259
1772458564914964700,4.67796484375,0.23485852777957916,0.048627376556396484,-0.15364474058151245
1772458564925032700,4.68803271484375,0.22297950088977814,-0.056906238198280334,-0.0810624212026596
1772458564935100700,4.6981005859375,0.20274406671524048,-0.11191938817501068,-0.01595473103225231
1772458564945167600,4.708167724609375,0.17696359753608704,-0.1335839480161667,0.028026308864355087
1772458564955235800,4.71823583984375,0.16128356754779816,-0.1318788081407547,0.0517602264881134
1772458564965303600,4.728303466796875,0.15606670081615448,-0.11971082538366318,0.050192154943943024
1772458564975371500,4.73837158203125,0.15168212354183197,-0.11738526076078415,0.03748932108283043
1772458564985438500,4.7484384765625,0.1469624787569046,-0.12867307662963867,0.024250749498605728
1772458564995506400,4.75850634765625,0.14522089064121246,-0.1533583253622055,0.009758861735463142
1772458565005574700,4.76857470703125,0.1462230384349823,-0.193705752491951,0.004181137308478355
1772458565015642600,4.778642578125,0.14132265746593475,-0.23860342800617218,0.007154345046728849
1772458565025709600,4.78870947265625,0.13738331198692322,-0.28548410534858704,0.01963365077972412
1772458565035777500,4.798777587890625,0.12982472777366638,-0.3400091230869293,0.036140456795692444
1772458565045845500,4.808845458984375,0.11400448530912399,-0.3946683704853058,0.04810630530118942
1772458565055912700,4.81891259765625,0.09054431319236755,-0.4518298804759979,0.04647311568260193
1772458565065980700,4.828980712890625,0.0597618967294693,-0.48917219042778015,0.03283693268895149
1772458565076048600,4.839048583984375,0.02125735394656658,-0.4914667010307312,0.007248857989907265
1772458565086116600,4.84911669921875,-0.03543255850672722,-0.45032939314842224,-0.02401558682322502
1772458565096183600,4.85918359375,-0.10880658775568008,-0.37008312344551086,-0.05229560285806656
1772458565106251800,4.869251708984375,-0.19415929913520813,-0.292705237865448,-0.08918917179107666
1772458565116319700,4.87931982421875,-0.277506023645401,-0.2388995736837387,-0.12102572619915009
1772458565126387700,4.8893876953125,-0.3440299332141876,-0.18518280982971191,-0.1350262314081192
1772458565136454700,4.89945458984375,-0.39922550320625305,-0.10569238662719727,-0.13413649797439575
1772458565146522600,4.909522705078125,-0.43461117148399353,0.004894576501101255,-0.11073609441518784
1772458565156590600,4.919590576171875,-0.438530832529068,0.13565784692764282,-0.05635473504662514
1772458565166657800,4.92965771484375,-0.40281039476394653,0.22985997796058655,0.021458037197589874
1772458565176725500,4.9397255859375,-0.3471752107143402,0.26886168122291565,0.10614671558141708
1772458565186793500,4.94979345703125,-0.27763980627059937,0.2723751664161682,0.19169355928897858
1772458565196861400,4.959861328125,-0.19107002019882202,0.2674320936203003,0.26824405789375305
1772458565206928600,4.9699287109375,-0.10939434170722961,0.23431436717510223,0.33110636472702026
1772458565216996600,4.97999658203125,-0.034731823951005936,0.16200102865695953,0.3651546239852905
1772458565227064600,4.990064697265625,0.02432723343372345,0.03162570297718048,0.388877809047699
1772458565237132500,5.000132568359375,0.05986623466014862,-0.1451505571603775,0.37836867570877075
1772458565247199500,5.010199462890625,0.0403766930103302,-0.31843072175979614,0.3252449929714203
1772458565257267700,5.020267822265625,-0.03223619610071182,-0.4567086398601532,0.2512598931789398
1772458565267335700,5.030335693359375,-0.14567700028419495,-0.5561500191688538,0.1686774045228958
1772458565277402600,5.040402587890625,-0.2709333896636963,-0.622253954410553,0.10735172778367996
1772458565287470600,5.050470703125,-0.3835350573062897,-0.6094949841499329,0.06716009974479675
1772458565297538600,5.06053857421875,-0.4849160313606262,-0.5057139992713928,0.06077617406845093
1772458565307606800,5.070606689453125,-0.5654537677764893,-0.3133666515350342,0.07833413034677505
1772458565317673700,5.080673828125,-0.6164320707321167,-0.08887875825166702,0.11130448430776596
1772458565327741700,5.09074169921875,-0.6391181945800781,0.09869806468486786,0.1418038010597229
1772458565337809700,5.1008095703125,-0.6312740445137024,0.24279750883579254,0.17163877189159393
1772458565347877600,5.110877685546875,-0.5890003442764282,0.3512752652168274,0.20594482123851776
1772458565357944800,5.12094482421875,-0.5187318325042725,0.4084663391113281,0.24243992567062378
1772458565368012500,5.131012451171875,-0.435118705034256,0.40639281272888184,0.2716723680496216
1772458565378080500,5.14108056640625,-0.33618536591529846,0.3646160364151001,0.2816764712333679
1772458565388147700,5.151147705078125,-0.23029594123363495,0.2878855764865875,0.28772932291030884
1772458565398215400,5.16121533203125,-0.1236535906791687,0.17459869384765625,0.27720847725868225
1772458565408283600,5.17128369140625,-0.03212741017341614,0.04576401039958,0.2600465416908264
1772458565418351600,5.1813515625,0.02388142980635166,-0.09240099042654037,0.23407818377017975
1772458565428418600,5.19141845703125,0.044481512159109116,-0.22039039433002472,0.2109246701002121
1772458565438486500,5.201486572265625,0.042320311069488525,-0.30975836515426636,0.18902888894081116
1772458565448554500,5.211554443359375,0.0148775028064847,-0.340380996465683,0.16609108448028564
1772458565458622700,5.221622802734375,-0.012123515829443932,-0.3085745871067047,0.13352042436599731
1772458565468690000,5.23168994140625,-0.03961559385061264,-0.2465285211801529,0.09306008368730545
1772458565478758000,5.2417578125,-0.07190325856208801,-0.17441460490226746,0.04921919107437134
1772458565488825900,5.251825927734375,-0.09620007127523422,-0.09302441030740738,0.016762711107730865
1772458565498892800,5.261892822265625,-0.1181323230266571,0.00221644202247262,-0.0071778679266572
1772458565508961000,5.2719609375,-0.1251516193151474,0.09877520054578781,-0.026802968233823776
1772458565519029000,5.282029052734375,-0.13384440541267395,0.19085678458213806,-0.03488462418317795
1772458565529097000,5.292096923828125,-0.14162082970142365,0.26821306347846985,-0.04134358838200569
1772458565539164000,5.302163818359375,-0.1437004804611206,0.3239485025405884,-0.03509374335408211
1772458565549231900,5.31223193359375,-0.1400974839925766,0.35891100764274597,-0.009285847656428814
1772458565559299800,5.3222998046875,-0.12213657051324844,0.38591843843460083,0.025342291221022606
1772458565569367800,5.332367919921875,-0.10777600109577179,0.3914620578289032,0.07364750653505325
1772458565579434800,5.342434814453125,-0.09347522258758545,0.37525272369384766,0.11571341007947922
1772458565589502700,5.352502685546875,-0.07857243716716766,0.3415144681930542,0.148276686668396
1772458565599571000,5.362571044921875,-0.06372533738613129,0.31207382678985596,0.1880369782447815
1772458565609639000,5.372638916015625,-0.044573213905096054,0.2668008804321289,0.2047022432088852
1772458565619705900,5.382705810546875,-0.018090521916747093,0.21167314052581787,0.20475812256336212
1772458565629773800,5.39277392578125,0.01654095947742462,0.1545528620481491,0.19790074229240417
1772458565639841800,5.402841796875,0.04615689814090729,0.10069265961647034,0.1903679072856903
1772458565649908700,5.41290869140625,0.07291580736637115,0.06913872063159943,0.1840873807668686
1772458565659977000,5.42297705078125,0.09513740986585617,0.03870316967368126,0.18220368027687073
1772458565670045000,5.433044921875,0.10826439410448074,-0.005099704954773188,0.1879313439130783
1772458565680113000,5.44311279296875,0.1237933486700058,-0.03906503692269325,0.19727948307991028
1772458565690179800,5.453179931640625,0.13413281738758087,-0.08397365361452103,0.2067297101020813
1772458565700247800,5.463247802734375,0.13829569518566132,-0.13062739372253418,0.22148427367210388
1772458565710316000,5.47331591796875,0.13788795471191406,-0.14580661058425903,0.24374191462993622
1772458565720384000,5.483384033203125,0.1223890632390976,-0.15251703560352325,0.241793692111969
1772458565730451000,5.493450927734375,0.10593871772289276,-0.1631781905889511,0.20878034830093384
1772458565740519000,5.503518798828125,0.10378456860780716,-0.17704619467258453,0.13204939663410187
1772458565750587000,5.5135869140625,0.11736908555030823,-0.1996082216501236,0.041682738810777664
1772458565760654800,5.52365478515625,0.15043191611766815,-0.17690187692642212,-0.050464823842048645
1772458565770721800,5.5337216796875,0.1868269443511963,-0.09930296242237091,-0.11999356746673584
1772458565780789800,5.543789794921875,0.23538322746753693,0.050362344831228256,-0.16553938388824463
1772458565790857700,5.553857666015625,0.30479055643081665,0.226344034075737,-0.17474514245986938
1772458565800924700,5.563924560546875,0.38465261459350586,0.3122726082801819,-0.17756392061710358
1772458565810993000,5.573992919921875,0.45196959376335144,0.22231900691986084,-0.20879453420639038
1772458565821060900,5.584060791015625,0.4997823238372803,0.02956705167889595,-0.26461273431777954
1772458565831128800,5.59412890625,0.5149044990539551,-0.16997162997722626,-0.2995949387550354
1772458565841195800,5.60419580078125,0.49306178092956543,-0.3311907947063446,-0.2948117256164551
1772458565851263700,5.614263671875,0.43235287070274353,-0.4123793840408325,-0.23973596096038818
1772458565861332000,5.62433203125,0.36801961064338684,-0.3925783932209015,-0.12969011068344116
1772458565871400000,5.63439990234375,0.3158376216888428,-0.3002846837043762,0.01779787987470627
1772458565881467000,5.644466796875,0.28970929980278015,-0.2022409439086914,0.1703958809375763
1772458565891534800,5.654534912109375,0.2823706865310669,-0.08993756771087646,0.33570653200149536
1772458565901603000,5.66460302734375,0.2753133475780487,0.05742477998137474,0.5060427188873291
1772458565911671000,5.674671142578125,0.2633128762245178,0.21728289127349854,0.6542918086051941
1772458565921738000,5.684738037109375,0.2564629912376404,0.35235604643821716,0.7703425884246826
1772458565931806000,5.694805908203125,0.25626590847969055,0.45113641023635864,0.8496800065040588
1772458565941873700,5.704873779296875,0.24740737676620483,0.5101737976074219,0.8907764554023743
1772458565951940900,5.71494091796875,0.23362526297569275,0.5258350372314453,0.8849697113037109
1772458565962008800,5.7250087890625,0.21590028703212738,0.4762517511844635,0.8565566539764404
1772458565972076800,5.735076904296875,0.19382959604263306,0.3891831636428833,0.7999650239944458
1772458565982144800,5.745144775390625,0.16915740072727203,0.2894900441169739,0.7217464447021484
1772458565992211700,5.755211669921875,0.14373460412025452,0.18204429745674133,0.6335095167160034
1772458566002279700,5.76527978515625,0.12255757302045822,0.05740078166127205,0.5232256054878235
1772458566012348000,5.775347900390625,0.10677967220544815,-0.07449972629547119,0.3818948566913605
1772458566022416000,5.785415771484375,0.09948746860027313,-0.20322006940841675,0.21960175037384033
1772458566032482800,5.79548291015625,0.0967089980840683,-0.3089052140712738,0.04004264622926712
1772458566042550800,5.80555078125,0.09569652378559113,-0.39499473571777344,-0.14642451703548431
1772458566052619000,5.815618896484375,0.08039692789316177,-0.48536938428878784,-0.3487637937068939
1772458566062686000,5.82568603515625,0.03530770540237427,-0.5601187348365784,-0.555756151676178
1772458566072754000,5.83575390625,-0.03118397481739521,-0.5972573161125183,-0.7372815012931824
1772458566082822000,5.84582177734375,-0.10997236520051956,-0.5687469840049744,-0.8634183406829834
1772458566092889900,5.855889892578125,-0.19941596686840057,-0.4544837772846222,-0.9044320583343506
1772458566102956800,5.865956787109375,-0.2808637320995331,-0.26908954977989197,-0.8653221726417542
1772458566113025000,5.87602490234375,-0.3452190160751343,-0.046993356198072433,-0.7678957581520081
1772458566123093000,5.886093017578125,-0.3865918815135956,0.17343823611736298,-0.653958797454834
1772458566133160700,5.89616064453125,-0.3881966769695282,0.34641507267951965,-0.5488446354866028
1772458566143228000,5.906227783203125,-0.36590757966041565,0.43073076009750366,-0.46584558486938477
1772458566153296000,5.9162958984375,-0.3167935609817505,0.4676525592803955,-0.4006274342536926
1772458566163363800,5.92636376953125,-0.2485070526599884,0.4995576739311218,-0.3609584867954254
1772458566173431800,5.936431884765625,-0.1628081351518631,0.5107653141021729,-0.345967561006546
1772458566183498800,5.946498779296875,-0.06277304142713547,0.49478045105934143,-0.3565894365310669
1772458566193566700,5.956566650390625,0.03674449399113655,0.4598301947116852,-0.3633500933647156
1772458566203635000,5.966635009765625,0.12026160210371017,0.40158432722091675,-0.37368878722190857
1772458566213703000,5.976702880859375,0.18093612790107727,0.32659557461738586,-0.36900800466537476
1772458566223769900,5.986769775390625,0.22404985129833221,0.2510211765766144,-0.34792378544807434
1772458566233837800,5.996837890625,0.2501227557659149,0.20418095588684082,-0.2978430688381195
1772458566243905800,6.00690576171875,0.26974043250083923,0.16152824461460114,-0.23712202906608582
1772458566253972700,6.01697265625,0.28890854120254517,0.12287513166666031,-0.16268429160118103
1772458566264041000,6.027041015625,0.3023521304130554,0.08545324951410294,-0.09589873254299164
1772458566274109000,6.03710888671875,0.3119954466819763,0.042661044746637344,-0.03857126459479332
1772458566284177000,6.047177001953125,0.32103291153907776,0.013005383312702179,0.0020701114553958178
1772458566294243800,6.057243896484375,0.34416458010673523,-0.022081764414906502,0.03323735296726227
1772458566304312000,6.06731201171875,0.35961171984672546,-0.05407857522368431,0.04620615020394325
1772458566314380000,6.077380126953125,0.36931735277175903,-0.09106962382793427,0.04852549731731415
1772458566324447700,6.08744775390625,0.3775583505630493,-0.14547330141067505,0.04981934651732445
1772458566334515000,6.097514892578125,0.3775458335876465,-0.19037578999996185,0.0575592927634716
1772458566344583000,6.1075830078125,0.3737901747226715,-0.21913029253482819,0.059533316642045975
1772458566354651000,6.11765087890625,0.36588990688323975,-0.23666401207447052,0.07413169741630554
1772458566364718800,6.12771875,0.34881943464279175,-0.24800890684127808,0.0839223712682724
1772458566374785800,6.137785888671875,0.3258001506328583,-0.2700124680995941,0.08299478888511658
1772458566384853800,6.147853759765625,0.29930174350738525,-0.2941427528858185,0.06388465315103531
1772458566394921700,6.157921630859375,0.2541199028491974,-0.30537062883377075,0.025786006823182106
1772458566404988700,6.16798876953125,0.20395155251026154,-0.29105764627456665,-0.021456703543663025
1772458566415057000,6.178056884765625,0.13662205636501312,-0.2531643211841583,-0.06960079818964005
1772458566425124900,6.188124755859375,0.06014290079474449,-0.17364172637462616,-0.10432743281126022
1772458566435192800,6.19819287109375,-0.02020520158112049,-0.04167863354086876,-0.11135471612215042
1772458566445259800,6.208259765625,-0.08313101530075073,0.12035755813121796,-0.09642846882343292
1772458566455328000,6.218327880859375,-0.13467010855674744,0.23944905400276184,-0.08458352088928223
1772458566465396000,6.22839599609375,-0.17548777163028717,0.29108133912086487,-0.10029298067092896
1772458566475463200,6.238463134765625,-0.19860853254795074,0.34625113010406494,-0.13767443597316742
1772458566485530000,6.248530029296875,-0.20201125741004944,0.4195321500301361,-0.18872347474098206
1772458566495598300,6.258598388671875,-0.19045713543891907,0.4466439485549927,-0.26079338788986206
1772458566505666300,6.268666259765625,-0.18843193352222443,0.3507651090621948,-0.3777351677417755
1772458566515734300,6.278734375,-0.20183296501636505,0.14615656435489655,-0.5352781414985657
1772458566525801200,6.28880126953125,-0.23979002237319946,-0.06099134311079979,-0.6929022669792175
1772458566535869400,6.298869384765625,-0.28826913237571716,-0.18329808115959167,-0.8221017718315125
1772458566545937400,6.3089375,-0.3278011083602905,-0.17405319213867188,-0.888401985168457
1772458566556005000,6.319005126953125,-0.3648217022418976,-0.020275339484214783,-0.8783208727836609
1772458566566072300,6.329072265625,-0.3762289881706238,0.24207694828510284,-0.786061704158783
1772458566576140300,6.339140380859375,-0.36203619837760925,0.490377813577652,-0.637887179851532
1772458566586208300,6.349208251953125,-0.3240692913532257,0.6336137056350708,-0.4710930585861206
1772458566596275500,6.359275390625,-0.27099597454071045,0.6844952702522278,-0.32697340846061707
1772458566606343200,6.36934326171875,-0.2021629512310028,0.6628185510635376,-0.2075406312942505
1772458566616411100,6.3794111328125,-0.11050572246313095,0.6020667552947998,-0.10818449407815933
1772458566626479000,6.38947900390625,-0.006347176153212786,0.49546363949775696,-0.011327717453241348
1772458566636546000,6.399546142578125,0.10004185140132904,0.35751429200172424,0.08148158341646194
1772458566646614300,6.4096142578125,0.19166423380374908,0.17537346482276917,0.17201454937458038
1772458566656682200,6.41968212890625,0.2803693413734436,-0.05622647702693939,0.23899491131305695
1772458566666750200,6.429750244140625,0.3549126088619232,-0.3152425289154053,0.28349676728248596
1772458566676817200,6.439817138671875,0.4032630920410156,-0.5409907102584839,0.29466500878334045
1772458566686885400,6.449885498046875,0.4112589955329895,-0.6898021697998047,0.2702714800834656
1772458566696953300,6.459953369140625,0.40351107716560364,-0.7889420390129089,0.2145259529352188
1772458566707021300,6.470021240234375,0.3822749853134155,-0.8279727697372437,0.15892666578292847
1772458566717088300,6.480088134765625,0.33967506885528564,-0.7718165516853333,0.11872970312833786
1772458566727156200,6.49015625,0.2731509804725647,-0.6137403845787048,0.09435272961854935
1772458566737224400,6.500224365234375,0.19555020332336426,-0.4010046720504761,0.07526212930679321
1772458566747292200,6.510292236328125,0.12855005264282227,-0.19943220913410187,0.04158893600106239
1772458566757359400,6.520359375,0.07740432024002075,-0.023389820009469986,-0.008574631996452808
1772458566767427300,6.53042724609375,0.03825431689620018,0.11412551999092102,-0.062065642327070236
1772458566777495000,6.5404951171875,0.015950076282024384,0.22021466493606567,-0.1170434057712555
1772458566787562200,6.550562255859375,0.007401126436889172,0.28969448804855347,-0.14691856503486633
1772458566797630200,6.560630126953125,0.01625826768577099,0.31511011719703674,-0.17170700430870056
1772458566807698200,6.5706982421875,0.025226561352610588,0.2988448143005371,-0.1622539758682251
1772458566817766100,6.58076611328125,0.026295287534594536,0.2606066167354584,-0.13268010318279266
1772458566827833000,6.5908330078125,0.027589062228798866,0.21563982963562012,-0.07942051440477371
1772458566837901300,6.6009013671875,0.040110182017087936,0.14449748396873474,-0.034908171743154526
1772458566847969300,6.61096923828125,0.06568910926580429,0.0524001345038414,0.006326525472104549
1772458566858037200,6.621037353515625,0.09112602472305298,-0.03760139271616936,0.03618695214390755
1772458566868104200,6.631104248046875,0.11062251776456833,-0.10880342870950699,0.0504385307431221
1772458566878172200,6.641172119140625,0.12330689281225204,-0.14442534744739532,0.052087295800447464
1772458566888240400,6.651240478515625,0.1359895020723343,-0.14261135458946228,0.062078382819890976
1772458566898308400,6.661308349609375,0.13770511746406555,-0.13319067656993866,0.08884448558092117
1772458566908375300,6.671375244140625,0.12634426355361938,-0.14817841351032257,0.1188146322965622
1772458566918443300,6.681443359375,0.11022787541151047,-0.16220209002494812,0.14384914934635162
1772458566928511200,6.69151123046875,0.09906959533691406,-0.14009299874305725,0.16313961148262024
1772458566938579200,6.7015791015625,0.094499871134758,-0.10951325297355652,0.16121840476989746
1772458566948646400,6.711646484375,0.09050315618515015,-0.0904770940542221,0.14713802933692932
1772458566958714400,6.72171435546875,0.09017585217952728,-0.07268425077199936,0.12350913882255554
1772458566968782000,6.731781982421875,0.08766268193721771,-0.03149443864822388,0.10110162198543549
1772458566978849300,6.741849365234375,0.07709232717752457,0.026353947818279266,0.0715530514717102
1772458566988917200,6.751917236328125,0.058294713497161865,0.08826635032892227,0.029806995764374733
1772458566998985200,6.761985107421875,0.03901476040482521,0.1215478703379631,-0.02720622345805168
1772458567009053200,6.77205322265625,0.024383680894970894,0.11189879477024078,-0.09730976819992065
1772458567019120000,6.7821201171875,-0.0016364667098969221,0.08387967199087143,-0.17061273753643036
1772458567029188000,6.79218798828125,-0.03209073096513748,0.05536417290568352,-0.23958082497119904
1772458567039256300,6.80225634765625,-0.05676838010549545,0.06688820570707321,-0.29919862747192383
1772458567049324300,6.81232421875,-0.06658770143985748,0.12744775414466858,-0.33367180824279785
1772458567059391200,6.82239111328125,-0.04871470108628273,0.22863268852233887,-0.33175379037857056
1772458567069459200,6.832459228515625,0.001142304390668869,0.3121793866157532,-0.2945384979248047
1772458567079527200,6.842527099609375,0.06878579407930374,0.29948464035987854,-0.2208472043275833
1772458567089595400,6.852595458984375,0.15177381038665771,0.22644248604774475,-0.1227383092045784
1772458567099662300,6.862662353515625,0.21845775842666626,0.12321755290031433,-0.0006225202232599258
1772458567109730300,6.872730224609375,0.26686784625053406,-0.012884801253676414,0.12169291824102402
1772458567119798300,6.88279833984375,0.2981530725955963,-0.16777664422988892,0.22407761216163635
1772458567129866200,6.8928662109375,0.3143703043460846,-0.30470553040504456,0.3126677870750427
1772458567139933400,6.902933349609375,0.31481292843818665,-0.39830631017684937,0.36441195011138916
1772458567150001400,6.91300146484375,0.29343944787979126,-0.42475032806396484,0.3883201777935028
1772458567160069000,6.923069091796875,0.26570582389831543,-0.3920421898365021,0.3700093626976013
1772458567170137000,6.93313720703125,0.23909921944141388,-0.32604044675827026,0.3387850224971771
1772458567180204000,6.9432041015625,0.22390295565128326,-0.24610432982444763,0.30719462037086487
1772458567190272300,6.953272216796875,0.2183605581521988,-0.17589828372001648,0.2908221483230591
1772458567200340200,6.96334033203125,0.20938517153263092,-0.1053205206990242,0.2938946485519409
1772458567210408200,6.973408203125,0.18485039472579956,0.0005408427678048611,0.3147435486316681
1772458567220475100,6.98347509765625,0.16724450886249542,0.12200122326612473,0.35594746470451355
1772458567230543000,6.993543212890625,0.15376485884189606,0.2404538094997406,0.40767690539360046
1772458567240611300,7.003611328125,0.1428736001253128,0.33821576833724976,0.46675246953964233
1772458567250678300,7.01367822265625,0.13612619042396545,0.4053904116153717,0.5287303328514099
1772458567260746200,7.023746337890625,0.12578938901424408,0.4423905313014984,0.5755971670150757
1772458567270814200,7.033814208984375,0.1080678179860115,0.467477023601532,0.604377031326294
1772458567280882400,7.04388232421875,0.08633695542812347,0.46282073855400085,0.6034944653511047
1772458567290949400,7.053949462890625,0.06706293672323227,0.4237878620624542,0.562697172164917
1772458567301017300,7.064017333984375,0.061734214425086975,0.3234007954597473,0.4839794933795929
1772458567311085300,7.074085205078125,0.06901559233665466,0.1763688623905182,0.3682374060153961
1772458567321153300,7.0841533203125,0.08878184109926224,0.008472271263599396,0.22523312270641327
1772458567331220200,7.09422021484375,0.10793247818946838,-0.1552286595106125,0.052583564072847366
1772458567341288400,7.104288330078125,0.11711373180150986,-0.2742096483707428,-0.13531576097011566
1772458567351356200,7.114356201171875,0.11424504965543747,-0.32578638195991516,-0.31856170296669006
1772458567361424100,7.124424072265625,0.0917208343744278,-0.3498358130455017,-0.5017006397247314
1772458567371491000,7.134490966796875,0.05273256078362465,-0.36705252528190613,-0.6633679270744324
1772458567381559000,7.14455908203125,0.006842569448053837,-0.3554003834724426,-0.8070409297943115
1772458567391627300,7.154627197265625,-0.04325741156935692,-0.3062204122543335,-0.9116490483283997
1772458567401695200,7.1646953125,-0.08933116495609283,-0.21684420108795166,-0.9820364117622375
1772458567411762200,7.17476220703125,-0.12317823618650436,-0.10578335076570511,-0.9979373216629028
1772458567421830100,7.184830078125,-0.15075819194316864,-0.0012497464194893837,-0.9755670428276062
1772458567431898400,7.1948984375,-0.17171154916286469,0.10059521347284317,-0.9025951623916626
1772458567441966300,7.20496630859375,-0.18766255676746368,0.2215232253074646,-0.7929733395576477
1772458567452033300,7.215033203125,-0.18802133202552795,0.2987389862537384,-0.6723701357841492
1772458567462101200,7.225101318359375,-0.16324886679649353,0.32997360825538635,-0.5583162307739258
1772458567472169500,7.23516943359375,-0.11552239954471588,0.33967527747154236,-0.4591035842895508
1772458567482237700,7.24523779296875,-0.06431034207344055,0.3182980716228485,-0.38185885548591614
1772458567492304600,7.2553046875,-0.016086651012301445,0.26727789640426636,-0.3321378827095032
1772458567502372600,7.26537255859375,0.024000314995646477,0.18594497442245483,-0.29770800471305847
1772458567512440300,7.2754404296875,0.04671506956219673,0.09259561449289322,-0.27751269936561584
1772458567522507500,7.285507568359375,0.04832841083407402,0.016610031947493553,-0.2486083209514618
1772458567532575500,7.295575439453125,0.042684346437454224,-0.01703471504151821,-0.21393577754497528
1772458567542643500,7.3056435546875,0.0377388559281826,-0.004384967964142561,-0.16117216646671295
1772458567552711400,7.31571142578125,0.045580800622701645,0.026274675503373146,-0.10528386384248734
1772458567562778400,7.3257783203125,0.05692560225725174,0.03716220706701279,-0.0503135547041893
1772458567572846300,7.335846435546875,0.06240236014127731,0.00018744450062513351,0.00040773884393274784
1772458567582914600,7.34591455078125,0.07316605746746063,-0.07932335883378983,0.03818787261843681
1772458567592982500,7.355982421875,0.08232994377613068,-0.17888209223747253,0.06529903411865234
1772458567603049500,7.366049560546875,0.08980144560337067,-0.27143600583076477,0.08421653509140015
1772458567613117400,7.376117431640625,0.09679006040096283,-0.327933132648468,0.10520964115858078
1772458567623185400,7.386185302734375,0.10247644037008286,-0.34090936183929443,0.11949297040700912
1772458567633253600,7.396253662109375,0.09877406060695648,-0.34197962284088135,0.13031324744224548
1772458567643320600,7.406320556640625,0.0859149917960167,-0.33240848779678345,0.1334027796983719
1772458567653388500,7.416388427734375,0.06705918163061142,-0.32196521759033203,0.1284925937652588
1772458567663456500,7.42645654296875,0.04481539502739906,-0.32266589999198914,0.11092904210090637
1772458567673524500,7.4365244140625,0.025244560092687607,-0.32508227229118347,0.08612924069166183
1772458567683591700,7.446591796875,-0.004577782936394215,-0.3232484459877014,0.07518844306468964
1772458567693659600,7.45665966796875,-0.05581788346171379,-0.30524349212646484,0.06537733227014542
1772458567703727400,7.466727294921875,-0.11585431545972824,-0.25500693917274475,0.06667588651180267
1772458567713795300,7.47679541015625,-0.17249660193920135,-0.14323285222053528,0.07464621961116791
1772458567723862500,7.486862548828125,-0.217149019241333,0.0008310987614095211,0.08806242793798447
1772458567733930500,7.496930419921875,-0.24072538316249847,0.0697905495762825,0.0639793798327446
1772458567743998500,7.50699853515625,-0.2370568811893463,0.0372786745429039,0.009705750271677971
1772458567754066400,7.51706640625,-0.23330509662628174,-0.027946487069129944,-0.07751162350177765
1772458567764133400,7.52713330078125,-0.22221195697784424,-0.06233828514814377,-0.17535828053951263
1772458567774201300,7.537201416015625,-0.2177857607603073,-0.08416400849819183,-0.2855384349822998
1772458567784269600,7.54726953125,-0.2162294089794159,-0.12822309136390686,-0.4181273579597473
1772458567794337500,7.557337646484375,-0.2108866274356842,-0.17983479797840118,-0.5555782914161682
1772458567804404500,7.567404541015625,-0.2079017609357834,-0.21379142999649048,-0.6755731105804443
1772458567814472400,7.577472412109375,-0.21090078353881836,-0.23109667003154755,-0.7596622109413147
1772458567824540700,7.587540771484375,-0.2195720374584198,-0.21885065734386444,-0.8110538125038147
1772458567834607600,7.597607666015625,-0.23223760724067688,-0.17886129021644592,-0.8212823867797852
1772458567844675600,7.607675537109375,-0.24565087258815765,-0.08720886707305908,-0.7771666049957275
1772458567854743600,7.61774365234375,-0.25673478841781616,0.07613733410835266,-0.6661836504936218
1772458567864811500,7.6278115234375,-0.25489988923072815,0.27268821001052856,-0.49776318669319153
1772458567874878500,7.63787841796875,-0.23583702743053436,0.44774094223976135,-0.30660074949264526
1772458567884946700,7.64794677734375,-0.1910940557718277,0.5627695322036743,-0.10606016963720322
1772458567895014400,7.658014404296875,-0.12078531086444855,0.5913368463516235,0.06740671396255493
1772458567905082400,7.668082275390625,-0.037914130836725235,0.548784077167511,0.20705169439315796
1772458567915149600,7.678149658203125,0.041743986308574677,0.45003554224967957,0.31576135754585266
1772458567925217300,7.68821728515625,0.12403006851673126,0.2968859374523163,0.41336381435394287
1772458567935285500,7.698285400390625,0.2005915641784668,0.10522698611021042,0.49842703342437744
1772458567945353500,7.708353515625,0.26774320006370544,-0.10699472576379776,0.5767273902893066
1772458567955420400,7.71842041015625,0.32190749049186707,-0.30666667222976685,0.6348674297332764
1772458567965488400,7.72848828125,0.3374883234500885,-0.4556356370449066,0.6796303391456604
1772458567975556600,7.738556640625,0.3297480046749115,-0.5178771615028381,0.6887595653533936
1772458567985624600,7.74862451171875,0.2985331118106842,-0.5291785001754761,0.6601113677024841
1772458567995691500,7.75869140625,0.2527955174446106,-0.5457717180252075,0.5899030566215515
1772458568005759500,7.768759521484375,0.18430541455745697,-0.5540544390678406,0.4978058934211731
1772458568015827500,7.778827392578125,0.09930410236120224,-0.5341780781745911,0.3863902688026428
1772458568025895700,7.788895751953125,0.014063776470720768,-0.46747711300849915,0.27344587445259094
1772458568035962600,7.798962646484375,-0.05905694141983986,-0.35752615332603455,0.1727207750082016
1772458568046030600,7.809030517578125,-0.11759056150913239,-0.2082573026418686,0.09095240384340286
1772458568056098600,7.8190986328125,-0.15851131081581116,-0.0362735390663147,0.02887471206486225
1772458568066166500,7.82916650390625,-0.1757369041442871,0.12891168892383575,-0.021242251619696617
1772458568076233500,7.8392333984375,-0.1777259111404419,0.267442524433136,-0.051628150045871735
1772458568086301400,7.849301513671875,-0.1675419807434082,0.359531968832016,-0.061983853578567505
1772458568096369400,7.859369384765625,-0.14855921268463135,0.3870546519756317,-0.04641161113977432
1772458568106437400,7.869437255859375,-0.1262512505054474,0.362975150346756,-0.004985606297850609
1772458568116504300,7.87950439453125,-0.10754670947790146,0.2993009686470032,0.04380007088184357
1772458568126572500,7.889572509765625,-0.09488710761070251,0.22237317264080048,0.09418255090713501
1772458568136640500,7.899640625,-0.07618878781795502,0.1551360785961151,0.14071276783943176
1772458568146707500,7.90970751953125,-0.05437350645661354,0.08944228291511536,0.1763375997543335
1772458568156775400,7.919775390625,-0.03032935969531536,0.025646081194281578,0.19407975673675537
1772458568166843400,7.929843505859375,-0.0156947560608387,-0.03410859405994415,0.18791668117046356
1772458568176911600,7.93991162109375,0.00016116700135171413,-0.0825151652097702,0.15999287366867065
1772458568186978600,7.949978515625,0.018686914816498756,-0.11208903044462204,0.11921774595975876
1772458568197046500,7.960046630859375,0.03480609133839607,-0.08998088538646698,0.08139429241418839
1772458568207114500,7.970114501953125,0.044641412794589996,-0.0373336523771286,0.046306077390909195
1772458568217182500,7.980182373046875,0.050694528967142105,0.005976328160613775,0.01750437542796135
1772458568227249400,7.99024951171875,0.061702705919742584,0.029561547562479973,-0.005196143873035908
1772458568237316600,8.000316650390625,0.07069159299135208,0.03480105102062225,-0.030241576954722404
1772458568247384600,8.010384521484376,0.0799199789762497,0.02721530571579933,-0.0469244159758091
1772458568257452500,8.02045263671875,0.08511865139007568,0.04121459275484085,-0.05698906630277634
1772458568267519500,8.03051953125,0.08999064564704895,0.04743387550115585,-0.04666692018508911
1772458568277587500,8.04058740234375,0.09722580015659332,0.04288170486688614,-0.020341631025075912
1772458568287655700,8.05065576171875,0.09739144891500473,0.035455215722322464,-0.002552780555561185
1772458568297723600,8.0607236328125,0.097000852227211,0.0024435275699943304,-0.010175960138440132
1772458568307790600,8.07079052734375,0.09392543882131577,-0.035998135805130005,-0.03965049237012863
1772458568317858600,8.080858642578125,0.09137745946645737,-0.061779849231243134,-0.08398715406656265
1772458568327926300,8.09092626953125,0.09622388333082199,-0.06186214089393616,-0.11700502783060074
1772458568337994500,8.100994384765626,0.10586515814065933,-0.03047788143157959,-0.13121411204338074
1772458568348061400,8.1110615234375,0.12612250447273254,0.0310179702937603,-0.11300155520439148
1772458568358129400,8.12112939453125,0.14868535101413727,0.09707161039113998,-0.07391182333230972
1772458568368197400,8.131197265625,0.17800302803516388,0.18113668262958527,-0.008721103891730309
1772458568378265300,8.141265380859375,0.2137787789106369,0.3289128541946411,0.09441433101892471
1772458568388332500,8.15133251953125,0.2514050006866455,0.5398647785186768,0.24885158240795135
1772458568398400500,8.161400390625,0.28062504529953003,0.6605931520462036,0.40428802371025085
1772458568408468500,8.171468505859375,0.30559271574020386,0.6495199799537659,0.4952070116996765
1772458568418536400,8.181536376953124,0.3318445086479187,0.5719590187072754,0.5316843390464783
1772458568428603400,8.191603271484375,0.35808065533638,0.47115758061408997,0.5130424499511719
1772458568438671600,8.201671630859375,0.36977121233940125,0.2704324424266815,0.41956275701522827
1772458568448739600,8.211739501953126,0.36039742827415466,-0.05163243040442467,0.23972134292125702
1772458568458807600,8.2218076171875,0.31040820479393005,-0.4094671607017517,0.026178408414125443
1772458568468874500,8.23187451171875,0.22338250279426575,-0.6508158445358276,-0.16033580899238586
1772458568478943200,8.241943115234376,0.1397126317024231,-0.7067440152168274,-0.2649126350879669
1772458568489011200,8.25201123046875,0.07530993968248367,-0.6331363916397095,-0.2702797055244446
1772458568499079400,8.262079345703125,0.02122030407190323,-0.414822518825531,-0.15078790485858917
1772458568509146400,8.272146484375,-0.020243782550096512,-0.07765914499759674,0.06770608574151993
1772458568519214300,8.28221435546875,-0.05220011621713638,0.2653679847717285,0.31338509917259216
1772458568529282300,8.2922822265625,-0.06790158152580261,0.49570798873901367,0.5168010592460632
1772458568539350300,8.302350341796876,-0.05205151438713074,0.5764491558074951,0.6357897520065308
1772458568549417200,8.312417236328125,-0.013443132862448692,0.5437687039375305,0.6899094581604004
1772458568559485400,8.3224853515625,0.02394631691277027,0.44894713163375854,0.6882860064506531
1772458568569553400,8.332553466796876,0.05167727917432785,0.3459528386592865,0.6470009088516235
1772458568579622100,8.3426220703125,0.06643486022949219,0.2608828544616699,0.5706737041473389
1772458568589689300,8.352689453125,0.07057847082614899,0.18111000955104828,0.46742933988571167
1772458568599757300,8.36275732421875,0.06930557638406754,0.08113035559654236,0.3305251896381378
1772458568609825300,8.3728251953125,0.061847392469644547,-0.028042476624250412,0.17250622808933258
1772458568619893200,8.382893310546875,0.050587575882673264,-0.11044257879257202,0.02898363582789898
1772458568629960200,8.392960205078126,0.0322628989815712,-0.14318586885929108,-0.10727088153362274
1772458568640028400,8.4030283203125,0.0153590627014637,-0.14251366257667542,-0.22878606617450714
1772458568650096400,8.413096435546874,0.0069133806973695755,-0.12383131682872772,-0.3258928954601288
1772458568660164400,8.423164306640626,0.0000308335293084383,-0.11266157776117325,-0.39862746000289917
1772458568670231300,8.433231201171875,-0.013290829956531525,-0.09656330198049545,-0.457216739654541
1772458568680299300,8.44329931640625,-0.026415986940264702,-0.06544838100671768,-0.5004004240036011
1772458568690367500,8.453367431640626,-0.03718474507331848,-0.007223156746476889,-0.5212135910987854
1772458568700434400,8.463434326171875,-0.04599440097808838,0.07381405681371689,-0.5233352780342102
1772458568710502400,8.47350244140625,-0.05069221928715706,0.16235697269439697,-0.5013447403907776
1772458568720570400,8.4835703125,-0.04529635235667229,0.2422463297843933,-0.4690067768096924
1772458568730638300,8.493638427734375,-0.0271434485912323,0.3039318025112152,-0.4202227294445038
1772458568740705500,8.50370556640625,0.003036240581423044,0.3391125202178955,-0.3631201386451721
1772458568750773500,8.5137734375,0.036300450563430786,0.35019925236701965,-0.3067636489868164
1772458568760841500,8.523841552734375,0.06959336251020432,0.34113001823425293,-0.26513436436653137
1772458568770909200,8.5339091796875,0.10946434736251831,0.2883602976799011,-0.25751397013664246
1772458568780976400,8.543976318359375,0.1516849249601364,0.21182899177074432,-0.2690173089504242
1772458568791044400,8.55404443359375,0.1903982311487198,0.12277103215456009,-0.2865832448005676
1772458568801112300,8.5641123046875,0.21400590240955353,0.017364773899316788,-0.2885006070137024
1772458568811180300,8.57418017578125,0.23454900085926056,-0.05405268445611,-0.2672552466392517
1772458568821247200,8.584247314453124,0.25577881932258606,-0.09222941845655441,-0.20838885009288788
1772458568831315200,8.594315185546876,0.27710089087486267,-0.11491715908050537,-0.13465525209903717
1772458568841383400,8.604383544921875,0.2936214506626129,-0.13207490742206573,-0.05023927986621857
1772458568851451400,8.614451416015624,0.3088637888431549,-0.15057694911956787,0.024437084794044495
1772458568861518300,8.624518310546875,0.31192660331726074,-0.16249458491802216,0.0917133241891861
1772458568871586300,8.63458642578125,0.3020356297492981,-0.17508867383003235,0.14765141904354095
1772458568881654300,8.644654296875,0.2842838764190674,-0.201786607503891,0.1883583813905716
1772458568891722500,8.654722412109376,0.2581534683704376,-0.243759885430336,0.20016096532344818
1772458568901789400,8.66478955078125,0.2281131148338318,-0.29406338930130005,0.19235016405582428
1772458568911857400,8.674857421875,0.19973714649677277,-0.3337863087654114,0.16353581845760345
1772458568921925400,8.68492529296875,0.16834282875061035,-0.3483167290687561,0.13662709295749664
1772458568931993600,8.69499365234375,0.12310957163572311,-0.33552315831184387,0.11201389133930206
1772458568942060500,8.705060546875,0.07024630159139633,-0.31175002455711365,0.09325627237558365
1772458568952128500,8.71512841796875,0.01065780222415924,-0.2748015820980072,0.07764375954866409
1772458568962196200,8.7251962890625,-0.04289938881993294,-0.21738514304161072,0.06636479496955872
1772458568972264200,8.73526416015625,-0.10007452964782715,-0.15324583649635315,0.06457888334989548
1772458568982331400,8.745331298828125,-0.16502146422863007,-0.07068604230880737,0.07532195001840591
1772458568992399400,8.7553994140625,-0.22813118994235992,0.012022947892546654,0.09965365380048752
1772458569002467300,8.76546728515625,-0.2804355025291443,0.02207522839307785,0.1251945197582245
1772458569012535300,8.775535400390625,-0.31728485226631165,-0.026047026738524437,0.130720317363739
1772458569022602200,8.785602294921874,-0.3348364233970642,-0.0877256914973259,0.12624330818653107
1772458569032670200,8.795670166015626,-0.33871665596961975,-0.16867247223854065,0.0883294865489006
1772458569042738400,8.805738525390625,-0.3361413776874542,-0.2768031358718872,0.01999821700155735
1772458569052806400,8.815806396484374,-0.34653303027153015,-0.39487943053245544,-0.09093043208122253
1772458569062873300,8.825873291015625,-0.38037732243537903,-0.4914363622665405,-0.24356211721897125
1772458569072941300,8.83594140625,-0.4439139664173126,-0.5381476879119873,-0.43228140473365784
1772458569083009500,8.846009521484374,-0.5314048528671265,-0.5363115072250366,-0.6243348717689514
1772458569093077500,8.856077392578126,-0.6224503517150879,-0.47327128052711487,-0.7953263521194458
1772458569103144400,8.86614453125,-0.7118217945098877,-0.3159768879413605,-0.9276503920555115
1772458569113212400,8.87621240234375,-0.7870081663131714,-0.06230974942445755,-0.9763748049736023
1772458569123280400,8.8862802734375,-0.8318580389022827,0.2868846356868744,-0.942733108997345
1772458569133348400,8.896348388671875,-0.8346269130706787,0.618317186832428,-0.83946293592453
1772458569143415600,8.90641552734375,-0.7953636050224304,0.8151801824569702,-0.7060925364494324
1772458569153483300,8.916483154296875,-0.7293664813041687,0.8662527203559875,-0.5796059966087341
1772458569163551200,8.92655126953125,-0.6470166444778442,0.8280479907989502,-0.46540704369544983
1772458569173619200,8.936619140625,-0.5421730279922485,0.7298402190208435,-0.3620862662792206
1772458569183686100,8.94668603515625,-0.4181259870529175,0.5822698473930359,-0.26824861764907837
1772458569193754400,8.95675439453125,-0.29623177647590637,0.39267754554748535,-0.18775592744350433
1772458569203822300,8.966822265625,-0.1893470734357834,0.15020686388015747,-0.12817083299160004
1772458569213890300,8.976890380859375,-0.10264519602060318,-0.12984690070152283,-0.09556762129068375
1772458569223957200,8.986957275390624,-0.028038538992404938,-0.40198084712028503,-0.08070726692676544
1772458569234025500,8.997025390625,0.02262650430202484,-0.5861810445785522,-0.06088642403483391
1772458569244093400,9.007093505859375,0.03701796010136604,-0.6476225852966309,-0.05691751465201378
1772458569254161400,9.017161376953124,0.03599077835679054,-0.629534125328064,-0.056649334728717804
1772458569264228400,9.027228271484375,0.027345435693860054,-0.5548654794692993,-0.05991596728563309
1772458569274296300,9.03729638671875,0.01980762369930744,-0.4267418682575226,-0.04974162578582764
1772458569284364500,9.047364501953124,0.006718204356729984,-0.26259732246398926,-0.03315507620573044
1772458569294432500,9.0574326171875,-0.005699583329260349,-0.0745754987001419,-0.004482417833060026
1772458569304499500,9.06749951171875,-0.00794838648289442,0.11154326796531677,0.04088006168603897
1772458569314567400,9.0775673828125,-0.006290835328400135,0.23677228391170502,0.08212842792272568
1772458569324635400,9.087635498046875,0.013708298094570637,0.2866761088371277,0.11542601883411407
1772458569334703400,9.097703369140625,0.03772095590829849,0.2777172327041626,0.15371082723140717
1772458569344770300,9.107770263671876,0.05267217382788658,0.22143253684043884,0.203440859913826
1772458569354838300,9.11783837890625,0.06343134492635727,0.1389765441417694,0.2489582747220993
1772458569364906200,9.12790625,0.06322026997804642,0.04849523305892944,0.30127447843551636
1772458569374974500,9.137974365234374,0.0699458122253418,-0.02751191332936287,0.33640262484550476
1772458569385041400,9.14804150390625,0.0769750252366066,-0.08834534883499146,0.37115198373794556
1772458569395109400,9.158109375,0.08807508647441864,-0.13010184466838837,0.37893348932266235
1772458569405177300,9.16817724609375,0.0942024365067482,-0.15907227993011475,0.35981646180152893
1772458569415245300,9.178245361328125,0.09347353130578995,-0.1746608167886734,0.3291911780834198
1772458569425312300,9.188312255859374,0.08209285140037537,-0.17039844393730164,0.28865012526512146
1772458569435380500,9.19838037109375,0.06299665570259094,-0.16140547394752502,0.2586751878261566
1772458569445448400,9.208448486328125,0.04419303312897682,-0.16016122698783875,0.22251030802726746
1772458569455516400,9.218516357421874,0.027981573715806007,-0.12877027690410614,0.18438662588596344
1772458569465583400,9.228583251953125,0.018523747101426125,-0.0570869967341423,0.15288254618644714
1772458569475650800,9.23865087890625,0.013120725750923157,0.030277201905846596,0.1199704110622406
1772458569485718800,9.24871875,0.002208124380558729,0.1013544574379921,0.07881235331296921
1772458569495786800,9.258786865234375,-0.0031988914124667645,0.1518663763999939,0.027307618409395218
1772458569505853700,9.268853759765625,0.014917215332388878,0.1905737817287445,-0.023331116884946823
1772458569515922000,9.278921875,0.03987955302000046,0.23163145780563354,-0.05322909355163574
1772458569525990000,9.288989990234375,0.07254903763532639,0.2539060115814209,-0.06727437674999237
1772458569536057600,9.2990576171875,0.08681319653987885,0.22113953530788422,-0.07525000721216202
1772458569546124800,9.309124755859376,0.08771229535341263,0.12567870318889618,-0.10209591686725616
1772458569556192500,9.319192626953125,0.08804545551538467,0.025824543088674545,-0.12827958166599274
1772458569566260700,9.3292607421875,0.0968811959028244,-0.045804962515830994,-0.1489088088274002
1772458569576328700,9.33932861328125,0.11839208006858826,-0.06393709033727646,-0.1613479107618332
1772458569586395600,9.349395751953125,0.16153249144554138,-0.019732702523469925,-0.14073894917964935
1772458569596463600,9.359463623046874,0.23633801937103271,0.10218974202871323,-0.07176573574542999
1772458569606531800,9.36953173828125,0.3423699140548706,0.2712721824645996,0.05938338115811348
1772458569616599800,9.379599853515625,0.4506724178791046,0.3598630130290985,0.18871046602725983
1772458569626667800,9.389667724609374,0.5138882994651794,0.34251904487609863,0.2895680367946625
1772458569636734700,9.399734619140625,0.5403949618339539,0.23609057068824768,0.33022332191467285
1772458569646802700,9.409802734375,0.5455603003501892,-0.003379354253411293,0.27918127179145813
1772458569656871000,9.419870849609374,0.5222989320755005,-0.3274801969528198,0.16433429718017578
1772458569666937900,9.429937744140625,0.46842139959335327,-0.636694610118866,0.048917658627033234
1772458569677005800,9.440005859375,0.3874940574169159,-0.7914597392082214,-0.020566344261169434
1772458569687073800,9.45007373046875,0.2795045077800751,-0.8087131977081299,-0.037077028304338455
1772458569697141800,9.460141845703125,0.16067984700202942,-0.7277187705039978,0.004289320670068264
1772458569707209700,9.470209716796875,0.05059608817100525,-0.5395534634590149,0.10081621259450912
1772458569717277000,9.48027685546875,-0.03700513392686844,-0.2835131883621216,0.2235085815191269
1772458569727344600,9.4903447265625,-0.08363074064254761,0.006722458638250828,0.3496938645839691
1772458569737412600,9.50041259765625,-0.08798687160015106,0.2895751893520355,0.4714943468570709
1772458569747480600,9.51048046875,-0.07060874253511429,0.5084283947944641,0.556464433670044
1772458569757547800,9.5205478515625,-0.04486636444926262,0.6399635076522827,0.6027187705039978
1772458569767615700,9.53061572265625,-0.01935606822371483,0.6886841654777527,0.6243643164634705
1772458569777683700,9.54068359375,-0.0013533656019717455,0.6434905529022217,0.6071115732192993
1772458569787751700,9.550751708984375,0.006971519440412521,0.575659990310669,0.5736182928085327
1772458569797818600,9.560818603515624,0.00922295544296503,0.51386958360672,0.5311153531074524
1772458569807886800,9.570886962890626,-0.003912569489330053,0.44973549246788025,0.4694664776325226
1772458569817954800,9.580954833984375,-0.023482808843255043,0.3596157431602478,0.38421469926834106
1772458569828022800,9.591022705078124,-0.03505067154765129,0.24516652524471283,0.27446579933166504
1772458569838089700,9.60108984375,-0.03177445009350777,0.11804318428039551,0.15335987508296967
1772458569848157700,9.61115771484375,-0.015490662306547165,-0.0019427263177931309,0.04776077717542648
1772458569858226000,9.621225830078124,0.004415933974087238,-0.10018593817949295,-0.031473852694034576
1772458569868294000,9.6312939453125,0.014142300002276897,-0.23119665682315826,-0.10895367711782455
1772458569878360800,9.64136083984375,0.014440307393670082,-0.3981851041316986,-0.20372626185417175
1772458569888428800,9.6514287109375,0.007814817130565643,-0.5250396132469177,-0.29701998829841614
1772458569898496500,9.66149658203125,-0.003715072525665164,-0.5610092878341675,-0.3723863959312439
1772458569908564700,9.671564697265625,-0.028548484668135643,-0.496553510427475,-0.42603206634521484
1772458569918631700,9.681631591796876,-0.05538036301732063,-0.3436601161956787,-0.44137561321258545
1772458569928699600,9.69169970703125,-0.07792814075946808,-0.11457730829715729,-0.4034019410610199
1772458569938767600,9.701767578125,-0.09886565059423447,0.15055184066295624,-0.3221701979637146
1772458569948835800,9.7118359375,-0.10437449812889099,0.36125773191452026,-0.2264086902141571
1772458569958902800,9.72190283203125,-0.10291481763124466,0.45392242074012756,-0.13802583515644073
1772458569968970800,9.731970703125,-0.10069997608661652,0.4471377730369568,-0.08159605413675308
1772458569979038700,9.742038818359376,-0.09918463230133057,0.4087938368320465,-0.06505835801362991
1772458569989106700,9.752106689453125,-0.08718926459550858,0.35547998547554016,-0.06403549760580063
1772458569999173600,9.762173583984374,-0.07463379204273224,0.29040539264678955,-0.08215005695819855
1772458570009241900,9.772241943359376,-0.07270181179046631,0.22909200191497803,-0.11239977180957794
1772458570019309800,9.782309814453125,-0.0738309919834137,0.17724984884262085,-0.1392284631729126
1772458570029377800,9.792377685546874,-0.06885553151369095,0.15148931741714478,-0.14313511550426483
1772458570039444700,9.80244482421875,-0.05132261663675308,0.1575155109167099,-0.12902913987636566
1772458570049513000,9.812512939453125,-0.033525556325912476,0.17595654726028442,-0.09615781158208847
1772458570059581000,9.822580810546874,-0.013618161901831627,0.18951097130775452,-0.050983134657144547
1772458570069648600,9.832648681640626,0.0005704392679035664,0.18462860584259033,-0.006469997111707926
1772458570079715800,9.8427158203125,0.01036048587411642,0.1455610990524292,0.0442991741001606
1772458570089783600,9.852783447265624,0.01963948830962181,0.07588353753089905,0.09340265393257141
1772458570099851800,9.862851806640625,0.03407248854637146,-0.004359633661806583,0.14231187105178833
1772458570109919700,9.872919677734375,0.04614062234759331,-0.092466801404953,0.18963582813739777
1772458570119986700,9.882986572265626,0.05367150902748108,-0.17307668924331665,0.2191910594701767
1772458570130054700,9.8930546875,0.04912230744957924,-0.23212091624736786,0.23290802538394928
1772458570140122600,9.90312255859375,0.04965866729617119,-0.23950134217739105,0.2420024573802948
1772458570150190800,9.91319091796875,0.0569801852107048,-0.23760385811328888,0.25661012530326843
1772458570160258800,9.9232587890625,0.060295287519693375,-0.244205042719841,0.25931668281555176
1772458570170325800,9.93332568359375,0.057615771889686584,-0.28098219633102417,0.2523256838321686
1772458570180393700,9.943393798828126,0.05343594029545784,-0.34542909264564514,0.23476426303386688
1772458570190461700,9.953461669921875,0.0447038933634758,-0.41415852308273315,0.2192547619342804
1772458570200530000,9.963530029296875,0.026058565825223923,-0.4548042118549347,0.20590940117835999
1772458570210596900,9.973596923828126,-0.014870019629597664,-0.4590986669063568,0.20739740133285522
1772458570220664800,9.983664794921875,-0.05299237370491028,-0.44017237424850464,0.20323941111564636
1772458570230732800,9.99373291015625,-0.08920954167842865,-0.40233314037323,0.20941175520420074
1772458570240800800,10.00380078125,-0.10801944881677628,-0.3367493450641632,0.22825175523757935
1772458570250868000,10.013867919921875,-0.10382036864757538,-0.22233179211616516,0.24976293742656708
1772458570260935700,10.023935791015624,-0.07570351660251617,-0.0753609836101532,0.2713622450828552
1772458570271003600,10.034003662109376,-0.024865899235010147,0.0019626806024461985,0.2703219950199127
1772458570281071600,10.044071533203125,0.037297073751688004,0.026946593075990677,0.23896245658397675
1772458570291138600,10.054138671875,0.09060602635145187,0.01686386577785015,0.18262355029582977
1772458570301206800,10.064206787109375,0.13029111921787262,-0.08691978454589844,0.09606202691793442
1772458570311274800,10.074274658203125,0.15385571122169495,-0.28715959191322327,-0.02039676159620285
1772458570321342700,10.0843427734375,0.14138279855251312,-0.4804462194442749,-0.13268308341503143
1772458570331409700,10.09440966796875,0.06443758308887482,-0.5673348307609558,-0.22443149983882904
1772458570341477600,10.1044775390625,-0.0536658875644207,-0.5596832633018494,-0.29944396018981934
1772458570351545900,10.1145458984375,-0.17710822820663452,-0.4729286730289459,-0.34337592124938965
1772458570361613800,10.12461376953125,-0.27395275235176086,-0.2992471754550934,-0.35663288831710815
1772458570371680800,10.1346806640625,-0.3456762433052063,-0.05031443387269974,-0.3331410884857178
1772458570381748700,10.144748779296876,-0.38108429312705994,0.19883893430233002,-0.2794190049171448
1772458570391817000,10.15481689453125,-0.3826809525489807,0.3848990201950073,-0.20153208076953888
1772458570401884700,10.164884765625,-0.3516218364238739,0.4537326693534851,-0.1213056817650795
1772458570411951900,10.174951904296876,-0.3010287582874298,0.450847327709198,-0.045969560742378235
1772458570422019800,10.185019775390625,-0.2387874871492386,0.4345828592777252,0.03605633229017258
1772458570432087600,10.195087646484374,-0.170103520154953,0.4033660292625427,0.11295179277658463
1772458570442155800,10.20515576171875,-0.10470480471849442,0.30748051404953003,0.16167032718658447
1772458570452222700,10.21522265625,-0.04702402278780937,0.13648448884487152,0.18388204276561737
1772458570462290700,10.225290771484374,0.0021411245688796043,-0.05900353193283081,0.18042898178100586
1772458570472358700,10.235358642578126,0.024784183129668236,-0.20617744326591492,0.16427096724510193
1772458570482426600,10.245426513671875,0.023468846455216408,-0.24836406111717224,0.14888721704483032
1772458570492494600,10.25549462890625,0.003936769440770149,-0.20094019174575806,0.11861057579517365
1772458570502561500,10.2655615234375,-0.018640179187059402,-0.11151549965143204,0.07374802976846695
1772458570512629500,10.27562939453125,-0.04602797329425812,-0.01066916435956955,0.010314486920833588
1772458570522697700,10.28569775390625,-0.06569648534059525,0.07200227677822113,-0.055543091148138046
1772458570532765700,10.295765625,-0.08938633650541306,0.13203495740890503,-0.1054590493440628
1772458570542832600,10.30583251953125,-0.11136700212955475,0.14733853936195374,-0.14571033418178558
1772458570552900600,10.315900634765624,-0.10989320278167725,0.12875127792358398,-0.16191087663173676
1772458570562968800,10.32596875,-0.0892539769411087,0.09744849056005478,-0.14697852730751038
1772458570573036500,10.33603662109375,-0.06239203363656998,0.06959930807352066,-0.10725661367177963
1772458570583103700,10.346103759765626,-0.04289130121469498,0.0679345652461052,-0.04808570817112923
1772458570593171700,10.356171630859375,-0.03963737189769745,0.09006889909505844,0.022930946201086044
1772458570603239400,10.366239501953125,-0.040391046553850174,0.10958986729383469,0.08735467493534088
1772458570613307600,10.3763076171875,-0.04133341461420059,0.12632562220096588,0.12938690185546875
1772458570623374600,10.38637451171875,-0.04016082361340523,0.14021213352680206,0.1547260731458664
1772458570633442600,10.396442626953124,-0.05475882813334465,0.1456131488084793,0.14883939921855927
1772458570643510500,10.406510498046876,-0.06864215433597565,0.1551901400089264,0.11737041920423508
1772458570653578500,10.41657861328125,-0.08141350746154785,0.18455693125724792,0.07320000231266022
1772458570663645400,10.4266455078125,-0.10134565830230713,0.233023002743721,0.017826760187745094
1772458570673713700,10.436713623046876,-0.11925667524337769,0.28486835956573486,-0.04404353350400925
1772458570683781600,10.44678173828125,-0.1342787742614746,0.3201461732387543,-0.09935552626848221
1772458570693849600,10.456849609375,-0.1393989622592926,0.3568308651447296,-0.13954605162143707
1772458570703916500,10.46691650390625,-0.13705377280712128,0.40277835726737976,-0.15302324295043945
1772458570713984800,10.47698486328125,-0.12656423449516296,0.4167011082172394,-0.1443493366241455
1772458570724052700,10.487052734375,-0.09417327493429184,0.384680837392807,-0.12922844290733337
1772458570734120700,10.49712060546875,-0.04101250320672989,0.3348167836666107,-0.09897410124540329
1772458570744187600,10.507187744140625,0.015407897531986237,0.27486687898635864,-0.058009885251522064
1772458570754255600,10.517255615234374,0.07704154402017593,0.20410308241844177,-0.01474127359688282
1772458570764323600,10.527323486328125,0.13580605387687683,0.13272930681705475,0.016951942816376686
1772458570774391600,10.5373916015625,0.1860034167766571,0.04255988076329231,0.03391337767243385
1772458570784459500,10.54745947265625,0.22793889045715332,-0.06047249957919121,0.030417712405323982
1772458570794526500,10.5575263671875,0.262356698513031,-0.14082087576389313,-0.0033269349951297045
1772458570804594400,10.567594482421875,0.29001256823539734,-0.1777285486459732,-0.053680118173360825
1772458570814662700,10.57766259765625,0.31900134682655334,-0.1690538376569748,-0.10671164840459824
1772458570824730600,10.587730712890625,0.3609620928764343,-0.1050141304731369,-0.15629544854164124
1772458570834797600,10.597797607421874,0.4118490517139435,0.009386302903294563,-0.17090511322021484
1772458570844865500,10.607865478515626,0.47551429271698,0.12276718765497208,-0.14251287281513214
1772458570854933800,10.617933837890625,0.5290990471839905,0.17552292346954346,-0.08393534272909164
1772458570865001700,10.628001708984375,0.5502930283546448,0.19224224984645844,-0.024792661890387535
1772458570875068700,10.638068603515626,0.5329294800758362,0.14083516597747803,0.008291341364383698
1772458570885136600,10.64813671875,0.4672311246395111,-0.017379501834511757,-0.02124098315834999
1772458570895204600,10.65820458984375,0.3588257133960724,-0.26090019941329956,-0.1098036989569664
1772458570905272800,10.66827294921875,0.23367522656917572,-0.48906201124191284,-0.21803270280361176
1772458570915339800,10.67833984375,0.11938122659921646,-0.6503782868385315,-0.29426059126853943
1772458570925407700,10.68840771484375,0.009424901567399502,-0.6971545815467834,-0.32960817217826843
1772458570935475700,10.698475830078126,-0.08695326745510101,-0.5998567938804626,-0.28789809346199036
1772458570945543400,10.70854345703125,-0.1516270637512207,-0.4019581377506256,-0.1667117476463318
1772458570955610600,10.718610595703124,-0.18031291663646698,-0.17192767560482025,0.008008484728634357
1772458570965678600,10.7286787109375,-0.17238467931747437,0.029448308050632477,0.20659774541854858
1772458570975746600,10.73874658203125,-0.13598637282848358,0.18840418756008148,0.399746298789978
1772458570985814500,10.748814453125,-0.09336274117231369,0.2849467098712921,0.558158278465271
1772458570995881500,10.758881591796875,-0.04971099644899368,0.3327411115169525,0.6746888756752014
1772458571005949700,10.76894970703125,-0.0018744999542832375,0.33599814772605896,0.7505340576171875
1772458571016017700,10.779017578125,0.019190572202205658,0.3088870048522949,0.7927296757698059
1772458571026085600,10.789085693359375,-0.00600799173116684,0.23538245260715485,0.7950093746185303
1772458571036153600,10.799153564453125,-0.0611434280872345,0.12478464841842651,0.7623221278190613
1772458571046220500,10.809220458984376,-0.12525850534439087,0.018897635862231255,0.7138187885284424
1772458571056288800,10.819288818359375,-0.1830790936946869,-0.02316294051706791,0.6559308171272278
1772458571066356700,10.829356689453125,-0.23337875306606293,-0.015003815293312073,0.5761609077453613
1772458571076424700,10.8394248046875,-0.2711459994316101,-0.003518281038850546,0.46451881527900696
1772458571086491600,10.84949169921875,-0.290208101272583,-0.023913301527500153,0.3120781481266022
1772458571096559600,10.8595595703125,-0.2855181097984314,-0.07048175483942032,0.15079092979431152
1772458571106627600,10.869627685546876,-0.26050302386283875,-0.11073889583349228,-0.005071364808827639
1772458571116695600,10.879695556640625,-0.23864442110061646,-0.15921008586883545,-0.14129403233528137
1772458571126762800,10.8897626953125,-0.21634416282176971,-0.22538404166698456,-0.25188127160072327
1772458571136830500,10.89983056640625,-0.19817356765270233,-0.3007398843765259,-0.3357214629650116
1772458571146898400,10.9098984375,-0.20664827525615692,-0.37831348180770874,-0.41552335023880005
1772458571156966700,10.919966552734374,-0.24133853614330292,-0.4366152584552765,-0.507665753364563
1772458571167033600,10.93003369140625,-0.28901100158691406,-0.4394690990447998,-0.5739164352416992
1772458571177101600,10.9401015625,-0.3386031687259674,-0.3679722547531128,-0.6058200001716614
1772458571187169500,10.95016943359375,-0.38001400232315063,-0.23624353110790253,-0.5938882231712341
1772458571197237800,10.96023779296875,-0.4096209704875946,-0.07345028966665268,-0.5393806099891663
1772458571207304700,10.9703046875,-0.43375641107559204,0.06951139867305756,-0.44959962368011475
1772458571217372700,10.98037255859375,-0.4476030170917511,0.1668449491262436,-0.36737966537475586
1772458571227440600,10.990440673828125,-0.45018014311790466,0.24686628580093384,-0.2867642045021057
1772458571237508600,11.000508544921875,-0.43185901641845703,0.29221799969673157,-0.23617145419120789
1772458571247576800,11.010576904296874,-0.4004896581172943,0.29464733600616455,-0.20532193779945374
1772458571257643800,11.020643798828125,-0.35631442070007324,0.27931153774261475,-0.18636469542980194
1772458571267711700,11.030711669921875,-0.3151171803474426,0.24476370215415955,-0.18045674264431
1772458571277779500,11.040779541015626,-0.2751476764678955,0.19124683737754822,-0.1736309975385666
1772458571287847400,11.050847412109375,-0.23870070278644562,0.11595313996076584,-0.1569068878889084
1772458571297914600,11.06091455078125,-0.1940605193376541,0.04227110370993614,-0.13883806765079498
1772458571307982600,11.070982666015626,-0.14916494488716125,-0.016151191666722298,-0.1084524616599083
1772458571318050600,11.081050537109375,-0.10014411062002182,-0.05265810340642929,-0.06117608770728111
1772458571328118500,11.091118408203124,-0.052034370601177216,-0.06603942066431046,-0.008020194247364998
1772458571338185500,11.101185546875,-0.0060860225930809975,-0.07956123352050781,0.042115919291973114
1772458571348253700,11.111253662109375,0.03321025148034096,-0.11669954657554626,0.09056653827428818
1772458571358321700,11.12132177734375,0.07019292563199997,-0.17208196222782135,0.1373005211353302
1772458571368389600,11.1313896484375,0.0992799699306488,-0.2143884003162384,0.18717274069786072
1772458571378456600,11.14145654296875,0.11995028704404831,-0.2186107337474823,0.22528812289237976
1772458571388524500,11.151524658203124,0.13169722259044647,-0.2179739773273468,0.2700183391571045
1772458571398592800,11.1615927734375,0.13352960348129272,-0.23818905651569366,0.28773269057273865
1772458571408660700,11.17166064453125,0.11960126459598541,-0.2922922372817993,0.2687944173812866
1772458571418727700,11.181727783203126,0.10337888449430466,-0.34323450922966003,0.21627289056777954
1772458571428795600,11.191795654296875,0.07731878757476807,-0.37924471497535706,0.1610671579837799
1772458571438863600,11.201863525390625,0.04086333140730858,-0.39745187759399414,0.10351690649986267
1772458571448931600,11.211931640625,-0.002286005299538374,-0.382780522108078,0.05830548331141472
1772458571458999600,11.22199951171875,-0.06430196017026901,-0.3334580659866333,0.03515603765845299
1772458571469066500,11.23206640625,-0.12451230734586716,-0.22310814261436462,0.030554359778761864
1772458571479134500,11.242134521484376,-0.1558569222688675,-0.06986841559410095,0.028095917776226997
1772458571489202700,11.25220263671875,-0.17357413470745087,0.08354750275611877,0.022069184109568596
1772458571499270700,11.262270751953125,-0.1775922030210495,0.21220166981220245,0.019076170399785042
1772458571509337600,11.272337646484376,-0.17751124501228333,0.2962134778499603,0.032745376229286194
1772458571519405600,11.282405517578125,-0.16984203457832336,0.3301433324813843,0.05215233564376831
1772458571529473800,11.292473876953125,-0.15223561227321625,0.32205453515052795,0.0832279622554779
1772458571539541800,11.302541748046876,-0.12704792618751526,0.2915413975715637,0.13589522242546082
1772458571549608700,11.312608642578125,-0.09490730613470078,0.26866376399993896,0.21274925768375397
1772458571559676700,11.3226767578125,-0.05238833278417587,0.22587475180625916,0.2853430509567261
1772458571569744600,11.33274462890625,-0.010718919336795807,0.1421998292207718,0.3356943726539612
1772458571579812900,11.342812744140625,0.03320379555225372,0.041083335876464844,0.35594451427459717
1772458571589879800,11.3528798828125,0.05467553436756134,-0.05457661300897598,0.34923094511032104
1772458571599947800,11.36294775390625,0.058826744556427,-0.10705970227718353,0.33939260244369507
1772458571610015700,11.373015625,0.05388125404715538,-0.09731519222259521,0.339622437953949
1772458571620083500,11.38308349609375,0.05589631199836731,-0.09186732023954391,0.3130744397640228
1772458571630151700,11.393151611328125,0.07499463856220245,-0.1300024539232254,0.26005515456199646
1772458571640218600,11.403218505859375,0.10695549845695496,-0.18137334287166595,0.16718409955501556
1772458571650286600,11.41328662109375,0.14113077521324158,-0.21634544432163239,0.05692283809185028
1772458571660354600,11.4233544921875,0.161720409989357,-0.2387765347957611,-0.06849517673254013
1772458571670422500,11.433422607421875,0.164711132645607,-0.2475905418395996,-0.18706311285495758
1772458571680489700,11.44348974609375,0.14657826721668243,-0.20654922723770142,-0.28304019570350647
1772458571690557700,11.4535576171875,0.12312965840101242,-0.09449911117553711,-0.32606571912765503
1772458571700625700,11.463625732421875,0.0830724909901619,0.1049644872546196,-0.28679147362709045
1772458571710693600,11.473693603515626,0.0073990351520478725,0.2640705108642578,-0.21418572962284088
1772458571720760600,11.483760498046875,-0.04519085958600044,0.30559176206588745,-0.1524490863084793
1772458571730828800,11.493828857421875,-0.0463368184864521,0.26805955171585083,-0.051419682800769806
1772458571740896800,11.503896728515626,-0.019384142011404037,0.285186767578125,0.08597336709499359
1772458571750964700,11.51396484375,0.005616815760731697,0.30294153094291687,0.22246409952640533
1772458571761031700,11.52403173828125,0.04627126827836037,0.3124113380908966,0.33272433280944824
1772458571771099600,11.534099609375,0.10432019084692001,0.35027560591697693,0.4207268953323364
1772458571781167900,11.54416796875,0.1537448614835739,0.3805980086326599,0.46113643050193787
1772458571791235600,11.554235595703124,0.18399517238140106,0.3580769896507263,0.4504140317440033
1772458571801303600,11.564303466796876,0.20964528620243073,0.3355129063129425,0.424049973487854
1772458571811370500,11.57437060546875,0.21521581709384918,0.28868576884269714,0.3837965726852417
1772458571821438500,11.5844384765625,0.2121841013431549,0.1574379950761795,0.28708282113075256
