time,seconds_elapsed,z,y,x
1772458560296398300,0.0593984375,0.10532029718160629,-0.209355890750885,-0.39110997319221497
1772458560306466300,0.06946630859375,0.080199234187603,-0.14995567500591278,-0.37280526757240295
1772458560316534300,0.0795341796875,0.04261430725455284,-0.10479085892438889,-0.3504429757595062
1772458560326601200,0.089601318359375,0.01757712848484516,-0.09459148347377777,-0.3324993848800659
1772458560336669400,0.09966943359375,-0.003540672594681382,-0.10331547260284424,-0.3151611387729645
1772458560346737400,0.1097373046875,-0.016619989648461342,-0.10738371312618256,-0.29885461926460266
1772458560356805400,0.119805419921875,-0.023552730679512024,-0.12603649497032166,-0.27935707569122314
1772458560366872300,0.129872314453125,-0.01871483214199543,-0.17341147363185883,-0.2916848361492157
1772458560376940500,0.1399404296875,-0.0029236183036118746,-0.22745099663734436,-0.31508123874664307
1772458560387008500,0.150008544921875,0.018824022263288498,-0.2742171585559845,-0.3418412208557129
1772458560397075500,0.160075439453125,0.03181971609592438,-0.2504071891307831,-0.34708285331726074
1772458560407143400,0.170143310546875,0.017537182196974754,-0.17424637079238892,-0.3239530324935913
1772458560417211400,0.18021142578125,-0.026757311075925827,-0.09955056011676788,-0.2864235043525696
1772458560427279400,0.190279296875,-0.07131492346525192,-0.030726486817002296,-0.24829742312431335
1772458560437346600,0.2003466796875,-0.10763884335756302,0.033962227404117584,-0.21798798441886902
1772458560447414300,0.210414306640625,-0.12647858262062073,0.11296916007995605,-0.1893472969532013
1772458560457482200,0.220482177734375,-0.13082405924797058,0.21000516414642334,-0.1646920144557953
1772458560467549700,0.2305498046875,-0.1132970005273819,0.3196307420730591,-0.13475409150123596
1772458560477617700,0.24061767578125,-0.08699535578489304,0.4036814272403717,-0.10609607398509979
1772458560487685600,0.250685546875,-0.05338386073708534,0.43860211968421936,-0.0745924785733223
1772458560497753900,0.26075390625,-0.027889154851436615,0.4376010298728943,-0.04947700351476669
1772458560507820800,0.27082080078125,-0.010557303205132484,0.3949774205684662,-0.04318102449178696
1772458560517888800,0.280888671875,0.008647283539175987,0.32775577902793884,-0.058349061757326126
1772458560527956700,0.290956787109375,0.03321095183491707,0.266703337430954,-0.07781650125980377
1772458560538024700,0.301024658203125,0.050637878477573395,0.19802041351795197,-0.08606031537055969
1772458560548091600,0.311091552734375,0.05878874659538269,0.10760795325040817,-0.07715550810098648
1772458560558160000,0.321159912109375,0.0676639974117279,0.00532499048858881,-0.056236639618873596
1772458560568227800,0.331227783203125,0.06114271655678749,-0.07689584791660309,-0.02375699393451214
1772458560578294800,0.341294677734375,0.046968042850494385,-0.13163019716739655,0.014476411044597626
1772458560588362800,0.35136279296875,0.021625399589538574,-0.17529991269111633,0.04190430790185928
1772458560598430700,0.3614306640625,-0.007203850895166397,-0.22580675780773163,0.055325575172901154
1772458560608498700,0.371498779296875,-0.029167206957936287,-0.2801932990550995,0.045344047248363495
1772458560618566000,0.38156591796875,-0.060563743114471436,-0.37433525919914246,-0.008188420906662941
1772458560628633900,0.3916337890625,-0.10179134458303452,-0.5022271871566772,-0.11722702533006668
1772458560638701600,0.40170166015625,-0.15342338383197784,-0.6089829206466675,-0.2648436427116394
1772458560648768800,0.411768798828125,-0.20319652557373047,-0.6488491296768188,-0.4362066090106964
1772458560658836700,0.421836669921875,-0.25022074580192566,-0.622920036315918,-0.596534252166748
1772458560668904700,0.43190478515625,-0.2969725430011749,-0.543269157409668,-0.7153761982917786
1772458560678972700,0.44197265625,-0.33980950713157654,-0.4252101480960846,-0.7656065821647644
1772458560689039600,0.45203955078125,-0.3863687515258789,-0.2657211422920227,-0.7473567724227905
1772458560699107600,0.462107666015625,-0.4327636659145355,-0.10359350591897964,-0.669532835483551
1772458560709175800,0.47217578125,-0.4631849527359009,0.04272748902440071,-0.564943790435791
1772458560719243800,0.482243896484375,-0.4667123258113861,0.16847023367881775,-0.44007617235183716
1772458560729310700,0.492310791015625,-0.44285571575164795,0.2445804476737976,-0.31171074509620667
1772458560739378700,0.502378662109375,-0.40276530385017395,0.26126915216445923,-0.20707808434963226
1772458560749446700,0.51244677734375,-0.34223058819770813,0.23157809674739838,-0.12773959338665009
1772458560759513900,0.522513916015625,-0.2715049982070923,0.16747768223285675,-0.07427822798490524
1772458560769581800,0.532581787109375,-0.1956499218940735,0.10091596096754074,-0.025286447256803513
1772458560779649800,0.54264990234375,-0.11832078546285629,0.06168679893016815,0.009892311878502369
1772458560789717800,0.5527177734375,-0.05390264466404915,0.05733572691679001,0.041791655123233795
1772458560799784700,0.56278466796875,0.0008711199625395238,0.07638931274414062,0.06566715985536575
1772458560809853000,0.57285302734375,0.04045288264751434,0.07545240968465805,0.08591863512992859
1772458560819921000,0.5829208984375,0.07335224747657776,0.0469169095158577,0.0966397225856781
1772458560829987800,0.59298779296875,0.08708563446998596,-0.01435017678886652,0.10845137387514114
1772458560840055800,0.603055908203125,0.08371780067682266,-0.10112342238426208,0.11315345019102097
1772458560850123500,0.61312353515625,0.07105260342359543,-0.17745600640773773,0.12445776909589767
1772458560860191700,0.623191650390625,0.05667872726917267,-0.2277471423149109,0.12691347301006317
1772458560870258700,0.6332587890625,0.04549477994441986,-0.2646590769290924,0.14582830667495728
1772458560880326700,0.64332666015625,0.03586319088935852,-0.30614420771598816,0.17488259077072144
1772458560890394600,0.65339453125,0.021466143429279327,-0.33198434114456177,0.2039691060781479
1772458560900461600,0.663461669921875,0.013367470353841782,-0.3243732750415802,0.23085132241249084
1772458560910529800,0.67352978515625,0.019604859873652458,-0.3264433741569519,0.24406006932258606
1772458560920597800,0.68359765625,0.029736323282122612,-0.36433374881744385,0.23517176508903503
1772458560930665700,0.693665771484375,0.0477060042321682,-0.4263875484466553,0.20973432064056396
1772458560940732700,0.703732666015625,0.06436407566070557,-0.4627127945423126,0.17327697575092316
1772458560950800600,0.713800537109375,0.070130355656147,-0.4577696919441223,0.13242514431476593
1772458560960868900,0.723868896484375,0.05698871612548828,-0.42673614621162415,0.08368584513664246
1772458560970935800,0.733935791015625,0.03320296108722687,-0.3900662660598755,0.019996078684926033
1772458560981003800,0.744003662109375,-0.007476292084902525,-0.3604620397090912,-0.0400366336107254
1772458560991071700,0.75407177734375,-0.04939897358417511,-0.3435206115245819,-0.1081957146525383
1772458561001139700,0.7641396484375,-0.0923999696969986,-0.3250044584274292,-0.16062909364700317
1772458561011207000,0.77420703125,-0.13399136066436768,-0.2749745845794678,-0.18747934699058533
1772458561021275000,0.78427490234375,-0.17964060604572296,-0.19282537698745728,-0.184419646859169
1772458561031342800,0.7943427734375,-0.22596308588981628,-0.10035110265016556,-0.16613677144050598
1772458561041409800,0.804409912109375,-0.2557079493999481,-0.024576716125011444,-0.13060487806797028
1772458561051477800,0.814477783203125,-0.2624973952770233,0.029808761551976204,-0.08283842355012894
1772458561061545700,0.824545654296875,-0.2518295645713806,0.06089290976524353,-0.03168975189328194
1772458561071613700,0.83461376953125,-0.23426710069179535,0.06752338260412216,0.012732839211821556
1772458561081681000,0.844680908203125,-0.21109972894191742,0.04453258216381073,0.04219352453947067
1772458561091748600,0.85474853515625,-0.18512244522571564,0.009856092743575573,0.05253564566373825
1772458561101816600,0.864816650390625,-0.17053338885307312,-0.04832092672586441,0.052256546914577484
1772458561111883500,0.874883544921875,-0.16591866314411163,-0.10386567562818527,0.0408552885055542
1772458561121951700,0.88495166015625,-0.17831221222877502,-0.11633007228374481,0.036787308752536774
1772458561132019700,0.895019775390625,-0.20042258501052856,-0.08043332397937775,0.033070337027311325
1772458561142087700,0.905087646484375,-0.22119390964508057,-0.011915515176951885,0.015327290631830692
1772458561152154600,0.915154541015625,-0.2343672215938568,0.05892590060830116,-0.007625162601470947
1772458561162222800,0.925222900390625,-0.23920299112796783,0.11240803450345993,-0.026746392250061035
1772458561172290800,0.935290771484375,-0.2364380955696106,0.12916970252990723,-0.04674939438700676
1772458561182358800,0.94535888671875,-0.22737962007522583,0.11750132590532303,-0.0636676624417305
1772458561192425700,0.95542578125,-0.22523577511310577,0.11550209671258926,-0.06826507300138474
1772458561202493700,0.96549365234375,-0.2259732186794281,0.10536050796508789,-0.0649837926030159
1772458561212562000,0.97556201171875,-0.23205320537090302,0.06211983039975166,-0.060084108263254166
1772458561222628900,0.98562890625,-0.23504580557346344,-0.034200314432382584,-0.05061843618750572
1772458561232696800,0.99569677734375,-0.2395811676979065,-0.13003124296665192,-0.022001706063747406
1772458561242764800,1.005764892578125,-0.25371694564819336,-0.18381164968013763,0.026989007368683815
1772458561252832800,1.015832763671875,-0.27678099274635315,-0.19119392335414886,0.08960738033056259
1772458561262899700,1.025899658203125,-0.29172825813293457,-0.15946128964424133,0.17387698590755463
1772458561272968000,1.035968017578125,-0.29661062359809875,-0.1084151566028595,0.2550938129425049
1772458561283035600,1.04603564453125,-0.267417848110199,-0.06897081434726715,0.3229879140853882
1772458561293102800,1.056102783203125,-0.20338508486747742,-0.06431720405817032,0.3802647888660431
1772458561303170600,1.066170654296875,-0.1310320496559143,-0.060020193457603455,0.41952750086784363
1772458561313238800,1.07623876953125,-0.06905417144298553,-0.02707129903137684,0.4525320529937744
1772458561323306800,1.086306640625,-0.031631164252758026,0.03712712973356247,0.488275408744812
1772458561333373700,1.096373779296875,-0.013450294733047485,0.07982771843671799,0.4979322850704193
1772458561343441700,1.106441650390625,0.010873686522245407,0.08794157207012177,0.4941039979457855
1772458561353509600,1.116509521484375,0.051718320697546005,0.06290999054908752,0.48642557859420776
1772458561363576600,1.12657666015625,0.07951799780130386,0.005677859298884869,0.46721673011779785
1772458561373644800,1.136644775390625,0.09650949388742447,-0.060683321207761765,0.43377408385276794
1772458561383712800,1.146712646484375,0.09599097818136215,-0.12139620631933212,0.4004579186439514
1772458561393780700,1.15678076171875,0.07952838391065598,-0.1708281934261322,0.36167752742767334
1772458561403847700,1.16684765625,0.05877463147044182,-0.21557170152664185,0.31348681449890137
1772458561413915600,1.17691552734375,0.03255847468972206,-0.27032071352005005,0.2610499858856201
1772458561423983900,1.18698388671875,-0.004077299498021603,-0.3533644676208496,0.1890127956867218
1772458561434050800,1.19705078125,-0.04938272759318352,-0.44488024711608887,0.09660670161247253
1772458561444118800,1.207118896484375,-0.10280653834342957,-0.5218821167945862,-0.003210174385458231
1772458561454186800,1.217186767578125,-0.16007807850837708,-0.5392858386039734,-0.10363691300153732
1772458561464254700,1.227254638671875,-0.2262781411409378,-0.482822060585022,-0.17975112795829773
1772458561474321700,1.23732177734375,-0.288595587015152,-0.351321816444397,-0.23875266313552856
1772458561484390000,1.247389892578125,-0.3341790437698364,-0.1554843932390213,-0.2689422369003296
1772458561494457600,1.25745751953125,-0.35289013385772705,0.05296867713332176,-0.28110864758491516
1772458561504524800,1.26752490234375,-0.34091150760650635,0.21725481748580933,-0.28367379307746887
1772458561514592800,1.2775927734375,-0.3086150884628296,0.3134271502494812,-0.265360027551651
1772458561524660500,1.287660400390625,-0.26668310165405273,0.33979058265686035,-0.23200926184654236
1772458561534728700,1.297728759765625,-0.2233760952949524,0.32935020327568054,-0.1771974116563797
1772458561544795600,1.307795654296875,-0.18863914906978607,0.324271559715271,-0.09885787218809128
1772458561554863600,1.317863525390625,-0.1641274243593216,0.31343594193458557,-0.01865357905626297
1772458561564931600,1.327931640625,-0.14649249613285065,0.27216655015945435,0.058820974081754684
1772458561574999600,1.33799951171875,-0.12807780504226685,0.18026617169380188,0.11968059092760086
1772458561585066500,1.34806640625,-0.10999760776758194,0.06088678538799286,0.14896844327449799
1772458561595134700,1.358134765625,-0.08966064453125,-0.06398005038499832,0.14727599918842316
1772458561605202700,1.36820263671875,-0.07701675593852997,-0.1542004942893982,0.11752822995185852
1772458561615269600,1.37826953125,-0.058337341994047165,-0.18498529493808746,0.0679745227098465
1772458561625337600,1.388337646484375,-0.03851676732301712,-0.16138969361782074,0.01751587726175785
1772458561635405800,1.39840576171875,-0.008827580139040947,-0.12898780405521393,-0.050585679709911346
1772458561645473800,1.408473876953125,0.02358868345618248,-0.12346281856298447,-0.12227051705121994
1772458561655540700,1.418540771484375,0.05849020928144455,-0.14020264148712158,-0.1975993663072586
1772458561665608700,1.428608642578125,0.09037623554468155,-0.15060202777385712,-0.2598043978214264
1772458561675676700,1.4386767578125,0.12548042833805084,-0.11702568829059601,-0.3031119406223297
1772458561685743600,1.44874365234375,0.14938123524188995,-0.05204908549785614,-0.3109821081161499
1772458561695811800,1.458811767578125,0.16406004130840302,0.010742925107479095,-0.3020645081996918
1772458561705879800,1.4688798828125,0.17784643173217773,0.05435538291931152,-0.27454155683517456
1772458561715947500,1.478947509765625,0.18268485367298126,0.07684578001499176,-0.2408112734556198
1772458561726014700,1.4890146484375,0.1833043098449707,0.07333040982484818,-0.19202430546283722
1772458561736082400,1.49908251953125,0.17804217338562012,0.07491019368171692,-0.13422651588916779
1772458561746150700,1.509150634765625,0.17359282076358795,0.09173178672790527,-0.041845452040433884
1772458561756217600,1.519217529296875,0.1760927438735962,0.09457524120807648,0.052566539496183395
1772458561766285600,1.52928564453125,0.17431135475635529,0.09239917248487473,0.1437060385942459
1772458561776353500,1.539353515625,0.1728237122297287,0.08578387647867203,0.22519584000110626
1772458561786421800,1.549421875,0.17837107181549072,0.07366489619016647,0.2911578118801117
1772458561796488700,1.55948876953125,0.1896655410528183,0.06690233200788498,0.3498011529445648
1772458561806556700,1.569556640625,0.22049055993556976,0.07061717659235,0.40933743119239807
1772458561816624600,1.579624755859375,0.25775590538978577,0.1067618653178215,0.48102787137031555
1772458561826691600,1.589691650390625,0.30202484130859375,0.18329712748527527,0.567629873752594
1772458561836759600,1.599759521484375,0.3494330942630768,0.2538466453552246,0.6578987836837769
1772458561846827800,1.609827880859375,0.38016995787620544,0.25696495175361633,0.7307192087173462
1772458561856895700,1.619895751953125,0.40561699867248535,0.23517656326293945,0.7949913740158081
1772458561866962700,1.629962646484375,0.4129870533943176,0.21894672513008118,0.8508197665214539
1772458561877030700,1.64003076171875,0.40150055289268494,0.1882532685995102,0.8720965385437012
1772458561887098600,1.6500986328125,0.3660624027252197,0.12640081346035004,0.8499917984008789
1772458561897165800,1.660165771484375,0.3104553520679474,0.007986553944647312,0.7783759236335754
1772458561907233800,1.67023388671875,0.21049384772777557,-0.14455638825893402,0.6669695377349854
1772458561917301800,1.6803017578125,0.0775962546467781,-0.2609647512435913,0.536172091960907
1772458561927369500,1.690369384765625,-0.054184675216674805,-0.2913743257522583,0.4239765703678131
1772458561937436700,1.700436767578125,-0.17445676028728485,-0.25116539001464844,0.359091579914093
1772458561947504600,1.710504638671875,-0.275857150554657,-0.22248207032680511,0.3120281994342804
1772458561957572600,1.720572509765625,-0.35516902804374695,-0.2737945318222046,0.25640755891799927
1772458561967640600,1.730640625,-0.4018326699733734,-0.36625975370407104,0.17500030994415283
1772458561977707500,1.74070751953125,-0.4086945652961731,-0.40585270524024963,0.09209610521793365
1772458561987775500,1.750775390625,-0.38361823558807373,-0.3642945885658264,0.02882765419781208
1772458561997843700,1.76084375,-0.3315798044204712,-0.23816223442554474,0.004560397006571293
1772458562007910700,1.77091064453125,-0.2572445869445801,-0.018040519207715988,0.03891490772366524
1772458562017978600,1.780978515625,-0.16606967151165009,0.27201738953590393,0.11396678537130356
1772458562028046600,1.791046630859375,-0.0658184289932251,0.5491752624511719,0.19367918372154236
1772458562038114600,1.801114501953125,0.016148610040545464,0.722804844379425,0.24932913482189178
1772458562048181800,1.811181640625,0.07018201798200607,0.786027193069458,0.2692413330078125
1772458562058249700,1.821249755859375,0.1126602366566658,0.757860004901886,0.2525177299976349
1772458562068317700,1.831317626953125,0.16596579551696777,0.650791347026825,0.21873420476913452
1772458562078384600,1.841384521484375,0.21541191637516022,0.49170634150505066,0.17979054152965546
1772458562088452600,1.85145263671875,0.2669949531555176,0.32983168959617615,0.15102413296699524
1772458562098520800,1.861520751953125,0.3096228241920471,0.17327643930912018,0.13078197836875916
1772458562108588800,1.8715888671875,0.34484899044036865,0.021139906719326973,0.11813756078481674
1772458562118655700,1.88165576171875,0.3762175738811493,-0.11920708417892456,0.09082125127315521
1772458562128723700,1.8917236328125,0.39095762372016907,-0.23928529024124146,0.05306907743215561
1772458562138791700,1.901791748046875,0.39447835087776184,-0.36916500329971313,0.010639861226081848
1772458562148858600,1.911858642578125,0.38819512724876404,-0.4828486740589142,-0.033311884850263596
1772458562158926800,1.9219267578125,0.3629859387874603,-0.5384621620178223,-0.05601479858160019
1772458562168994600,1.93199462890625,0.30540066957473755,-0.49165016412734985,-0.048642370849847794
1772458562179062500,1.9420625,0.22206422686576843,-0.3389596939086914,-0.016085758805274963
1772458562189129500,1.95212939453125,0.1374523937702179,-0.1460600048303604,0.018228804692626
1772458562199197700,1.96219775390625,0.06301278620958328,0.017223196104168892,0.03756069019436836
1772458562209265700,1.972265625,0.0017480988753959537,0.11294066905975342,0.008686965331435204
1772458562219332600,1.98233251953125,-0.039799079298973083,0.15958327054977417,-0.04888471961021423
1772458562229400600,1.992400634765625,-0.06143193691968918,0.1930464208126068,-0.12585246562957764
1772458562239468500,2.002468505859375,-0.06091181933879852,0.23038554191589355,-0.19453991949558258
1772458562249536800,2.012536865234375,-0.0402454249560833,0.2535736858844757,-0.2487640082836151
1772458562259603700,2.022603759765625,-0.015107314102351665,0.24345366656780243,-0.2929362654685974
1772458562269671700,2.032671630859375,0.019222164526581764,0.20803256332874298,-0.3213481903076172
1772458562279739600,2.04273974609375,0.0623408704996109,0.17130491137504578,-0.34278079867362976
1772458562289806600,2.052806640625,0.09974709898233414,0.14507943391799927,-0.35451653599739075
1772458562299874800,2.062874755859375,0.13729234039783478,0.1345982849597931,-0.349007248878479
1772458562309942800,2.07294287109375,0.16237346827983856,0.13496048748493195,-0.32940399646759033
1772458562320010800,2.0830107421875,0.18041345477104187,0.13580390810966492,-0.2867862284183502
1772458562330077700,2.09307763671875,0.1964038610458374,0.12587031722068787,-0.22602194547653198
1772458562340145700,2.103145751953125,0.2165895700454712,0.10020703077316284,-0.16351889073848724
1772458562350214000,2.1132138671875,0.22866326570510864,0.0515713170170784,-0.11175023019313812
1772458562360280800,2.12328076171875,0.23139594495296478,-0.002918824553489685,-0.05877543240785599
1772458562370348800,2.133348876953125,0.22349567711353302,-0.05434766039252281,-0.017525997012853622
1772458562380416500,2.14341650390625,0.20205536484718323,-0.11050014197826385,0.019565977156162262
1772458562390484500,2.153484375,0.18412163853645325,-0.1840398758649826,0.04363775998353958
1772458562400551700,2.1635517578125,0.17159812152385712,-0.26449236273765564,0.05563769489526749
1772458562410619600,2.17361962890625,0.1662805825471878,-0.3263157904148102,0.06998680531978607
1772458562420687600,2.1836875,0.15853318572044373,-0.3769147992134094,0.0779576450586319
1772458562430755600,2.193755615234375,0.14805178344249725,-0.42070141434669495,0.07595787942409515
1772458562440822500,2.203822509765625,0.13443610072135925,-0.43958109617233276,0.06618834286928177
1772458562450890800,2.213890869140625,0.1216723695397377,-0.4318193197250366,0.0516221821308136
1772458562460958700,2.223958740234375,0.09647087752819061,-0.3928926885128021,0.037406228482723236
1772458562471026000,2.23402587890625,0.06030967831611633,-0.35793256759643555,0.015687083825469017
1772458562481094000,2.244093994140625,0.010104033164680004,-0.34673184156417847,-0.00586774293333292
1772458562491161900,2.254161865234375,-0.06264606863260269,-0.325205534696579,-0.022042717784643173
1772458562501229800,2.264229736328125,-0.1449665129184723,-0.27528244256973267,-0.01576431654393673
1772458562511297000,2.274297119140625,-0.21246086061000824,-0.19864411652088165,0.007127418182790279
1772458562521365000,2.284364990234375,-0.2567468285560608,-0.1660235971212387,0.009878729470074177
1772458562531433000,2.294432861328125,-0.2900483310222626,-0.1946491152048111,-0.02720818482339382
1772458562541500000,2.3045,-0.30934959650039673,-0.25051742792129517,-0.08967769145965576
1772458562551568000,2.31456787109375,-0.3246190845966339,-0.3016658425331116,-0.1752823442220688
1772458562561636000,2.324635986328125,-0.340000182390213,-0.349456787109375,-0.2757388949394226
1772458562571703800,2.334703857421875,-0.3561978042125702,-0.4337996542453766,-0.389539510011673
1772458562581771000,2.34477099609375,-0.3784378468990326,-0.5371268391609192,-0.5175973176956177
1772458562591838700,2.354838623046875,-0.41608747839927673,-0.5913794040679932,-0.6328994035720825
1772458562601906700,2.36490673828125,-0.46185046434402466,-0.5359856486320496,-0.7229360938072205
1772458562611974000,2.374973876953125,-0.5094677805900574,-0.37294456362724304,-0.7834665775299072
1772458562622041900,2.385041748046875,-0.5533034205436707,-0.15455788373947144,-0.8023931384086609
1772458562632109800,2.39510986328125,-0.5941429734230042,0.02116973325610161,-0.7978098392486572
1772458562642177800,2.405177734375,-0.6158815622329712,0.134397491812706,-0.75673508644104
1772458562652244700,2.41524462890625,-0.6157401204109192,0.22527386248111725,-0.6876351237297058
1772458562662313000,2.42531298828125,-0.599764883518219,0.29320603609085083,-0.5932273864746094
1772458562672381000,2.435380859375,-0.5715745687484741,0.36214596033096313,-0.4819706380367279
1772458562682449000,2.445448974609375,-0.5247692465782166,0.44778016209602356,-0.35507500171661377
1772458562692515800,2.455515869140625,-0.4544292986392975,0.5125458836555481,-0.22327196598052979
1772458562702583800,2.465583740234375,-0.37148168683052063,0.5245223641395569,-0.10051915049552917
1772458562712652000,2.475652099609375,-0.27626195549964905,0.46688541769981384,0.005770537536591291
1772458562722719000,2.485718994140625,-0.17791007459163666,0.3266103267669678,0.09786637872457504
1772458562732787000,2.495786865234375,-0.060986652970314026,0.12596485018730164,0.17076748609542847
1772458562742855000,2.50585498046875,0.07077696919441223,-0.10315940529108047,0.23363645374774933
1772458562752923000,2.5159228515625,0.18054820597171783,-0.3105464279651642,0.29631367325782776
1772458562762989800,2.52598974609375,0.2572792172431946,-0.4714871048927307,0.3701293170452118
1772458562773058000,2.53605810546875,0.2855188250541687,-0.5863950252532959,0.4140930473804474
1772458562783125800,2.546125732421875,0.28734442591667175,-0.6729773283004761,0.42110276222229004
1772458562793193000,2.55619287109375,0.2593420743942261,-0.721092164516449,0.39763233065605164
1772458562803261000,2.566260986328125,0.1867608278989792,-0.7005115151405334,0.3391333222389221
1772458562813329000,2.576328857421875,0.08055849373340607,-0.5980021357536316,0.26656484603881836
1772458562823396900,2.58639697265625,-0.04436453431844711,-0.44789549708366394,0.17152541875839233
1772458562833463800,2.5964638671875,-0.1715528517961502,-0.2707928717136383,0.07603644579648972
1772458562843531800,2.60653173828125,-0.2606576979160309,-0.07805299013853073,-0.021504759788513184
1772458562853599700,2.616599853515625,-0.31397709250450134,0.1119622215628624,-0.1126791462302208
1772458562863666700,2.626666748046875,-0.3310011029243469,0.28535211086273193,-0.19454285502433777
1772458562873735000,2.63673486328125,-0.3246595859527588,0.40052399039268494,-0.24827079474925995
1772458562883803000,2.646802978515625,-0.3056747019290924,0.46804922819137573,-0.26395946741104126
1772458562893870800,2.656870849609375,-0.2853395938873291,0.49467816948890686,-0.22553059458732605
1772458562903937800,2.666937744140625,-0.26161643862724304,0.4966198801994324,-0.14924460649490356
1772458562914005800,2.677005859375,-0.23997583985328674,0.4859914779663086,-0.04929884150624275
1772458562924074000,2.687073974609375,-0.21958161890506744,0.4533957242965698,0.04984026029706001
1772458562934141000,2.697140869140625,-0.19599907100200653,0.3819659948348999,0.11909869313240051
1772458562944209000,2.707208984375,-0.1730620563030243,0.2898414134979248,0.16696181893348694
1772458562954276900,2.71727685546875,-0.1554921269416809,0.19047033786773682,0.19686858355998993
1772458562964345000,2.727344970703125,-0.13283421099185944,0.08904465287923813,0.2010825127363205
1772458562974412000,2.737412109375,-0.11750639230012894,0.0031473238486796618,0.18972386419773102
1772458562984480000,2.74747998046875,-0.10279455780982971,-0.04453897103667259,0.16058728098869324
1772458562994548000,2.7575478515625,-0.08905477821826935,-0.046542469412088394,0.12579575181007385
1772458563004615700,2.76761572265625,-0.07309045642614365,-0.020670125260949135,0.08602462708950043
1772458563014683000,2.777682861328125,-0.06161835789680481,0.014850584790110588,0.06084364280104637
1772458563024750800,2.787750732421875,-0.05411197245121002,0.04505163058638573,0.044264134019613266
1772458563034818800,2.79781884765625,-0.05127996578812599,0.07744499295949936,0.03766162320971489
1772458563044885800,2.8078857421875,-0.049793124198913574,0.09234350919723511,0.02303794026374817
1772458563054953700,2.81795361328125,-0.04537493735551834,0.10176125168800354,0.014415690675377846
1772458563065021700,2.828021728515625,-0.03714283928275108,0.12731987237930298,0.015839416533708572
1772458563075090000,2.83808984375,-0.03280029073357582,0.16291329264640808,0.012982644140720367
1772458563085156900,2.848156982421875,-0.026610571891069412,0.1813783198595047,0.006119145080447197
1772458563095224800,2.858224853515625,-0.004174504894763231,0.1867150217294693,-0.013687582686543465
1772458563105292800,2.868292724609375,0.022546321153640747,0.1763068586587906,-0.038109034299850464
1772458563115359700,2.87835986328125,0.05313112959265709,0.15503725409507751,-0.0675462856888771
1772458563125428000,2.888427978515625,0.09230942279100418,0.14147484302520752,-0.08314015716314316
1772458563135496000,2.898495849609375,0.14659157395362854,0.14889360964298248,-0.07134635001420975
1772458563145564000,2.90856396484375,0.21446409821510315,0.1603553146123886,-0.02810833416879177
1772458563155630800,2.918630859375,0.2969038486480713,0.14841556549072266,0.04974891245365143
1772458563165698800,2.92869873046875,0.3844107985496521,0.14620940387248993,0.17295101284980774
1772458563175767000,2.93876708984375,0.4716644585132599,0.21949933469295502,0.34971752762794495
1772458563185835000,2.9488349609375,0.5530823469161987,0.32223501801490784,0.547744870185852
1772458563195902000,2.95890185546875,0.620606541633606,0.30207356810569763,0.721917986869812
1772458563205970000,2.968969970703125,0.6667593717575073,0.17115497589111328,0.8288242220878601
1772458563216038000,2.979037841796875,0.6896042823791504,0.03652498871088028,0.8748127222061157
1772458563226105000,2.98910498046875,0.6801828145980835,-0.10418419539928436,0.8284244537353516
1772458563236172800,2.9991728515625,0.6411975622177124,-0.2943067252635956,0.6934626698493958
1772458563246240800,3.00924072265625,0.5628085136413574,-0.5216096639633179,0.4851882755756378
1772458563256308700,3.019308837890625,0.4445708096027374,-0.7145338654518127,0.2470284253358841
1772458563266375700,3.029375732421875,0.32545745372772217,-0.7888477444648743,0.03423413634300232
1772458563276444000,3.03944384765625,0.2258072942495346,-0.7341259121894836,-0.10508540272712708
1772458563286511900,3.049511962890625,0.13995817303657532,-0.5647624731063843,-0.13150236010551453
1772458563296578800,3.059578857421875,0.06877932697534561,-0.28708183765411377,-0.032576318830251694
1772458563306646800,3.069646728515625,0.027401797473430634,0.08244001865386963,0.16877517104148865
1772458563316714800,3.07971484375,0.014596253633499146,0.4818529188632965,0.4070519208908081
1772458563326783000,3.089782958984375,0.035104990005493164,0.7872865796089172,0.6041396856307983
1772458563336850000,3.099849853515625,0.07523243874311447,0.9415249228477478,0.7215225100517273
1772458563346918000,3.10991796875,0.11704646050930023,0.9693637490272522,0.7701683640480042
1772458563356985900,3.11998583984375,0.15595205128192902,0.9023745656013489,0.7537153363227844
1772458563367052800,3.130052734375,0.18869347870349884,0.7877079248428345,0.6921379566192627
1772458563377121000,3.14012109375,0.22895701229572296,0.6681436896324158,0.5998690128326416
1772458563387189000,3.15018896484375,0.26781973242759705,0.5427242517471313,0.4920983612537384
1772458563397257000,3.160257080078125,0.2956412434577942,0.3966464102268219,0.37333762645721436
1772458563407324000,3.170323974609375,0.3040400445461273,0.22122719883918762,0.24024856090545654
1772458563417391900,3.180391845703125,0.29725217819213867,0.015177887864410877,0.12177383899688721
1772458563427459800,3.1904599609375,0.2739447355270386,-0.16406989097595215,0.023914121091365814
1772458563437527800,3.20052783203125,0.22639691829681396,-0.29936885833740234,-0.05898502469062805
1772458563447595000,3.210594970703125,0.1678750216960907,-0.4213253855705261,-0.1633276790380478
1772458563457662700,3.220662841796875,0.10083899646997452,-0.5695745348930359,-0.29844263195991516
1772458563467730200,3.230730224609375,0.02033589780330658,-0.7185139060020447,-0.4489991068840027
1772458563477797400,3.24079736328125,-0.08199793100357056,-0.8045963644981384,-0.5766875743865967
1772458563487865300,3.250865234375,-0.19712558388710022,-0.7534194588661194,-0.6648080945014954
1772458563497933300,3.260933349609375,-0.31431397795677185,-0.5403886437416077,-0.6797465682029724
1772458563508001300,3.271001220703125,-0.4094122648239136,-0.2091960906982422,-0.6357955932617188
1772458563518068200,3.281068115234375,-0.4567190706729889,0.14532524347305298,-0.5647643208503723
1772458563528136200,3.29113623046875,-0.45620056986808777,0.4517621397972107,-0.49227067828178406
1772458563538204400,3.301204345703125,-0.4132099449634552,0.638160765171051,-0.4378513693809509
1772458563548271400,3.311271240234375,-0.3586721420288086,0.7263737320899963,-0.4003828167915344
1772458563558339300,3.32133935546875,-0.31080740690231323,0.7637162804603577,-0.38253486156463623
1772458563568407300,3.3314072265625,-0.25694629549980164,0.7434070110321045,-0.37809935212135315
1772458563578475500,3.3414755859375,-0.19422833621501923,0.645256519317627,-0.37223827838897705
1772458563588542500,3.35154248046875,-0.12791642546653748,0.4960499703884125,-0.35050076246261597
1772458563598610400,3.3616103515625,-0.06916815042495728,0.3388561010360718,-0.3067074716091156
1772458563608678400,3.371678466796875,-0.031068703159689903,0.20355631411075592,-0.2331530898809433
1772458563618745300,3.381745361328125,-0.007842742837965488,0.1211908757686615,-0.14866431057453156
1772458563628813300,3.391813232421875,0.003940679598599672,0.08771733194589615,-0.05392368510365486
1772458563638881500,3.401881591796875,0.01728098653256893,0.07794486731290817,0.02972966618835926
1772458563648949500,3.411949462890625,0.030851390212774277,0.0577533096075058,0.08637350052595139
1772458563659016400,3.422016357421875,0.04284120723605156,0.009823069907724857,0.11595217138528824
1772458563669084400,3.43208447265625,0.05305789038538933,-0.05468987673521042,0.12875612080097198
1772458563679152400,3.44215234375,0.054777760058641434,-0.1359138935804367,0.13940370082855225
1772458563689220400,3.452220458984375,0.0733727514743805,-0.2107870727777481,0.13586115837097168
1772458563699287300,3.462287353515625,0.0861990675330162,-0.26949670910835266,0.12227930873632431
1772458563709355300,3.472355224609375,0.09138371050357819,-0.31655532121658325,0.10770276188850403
1772458563719423200,3.48242333984375,0.09076212346553802,-0.3679010570049286,0.08688030391931534
1772458563729490200,3.492490234375,0.09317042678594589,-0.43038254976272583,0.06129717826843262
1772458563739558400,3.502558349609375,0.08869631588459015,-0.5053231120109558,0.03201838582754135
1772458563749626400,3.51262646484375,0.0681162029504776,-0.567624032497406,0.0009712548344396055
1772458563759694300,3.5226943359375,0.026487266644835472,-0.5915170907974243,-0.026929086074233055
1772458563769761300,3.53276123046875,-0.041130658239126205,-0.5852770209312439,-0.05710190162062645
1772458563779829200,3.542829345703125,-0.12289103120565414,-0.5758041739463806,-0.08723051100969315
1772458563789897500,3.5528974609375,-0.19966544210910797,-0.5649736523628235,-0.11881773173809052
1772458563799964400,3.56296435546875,-0.26624366641044617,-0.519578754901886,-0.14513827860355377
1772458563810032400,3.573032470703125,-0.3168317377567291,-0.4278442859649658,-0.17157095670700073
1772458563820100400,3.583100341796875,-0.3430313766002655,-0.28564080595970154,-0.1766623854637146
1772458563830168600,3.59316845703125,-0.33995676040649414,-0.10861356556415558,-0.14855484664440155
1772458563840235500,3.603235595703125,-0.3090907335281372,0.06113685667514801,-0.07723566889762878
1772458563850303500,3.613303466796875,-0.24404142796993256,0.14151717722415924,0.004698082339018583
1772458563860371500,3.623371337890625,-0.16160860657691956,0.13780473172664642,0.08749416470527649
1772458563870439200,3.633439208984375,-0.07099268585443497,0.12638616561889648,0.15151682496070862
1772458563880506400,3.64350634765625,0.011932026594877243,0.12397653609514236,0.1897214651107788
1772458563890574300,3.65357421875,0.0807744711637497,0.0628812313079834,0.19303284585475922
1772458563900642300,3.663642333984375,0.11247807741165161,-0.1377943456172943,0.11491460353136063
1772458563910709500,3.67370947265625,0.10089811682701111,-0.4651660919189453,-0.05409013107419014
1772458563920777200,3.683777099609375,0.02756691351532936,-0.792079508304596,-0.25441789627075195
1772458563930845200,3.69384521484375,-0.08465709537267685,-0.9895297288894653,-0.44491034746170044
1772458563940913400,3.703913330078125,-0.18150082230567932,-1.0697801113128662,-0.5853468179702759
1772458563950980400,3.71398046875,-0.2513134479522705,-1.004647135734558,-0.6513903141021729
1772458563961048300,3.72404833984375,-0.3058755099773407,-0.746282696723938,-0.6171292662620544
1772458563971116300,3.7341162109375,-0.3453368842601776,-0.3387562334537506,-0.492281049489975
1772458563981183200,3.744183349609375,-0.364768922328949,0.09920887649059296,-0.30462515354156494
1772458563991251500,3.75425146484375,-0.35439056158065796,0.43295782804489136,-0.10801807790994644
1772458564001319400,3.7643193359375,-0.3248577117919922,0.5908446311950684,0.0707724392414093
1772458564011387400,3.774387451171875,-0.2821637690067291,0.6478821039199829,0.21330508589744568
1772458564021454300,3.784454345703125,-0.2211233228445053,0.6234667897224426,0.3349305987358093
1772458564031522300,3.794522216796875,-0.12692412734031677,0.5390605330467224,0.44405362010002136
1772458564041590500,3.804590576171875,-0.02442118711769581,0.3985908031463623,0.5474481582641602
1772458564051658500,3.814658447265625,0.06912607699632645,0.1959436684846878,0.6139259934425354
1772458564061725400,3.824725341796875,0.15356452763080597,-0.042274486273527145,0.6483209729194641
1772458564071793400,3.83479345703125,0.226748988032341,-0.2596361041069031,0.6658046245574951
1772458564081861400,3.844861328125,0.2655531167984009,-0.41562142968177795,0.6638389825820923
1772458564091928600,3.854928466796875,0.2679225206375122,-0.5094789862632751,0.6424117088317871
1772458564101996500,3.86499658203125,0.24196016788482666,-0.5692996978759766,0.5947874784469604
1772458564112064300,3.875064208984375,0.1949271410703659,-0.594610869884491,0.5340554118156433
1772458564122132200,3.88513232421875,0.13679246604442596,-0.5862863659858704,0.45101991295814514
1772458564132199200,3.89519921875,0.058089401572942734,-0.5388003587722778,0.35236018896102905
1772458564142267400,3.905267333984375,-0.017124658450484276,-0.4373919665813446,0.24912087619304657
1772458564152335400,3.91533544921875,-0.08653648942708969,-0.27850034832954407,0.15662182867527008
1772458564162402300,3.92540234375,-0.15077300369739532,-0.08728297054767609,0.07055193185806274
1772458564172470300,3.93547021484375,-0.201028972864151,0.1136954054236412,-0.006886934395879507
1772458564182538200,3.945538330078125,-0.23073148727416992,0.2744304835796356,-0.07710810005664825
1772458564192606500,3.9556064453125,-0.24522919952869415,0.3722912669181824,-0.1292639821767807
1772458564202673400,3.96567333984375,-0.2524687349796295,0.40773794054985046,-0.16081151366233826
1772458564212741400,3.975741455078125,-0.253033846616745,0.40115034580230713,-0.17109930515289307
1772458564222807300,3.985807373046875,-0.2542237639427185,0.37303003668785095,-0.15714435279369354
1772458564232875300,3.995875244140625,-0.23880618810653687,0.3474666178226471,-0.1372840851545334
1772458564242943200,4.005943115234375,-0.20901580154895782,0.31759899854660034,-0.10452800989151001
1772458564253011500,4.016011474609375,-0.17319469153881073,0.28862807154655457,-0.06415262073278427
1772458564263078400,4.026078369140625,-0.13495595753192902,0.2632710337638855,-0.031859394162893295
1772458564273146400,4.036146484375,-0.10715627670288086,0.2521669864654541,0.0006079996819607913
1772458564283214300,4.04621435546875,-0.08621051907539368,0.2675377130508423,0.024805480614304543
1772458564293281300,4.05628125,-0.06846693903207779,0.30924707651138306,0.03243730217218399
1772458564303349200,4.066349365234375,-0.054421696811914444,0.36225196719169617,0.026142921298742294
1772458564313417500,4.07641748046875,-0.029062544927001,0.4132719933986664,0.00624165078625083
1772458564323485400,4.0864853515625,-0.0026431872975081205,0.43665242195129395,-0.015499331057071686
1772458564333552400,4.096552490234375,0.029211947694420815,0.44533273577690125,-0.036131370812654495
1772458564343620400,4.106620361328125,0.057252369821071625,0.4354393482208252,-0.042094457894563675
1772458564353688600,4.1166884765625,0.08940977603197098,0.3942663371562958,-0.07057057321071625
1772458564363755500,4.126755615234375,0.13092473149299622,0.33015766739845276,-0.09667514264583588
1772458564373823500,4.136823486328125,0.1831948608160019,0.26587510108947754,-0.12815184891223907
1772458564383891500,4.146891357421875,0.24455222487449646,0.1850534826517105,-0.15685778856277466
1772458564393959200,4.156959228515625,0.30425044894218445,0.06470602750778198,-0.1891629993915558
1772458564404026400,4.1670263671875,0.3702435791492462,-0.08629866689443588,-0.229009747505188
1772458564414094300,4.17709423828125,0.4492158889770508,-0.2475498765707016,-0.2614726126194
1772458564424162300,4.187162353515625,0.5269354581832886,-0.37080761790275574,-0.27582812309265137
1772458564434230300,4.197230224609375,0.5953792333602905,-0.4348348081111908,-0.26613155007362366
1772458564444297200,4.207297119140625,0.6525431871414185,-0.44108152389526367,-0.2148052453994751
1772458564454365200,4.217365234375,0.6930291056632996,-0.35289815068244934,-0.1092391386628151
1772458564464433400,4.227433349609375,0.727738618850708,-0.1574399620294571,0.03157150745391846
1772458564474500600,4.23750048828125,0.7372599244117737,0.022249113768339157,0.17876149713993073
1772458564484568600,4.247568603515625,0.7213104963302612,0.07139748334884644,0.27965429425239563
1772458564494636500,4.257636474609375,0.6672454476356506,0.020372383296489716,0.301221638917923
1772458564504704800,4.267704833984375,0.5655995011329651,-0.09207160025835037,0.2508825659751892
1772458564514771700,4.277771728515625,0.4328899085521698,-0.23796702921390533,0.14805364608764648
1772458564524839700,4.287839599609375,0.31756332516670227,-0.3827263414859772,0.048523593693971634
1772458564534907600,4.29790771484375,0.24084989726543427,-0.45668551325798035,-0.02316177822649479
1772458564544974600,4.307974609375,0.1847008764743805,-0.4199235141277313,-0.05886624753475189
1772458564555042600,4.31804248046875,0.1360529065132141,-0.309663325548172,-0.05234016850590706
1772458564565110800,4.32811083984375,0.11283653974533081,-0.15759308636188507,0.009213205426931381
1772458564575178500,4.338178466796875,0.11265464127063751,0.0013464941876009107,0.11367090791463852
1772458564585245700,4.34824560546875,0.13575489819049835,0.1333838850259781,0.24096228182315826
1772458564595313700,4.358313720703125,0.17299973964691162,0.2476380318403244,0.37679389119148254
1772458564605381600,4.368381591796875,0.22029535472393036,0.3366736173629761,0.5135751366615295
1772458564615449600,4.37844970703125,0.2512354254722595,0.40383243560791016,0.651763379573822
1772458564625516500,4.3885166015625,0.2740989327430725,0.45749911665916443,0.7698543667793274
1772458564635584500,4.39858447265625,0.2908251881599426,0.48324576020240784,0.8677574992179871
1772458564645652500,4.408652587890625,0.2981067895889282,0.46737757325172424,0.9321321845054626
1772458564655719400,4.418719482421875,0.2920728623867035,0.41543662548065186,0.9518781900405884
1772458564665787600,4.42878759765625,0.2832849621772766,0.3205404579639435,0.9266852140426636
1772458564675855600,4.438855712890625,0.26131388545036316,0.2124462127685547,0.8470942974090576
1772458564685923600,4.448923583984375,0.23069819808006287,0.12606339156627655,0.7212548851966858
1772458564695990500,4.458990478515625,0.1991429328918457,0.09011098742485046,0.5727348923683167
1772458564706058800,4.469058837890625,0.1652584671974182,0.07626254856586456,0.38999730348587036
1772458564716126700,4.479126708984375,0.13387390971183777,0.04544684290885925,0.1920836865901947
1772458564726193700,4.489193603515625,0.10358258336782455,-0.005150287412106991,-0.0028069717809557915
1772458564736261600,4.49926171875,0.060321398079395294,-0.045282792299985886,-0.17813405394554138
1772458564746329600,4.50932958984375,0.017349429428577423,-0.06585704535245895,-0.3319092392921448
1772458564756397800,4.519397705078125,-0.038784947246313095,-0.09796837717294693,-0.46534639596939087
1772458564766464800,4.52946484375,-0.09904748946428299,-0.1453033983707428,-0.5951395630836487
1772458564776532700,4.53953271484375,-0.15928606688976288,-0.1796262264251709,-0.7086684703826904
1772458564786600700,4.5496005859375,-0.22491221129894257,-0.17821873724460602,-0.8058642745018005
1772458564796668400,4.55966845703125,-0.27853283286094666,-0.1424461007118225,-0.8745133876800537
1772458564806735600,4.569735595703125,-0.3169230818748474,-0.037451233714818954,-0.9008483290672302
1772458564816803600,4.579803466796875,-0.3350570797920227,0.1130802184343338,-0.8736420273780823
1772458564826871600,4.58987158203125,-0.32617998123168945,0.28275153040885925,-0.8076770901679993
1772458564836938500,4.5999384765625,-0.2926523685455322,0.43704017996788025,-0.7068554162979126
1772458564847006500,4.61000634765625,-0.23228517174720764,0.5616574883460999,-0.5900747179985046
1772458564857074700,4.62007470703125,-0.16547977924346924,0.6491391062736511,-0.478937029838562
1772458564867142700,4.630142578125,-0.07964955270290375,0.6839511394500732,-0.3851926922798157
1772458564877209600,4.640209716796875,0.017833858728408813,0.6459571719169617,-0.31420108675956726
1772458564887277600,4.650277587890625,0.10601431876420975,0.5298569202423096,-0.268832266330719
1772458564897345500,4.660345458984375,0.1750389188528061,0.348292738199234,-0.2394099235534668
1772458564907413800,4.670413818359375,0.21969853341579437,0.16095133125782013,-0.19189301133155823
1772458564917480700,4.680480712890625,0.22696496546268463,0.011889948509633541,-0.1323111653327942
1772458564927548700,4.690548583984375,0.2145567685365677,-0.0783856213092804,-0.062182147055864334
1772458564937616600,4.70061669921875,0.1913076490163803,-0.12453527003526688,0.0010309095960110426
1772458564947683600,4.71068359375,0.16835439205169678,-0.13838477432727814,0.04198792949318886
1772458564957751600,4.72075146484375,0.16066904366016388,-0.13355353474617004,0.05558150261640549
1772458564967819800,4.73081982421875,0.14900146424770355,-0.12562690675258636,0.05115879327058792
1772458564977887700,4.7408876953125,0.14571724832057953,-0.12493368238210678,0.039622776210308075
1772458564987954700,4.75095458984375,0.1407640427350998,-0.13582228124141693,0.020353741943836212
1772458564998022700,4.761022705078125,0.14196273684501648,-0.1678670346736908,0.009093097411096096
1772458565008090600,4.771090576171875,0.140525683760643,-0.20959503948688507,0.008144745603203773
1772458565018158600,4.78115869140625,0.1385544240474701,-0.2544091045856476,0.016859406605362892
1772458565028225500,4.7912255859375,0.13430267572402954,-0.30477267503738403,0.024027304723858833
1772458565038293500,4.80129345703125,0.12388332933187485,-0.36102795600891113,0.0380786769092083
1772458565048361500,4.811361572265625,0.10743138194084167,-0.41686806082725525,0.05259609967470169
1772458565058428400,4.821428466796875,0.07991001009941101,-0.4681189954280853,0.04824023321270943
1772458565068496600,4.83149658203125,0.050041861832141876,-0.49753841757774353,0.029820479452610016
1772458565078564600,4.841564697265625,0.005015264730900526,-0.49086320400238037,0.001273257308639586
1772458565088632600,4.851632568359375,-0.05673119053244591,-0.43651047348976135,-0.02960076928138733
1772458565098699500,4.861699462890625,-0.13332156836986542,-0.3533841669559479,-0.05955520644783974
1772458565108767500,4.871767578125,-0.21837307512760162,-0.28418219089508057,-0.09590469300746918
1772458565118835700,4.881835693359375,-0.2979206442832947,-0.2313474714756012,-0.12462341785430908
1772458565128903700,4.891903564453125,-0.36120641231536865,-0.1705632209777832,-0.13087092339992523
1772458565138970600,4.901970703125,-0.41380542516708374,-0.08855276554822922,-0.13001419603824615
1772458565149038600,4.91203857421875,-0.4435281753540039,0.03183569386601448,-0.09524582326412201
1772458565159106800,4.92210693359375,-0.43572911620140076,0.1567150503396988,-0.036319125443696976
1772458565169173800,4.932173828125,-0.3957262933254242,0.23784852027893066,0.04754115268588066
1772458565179241700,4.94224169921875,-0.33711865544319153,0.2636697292327881,0.13008342683315277
1772458565189309700,4.952309814453125,-0.2623208463191986,0.2664625942707062,0.21847321093082428
1772458565199377700,4.962377685546875,-0.17420855164527893,0.25852715969085693,0.2913476824760437
1772458565209444600,4.972444580078125,-0.09527751803398132,0.21477168798446655,0.3443983793258667
1772458565219512600,4.9825126953125,-0.019596604630351067,0.12936677038669586,0.3742612302303314
1772458565229580500,4.99258056640625,0.03410816937685013,-0.01555392611771822,0.3937171995639801
1772458565239648500,5.0026484375,0.0557388961315155,-0.1973157376050949,0.37448784708976746
1772458565249715500,5.012715576171875,0.022186528891324997,-0.3633430600166321,0.3139057159423828
1772458565259783400,5.022783447265625,-0.06358882784843445,-0.4895063042640686,0.23020204901695251
1772458565269851600,5.0328515625,-0.18075673282146454,-0.5832871198654175,0.1526729017496109
1772458565279918600,5.042918701171875,-0.3004077672958374,-0.6328826546669006,0.09585116058588028
1772458565289986600,5.052986572265625,-0.4136400520801544,-0.5994229912757874,0.06617129594087601
1772458565300054500,5.063054443359375,-0.5091966390609741,-0.4678635895252228,0.06683309376239777
1772458565310122800,5.073122802734375,-0.5841627717018127,-0.2608177363872528,0.09097810834646225
1772458565320189700,5.083189697265625,-0.627621054649353,-0.0425325483083725,0.12166837602853775
1772458565330257700,5.093257568359375,-0.645779550075531,0.13486699759960175,0.1502603441476822
1772458565340325600,5.10332568359375,-0.6269667148590088,0.26536136865615845,0.18218232691287994
1772458565350393600,5.1133935546875,-0.5755850076675415,0.36433136463165283,0.2223832756280899
1772458565360460500,5.12346044921875,-0.5029608607292175,0.404518723487854,0.255050390958786
1772458565370528800,5.13352880859375,-0.41362646222114563,0.3924444913864136,0.27961885929107666
1772458565380596700,5.1435966796875,-0.3112628161907196,0.34225720167160034,0.2847132384777069
1772458565390663700,5.15366357421875,-0.20490388572216034,0.2537073791027069,0.28700193762779236
1772458565400731600,5.163731689453125,-0.10299722105264664,0.13705691695213318,0.27219876646995544
1772458565410799600,5.173799560546875,-0.021046429872512817,0.006109823938459158,0.25821956992149353
1772458565420867600,5.18386767578125,0.026916302740573883,-0.13426992297172546,0.22889576852321625
1772458565430934800,5.193934814453125,0.04033197835087776,-0.2538999319076538,0.2089521437883377
1772458565441002500,5.20400244140625,0.03226419538259506,-0.3288508653640747,0.1880604475736618
1772458565451070500,5.214070556640625,0.005814479663968086,-0.339519202709198,0.16503529250621796
1772458565461138700,5.224138671875,-0.020792895928025246,-0.2986524701118469,0.12629428505897522
1772458565471206000,5.234205810546875,-0.05205893889069557,-0.23483382165431976,0.0862446054816246
1772458565481273900,5.24427392578125,-0.08147647976875305,-0.16011962294578552,0.046055909246206284
1772458565491341800,5.254341796875,-0.1053844764828682,-0.07299671322107315,0.009730391204357147
1772458565501408800,5.26440869140625,-0.1222715824842453,0.021344436332583427,-0.008476309478282928
1772458565511476700,5.274476806640625,-0.13027891516685486,0.11436013132333755,-0.025722406804561615
1772458565521545000,5.284544921875,-0.13927613198757172,0.2085002064704895,-0.034143853932619095
1772458565531613000,5.294613037109375,-0.14581312239170074,0.28429004549980164,-0.0341811403632164
1772458565541679900,5.304679931640625,-0.14696282148361206,0.3332027196884155,-0.023742614313960075
1772458565551747800,5.314747802734375,-0.1407395452260971,0.36158058047294617,0.0014058827655389905
1772458565561816000,5.324816162109375,-0.1203293427824974,0.3818165957927704,0.03724244236946106
1772458565571884000,5.334884033203125,-0.10405848920345306,0.3858760595321655,0.08435003459453583
1772458565581951000,5.344950927734375,-0.09455899894237518,0.36046844720840454,0.12905465066432953
1772458565592019000,5.35501904296875,-0.07999097555875778,0.326590359210968,0.16702893376350403
1772458565602086700,5.365086669921875,-0.06148413196206093,0.29516905546188354,0.19740495085716248
1772458565612155000,5.37515478515625,-0.03933808580040932,0.24723002314567566,0.20861020684242249
1772458565622221800,5.385221923828125,-0.013206616044044495,0.19367918372154236,0.20552466809749603
1772458565632289800,5.395289794921875,0.021455490961670876,0.13303181529045105,0.1983354538679123
1772458565642357800,5.405357666015625,0.04941282421350479,0.08451062440872192,0.18880267441272736
1772458565652424700,5.4154248046875,0.07310669869184494,0.05380330979824066,0.1890098601579666
1772458565662493000,5.425492919921875,0.09679045528173447,0.016805877909064293,0.18895500898361206
1772458565672561000,5.435560791015625,0.11187539994716644,-0.02148824743926525,0.18981653451919556
1772458565682628900,5.44562890625,0.12353605031967163,-0.05739831179380417,0.2037786990404129
1772458565692695800,5.45569580078125,0.1311529576778412,-0.10446488857269287,0.21841515600681305
1772458565702763800,5.465763671875,0.1352028250694275,-0.14018747210502625,0.23309770226478577
1772458565712832000,5.47583203125,0.1287611722946167,-0.15473978221416473,0.24929212033748627
1772458565722900000,5.48589990234375,0.11518198251724243,-0.1603097766637802,0.2406941056251526
1772458565732967000,5.495966796875,0.10168588161468506,-0.16844972968101501,0.1973322480916977
1772458565743035000,5.506034912109375,0.10257111489772797,-0.19064877927303314,0.11660438030958176
1772458565753102800,5.516102783203125,0.12145639210939407,-0.2036021202802658,0.01974041573703289
1772458565763171000,5.526171142578125,0.15508519113063812,-0.16902843117713928,-0.06424689292907715
1772458565773238000,5.536238037109375,0.19270473718643188,-0.07552245259284973,-0.12763705849647522
1772458565783306000,5.546305908203125,0.24861353635787964,0.09089075773954391,-0.16783134639263153
1772458565793373700,5.556373779296875,0.32271066308021545,0.2573881149291992,-0.1707080900669098
1772458565803441000,5.56644091796875,0.4008808434009552,0.3028533458709717,-0.1794254183769226
1772458565813508900,5.5765087890625,0.46373650431632996,0.17287883162498474,-0.21743857860565186
1772458565823576800,5.586576904296875,0.5026417970657349,-0.028267323970794678,-0.27407681941986084
1772458565833644800,5.596644775390625,0.5112947225570679,-0.21881996095180511,-0.3022749125957489
1772458565843711700,5.606711669921875,0.47755590081214905,-0.36548423767089844,-0.2836668789386749
1772458565853779700,5.61677978515625,0.4128240644931793,-0.4252450466156006,-0.212421715259552
1772458565863848000,5.626847900390625,0.34725889563560486,-0.3780098855495453,-0.08972722291946411
1772458565873916000,5.636916015625,0.30363020300865173,-0.2790689170360565,0.06336113065481186
1772458565883982800,5.64698291015625,0.28087109327316284,-0.18270963430404663,0.21534906327724457
1772458565894050800,5.65705078125,0.27803054451942444,-0.061943795531988144,0.38121846318244934
1772458565904118800,5.667118896484375,0.2701835632324219,0.09344952553510666,0.5516631603240967
1772458565914187000,5.67718701171875,0.25598037242889404,0.24715092778205872,0.6931265592575073
1772458565924254000,5.68725390625,0.2531563639640808,0.3735794425010681,0.7982412576675415
1772458565934322000,5.697322021484375,0.2506215572357178,0.4664156436920166,0.8693921566009521
1772458565944390000,5.707389892578125,0.2417345941066742,0.514432966709137,0.8971204161643982
1772458565954456800,5.717456787109375,0.22698627412319183,0.5116859078407288,0.884355366230011
1772458565964525000,5.727525146484375,0.20825813710689545,0.4519434869289398,0.845205545425415
1772458565974593000,5.737593017578125,0.1849176585674286,0.36122292280197144,0.7864133715629578
1772458565984660700,5.74766064453125,0.15987861156463623,0.2586243748664856,0.7056015729904175
1772458565994728000,5.75772802734375,0.13284273445606232,0.14786456525325775,0.6120756268501282
1772458566004796000,5.7677958984375,0.11710851639509201,0.024158598855137825,0.49412238597869873
1772458566014864000,5.77786376953125,0.1009303405880928,-0.11106766760349274,0.345938503742218
1772458566024931800,5.787931884765625,0.09141913056373596,-0.2391827553510666,0.17900730669498444
1772458566034998800,5.797998779296875,0.09517951309680939,-0.337802529335022,0.002413090318441391
1772458566045066800,5.808066650390625,0.09152565896511078,-0.4213099479675293,-0.1933814436197281
1772458566055134700,5.818134765625,0.06775667518377304,-0.5117713809013367,-0.3954509198665619
1772458566065201700,5.82820166015625,0.015538479201495647,-0.5776129961013794,-0.6017809510231018
1772458566075270000,5.838269775390625,-0.050573959946632385,-0.6017367243766785,-0.7723302841186523
1772458566085337900,5.848337890625,-0.13692162930965424,-0.5537460446357727,-0.8763126134872437
1772458566095405800,5.85840576171875,-0.22558997571468353,-0.4203038215637207,-0.8951960206031799
1772458566105472800,5.86847265625,-0.30492502450942993,-0.2214708775281906,-0.8402174711227417
1772458566115541000,5.878541015625,-0.3631736636161804,0.00469568558037281,-0.7360657453536987
1772458566125609000,5.88860888671875,-0.39201146364212036,0.21951930224895477,-0.6240068674087524
1772458566135677000,5.898677001953125,-0.3890071511268616,0.36744779348373413,-0.5232357978820801
1772458566145744000,5.908743896484375,-0.359094500541687,0.43485158681869507,-0.4428623914718628
1772458566155811800,5.918811767578125,-0.3040669560432434,0.46888038516044617,-0.38601160049438477
1772458566165880000,5.928880126953125,-0.23164653778076172,0.4992564022541046,-0.35197773575782776
1772458566175948000,5.938947998046875,-0.14129747450351715,0.5015794634819031,-0.3432713449001312
1772458566186015000,5.949014892578125,-0.04163159802556038,0.48395735025405884,-0.35192739963531494
1772458566196083000,5.9590830078125,0.055020373314619064,0.4414719343185425,-0.36301735043525696
1772458566206150700,5.969150634765625,0.1343945562839508,0.3788889944553375,-0.3708518445491791
1772458566216219000,5.979218994140625,0.1898365169763565,0.2991212010383606,-0.3624737858772278
1772458566226285800,5.989285888671875,0.22825340926647186,0.23292326927185059,-0.33227595686912537
1772458566236353800,5.999353759765625,0.2514530122280121,0.18656376004219055,-0.28385621309280396
1772458566246421800,6.009421875,0.2733926475048065,0.14507782459259033,-0.21582257747650146
1772458566256488700,6.01948876953125,0.2909415662288666,0.10836082696914673,-0.1424357146024704
1772458566266557000,6.029556884765625,0.30205386877059937,0.06939025968313217,-0.07577145844697952
1772458566276625000,6.039625,0.31124258041381836,0.03075018897652626,-0.022966302931308746
1772458566286692900,6.04969287109375,0.32280680537223816,-0.0020295949652791023,0.016464460641145706
1772458566296759800,6.059759765625,0.34138503670692444,-0.03525625914335251,0.03917935863137245
1772458566306827800,6.069827880859375,0.3584737181663513,-0.06839237362146378,0.04928046464920044
1772458566316896000,6.07989599609375,0.3690880239009857,-0.11502991616725922,0.05493861436843872
1772458566326964000,6.0899638671875,0.3748931884765625,-0.1636027842760086,0.05426696687936783
1772458566337031000,6.100031005859375,0.3725930154323578,-0.20532625913619995,0.06348150223493576
1772458566347099000,6.110098876953125,0.36845311522483826,-0.2277064025402069,0.06728183478116989
1772458566357166800,6.120166748046875,0.35811659693717957,-0.24334287643432617,0.0797470286488533
1772458566367235000,6.130235107421875,0.3408183157444,-0.2541760802268982,0.08719588816165924
1772458566377302000,6.140302001953125,0.3165566325187683,-0.28292304277420044,0.08505097776651382
1772458566387370000,6.150369873046875,0.28134885430336,-0.30557456612586975,0.06114964187145233
1772458566397437700,6.160437744140625,0.24044109880924225,-0.3071058690547943,0.02232927456498146
1772458566407505000,6.1705048828125,0.18673579394817352,-0.29063236713409424,-0.03183462843298912
1772458566417572900,6.18057275390625,0.11594684422016144,-0.24484783411026,-0.07476212084293365
1772458566427640800,6.190640869140625,0.03617265075445175,-0.15226170420646667,-0.10222996771335602
1772458566437708800,6.200708740234375,-0.04261190816760063,-0.006278135813772678,-0.10598395764827728
1772458566447775700,6.210775634765625,-0.10207976400852203,0.15219299495220184,-0.08925770968198776
1772458566457843700,6.22084375,-0.14867869019508362,0.251460462808609,-0.07999896258115768
1772458566467912000,6.230911865234375,-0.18534083664417267,0.29931533336639404,-0.10454904288053513
1772458566477979100,6.240979248046875,-0.20744720101356506,0.35610005259513855,-0.14749997854232788
1772458566488046000,6.251046142578125,-0.20591002702713013,0.4296512305736542,-0.200673446059227
1772458566498114300,6.2611142578125,-0.19322645664215088,0.42955005168914795,-0.28072941303253174
1772458566508182300,6.271182373046875,-0.1918352097272873,0.30002081394195557,-0.41079047322273254
1772458566518250200,6.281250244140625,-0.21466729044914246,0.08609840273857117,-0.5741705894470215
1772458566528317200,6.291317138671875,-0.25474226474761963,-0.10873047262430191,-0.7304864525794983
1772458566538385200,6.30138525390625,-0.30167409777641296,-0.1992957890033722,-0.8438518643379211
1772458566548453400,6.311453369140625,-0.34382128715515137,-0.1536175161600113,-0.8902015089988708
1772458566558521300,6.321521240234375,-0.37274932861328125,0.03582377731800079,-0.8615936040878296
1772458566568588300,6.33158837890625,-0.3771997392177582,0.3042784035205841,-0.7539675235748291
1772458566578656300,6.34165625,-0.35831794142723083,0.5315325856208801,-0.5942156910896301
1772458566588724200,6.35172412109375,-0.3164413273334503,0.6471092700958252,-0.4287993013858795
1772458566598791400,6.36179150390625,-0.261101096868515,0.6767992377281189,-0.2865777015686035
1772458566608859400,6.371859375,-0.18293678760528564,0.6446042656898499,-0.1768895536661148
1772458566618927400,6.38192724609375,-0.08693383634090424,0.574058473110199,-0.08065489679574966
1772458566628995000,6.3919951171875,0.021759623661637306,0.4623865485191345,0.016047675162553787
1772458566639062300,6.402062255859375,0.12067155539989471,0.3087834119796753,0.10947589576244354
1772458566649130200,6.412130126953125,0.21198362112045288,0.11872319132089615,0.19529519975185394
1772458566659198200,6.4221982421875,0.29866552352905273,-0.12557443976402283,0.25880226492881775
1772458566669266200,6.43226611328125,0.370409220457077,-0.38086825609207153,0.2893971800804138
1772458566679333000,6.4423330078125,0.4047591984272003,-0.5898355841636658,0.29566681385040283
1772458566689401000,6.452401123046875,0.40736642479896545,-0.7221595048904419,0.2587210237979889
1772458566699469300,6.46246923828125,0.39571669697761536,-0.8124609589576721,0.20366869866847992
1772458566709537300,6.472537353515625,0.37075597047805786,-0.8291618824005127,0.15336531400680542
1772458566719604200,6.482604248046875,0.320205956697464,-0.7454653978347778,0.11263413727283478
1772458566729672200,6.492672119140625,0.24930329620838165,-0.5692189931869507,0.09323646873235703
1772458566739740200,6.502740234375,0.1755523830652237,-0.35450562834739685,0.06999266892671585
1772458566749808400,6.512808349609375,0.11129989475011826,-0.1588737964630127,0.0364040806889534
1772458566759875300,6.522875244140625,0.06180531159043312,0.00592500064522028,-0.020013920962810516
1772458566769943300,6.532943359375,0.02834215946495533,0.14100691676139832,-0.0745895504951477
1772458566780011300,6.54301123046875,0.0062616243958473206,0.2341885268688202,-0.12072481960058212
1772458566790078200,6.553078125,0.006648847833275795,0.2936569154262543,-0.1537695825099945
1772458566800146400,6.563146484375,0.015717443078756332,0.30669042468070984,-0.16673092544078827
1772458566810214400,6.57321435546875,0.022854981943964958,0.28353556990623474,-0.15512754023075104
1772458566820282000,6.5832822265625,0.02310558594763279,0.2470657080411911,-0.11603312939405441
1772458566830349300,6.593349365234375,0.02646862529218197,0.19473139941692352,-0.06800195574760437
1772458566840417000,6.6034169921875,0.04222335293889046,0.11722142994403839,-0.019469039514660835
1772458566850485200,6.6134853515625,0.06783231347799301,0.022957513108849525,0.01864958368241787
1772458566860553200,6.62355322265625,0.09476565569639206,-0.06648368388414383,0.04457545652985573
1772458566870620200,6.6336201171875,0.10999894142150879,-0.12720908224582672,0.05197638273239136
1772458566880688000,6.643688232421875,0.12295681238174438,-0.1529272347688675,0.05420118570327759
1772458566890756000,6.653756103515625,0.1354409158229828,-0.14574041962623596,0.07326728850603104
1772458566900824300,6.66382421875,0.13327975571155548,-0.1427377164363861,0.10292372107505798
1772458566910891300,6.673891357421875,0.11835753917694092,-0.1593230813741684,0.12788233160972595
1772458566920959200,6.683959228515625,0.10316872596740723,-0.16546006500720978,0.15045768022537231
1772458566931027200,6.694027099609375,0.0942322239279747,-0.13942047953605652,0.16874215006828308
1772458566941095400,6.704095458984375,0.08818179368972778,-0.11056779325008392,0.16425712406635284
1772458566951162400,6.714162353515625,0.08558440953493118,-0.09168730676174164,0.14275874197483063
1772458566961230300,6.724230224609375,0.08537375181913376,-0.06881821155548096,0.12163268774747849
1772458566971298300,6.73429833984375,0.08211324363946915,-0.024567659944295883,0.0978541225194931
1772458566981365200,6.744365234375,0.06967175751924515,0.037209153175354004,0.06405701488256454
1772458566991433200,6.75443310546875,0.049783799797296524,0.09648792445659637,0.020196881145238876
1772458567001501400,6.76450146484375,0.03250414878129959,0.1172051876783371,-0.03941984474658966
1772458567011569200,6.774569091796875,0.01302392315119505,0.099766805768013,-0.11480247974395752
1772458567021636400,6.78463623046875,-0.014287060126662254,0.06891009211540222,-0.18622499704360962
1772458567031704000,6.7947041015625,-0.043239083141088486,0.04749001935124397,-0.25661635398864746
1772458567041772300,6.804772216796875,-0.06400641053915024,0.07165234535932541,-0.30654820799827576
1772458567051840300,6.81484033203125,-0.06795002520084381,0.14583709836006165,-0.33204320073127747
1772458567061907200,6.8249072265625,-0.04146115854382515,0.25205621123313904,-0.32111331820487976
1772458567071975200,6.83497509765625,0.013432451523840427,0.3104825019836426,-0.27590882778167725
1772458567082043100,6.845043212890625,0.08531170338392258,0.2779570519924164,-0.1996997892856598
1772458567092111400,6.855111328125,0.16628804802894592,0.19593115150928497,-0.0892380028963089
1772458567102178300,6.86517822265625,0.22783049941062927,0.08680786192417145,0.03184874355792999
1772458567112246300,6.875246337890625,0.27024561166763306,-0.05474899709224701,0.14590340852737427
1772458567122314200,6.885314208984375,0.30152228474617004,-0.21012979745864868,0.247950941324234
1772458567132382200,6.89538232421875,0.3151795268058777,-0.3389977812767029,0.33307090401649475
1772458567142449200,6.90544921875,0.30811282992362976,-0.4171740710735321,0.3787084221839905
1772458567152517400,6.915517333984375,0.28687331080436707,-0.4235347509384155,0.38938477635383606
1772458567162585300,6.92558544921875,0.25650981068611145,-0.384271502494812,0.3699311912059784
1772458567172653300,6.9356533203125,0.23423433303833008,-0.30966490507125854,0.3308927118778229
1772458567182720300,6.94572021484375,0.21898721158504486,-0.2310798168182373,0.3065439462661743
1772458567192788500,6.95578857421875,0.21441030502319336,-0.16585581004619598,0.2924656867980957
1772458567202856200,6.965856201171875,0.19919300079345703,-0.08821667730808258,0.3030112683773041
1772458567212924200,6.975924072265625,0.18021877110004425,0.025663018226623535,0.32442706823349
1772458567222991000,6.9859912109375,0.1581432968378067,0.14807549118995667,0.36610183119773865
1772458567233059000,6.99605908203125,0.14464080333709717,0.25855007767677307,0.42497286200523376
1772458567243127300,7.006127197265625,0.13882951438426971,0.35204485058784485,0.48640426993370056
1772458567253194200,7.0161943359375,0.13120435178279877,0.41023093461990356,0.5420326590538025
1772458567263262200,7.02626220703125,0.12038686126470566,0.44456759095191956,0.5893120169639587
1772458567273330200,7.036330078125,0.100355364382267,0.4631649851799011,0.6081104874610901
1772458567283398100,7.046398193359375,0.07820265740156174,0.4530780017375946,0.5972580909729004
1772458567293465000,7.056465087890625,0.05999888852238655,0.3982533812522888,0.5503808259963989
1772458567303533300,7.066533203125,0.05655355751514435,0.28668901324272156,0.46368831396102905
1772458567313601300,7.076601318359375,0.06982861459255219,0.12975506484508514,0.3390235900878906
1772458567323669200,7.086669189453125,0.08981110900640488,-0.03886270895600319,0.18438875675201416
1772458567333736200,7.096736083984375,0.10503240674734116,-0.1941063553094864,0.010037720203399658
1772458567343804400,7.106804443359375,0.11390339583158493,-0.29868948459625244,-0.17758570611476898
1772458567353872400,7.116872314453125,0.10501350462436676,-0.3381500840187073,-0.3580414950847626
1772458567363940400,7.1269404296875,0.07838135957717896,-0.3625984489917755,-0.5356962084770203
1772458567374007300,7.13700732421875,0.03958842158317566,-0.3705482482910156,-0.6997926831245422
1772458567384075300,7.1470751953125,-0.00809228140860796,-0.3541639447212219,-0.8294295072555542
1772458567394143200,7.157143310546875,-0.059483833611011505,-0.29093703627586365,-0.9314272403717041
1772458567404211200,7.167211181640625,-0.10249574482440948,-0.19237689673900604,-0.9843506813049316
1772458567414278100,7.177278076171875,-0.13280412554740906,-0.082571841776371,-0.9943732023239136
1772458567424346000,7.18734619140625,-0.15937714278697968,0.02004135213792324,-0.9610685110092163
1772458567434414000,7.1974140625,-0.18042171001434326,0.126776322722435,-0.879570484161377
1772458567444482300,7.207482421875,-0.1910053789615631,0.24180437624454498,-0.7599881291389465
1772458567454549200,7.21754931640625,-0.18666814267635345,0.305219829082489,-0.6398982405662537
1772458567464617200,7.2276171875,-0.15612435340881348,0.32903915643692017,-0.5258707404136658
1772458567474685400,7.237685546875,-0.10593335330486298,0.33346664905548096,-0.4288954436779022
1772458567484753700,7.247753662109375,-0.055993493646383286,0.30274495482444763,-0.36002209782600403
1772458567494820600,7.257820556640625,-0.005679723806679249,0.24212367832660675,-0.3169715702533722
1772458567504888600,7.267888671875,0.027512583881616592,0.15591876208782196,-0.2880221903324127
1772458567514956500,7.27795654296875,0.04361299052834511,0.0647726058959961,-0.26482951641082764
1772458567525023500,7.2880234375,0.04825514554977417,0.0001752359967213124,-0.23902669548988342
1772458567535091500,7.298091552734375,0.038607578724622726,-0.021192103624343872,-0.19753171503543854
1772458567545159700,7.30815966796875,0.03783153370022774,-0.0021054951939731836,-0.14234036207199097
1772458567555227400,7.318227294921875,0.04560237377882004,0.028592761605978012,-0.08738204091787338
1772458567565294600,7.328294677734375,0.05596047267317772,0.028450816869735718,-0.03175020590424538
1772458567575362600,7.338362548828125,0.060991715639829636,-0.02063603699207306,0.015966715291142464
1772458567585430300,7.34843017578125,0.06943633407354355,-0.10954993218183517,0.04929058253765106
1772458567595498500,7.35849853515625,0.08135637640953064,-0.20909783244132996,0.07102037966251373
1772458567605565400,7.3685654296875,0.08999407291412354,-0.2949618697166443,0.0976884737610817
1772458567615633400,7.37863330078125,0.09585702419281006,-0.3400963246822357,0.11244291812181473
1772458567625701400,7.388701416015625,0.10046003013849258,-0.348707377910614,0.1292743682861328
1772458567635769600,7.39876953125,0.09289398789405823,-0.3474557101726532,0.13633014261722565
1772458567645836500,7.40883642578125,0.0790061354637146,-0.33507972955703735,0.13712163269519806
1772458567655904500,7.418904541015625,0.05874933302402496,-0.32650354504585266,0.12491636723279953
1772458567665972500,7.428972412109375,0.03705256059765816,-0.3276505768299103,0.10540392249822617
1772458567676040400,7.43904052734375,0.01654195785522461,-0.3317033648490906,0.08503766357898712
1772458567686107400,7.449107421875,-0.02159983478486538,-0.3286212980747223,0.07556319981813431
1772458567696175600,7.459175537109375,-0.07752302289009094,-0.3027220368385315,0.07025818526744843
1772458567706243600,7.46924365234375,-0.1357479840517044,-0.24065734446048737,0.07575841248035431
1772458567716311600,7.4793115234375,-0.18918217718601227,-0.10943061858415604,0.08330580592155457
1772458567726378500,7.48937841796875,-0.22787603735923767,0.02322169952094555,0.08741746097803116
1772458567736446500,7.499446533203125,-0.24333728849887848,0.06030728295445442,0.06033790856599808
1772458567746514400,7.509514404296875,-0.24037611484527588,0.011625496670603752,-0.010582337155938148
1772458567756582400,7.51958251953125,-0.2349451333284378,-0.04099456965923309,-0.09634651243686676
1772458567766649600,7.529649658203125,-0.22727122902870178,-0.07040519267320633,-0.19618389010429382
1772458567776717300,7.53971728515625,-0.22189031541347504,-0.09776730835437775,-0.31334060430526733
1772458567786785500,7.54978564453125,-0.21814031898975372,-0.14780651032924652,-0.44965583086013794
1772458567796853500,7.559853515625,-0.21260814368724823,-0.19476576149463654,-0.5862078070640564
1772458567806920400,7.56992041015625,-0.21217191219329834,-0.2248147428035736,-0.6921404004096985
1772458567816988400,7.579988525390625,-0.21343106031417847,-0.2364431619644165,-0.7715944647789001
1772458567827056400,7.590056396484375,-0.22513112425804138,-0.21434132754802704,-0.8141416311264038
1772458567837123300,7.600123291015625,-0.23725835978984833,-0.16735543310642242,-0.8136095404624939
1772458567847191600,7.610191650390625,-0.25339046120643616,-0.05765530839562416,-0.7541531324386597
1772458567857259500,7.620259521484375,-0.2637869119644165,0.1197785958647728,-0.6244257688522339
1772458567867327500,7.630327392578125,-0.2522764503955841,0.31477978825569153,-0.44714900851249695
1772458567877394400,7.64039453125,-0.23114053905010223,0.4774922728538513,-0.251310259103775
1772458567887462700,7.650462646484375,-0.18140147626399994,0.5719407200813293,-0.05818074941635132
1772458567897530600,7.660530517578125,-0.10412027686834335,0.5808921456336975,0.1087360680103302
1772458567907598600,7.6705986328125,-0.021390508860349655,0.5258520841598511,0.23893775045871735
1772458567917665500,7.68066552734375,0.06076987460255623,0.41139551997184753,0.3447299599647522
1772458567927733500,7.6907333984375,0.14004765450954437,0.24808037281036377,0.4383762776851654
1772458567937801500,7.700801513671875,0.21592244505882263,0.04821626469492912,0.522506058216095
1772458567947869400,7.710869384765625,0.2808295488357544,-0.1664305180311203,0.5985869765281677
1772458567957936600,7.7209365234375,0.3239096403121948,-0.35739701986312866,0.6545735597610474
1772458567968004400,7.73100439453125,0.33288341760635376,-0.48632198572158813,0.6906471252441406
1772458567978072300,7.741072265625,0.31897079944610596,-0.5280185341835022,0.6870566606521606
1772458567988140500,7.751140625,0.2856493294239044,-0.5363425016403198,0.6479867696762085
1772458567998207500,7.76120751953125,0.23168542981147766,-0.5566027760505676,0.574953019618988
1772458568008275500,7.771275390625,0.15870895981788635,-0.5545689463615417,0.4707592725753784
1772458568018343400,7.781343505859375,0.07543723285198212,-0.5274994969367981,0.3611004054546356
1772458568028411400,7.791411376953125,-0.010454504750669003,-0.4509067237377167,0.25038933753967285
1772458568038478600,7.801478515625,-0.07696056365966797,-0.3276281952857971,0.15542207658290863
1772458568048546600,7.811546630859375,-0.13106507062911987,-0.17307378351688385,0.07713127136230469
1772458568058614500,7.821614501953125,-0.16650696098804474,0.000016245283404714428,0.015593606978654861
1772458568068682500,7.8316826171875,-0.18043528497219086,0.16116970777511597,-0.025946645066142082
1772458568078749400,7.84174951171875,-0.17967255413532257,0.29168379306793213,-0.05489520728588104
1772458568088817700,7.851817626953125,-0.16830672323703766,0.365445613861084,-0.058101654052734375
1772458568098885600,7.8618857421875,-0.14745363593101501,0.37667855620384216,-0.03892822563648224
1772458568108953600,7.87195361328125,-0.12383512407541275,0.3450221121311188,0.0062515041790902615
1772458568119020500,7.8820205078125,-0.10581830888986588,0.2811536490917206,0.05698898434638977
1772458568129088500,7.892088623046875,-0.09525727480649948,0.2014460265636444,0.10938854515552521
1772458568139156500,7.902156494140625,-0.07439274340867996,0.13120995461940765,0.15229952335357666
1772458568149223700,7.9122236328125,-0.05053827539086342,0.06863126158714294,0.18392641842365265
1772458568159291400,7.92229150390625,-0.028801821172237396,0.0037377465050667524,0.19535325467586517
1772458568169359400,7.932359375,-0.01631479151546955,-0.05427682027220726,0.184737890958786
1772458568179427300,7.94242724609375,0.0007741809240542352,-0.10095936805009842,0.15221084654331207
1772458568189494500,7.95249462890625,0.018394453451037407,-0.11682115495204926,0.11675724387168884
1772458568199562500,7.9625625,0.03478115051984787,-0.08368077874183655,0.07528090476989746
1772458568209630500,7.97263037109375,0.04200443997979164,-0.02989957481622696,0.04254772514104843
1772458568219698400,7.982698486328125,0.04923838749527931,0.007541273254901171,0.014859906397759914
1772458568229765400,7.992765380859375,0.0581357404589653,0.02478604018688202,-0.010060623288154602
1772458568239833600,8.00283349609375,0.0689162164926529,0.02708195149898529,-0.03358032926917076
1772458568249901600,8.012901611328125,0.07703086733818054,0.02401585318148136,-0.04952707141637802
1772458568259969500,8.022969482421875,0.0814189612865448,0.03821023553609848,-0.050450924783945084
1772458568270036500,8.033036376953126,0.08603901416063309,0.0414624884724617,-0.03343944996595383
1772458568280104400,8.0431044921875,0.09383541345596313,0.03759824112057686,-0.012358132749795914
1772458568290172700,8.053172607421875,0.09394221007823944,0.021274661645293236,0.00014407701382879168
1772458568300240600,8.06324072265625,0.09021298587322235,-0.016032762825489044,-0.014156298711895943
1772458568310307600,8.0733076171875,0.08888113498687744,-0.04700878635048866,-0.04621649906039238
1772458568320375600,8.08337548828125,0.08880124241113663,-0.06881315261125565,-0.08833305537700653
1772458568330443300,8.093443359375,0.09544450044631958,-0.06332091242074966,-0.11926700174808502
1772458568340511500,8.103511474609375,0.10972756147384644,-0.02004694566130638,-0.12345908582210541
1772458568350578400,8.113578369140624,0.12759578227996826,0.039149001240730286,-0.10377486795186996
1772458568360646400,8.123646484375,0.15523353219032288,0.10957256704568863,-0.05747714266180992
1772458568370714400,8.13371435546875,0.184329092502594,0.2032974660396576,0.015496933832764626
1772458568380782600,8.143782470703124,0.22001466155052185,0.37446069717407227,0.13630883395671844
1772458568390849500,8.153849609375,0.2587977349758148,0.5807052254676819,0.29261481761932373
1772458568400917500,8.16391748046875,0.2837827205657959,0.6609854102134705,0.43705642223358154
1772458568410985500,8.1739853515625,0.3065609931945801,0.6252897381782532,0.5161358118057251
1772458568421053400,8.184053466796875,0.3368541896343231,0.5466247200965881,0.538496732711792
1772458568431120400,8.194120361328125,0.36103489995002747,0.4243784546852112,0.501357913017273
1772458568441188600,8.204188720703126,0.3689274489879608,0.19323177635669708,0.3826187551021576
1772458568451256600,8.214256591796875,0.3499755859375,-0.14733459055423737,0.19260753691196442
1772458568461324500,8.224324462890625,0.28992024064064026,-0.49264830350875854,-0.02099875919520855
1772458568471391500,8.2343916015625,0.19799190759658813,-0.6852574348449707,-0.19562356173992157
1772458568481460200,8.244460205078125,0.11870534718036652,-0.706975519657135,-0.2740296721458435
1772458568491528200,8.254528076171875,0.0582963302731514,-0.5999050140380859,-0.24751338362693787
1772458568501596400,8.264596435546874,0.008201470598578453,-0.3424340486526489,-0.09997905790805817
1772458568511663400,8.274663330078125,-0.03329111263155937,0.0062887887470424175,0.13312315940856934
1772458568521731300,8.2847314453125,-0.06393610686063766,0.32981759309768677,0.3714880645275116
1772458568531799300,8.29479931640625,-0.06948187202215195,0.5212789177894592,0.5599567890167236
1772458568541867300,8.3048671875,-0.04567347839474678,0.5717276930809021,0.6613611578941345
1772458568551934500,8.3149345703125,-0.006128466222435236,0.5167611241340637,0.6990278363227844
1772458568562002400,8.32500244140625,0.028808211907744408,0.4160776436328888,0.6880500316619873
1772458568572070400,8.3350703125,0.05354977771639824,0.3169981837272644,0.6332097053527832
1772458568582138400,8.345138427734375,0.06475396454334259,0.23613210022449493,0.5524280071258545
1772458568592205300,8.355205322265626,0.06864723563194275,0.15270166099071503,0.4394010603427887
1772458568602273500,8.3652734375,0.06456407904624939,0.048234906047582626,0.29271042346954346
1772458568612341500,8.375341552734374,0.05771363154053688,-0.05787315219640732,0.1365565061569214
1772458568622409200,8.3854091796875,0.0431450717151165,-0.12683890759944916,-0.005259210709482431
1772458568632476400,8.395476318359375,0.026385800912976265,-0.15174318850040436,-0.13737517595291138
1772458568642544400,8.40554443359375,0.01164653617888689,-0.1434706151485443,-0.2500830888748169
1772458568652612400,8.4156123046875,0.0033686324022710323,-0.1245374009013176,-0.341904878616333
1772458568662680300,8.425680419921875,-0.00762782571837306,-0.11187220364809036,-0.41251033544540405
1772458568672747300,8.435747314453126,-0.020497817546129227,-0.09632200747728348,-0.4660571813583374
1772458568682815200,8.445815185546875,-0.0315382182598114,-0.06235791742801666,-0.502633810043335
1772458568692883200,8.45588330078125,-0.045165080577135086,0.006719954311847687,-0.520775556564331
1772458568702950400,8.465950439453126,-0.05299930274486542,0.09315098077058792,-0.5143576264381409
1772458568713018400,8.476018310546875,-0.05379904806613922,0.1795431226491928,-0.4908197820186615
1772458568723086300,8.48608642578125,-0.045701175928115845,0.2546203136444092,-0.4547984004020691
1772458568733154300,8.496154296875,-0.02112339437007904,0.3136870861053467,-0.4029921889305115
1772458568743221200,8.50622119140625,0.011216435581445694,0.3365069031715393,-0.3420366942882538
1772458568753289500,8.51628955078125,0.04156342148780823,0.3453962802886963,-0.289229154586792
1772458568763357400,8.526357421875,0.07674750685691833,0.32814911007881165,-0.26081934571266174
1772458568773425400,8.53642529296875,0.11572153866291046,0.26455816626548767,-0.2540895342826843
1772458568783492400,8.546492431640624,0.16229569911956787,0.18877950310707092,-0.26653793454170227
1772458568793560300,8.556560302734376,0.1948091685771942,0.09130940586328506,-0.2865036725997925
1772458568803628500,8.566628662109375,0.2154955416917801,-0.007995608262717724,-0.2799019515514374
1772458568813696500,8.576696533203124,0.23467162251472473,-0.07131785899400711,-0.254451721906662
1772458568823763500,8.586763427734375,0.25521525740623474,-0.10409258306026459,-0.18963225185871124
1772458568833831400,8.59683154296875,0.27917757630348206,-0.12392380833625793,-0.10995126515626907
1772458568843899400,8.6068994140625,0.29428595304489136,-0.14408260583877563,-0.024356737732887268
1772458568853967400,8.61696728515625,0.3048807978630066,-0.16044533252716064,0.04657309502363205
1772458568864034300,8.627034423828125,0.3077967166900635,-0.16966839134693146,0.11038349568843842
1772458568874102300,8.637102294921876,0.29512378573417664,-0.18164782226085663,0.16050924360752106
1772458568884170200,8.647170166015625,0.2736310064792633,-0.21217963099479675,0.19571997225284576
1772458568894238500,8.657238525390625,0.2462100386619568,-0.2614896595478058,0.20111073553562164
1772458568904305400,8.667305419921876,0.2177291363477707,-0.3105757236480713,0.1894378364086151
1772458568914373400,8.677373291015625,0.18804340064525604,-0.34473928809165955,0.15837526321411133
1772458568924441300,8.68744140625,0.1533256322145462,-0.35322463512420654,0.13415780663490295
1772458568934509300,8.69750927734375,0.1107235848903656,-0.3351340591907501,0.1122831329703331
1772458568944576300,8.707576171875,0.05186080187559128,-0.308251291513443,0.09246867895126343
1772458568954644500,8.71764453125,-0.007474161684513092,-0.26780828833580017,0.07798480987548828
1772458568964712400,8.72771240234375,-0.06192142516374588,-0.2062048316001892,0.06853485107421875
1772458568974780400,8.737780517578125,-0.12236080318689346,-0.1418069303035736,0.06780834496021271
1772458568984847400,8.747847412109374,-0.1845485419034958,-0.0528714694082737,0.08502967655658722
1772458568994915600,8.75791552734375,-0.24608300626277924,0.014918229542672634,0.11453323811292648
1772458569004983600,8.767983642578125,-0.29396504163742065,0.0070368703454732895,0.13156229257583618
1772458569015051300,8.77805126953125,-0.3270082175731659,-0.047751277685165405,0.13484196364879608
1772458569025118500,8.788118408203125,-0.3367553949356079,-0.1098889485001564,0.12218370288610458
1772458569035186200,8.798186279296875,-0.34124335646629333,-0.19835783541202545,0.07588943839073181
1772458569045254400,8.80825439453125,-0.3419261872768402,-0.31258347630500793,-0.0005976133397780359
1772458569055322400,8.818322265625,-0.35637304186820984,-0.4271446764469147,-0.12483887374401093
1772458569065389300,8.828389404296875,-0.3969196677207947,-0.5121713876724243,-0.2805725336074829
1772458569075457300,8.838457275390626,-0.46644705533981323,-0.5484026670455933,-0.47716042399406433
1772458569085525200,8.848525146484375,-0.556633710861206,-0.5338671207427979,-0.6677567362785339
1772458569095593500,8.858593505859375,-0.6480791568756104,-0.4505205750465393,-0.8316655158996582
1772458569105660400,8.868660400390626,-0.734844446182251,-0.2653674781322479,-0.9448325634002686
1772458569115728400,8.878728271484375,-0.8020452857017517,0.013497965410351753,-0.9733736515045166
1772458569125796400,8.88879638671875,-0.8414598107337952,0.37040069699287415,-0.9216657280921936
1772458569135864300,8.8988642578125,-0.8328974843025208,0.6741470098495483,-0.8047630786895752
1772458569145931500,8.908931640625,-0.781767725944519,0.8340541124343872,-0.6709725260734558
1772458569155999500,8.91899951171875,-0.7136051654815674,0.8591160774230957,-0.544916570186615
1772458569166067500,8.9290673828125,-0.62539142370224,0.8042027354240417,-0.437547504901886
1772458569176135400,8.939135498046875,-0.5152068734169006,0.6895216703414917,-0.3342970311641693
1772458569186202400,8.949202392578124,-0.39172834157943726,0.5340311527252197,-0.242962047457695
1772458569196270600,8.9592705078125,-0.2697763442993164,0.33072519302368164,-0.1661735326051712
1772458569206338300,8.96933837890625,-0.16985347867012024,0.07416397333145142,-0.11788855493068695
1772458569216406300,8.97940625,-0.0830347016453743,-0.20741844177246094,-0.08603981137275696
1772458569226473200,8.98947314453125,-0.01643303595483303,-0.4656830132007599,-0.06960597634315491
1772458569236541200,8.999541259765625,0.027660923078656197,-0.6164954304695129,-0.05596259981393814
1772458569246609400,9.009609375,0.034565169364213943,-0.6553227305412292,-0.051353469491004944
1772458569256677400,9.019677490234375,0.02929743565618992,-0.6190845370292664,-0.05282885953783989
1772458569266744300,9.029744384765625,0.022174011915922165,-0.5325528383255005,-0.05380357801914215
1772458569276812300,9.039812255859376,0.014079865999519825,-0.3915739059448242,-0.04469875991344452
1772458569286880300,9.04988037109375,-0.0014969628537073731,-0.2215971052646637,-0.02244751900434494
1772458569296948500,9.059948486328125,-0.010298710316419601,-0.031326498836278915,0.01019830908626318
1772458569307015400,9.070015380859376,-0.013701431453227997,0.14283810555934906,0.0509694404900074
1772458569317083400,9.08008349609375,-0.003970772959291935,0.24932646751403809,0.09378401935100555
1772458569327151400,9.0901513671875,0.01613502763211727,0.28415024280548096,0.12922030687332153
1772458569337219600,9.100219482421876,0.03617984056472778,0.2591806948184967,0.17033419013023376
1772458569347286500,9.11028662109375,0.05152737349271774,0.1949220895767212,0.21606118977069855
1772458569357354500,9.1203544921875,0.05927823856472969,0.11277208477258682,0.266403466463089
1772458569367422500,9.13042236328125,0.0637132003903389,0.023637153208255768,0.3124186098575592
1772458569377490200,9.140490234375,0.06505037099123001,-0.04988899454474449,0.35051754117012024
1772458569387557400,9.150557373046874,0.07542471587657928,-0.10714243352413177,0.3748873174190521
1772458569397625300,9.160625244140626,0.08601237833499908,-0.14598409831523895,0.379260778427124
1772458569407693300,9.170693359375,0.09222260117530823,-0.1701621413230896,0.35741299390792847
1772458569417761300,9.18076123046875,0.0849314033985138,-0.1793777495622635,0.32173168659210205
1772458569427828200,9.190828125,0.07472323626279831,-0.17156162858009338,0.2870379090309143
1772458569437896400,9.200896484375,0.05326694995164871,-0.1675780713558197,0.25090813636779785
1772458569447964400,9.21096435546875,0.0348953977227211,-0.16291089355945587,0.2119913548231125
1772458569458032400,9.221032470703125,0.022944463416934013,-0.11920255422592163,0.180891215801239
1772458569468099300,9.231099365234375,0.01575552672147751,-0.040819067507982254,0.15016500651836395
1772458569478166800,9.241166748046876,0.007319165393710136,0.04307929426431656,0.1151774525642395
1772458569488234800,9.25123486328125,-0.0008178567513823509,0.11297369003295898,0.06976602971553802
1772458569498302700,9.261302734375,-0.004433097783476114,0.15829643607139587,0.015970444306731224
1772458569508369700,9.27136962890625,0.017173394560813904,0.197457417845726,-0.030310235917568207
1772458569518438000,9.28143798828125,0.045996252447366714,0.23290754854679108,-0.0540429949760437
1772458569528505900,9.291505859375,0.07269097864627838,0.24740712344646454,-0.06604719161987305
1772458569538573800,9.30157373046875,0.08267730474472046,0.19532528519630432,-0.0772271454334259
1772458569548640800,9.311640869140625,0.0830560028553009,0.09350331872701645,-0.10602736473083496
1772458569558708700,9.321708740234374,0.08682091534137726,-0.0037230991292744875,-0.1317889243364334
1772458569568777000,9.33177685546875,0.09860380738973618,-0.060679592192173004,-0.14865924417972565
1772458569578844700,9.3418447265625,0.12293417751789093,-0.06419576704502106,-0.1551046371459961
1772458569588911900,9.351911865234374,0.1714085042476654,-0.004501008428633213,-0.12593422830104828
1772458569598979600,9.3619794921875,0.25824832916259766,0.13790221512317657,-0.03596758842468262
1772458569609047600,9.372047607421875,0.3688685894012451,0.30046501755714417,0.09279065579175949
1772458569619115800,9.38211572265625,0.4684194028377533,0.3575621247291565,0.22475188970565796
1772458569629183700,9.392183837890625,0.5205180048942566,0.32186245918273926,0.31104204058647156
1772458569639250700,9.402250732421875,0.5412060022354126,0.1811964213848114,0.3264737129211426
1772458569649318700,9.412318603515626,0.5405380725860596,-0.08298516273498535,0.25504109263420105
1772458569659386600,9.42238671875,0.5086765289306641,-0.41808778047561646,0.13925430178642273
1772458569669453800,9.432453857421875,0.45065903663635254,-0.6990920305252075,0.031255923211574554
1772458569679521800,9.442521728515626,0.3595595061779022,-0.8082877397537231,-0.023984961211681366
1772458569689589800,9.45258984375,0.24879063665866852,-0.8034535646438599,-0.03098374791443348
1772458569699657700,9.46265771484375,0.1298629194498062,-0.6951878666877747,0.025797508656978607
1772458569709726000,9.472725830078126,0.023619841784238815,-0.4846721589565277,0.13126614689826965
1772458569719793000,9.48279296875,-0.05416736379265785,-0.2190181016921997,0.2571790814399719
1772458569729860900,9.49286083984375,-0.09192033857107162,0.0746593251824379,0.3836536407470703
1772458569739928800,9.5029287109375,-0.08810216188430786,0.3469630181789398,0.49677273631095886
1772458569749996500,9.51299658203125,-0.06893859058618546,0.5458031296730042,0.5728022456169128
1772458569760063700,9.523063720703124,-0.04476534202694893,0.6527090668678284,0.6153486371040344
1772458569770131700,9.533131591796876,-0.015238074585795403,0.6772192120552063,0.627475917339325
1772458569780199700,9.54319970703125,-0.0010186590952798724,0.6203224062919617,0.6061609983444214
1772458569790267600,9.553267578125,0.006657103542238474,0.5566089153289795,0.570161759853363
1772458569800334600,9.56333447265625,0.003829359309747815,0.4960225522518158,0.519067108631134
1772458569810402600,9.573402587890625,-0.012889965437352657,0.4256357252597809,0.45348572731018066
1772458569820470800,9.583470703125,-0.028420722112059593,0.3284441828727722,0.3619488775730133
1772458569830538800,9.593538818359375,-0.03767014667391777,0.20869675278663635,0.24827904999256134
1772458569840605700,9.603605712890625,-0.0353127159178257,0.07874354720115662,0.12892815470695496
1772458569850673700,9.613673583984376,-0.01212856825441122,-0.030918501317501068,0.03130412846803665
1772458569860742000,9.623741943359375,0.004811533261090517,-0.1331934779882431,-0.044926196336746216
1772458569870809900,9.633809814453125,0.012538694776594639,-0.27897411584854126,-0.12908129394054413
1772458569880876800,9.643876708984376,0.009501359425485134,-0.4433785080909729,-0.224526047706604
1772458569890944800,9.65394482421875,0.0038035267498344183,-0.5493318438529968,-0.3126058280467987
1772458569901012700,9.6640126953125,-0.011653993278741837,-0.5579493045806885,-0.3870465159416199
1772458569911081000,9.6740810546875,-0.03877562656998634,-0.4700274169445038,-0.4330877661705017
1772458569921148000,9.68414794921875,-0.06444130837917328,-0.2990575432777405,-0.43567582964897156
1772458569931216000,9.6942158203125,-0.08709362149238586,-0.053771618753671646,-0.38307228684425354
1772458569941283600,9.70428369140625,-0.10380016267299652,0.20906692743301392,-0.295993834733963
1772458569951351600,9.7143515625,-0.11005699634552002,0.39163273572921753,-0.19696180522441864
1772458569961418800,9.724418701171874,-0.10830064117908478,0.454397052526474,-0.11662355065345764
1772458569971486700,9.73448681640625,-0.10493706911802292,0.43612831830978394,-0.07169655710458755
1772458569981554700,9.7445546875,-0.10207656770944595,0.3886590600013733,-0.06299760937690735
1772458569991622700,9.75462255859375,-0.08755754679441452,0.33478277921676636,-0.06553640216588974
1772458570001689600,9.764689697265625,-0.0777757540345192,0.2714666724205017,-0.08949073404073715
1772458570011757800,9.7747578125,-0.07599250227212906,0.20884136855602264,-0.11634472012519836
1772458570021825800,9.78482568359375,-0.07972199469804764,0.16266055405139923,-0.13969771564006805
1772458570031893800,9.794893798828125,-0.0700153037905693,0.14424985647201538,-0.13981862366199493
1772458570041960700,9.804960693359375,-0.05131964758038521,0.15414509177207947,-0.1176707074046135
1772458570052028700,9.815028564453126,-0.033308155834674835,0.17336192727088928,-0.08051774650812149
1772458570062097000,9.825096923828125,-0.011990349739789963,0.18480713665485382,-0.03794817999005318
1772458570072164900,9.835164794921875,-0.0011502192355692387,0.17324714362621307,0.009435313753783703
1772458570082231800,9.845231689453126,0.011027084663510323,0.12489346414804459,0.061284929513931274
1772458570092299800,9.8552998046875,0.020114323124289513,0.0532618910074234,0.10864898562431335
1772458570102367700,9.86536767578125,0.03328072652220726,-0.03140639141201973,0.15693768858909607
1772458570112435700,9.875435791015626,0.04697336629033089,-0.1168065071105957,0.20165376365184784
1772458570122503000,9.8855029296875,0.05119554325938225,-0.19956131279468536,0.23046942055225372
1772458570132570600,9.895570556640624,0.0482061430811882,-0.24127919971942902,0.2357744425535202
1772458570142638600,9.905638671875,0.04792012274265289,-0.24759115278720856,0.25473323464393616
1772458570152706800,9.915706787109375,0.05296681076288223,-0.24455754458904266,0.2615636885166168
1772458570162774800,9.92577490234375,0.05670242756605148,-0.25958389043807983,0.2602382302284241
1772458570172841700,9.935841796875,0.050943609327077866,-0.3024679720401764,0.25297924876213074
1772458570182909700,9.94590966796875,0.04662662371993065,-0.3690851032733917,0.23341861367225647
1772458570192977700,9.955977783203124,0.033727336674928665,-0.43449658155441284,0.218719020485878
1772458570203046000,9.9660458984375,0.01312086172401905,-0.4637519419193268,0.21005655825138092
1772458570213112800,9.97611279296875,-0.028536302968859673,-0.4631122648715973,0.20780272781848907
1772458570223180800,9.986180908203124,-0.06739954650402069,-0.4374431073665619,0.2087651938199997
1772458570233248800,9.996248779296875,-0.09990369528532028,-0.3940002918243408,0.21567529439926147
1772458570243316700,10.006316650390625,-0.11403416097164154,-0.32038813829421997,0.23220820724964142
1772458570253383700,10.0163837890625,-0.10123873502016068,-0.18946367502212524,0.25894448161125183
1772458570263452000,10.026451904296875,-0.06781286746263504,-0.05164162442088127,0.2755306363105774
1772458570273519900,10.036519775390625,-0.011889416724443436,0.006889065261930227,0.26949459314346313
1772458570283587600,10.046587646484374,0.0462748222053051,0.022790268063545227,0.23138156533241272
1772458570293654800,10.05665478515625,0.10122408717870712,0.0003880225704051554,0.17014829814434052
1772458570303722800,10.06672265625,0.13603772222995758,-0.13512612879276276,0.0759485587477684
1772458570313790700,10.076790771484376,0.15337704122066498,-0.34939154982566833,-0.04862932115793228
1772458570323858700,10.086858642578125,0.12736327946186066,-0.5214447975158691,-0.15321218967437744
1772458570333925600,10.096925537109374,0.03388073667883873,-0.5793174505233765,-0.24129757285118103
1772458570343993600,10.10699365234375,-0.09117278456687927,-0.5506836771965027,-0.3087642192840576
1772458570354061800,10.117061767578125,-0.20987600088119507,-0.440756618976593,-0.3485739529132843
1772458570364129800,10.1271298828125,-0.29922690987586975,-0.24847133457660675,-0.3488972783088684
1772458570374196700,10.13719677734375,-0.36083516478538513,0.006671485025435686,-0.32161185145378113
1772458570384264700,10.1472646484375,-0.39124366641044617,0.249818354845047,-0.255045086145401
1772458570394332700,10.157332763671874,-0.37960538268089294,0.40569156408309937,-0.18147392570972443
1772458570404401000,10.16740087890625,-0.34387320280075073,0.45200395584106445,-0.10124646127223969
1772458570414467800,10.1774677734375,-0.2893282175064087,0.43975740671157837,-0.02220969833433628
1772458570424535800,10.187535888671874,-0.22398756444454193,0.42384156584739685,0.06049184128642082
1772458570434603800,10.197603759765625,-0.15698055922985077,0.3797989785671234,0.13031698763370514
1772458570444671700,10.207671630859375,-0.09328041225671768,0.2632627785205841,0.17493745684623718
1772458570454739000,10.217739013671874,-0.03612711280584335,0.08254387974739075,0.19051562249660492
1772458570464807000,10.227806884765625,0.007012103218585253,-0.10664122551679611,0.18693873286247253
1772458570474874600,10.23787451171875,0.020964138209819794,-0.2319575995206833,0.16730670630931854
1772458570484942600,10.247942626953124,0.017730526626110077,-0.2486356496810913,0.14611752331256866
1772458570495010600,10.258010498046875,-0.0031944618094712496,-0.18747828900814056,0.11185836046934128
1772458570505077500,10.268077392578125,-0.026271551847457886,-0.09012217074632645,0.05836370587348938
1772458570515145500,10.2781455078125,-0.0536738820374012,0.004689826630055904,0.0010892328573390841
1772458570525213700,10.288213623046875,-0.07922238111495972,0.08230499178171158,-0.062185611575841904
1772458570535281700,10.29828173828125,-0.10043499618768692,0.13603879511356354,-0.11652208864688873
1772458570545348600,10.3083486328125,-0.11666163802146912,0.1389714628458023,-0.14889174699783325
1772458570555416600,10.31841650390625,-0.10896056890487671,0.11640996485948563,-0.1600397378206253
1772458570565484500,10.328484619140625,-0.08691412210464478,0.08340008556842804,-0.13650856912136078
1772458570575552800,10.338552734375,-0.060936056077480316,0.061768025159835815,-0.09391983598470688
1772458570585619700,10.34861962890625,-0.04517626762390137,0.0666637122631073,-0.026910709217190742
1772458570595687700,10.358687744140624,-0.04230644553899765,0.09073203057050705,0.04574884474277496
1772458570605755600,10.368755615234376,-0.04402977600693703,0.10674215853214264,0.10198309272527695
1772458570615823600,10.37882373046875,-0.04489610344171524,0.12461090087890625,0.14220161736011505
1772458570625890800,10.388890869140624,-0.04953186586499214,0.13740046322345734,0.1582074761390686
1772458570635958800,10.398958740234375,-0.06066814064979553,0.1406165063381195,0.1478123664855957
1772458570646026500,10.409026611328125,-0.0742902085185051,0.15449263155460358,0.11143092066049576
1772458570656094500,10.419094482421874,-0.08970112353563309,0.1899787187576294,0.06332970410585403
1772458570666161700,10.42916162109375,-0.10678982734680176,0.24346858263015747,0.006030195392668247
1772458570676229600,10.439229736328125,-0.12801308929920197,0.2915676534175873,-0.056942377239465714
1772458570686297600,10.449297607421874,-0.1388241946697235,0.32291388511657715,-0.11257314682006836
1772458570696365600,10.459365478515625,-0.1442170888185501,0.3639907240867615,-0.14230228960514069
1772458570706432500,10.4694326171875,-0.13954538106918335,0.40487104654312134,-0.15017138421535492
1772458570716500500,10.47950048828125,-0.12015463411808014,0.4086575508117676,-0.13896268606185913
1772458570726568700,10.489568603515625,-0.08678815513849258,0.3681740164756775,-0.12126065045595169
1772458570736636700,10.49963671875,-0.03150945529341698,0.313514769077301,-0.08883799612522125
1772458570746703600,10.50970361328125,0.028375981375575066,0.25253719091415405,-0.040658481419086456
1772458570756771600,10.519771484375,0.09194723516702652,0.18206194043159485,-0.004659466445446014
1772458570766839600,10.529839599609375,0.14465998113155365,0.10665347427129745,0.026586337015032768
1772458570776907800,10.53990771484375,0.1918458640575409,0.010363957844674587,0.03970373794436455
1772458570786975700,10.549975830078125,0.23380637168884277,-0.08694715052843094,0.02707209810614586
1772458570797042700,10.560042724609374,0.26473578810691833,-0.1608373522758484,-0.00974477268755436
1772458570807110700,10.570110595703126,0.291583389043808,-0.18677467107772827,-0.06288895010948181
1772458570817178600,10.5801787109375,0.32666438817977905,-0.16260036826133728,-0.12006941437721252
1772458570827246600,10.59024658203125,0.36636680364608765,-0.08695034682750702,-0.15784423053264618
1772458570837313500,10.6003134765625,0.424580842256546,0.037042971700429916,-0.16348905861377716
1772458570847381500,10.610381591796875,0.48848047852516174,0.13752110302448273,-0.12903308868408203
1772458570857449500,10.620449462890624,0.5375702381134033,0.17855510115623474,-0.06784908473491669
1772458570867517700,10.630517578125,0.5460052490234375,0.18141426146030426,-0.006714095361530781
1772458570877584600,10.640584716796875,0.5170577764511108,0.10766228288412094,0.011116300709545612
1772458570887652600,10.650652587890624,0.4378303289413452,-0.07974569499492645,-0.03965606540441513
1772458570897720600,10.660720458984375,0.3245820701122284,-0.3263959586620331,-0.13229624927043915
1772458570907788500,10.67078857421875,0.1973588764667511,-0.5428699254989624,-0.23435445129871368
1772458570917855700,10.680855712890626,0.08940578252077103,-0.6795444488525391,-0.30079710483551025
1772458570927923700,10.690923828125,-0.019467441365122795,-0.6906037330627441,-0.32232052087783813
1772458570937991700,10.70099169921875,-0.10749024152755737,-0.564116895198822,-0.26572567224502563
1772458570948059600,10.7110595703125,-0.16555167734622955,-0.34951165318489075,-0.1257251650094986
1772458570958126600,10.721126708984375,-0.1845402866601944,-0.12345429509878159,0.06166096776723862
1772458570968194800,10.73119482421875,-0.1668664813041687,0.07069654017686844,0.2644444406032562
1772458570978262800,10.7412626953125,-0.12802746891975403,0.21197083592414856,0.44801267981529236
1772458570988330500,10.75133056640625,-0.08603315055370331,0.2974729537963867,0.5937693119049072
1772458570998397700,10.761397705078124,-0.0396006740629673,0.3329124450683594,0.6973876357078552
1772458571008465400,10.77146533203125,0.00487172044813633,0.32574373483657837,0.7684476971626282
1772458571018533600,10.78153369140625,0.015049789100885391,0.2895772159099579,0.799111545085907
1772458571028601600,10.7916015625,-0.02050820365548134,0.20340052247047424,0.7931631207466125
1772458571038669600,10.801669677734376,-0.08217103779315948,0.08783930540084839,0.7554146647453308
1772458571048736500,10.811736572265625,-0.14429166913032532,-0.0038954056799411774,0.7036042213439941
1772458571058804500,10.821804443359374,-0.19935864210128784,-0.029336849227547646,0.6428945660591125
1772458571068872700,10.831872802734376,-0.2512540817260742,-0.020835241302847862,0.5529665350914001
1772458571078940700,10.841940673828125,-0.2821155786514282,-0.00812237523496151,0.4317764341831207
1772458571089007600,10.852007568359374,-0.2947229743003845,-0.04087446257472038,0.27629977464675903
1772458571099075600,10.86207568359375,-0.28575530648231506,-0.08985239267349243,0.11469089239835739
1772458571109143800,10.872143798828125,-0.261470228433609,-0.12805676460266113,-0.03512443229556084
1772458571119211800,10.882211669921874,-0.23718245327472687,-0.18025445938110352,-0.16197878122329712
1772458571129278700,10.89227880859375,-0.21628037095069885,-0.25072330236434937,-0.26766127347946167
1772458571139346700,10.9023466796875,-0.20373103022575378,-0.32623669505119324,-0.35198548436164856
1772458571149414700,10.91241455078125,-0.21557091176509857,-0.4007524847984314,-0.4333796501159668
1772458571159482600,10.922482666015625,-0.2567327320575714,-0.4501810073852539,-0.5217356085777283
1772458571169549800,10.9325498046875,-0.30505818128585815,-0.43597784638404846,-0.5841736793518066
1772458571179617500,10.942617431640626,-0.3558931350708008,-0.3445355296134949,-0.603198766708374
1772458571189685500,10.952685546875,-0.3941963016986847,-0.20356030762195587,-0.5798457860946655
1772458571199753500,10.96275341796875,-0.41954320669174194,-0.038476284593343735,-0.5163182020187378
1772458571209820400,10.9728203125,-0.4443114101886749,0.09301009774208069,-0.4279713034629822
1772458571219888600,10.982888671875,-0.45427003502845764,0.18483775854110718,-0.34175440669059753
1772458571229956600,10.99295654296875,-0.4543454051017761,0.25769251585006714,-0.267820805311203
1772458571240024600,11.003024658203126,-0.4301937222480774,0.29166460037231445,-0.22195769846439362
1772458571250092500,11.013092529296875,-0.39183300733566284,0.2859955430030823,-0.19714049994945526
1772458571260159700,11.02315966796875,-0.3464239835739136,0.26799124479293823,-0.1829647570848465
1772458571270227700,11.033227783203126,-0.3080659508705139,0.22526293992996216,-0.1764485388994217
1772458571280295700,11.043295654296875,-0.2704232335090637,0.1662805825471878,-0.17088226974010468
1772458571290363600,11.05336376953125,-0.23170672357082367,0.08918793499469757,-0.1509184092283249
1772458571300430600,11.0634306640625,-0.1858188658952713,0.019634954631328583,-0.12985919415950775
1772458571310498800,11.073498779296875,-0.14433933794498444,-0.03490578755736351,-0.09485673904418945
1772458571320566500,11.08356640625,-0.08917594701051712,-0.05931631848216057,-0.045634862035512924
1772458571330634500,11.093634521484375,-0.04302416741847992,-0.07426890730857849,0.007703992538154125
1772458571340701700,11.10370166015625,-0.0016860472969710827,-0.09558936953544617,0.057976748794317245
1772458571350769400,11.113769287109376,0.03840118646621704,-0.13568246364593506,0.10600366443395615
1772458571360837600,11.123837646484375,0.07545001804828644,-0.188288152217865,0.1531866192817688
1772458571370905600,11.133905517578125,0.10168907791376114,-0.22229404747486115,0.19965292513370514
1772458571380972500,11.14397265625,0.12105078995227814,-0.22432976961135864,0.24313408136367798
1772458571391040500,11.15404052734375,0.1296038031578064,-0.22662967443466187,0.28166550397872925
1772458571401108500,11.1641083984375,0.12737393379211426,-0.2569769322872162,0.29162731766700745
1772458571411176700,11.1741767578125,0.11153904348611832,-0.3118495047092438,0.261029988527298
1772458571421243600,11.18424365234375,0.09511452913284302,-0.35723963379859924,0.2039312869310379
1772458571431311600,11.1943115234375,0.06587888300418854,-0.39229294657707214,0.1507226675748825
1772458571441379600,11.204379638671876,0.030788538977503777,-0.40175676345825195,0.09209157526493073
1772458571451447800,11.21444775390625,-0.022786272689700127,-0.38262566924095154,0.05493834987282753
1772458571461515800,11.224515869140625,-0.0835135355591774,-0.31750020384788513,0.03485838323831558
1772458571471582700,11.234582763671876,-0.1355288028717041,-0.19228768348693848,0.03080158866941929
1772458571481650700,11.244650634765625,-0.16365018486976624,-0.03574148565530777,0.027403926476836205
1772458571491718700,11.25471875,-0.17749781906604767,0.11466959118843079,0.02321663871407509
1772458571501786600,11.26478662109375,-0.1823011040687561,0.2299881875514984,0.024576183408498764
1772458571511853600,11.274853515625,-0.18049360811710358,0.30319076776504517,0.041317880153656006
1772458571521921500,11.284921630859374,-0.1705336570739746,0.32529741525650024,0.06005987524986267
1772458571531989500,11.294989501953125,-0.14717240631580353,0.3105805218219757,0.0960647463798523
1772458571542057700,11.3050576171875,-0.12276480346918106,0.28022047877311707,0.15859417617321014
1772458571552124700,11.315124755859374,-0.08605072647333145,0.25788694620132446,0.2344881296157837
1772458571562192600,11.325192626953125,-0.04565510153770447,0.20252300798892975,0.30472394824028015
1772458571572260600,11.335260498046875,-0.0030192257836461067,0.11097365617752075,0.35084083676338196
1772458571582328600,11.34532861328125,0.036006469279527664,0.010974087752401829,0.3599017262458801
1772458571592395800,11.355395751953125,0.05389705300331116,-0.07853288948535919,0.34609001874923706
1772458571602463700,11.365463623046875,0.055384162813425064,-0.11299632489681244,0.34597206115722656
1772458571612531700,11.37553173828125,0.048645298928022385,-0.09920887649059296,0.3429296612739563
1772458571622599700,11.385599609375,0.05692373588681221,-0.10280946642160416,0.30808672308921814
1772458571632668000,11.39566796875,0.07744339108467102,-0.14661261439323425,0.244979128241539
1772458571642734800,11.40573486328125,0.11251749098300934,-0.197554349899292,0.1457446813583374
1772458571652802800,11.415802734375,0.14363838732242584,-0.22688321769237518,0.027285151183605194
1772458571662870500,11.42587060546875,0.159505233168602,-0.24986523389816284,-0.09429401159286499
1772458571672938500,11.4359384765625,0.15681330859661102,-0.24962207674980164,-0.21102382242679596
1772458571683005700,11.446005615234375,0.13609445095062256,-0.189184308052063,-0.2974916100502014
1772458571693073700,11.45607373046875,0.10864605009555817,-0.05950354039669037,-0.3257461488246918
1772458571703141600,11.4661416015625,0.060862019658088684,0.15436267852783203,-0.26560717821121216
1772458571713209600,11.476209716796875,-0.01261113304644823,0.27670323848724365,-0.1979900449514389
1772458571723276500,11.486276611328124,-0.05374578759074211,0.28920891880989075,-0.1283574402332306
1772458571733344500,11.496344482421875,-0.04488331824541092,0.26319968700408936,-0.017903633415699005
1772458571743412700,11.506412841796875,-0.02051353082060814,0.2868266999721527,0.12779578566551208
1772458571753480700,11.516480712890624,0.007649131119251251,0.29517146944999695,0.25533774495124817
1772458571763547600,11.526547607421875,0.05879087746143341,0.31269213557243347,0.36151984333992004
1772458571773615600,11.53661572265625,0.11356304585933685,0.3553469181060791,0.4355749189853668
1772458571783683800,11.546683837890624,0.1613824963569641,0.37381914258003235,0.4632352888584137
1772458571793751800,11.556751708984375,0.18818029761314392,0.34844905138015747,0.44454604387283325
1772458571803819800,11.56681982421875,0.20640669763088226,0.3198848068714142,0.4217624068260193
1772458571813886700,11.57688671875,0.21067121624946594,0.2570163607597351,0.36711567640304565
1772458571823954700,11.58695458984375,0.20965522527694702,0.10980958491563797,0.26214852929115295
