time,seconds_elapsed,z,y,x
1772457451152554000,0.069553955078125,-0.19472762233018873,0.021916648253798483,-0.15909388929326088
1772457451162622000,0.0796220703125,-0.22958616974353788,0.030076866094768045,-0.15784429109096526
1772457451172691200,0.089691162109375,-0.28685996258258817,0.04482581467628479,-0.15188978486703708
1772457451182760000,0.099760009765625,-0.23572364958524702,0.08686141411215066,-0.13144049661890603
1772457451192829200,0.1098291015625,-0.07124795765578747,0.12626140434741973,-0.026349598333099855
1772457451202897200,0.119897216796875,0.1541489437043667,0.13486030586659908,0.09814722576090135
1772457451212966000,0.1299658203125,0.47921325699687,0.1085144429937005,0.2504065471932292
1772457451223035100,0.14003515625,0.8073609232574701,0.0604454086124897,0.366513783403486
1772457451233104000,0.150103759765625,0.8307102346628904,0.07182341945618391,0.34234530110228806
1772457451243171800,0.160171875,0.7015104387760162,0.13386691091507671,0.24961262033656237
1772457451253241000,0.170240966796875,0.7210054128408432,0.18279139308184383,0.2366847497023642
1772457451263310000,0.18031005859375,0.6925082171529531,0.18494652528911829,0.23812654600851235
1772457451273378000,0.1903779296875,0.6675742669045924,0.18506313740611074,0.2291461708910763
1772457451283447000,0.200447021484375,0.449248326843977,0.17348668138086795,0.1347682619352825
1772457451293516000,0.21051611328125,0.09235270500481128,0.18254852423667906,-0.025112128960015252
1772457451303585000,0.2205849609375,-0.1939320880383253,0.1779062513887882,-0.12262060929280705
1772457451313653000,0.230653076171875,-0.21121932292580603,0.13508242418467997,-0.12098489784975536
1772457451323722200,0.24072216796875,-0.02439034489095211,0.04979278943389654,-0.07185256791885476
1772457451333791000,0.250791015625,0.06099895084202289,-0.0034220834031701087,-0.018178096479712986
1772457451343859000,0.26085888671875,0.051339142093062395,0.009864683671295641,0.016888705123146063
1772457451353928200,0.27092822265625,0.040301030728220937,-0.0002516366735100746,-0.03860025012574624
1772457451363997000,0.280996826171875,-0.08960136047005653,0.01474251884073019,-0.11179930988326668
1772457451374066200,0.291066162109375,-0.2034177092641592,0.05675707548856735,-0.13563118064124136
1772457451384134100,0.301134033203125,-0.22519699487388134,0.08182692707628011,-0.10899389707371591
1772457451394203000,0.311202880859375,-0.21700141345858573,0.07638590506613255,-0.056973732180241494
1772457451404272000,0.321272216796875,-0.28898411512970923,0.07713146273642778,-0.08472804621211252
1772457451414340000,0.331340087890625,-0.5029290636271238,0.0727522247388959,-0.19168836423214525
1772457451424409000,0.3414091796875,-0.5367366406828165,0.079607789722085,-0.23993816200774162
1772457451434478000,0.35147802734375,-0.3863274680286646,0.04778875613510608,-0.17279650715962053
1772457451444546800,0.361546875,-0.2102706438988447,0.015531915652751922,-0.06967752086813561
1772457451454615000,0.371614990234375,-0.021267828956246376,0.029518647690117358,0.03518260543567594
1772457451464684000,0.38168408203125,0.090779172077775,0.04165302985906601,0.10562248441185802
1772457451474753000,0.3917529296875,0.07667875053286552,0.051859951096773146,0.08860224816380068
1772457451484821000,0.401821044921875,-0.015671616384387015,0.09661620766818522,0.050680454422044566
1772457451494890000,0.411889892578125,-0.010506196445226669,0.11881313416808843,0.03839265352336224
1772457451504959200,0.421959228515625,0.06398644222021102,0.11218319463431835,0.05503523383175488
1772457451515028000,0.432028076171875,0.13717851968109607,0.09182108234614134,0.08454260664260946
1772457451525096000,0.442095947265625,0.22447218773066996,0.09188421071022748,0.10632439473667181
1772457451535165200,0.452165283203125,0.31003274837732314,0.08968845423161984,0.13967251932076177
1772457451545234000,0.46223388671875,0.3104828302323818,0.0980593922138214,0.13871371162543072
1772457451555302100,0.47230224609375,0.1964332572042942,0.10979863758534192,0.09570043539698235
1772457451565371100,0.48237109375,0.13174246610701085,0.10455489171296357,0.03947303263859357
1772457451575440000,0.49243994140625,0.1110217496395111,0.0855006471529603,-0.005081219104293268
1772457451585509000,0.502509033203125,0.032951252487301824,0.05208645332902669,-0.05743147218537051
1772457451595577000,0.5125771484375,0.05120879371166229,0.033766952784359455,-0.0857092849349603
1772457451605646000,0.52264599609375,0.13909165982604027,-0.0018631635233759879,-0.08268311464735306
1772457451615715000,0.532715087890625,0.1128559793293476,-0.008152326795458794,-0.12007297063660807
1772457451625783000,0.542782958984375,0.06717734721601008,-0.01684299825131893,-0.1206667626781389
1772457451635852000,0.55285205078125,-0.001381225225329399,0.0062926704034209245,-0.12588230536933986
1772457451645921000,0.562921142578125,-0.0330699104309082,0.02921528082937002,-0.08921395032135769
1772457451655990000,0.572989990234375,-0.011478840869665146,0.050744391070306295,-0.05260294691722374
1772457451666058000,0.58305810546875,0.05217150126397609,0.060546238638460634,-0.027099571883608585
1772457451676127000,0.593126953125,0.05198211617171764,0.04714432075172662,-0.023152606089808975
1772457451686196000,0.603196044921875,0.007564882296323776,0.04849778118729591,-0.035120420069794635
1772457451696264000,0.613263916015625,-0.02540332132577896,0.06680033059716224,-0.046961639394890516
1772457451706333000,0.6233330078125,-0.06354103654026985,0.05553951639235019,-0.05517212155179586
1772457451716402200,0.633402099609375,-0.07104220595061779,0.0790671069741249,-0.023732378739141857
1772457451726471000,0.643470947265625,0.025893150669336316,0.0960009983792901,0.024515014733525457
1772457451736539100,0.6535390625,0.12845686856508254,0.08272504495978356,0.10208514059856534
1772457451746608000,0.663608154296875,0.10098258618414402,0.10522416927665472,0.08708611711296252
1772457451756677000,0.673677001953125,0.047376083680987356,0.10272300011068582,0.05529200333810877
1772457451766745000,0.6837451171875,0.08157236779332161,0.11201251424252986,0.055503107071830884
1772457451776814000,0.69381396484375,0.041247956189513206,0.09095043699145317,0.03795349035453983
1772457451786883000,0.703883056640625,-0.11000000537633896,0.07718962266445159,-0.008424729979073163
1772457451796952000,0.7139521484375,-0.10093582443296908,0.09511281736791133,-0.019690081078396177
1772457451807020000,0.72402001953125,0.05532908851206302,0.034275194567441936,-0.026833434043999294
1772457451817089000,0.734089111328125,0.06556231323480606,0.005416179829835891,-0.030835511575499547
1772457451827158000,0.744157958984375,-0.04778758709132671,0.003995207116007805,-0.11787278457805514
1772457451837226000,0.75422607421875,-0.0306692790299654,0.0031648937717080115,-0.12352895630938
1772457451847295000,0.764294921875,0.048149406141042704,-0.022395956203341484,-0.06085053708096966
1772457451857364200,0.7743642578125,0.09989479094743728,-0.042028585173189636,-0.04503263952711131
1772457451867433000,0.784432861328125,0.1559077700704336,-0.020141163013875484,-0.021100046057731376
1772457451877501000,0.7945009765625,0.25561200688183305,-0.011942951250076293,0.0023168872238020412
1772457451887570200,0.804570068359375,0.3001829700142145,0.005997779110074043,-0.007541444338520523
1772457451897639000,0.814638916015625,0.17415654346644877,0.03511164539158344,-0.00922592226016568
1772457451907707000,0.824706787109375,0.1281049863874912,0.05120879371166229,-0.016489378491078968
1772457451917776100,0.834776123046875,0.1614630661100149,0.05175707524418831,0.005076903688779566
1772457451927845000,0.84484521484375,0.1887035397350788,0.07501373993009329,0.01535521194555331
1772457451937914000,0.8549140625,0.162356215557456,0.08648059810101985,-0.004034899805579334
1772457451947982000,0.864982177734375,0.17169219917953013,0.09233838421851397,0.0022663443466532044
1772457451958051000,0.875051025390625,0.1581178473353386,0.07896335433870554,-0.02767348561431281
1772457451968120000,0.8851201171875,0.048397827944159505,0.0885723096832633,-0.03921298432976473
1772457451978188000,0.89518798828125,0.03688917645812034,0.09940086995065212,-0.05741345247149002
1772457451988257300,0.90525732421875,0.11765841117501258,0.0848228940218687,-0.014114085885725216
1772457451998326000,0.915325927734375,0.1752279720902443,0.06223024620264768,0.04175998366514686
1772457452008395000,0.92539501953125,0.21758359726071355,0.030416765573620795,0.05399467983683571
1772457452018463200,0.935463134765625,0.19504209510684012,0.02410188333839178,0.01599572806399665
1772457452028532000,0.945531982421875,0.013949030375480651,0.011007131704688072,-0.05883980461333412
1772457452038601200,0.955601318359375,-0.18607026862204074,0.029934827275574206,-0.13141104219555855
1772457452048669200,0.965669189453125,-0.22777999710440636,0.006294131708145141,-0.1756841366262175
1772457452058738000,0.975738037109375,-0.11330255405306816,-0.009098667734861373,-0.13220202817646787
1772457452068807200,0.98580712890625,-0.04897299748361111,-0.027054011142253875,-0.047635328272217885
1772457452078876000,0.9958759765625,0.056101241928339,-0.027659283559024334,0.01178978939031367
1772457452088943900,1.00594384765625,0.11048106689155102,-0.038381753103435036,-0.0002691643386904616
1772457452099013000,1.01601318359375,0.02574702019691467,-0.04084989678263664,-0.05204459608183242
1772457452109081900,1.026081787109375,-0.036247371423244475,-0.03565758883655071,-0.09161335787959396
1772457452119150000,1.036150146484375,-0.03572188624441623,-0.01166471883058548,-0.10381972757251932
1772457452129219000,1.046218994140625,0.07475918064713477,-0.01812310118973255,-0.053412975525320504
1772457452139288000,1.0562880859375,0.17816987076103685,-0.005013151986896992,0.02861720762165496
1772457452149357000,1.066357177734375,0.14306523963212966,0.004504033420979977,0.04710896631055511
1772457452159425000,1.076425048828125,0.014218494966626166,0.06567454143762588,0.027772443343605846
1772457452169494300,1.086494384765625,0.01203589023053646,0.07840981210917233,0.018813171521347247
1772457452179563000,1.09656298828125,0.08088613909482956,0.08079290785342455,0.03467999880893621
1772457452189631000,1.106630859375,0.13664426667392254,0.07729191399514675,0.06906189602070953
1772457452199700200,1.1167001953125,0.2350835981160402,0.08211597315073013,0.06702749954969622
1772457452209769000,1.12676904296875,0.27070085494220253,0.0758846775457263,0.07131872133705765
1772457452219837200,1.136837158203125,0.1611240434139967,0.09124328245818615,0.0769294190919958
1772457452229906200,1.14690625,0.09710662153363227,0.11479454617649316,0.01938123660822166
1772457452239975000,1.156974853515625,0.06554945375323296,0.11040858617722987,0.017506958035787102
1772457452250044200,1.167044189453125,0.0761567724853754,0.08231821772456169,0.029347974148194768
1772457452260112100,1.177112060546875,0.11344283930659294,0.0702463793978095,0.03777046878769761
1772457452270181000,1.18718115234375,0.13870061468183995,0.0558048893302679,0.06609110461557284
1772457452280250000,1.19725,0.16416881793737412,0.0694774408519268,0.10868090386809781
1772457452290318000,1.207318115234375,0.15552257014513016,0.07211071196496487,0.09889799846243112
1772457452300387000,1.217386962890625,0.06983925990164279,0.07035217785984277,0.04862288257142063
1772457452310456000,1.2274560546875,-0.10614800612330436,0.08540800043344497,-0.026029373952385502
1772457452320525000,1.237525146484375,-0.15975392410457134,0.06156096863895654,-0.11373358414778485
1772457452330593000,1.247593017578125,-0.1183762040555477,0.02758095762580633,-0.10091951261898502
1772457452340662000,1.257662109375,-0.07082067215442657,0.024391806195676324,-0.0523299021295039
1772457452350731000,1.26773095703125,0.01568447586596012,-0.004109188884496688,-0.009227817389729899
1772457452360799000,1.277799072265625,0.11655132671594619,0.027559914837777613,0.02972917831839295
1772457452370868000,1.287867919921875,0.16883213357329369,0.017511106771230696,0.07233467061368283
1772457452380937200,1.297937255859375,0.1201192483305931,0.040680677695572376,0.0384425981788896
1772457452391006000,1.308005859375,-0.009344751450419426,0.08421148412525653,-0.019173904867318924
1772457452401074200,1.31807421875,-0.1243587855964899,0.08885434149503707,-0.08201233924631961
1772457452411143200,1.32814306640625,-0.137460259231925,0.0633387919664383,-0.09279202800383791
1772457452421212000,1.3382119140625,-0.002977554506063461,0.043193537299335,-0.03219381714954506
1772457452431280000,1.348280029296875,0.12128536950051784,0.026464813077449797,0.016530073544359765
1772457452441349000,1.35834912109375,0.1426011292517185,0.019020050029456614,0.028501255375077014
1772457452451418000,1.368418212890625,0.12395897262394427,0.03420534420162439,0.009581286452920175
1772457452461486000,1.378486083984375,0.07127133853137493,0.05950257480442524,-0.014875561502715571
1772457452471555000,1.38855517578125,0.07578618560731411,0.062389236156642436,0.015477345054456963
1772457452481624000,1.3986240234375,0.10148936666250229,0.05544686967283487,0.03916245058577042
1772457452491693000,1.408693115234375,0.07881167090833187,0.05642915870845318,0.011506299698748624
1772457452501761000,1.418760986328125,0.046779286831617355,0.048053252290189266,-0.010850219543348066
1772457452511830000,1.428830078125,0.08196575102508068,0.0665104077398777,-0.011807228007237425
1772457452521899000,1.43889892578125,0.1494154854416847,0.0791670602172613,0.010808444494544527
1772457452531967200,1.44896728515625,0.13909984313249588,0.05503010556548833,0.002321949274698272
1772457452542036000,1.459035888671875,0.12644260613322258,0.05916647471785545,0.03157230141744949
1772457452552105200,1.469105224609375,0.16217559829354286,0.06105126555114984,0.060922647902532476
1772457452562174200,1.47917431640625,0.1782639787852764,0.053825990472733974,0.048077322718943466
1772457452572242000,1.489241943359375,0.08035948487222194,0.06042231999784708,0.002413751177419908
1772457452582311200,1.499311279296875,0.051259062594175335,0.0838359288111329,0.007748650498548522
1772457452592380200,1.509380126953125,0.11892916176319121,0.05516834499239921,0.038585121055273335
1772457452602448000,1.51944775390625,0.14768003995120524,0.039892449927330015,0.0488487865820527
1772457452612517000,1.52951708984375,0.14172960711419583,0.04033288717120886,0.05376092131331097
1772457452622586000,1.539586181640625,0.10803484278321265,0.0670268328294158,0.041740032289084045
1772457452632655000,1.549655029296875,0.010009352838993072,0.08604308346658944,0.03237504633481148
1772457452642723000,1.55972314453125,-0.06719605191648007,0.1187117196202278,0.005357969669462182
1772457452652792000,1.5697919921875,-0.059059507212042804,0.13756108925789595,-0.006988867940078489
1772457452662861000,1.579861083984375,0.02798223190307617,0.12945523195266723,-0.008579502698965371
1772457452672929000,1.589928955078125,0.1541571270108223,0.07923164988607168,0.004199264621012844
1772457452682998300,1.599998291015625,0.24124212074577808,0.05251227752566337,0.03212428644413594
1772457452693067000,1.61006689453125,0.27488836975991726,0.02635609200596809,0.004785060585755854
1772457452703136000,1.620135986328125,0.22836977969110012,0.04666442828029394,0.020754650703142394
1772457452713204200,1.630204345703125,0.07484218275547028,0.04426496592313051,-0.03286407196077052
1772457452723273000,1.64027294921875,-0.005749941828846931,0.02906155157238245,-0.12037693115239963
1772457452733342200,1.65034228515625,-0.01933130793571472,0.012541209404170512,-0.13826785842091777
1772457452743410200,1.66041015625,-0.018477905976772308,-0.0034799510702490806,-0.12172323119482024
1772457452753479000,1.67047900390625,0.015275895065069198,-0.026210253794491288,-0.11423285717312245
1772457452763548200,1.680548095703125,0.07474339855611324,-0.03225567143857479,-0.07441778333093971
1772457452773616000,1.6906162109375,0.12444821744561195,-0.049988019745051855,-0.05350329329043161
1772457452783684900,1.700684814453125,0.06749766521155834,-0.04373422004729509,-0.05806472402103245
1772457452793754000,1.710754150390625,0.038757308417558665,-0.015287877763807772,-0.03667223663865588
1772457452803823000,1.720822998046875,0.004843348377943039,0.007717150248587131,0.01419975373353809
1772457452813891000,1.73089111328125,-0.05407996523380279,0.05379413402974605,0.037954650265164674
1772457452823960000,1.7409599609375,-0.07237842299044132,0.07089023025929928,0.041295302462577815
1772457452834029000,1.751029052734375,-0.05402677374184131,0.07512304552346467,0.061477080614631995
1772457452844097000,1.761096923828125,0.00008124854266643523,0.061873395588994025,0.07975212096306494
1772457452854166800,1.771166748046875,0.05694178440570831,0.06794102506488561,0.09087158133527264
1772457452864235500,1.781235595703125,0.056928924924135205,0.06929945393651724,0.10134844208816066
1772457452874304800,1.7913046875,0.040084173107147215,0.0695671649619937,0.08585864854408427
1772457452884372700,1.801372802734375,-0.001384147834777832,0.08370528816878794,0.08085026406385004
1772457452894441700,1.811441650390625,-0.05962240179181098,0.10097381835579872,0.06795161039098166
1772457452904510700,1.8215107421875,-0.07285071667730808,0.07968786922097205,0.04834565023235045
1772457452914578700,1.83157861328125,-0.05122048414945602,0.0737953040510416,0.02947924726149067
1772457452924647700,1.841647705078125,-0.0037999768048524855,0.06998334454745053,0.0321821678109467
1772457452934716700,1.851716552734375,0.02899520833790302,0.02971533930599689,0.04156695901080966
1772457452944784600,1.86178466796875,0.021606851652264593,0.048208442851901054,0.026691333576012402
1772457452954854000,1.87185400390625,-0.0023597148686647414,0.05281593664735555,0.015557451952807604
1772457452964922600,1.881922607421875,0.11317980445623398,0.04846095630824566,0.03687026169509627
1772457452974991600,1.89199169921875,0.2035305219888687,0.030384032347798344,0.06157782844221219
1772457452985059800,1.902059814453125,0.2032078659057617,0.04463876767158508,0.04180095956292935
1772457452995128600,1.912128662109375,0.23006606221497058,0.050853696663677686,0.03326295791813172
1772457453005197800,1.92219775390625,0.18105156367719172,0.039435938331484795,-0.01166955026932992
1772457453015265800,1.932265869140625,0.09270108005106449,0.06458119324296713,-0.0688813746549189
1772457453025334500,1.94233447265625,0.039459903728961944,0.08412731297314166,-0.07527889367230237
1772457453035403800,1.95240380859375,0.08339490704536437,0.0817445094898343,-0.04889989571478218
1772457453045472500,1.962472412109375,0.20066227307617662,0.061115855219960206,0.033477203457010905
1772457453055540500,1.97254052734375,0.3072071695625782,0.0465811339110136,0.07350140827153809
1772457453065609700,1.982609619140625,0.3117436439484358,0.046541386422514916,0.07295103524662554
1772457453075678500,1.992678466796875,0.20680150648355483,0.06687310357242822,0.04547489883531816
1772457453085746700,2.00274658203125,0.08124854266643523,0.06205196702629327,-0.05287606933675706
1772457453095815700,2.012815673828125,-0.07602350149452686,0.04572890099585056,-0.12654916264708152
1772457453105884700,2.022884765625,-0.09552490530014038,0.05276596002578735,-0.13880470524397678
1772457453115952600,2.03295263671875,0.03045709758400917,0.009824643921852111,-0.07993568823589012
1772457453126021600,2.043021728515625,0.12852233501672744,0.002051964093744755,-0.0016069237399846314
1772457453136091000,2.0530908203125,0.20640403159856796,0.002526011346280575,0.05808520968663506
1772457453146159600,2.06315966796875,0.19918167912960053,0.01223112054169178,0.07850580156324431
1772457453156227600,2.0732275390625,0.08362170153856277,0.0460363595098257,0.03292044635708444
1772457453166296800,2.083296875,-0.057603463184833524,0.09272826031893491,0.03120375123284757
1772457453176365600,2.093365478515625,-0.06863397576510906,0.07646130838990212,0.022086378797516227
1772457453186433500,2.10343359375,0.03370470120310783,0.05407967297285795,0.03707308165766299
1772457453196502800,2.113502685546875,0.11691840646266936,0.05861819318532943,0.0593502429200802
1772457453206571500,2.123571533203125,0.14069091171622275,0.05092267024666071,0.08876722946716473
1772457453216640800,2.133640869140625,0.09783259772062301,0.062246612815558905,0.07115589545816182
1772457453226708700,2.143708740234375,0.006347907721996307,0.07860825729072093,0.004259958999417722
1772457453236777500,2.153777587890625,-0.09152969818413258,0.06959989818781614,-0.039842518971534444
1772457453246846700,2.1638466796875,-0.061624973785877224,0.07280103231668472,-0.028897775845415887
1772457453256914700,2.173914794921875,0.02134206323623657,0.021726970900595187,0.008781281481916084
1772457453266983700,2.183983642578125,0.07584054614305495,0.0014922843843698502,0.024526200564531607
1772457453277052700,2.194052734375,0.1547054085433483,0.020313596971333024,0.047234976443555204
1772457453287120600,2.20412060546875,0.15520342119336128,0.021581424950063228,0.0686862174089998
1772457453297189600,2.214189697265625,0.10458733267784118,0.01940846482515335,0.03574541325047612
1772457453307258600,2.224258544921875,-0.021739538121223447,0.039328678564727305,-0.03295405636574141
1772457453317327600,2.23432763671875,-0.10245207421481609,0.04170885169953108,-0.10483573621464892
1772457453327395600,2.2443955078125,-0.08683949454128742,0.03842997615933418,-0.09854473717850633
1772457453337464600,2.254464599609375,0.0072784665703773494,0.03797200325876474,-0.056467317028064276
1772457453347533800,2.264533935546875,0.12364508436918258,0.04770663080960512,0.024442750931624322
1772457453357601500,2.2746015625,0.2403904723525047,0.04350216485708952,0.06832923893118277
1772457453367670800,2.2846708984375,0.30823242095708847,0.02134732393324375,0.07169166456898673
1772457453377739800,2.29473974609375,0.26431378425359725,0.03450315810441971,0.06796570284841581
1772457453387808500,2.30480859375,0.22892741357386112,0.05212678533941507,0.04915483859023079
1772457453397876700,2.314876708984375,0.21716566410958765,0.07081511919647455,0.058299555690214035
1772457453407945700,2.32494580078125,0.1737590685814619,0.10422522136718033,0.07285243371035903
1772457453418014700,2.3350146484375,0.09687339729964732,0.10023556720912456,0.04874074136400595
1772457453428082700,2.345082763671875,0.020311551144719123,0.10004150594174861,-0.002727543534059077
1772457453438151700,2.355151611328125,-0.05534194799363613,0.07958090171515941,-0.05212252928940579
1772457453448220700,2.365220703125,-0.05256079284250736,0.036141572961211205,-0.08110805648351088
1772457453458288600,2.37528857421875,-0.006844751328229904,-0.009589958383142947,-0.05829139065006748
1772457453468357600,2.385357666015625,0.04319792121350765,-0.045945758616924286,-0.01306404596818611
1772457453478426600,2.395426513671875,0.03250818489491939,-0.04029313968271017,-0.02432533509703353
1772457453488495600,2.40549560546875,-0.039788405030965805,-0.02855301752835512,-0.037844230426941065
1772457453498563800,2.415563720703125,-0.08745616513490677,-0.034250060126185415,-0.05544741766210645
1772457453508632600,2.425632568359375,-0.04444470640420913,-0.035085341906547544,-0.03580992985405028
1772457453518701600,2.43570166015625,0.003796469673514366,-0.03453530680835247,-0.020162242334522306
1772457453528769800,2.445769775390625,0.052368485140800475,-0.027449440200626847,-0.010689151796698569
1772457453538838500,2.455838623046875,0.09431669855415821,-0.01929039140343666,0.006186945006623864
1772457453548907800,2.46590771484375,0.1611158601075411,-0.00241641349196434,0.023715276907291263
1772457453558976800,2.475976806640625,0.1767255171716213,0.0423591323018074,0.05710011677257716
1772457453569044500,2.48604443359375,0.17609715614020824,0.0824418441042304,0.08043465073397382
1772457453579113700,2.49611376953125,0.1320008247822523,0.08757482307851314,0.052529466122481966
1772457453589182700,2.5061826171875,0.034325463449954983,0.10271306323856115,0.005635010212287307
1772457453599250400,2.51625048828125,-0.037827918612957,0.10492957024425267,-0.018276629517320543
1772457453609319700,2.526319580078125,0.002052256354689598,0.10826455988585948,-0.02401741992533207
1772457453619388700,2.536388671875,0.04811082769632339,0.07331365801393985,0.007616466353088617
1772457453629456600,2.54645654296875,0.05079962838888168,0.07304039403051138,0.014361775894835591
1772457453639525600,2.556525634765625,0.09072071988880634,0.07335808167755603,0.026234182659350333
1772457453649594600,2.5665947265625,0.12072539753019809,0.05517945090830326,0.024027301998529583
1772457453659663600,2.57666357421875,0.09503098430335521,0.04657587321400642,0.013975516523607075
1772457453669731600,2.586731689453125,0.06829319950342178,0.044995033763349054,0.015587627895362674
1772457453679800800,2.59680078125,0.07801262948513031,0.05118044440001249,-0.003914104703813791
1772457453689869600,2.60686962890625,0.15087269851267338,0.03630933074355125,0.013309746091254055
1772457453699937500,2.6169375,0.20058160905539987,0.02901478982120752,0.038518640823476016
1772457453710006800,2.6270068359375,0.13876023591458797,0.06106617085933685,0.04577474943157285
1772457453720075500,2.637075439453125,0.08509937287569046,0.09551116903573274,0.01800489990385249
1772457453730143500,2.6471435546875,0.08838263233006,0.06666939769387245,0.012634641574975103
1772457453740212700,2.657212646484375,0.08191139048933982,0.0423699459567666,0.010484075944963842
1772457453750281500,2.667281494140625,0.1162543895959854,0.054392099922895426,-0.007370766230020672
1772457453760350700,2.677350830078125,0.13045593342781067,0.05296791233867407,0.02413220541141927
1772457453770418700,2.687418701171875,0.11889350592792033,0.042274084366858006,0.026273345625959336
1772457453780487700,2.69748779296875,0.04774491699337959,0.03229103501290083,0.02720858064945787
1772457453790556700,2.707556640625,-0.012810381734371185,0.048259296256303784,0.01848501157099381
1772457453800624600,2.717624755859375,-0.031081951484084127,0.0395554730579257,-0.004841448681801557
1772457453810693600,2.727693603515625,-0.09562076689004897,0.04136573735028505,-0.05066283200038597
1772457453820762600,2.7377626953125,-0.15398352400958537,0.06931260567903519,-0.04920222139591351
1772457453830831900,2.747831787109375,-0.12010814241468906,0.05380670125037432,-0.014851568705774842
1772457453840899600,2.757899658203125,-0.08251637064516544,0.041082536494731904,-0.012662388098426163
1772457453850968800,2.76796875,-0.043968905586004255,0.06382014574259519,-0.002334964019898325
1772457453861037800,2.778037841796875,0.04373918848335743,0.05238251366615295,0.009292290610820054
1772457453871105800,2.788105712890625,0.13258768475949764,0.02919657612890005,0.015426372919045387
1772457453881174800,2.7981748046875,0.13781740210652352,0.0457642645701766,0.06554936242168768
1772457453891244000,2.808244140625,0.11868366256952285,0.09144669607579707,0.08105217984411865
1772457453901312000,2.81831201171875,0.09677344405651092,0.12044073536992073,0.05559058899246156
1772457453911380700,2.828380615234375,0.07822130379974841,0.12282967633306979,0.028500721085537223
1772457453921450000,2.838449951171875,0.08611761000752449,0.10658172136545181,0.006321659035887568
1772457453931518700,2.848518798828125,0.12309563379287719,0.08596563431620598,-0.009593355916626752
1772457453941586700,2.858586669921875,0.13390753518640994,0.051643385736644266,-0.025968864520359784
1772457453951656000,2.868656005859375,0.17637188142836094,0.03490297107696533,0.006719773241691291
1772457453961724700,2.878724609375,0.27891338749229905,0.018603578183054924,0.019755963088572023
1772457453971793000,2.88879296875,0.34073885228633877,-0.005015490074455738,0.0517499696499668
1772457453981862000,2.89886181640625,0.2624544201225042,0.004204173691570758,0.043018052868265655
1772457453991930600,2.9089306640625,0.14427227733433245,0.04284779260158539,0.016257416915707288
1772457454001998800,2.918998779296875,0.051336219483613964,0.06328998438864945,-0.0021875549058429896
1772457454012067800,2.92906787109375,-0.028080431580543515,0.08201543538570404,-0.032827717439178374
1772457454022136800,2.93913671875,-0.08419745559990406,0.08554916246980428,-0.053384895641729234
1772457454032205800,2.949205810546875,-0.059818216624855994,0.08207827148884535,-0.051931609827186906
1772457454042273800,2.959273681640625,-0.0006938274830579757,0.06870879456698895,0.01841413829186931
1772457454052342800,2.9693427734375,0.052585927283763885,0.05141133054643869,0.007164777062833309
1772457454062411800,2.979411865234375,0.031686347118020056,0.07801818244308233,-0.014684212782233953
1772457454072479700,2.989479736328125,-0.07387304546236992,0.08902969806194305,-0.05022933595394715
1772457454082548700,2.999548828125,-0.06230535726547241,0.10168167436420916,-0.06121611899035051
1772457454092617700,3.00961767578125,-0.035890813070535654,0.09662935941070318,-0.05384025646010413
1772457454102687000,3.01968701171875,0.06124561907947063,0.08020634013712406,-0.029117409945465623
1772457454112755000,3.0297548828125,0.1893529435545206,0.06074234573245048,0.04502740166299045
1772457454122823700,3.03982373046875,0.21764555658102033,0.05905716912448406,0.08275600635362788
1772457454132893000,3.049892822265625,0.1831388913452625,0.0782353323251009,0.0710496951373294
1772457454142961000,3.0599609375,0.10409925689995288,0.06863134541660547,0.013771755846124141
1772457454153030000,3.07002978515625,0.018694179075956344,0.0741504010990262,-0.0661033613089472
1772457454163099000,3.080098876953125,0.01079495025873184,0.05521130735129118,-0.04543463075701147
1772457454173166800,3.090166748046875,0.09313128816187381,0.03613543548136949,0.0036243279770016667
1772457454183235800,3.10023583984375,0.1955091280966997,-0.0015209259569644927,0.057275254143774504
1772457454193304800,3.110304931640625,0.2339858660072088,0.00882218888103962,0.06683463472556322
1772457454203373800,3.120373779296875,0.1852273880571127,0.011944704815745354,0.050058966089412564
1772457454213441800,3.13044189453125,0.13828151248693465,0.03795651342868805,0.0383318678134121
1772457454223510800,3.1405107421875,0.0881038153886795,0.04378887284398079,0.002611735134664923
1772457454233579800,3.150579833984375,0.04412029675543308,0.057170624725520605,0.008993234599009156
1772457454243647700,3.160647705078125,0.006814356189966201,0.06399754813611506,-0.0014822379143908618
1772457454253716700,3.170716796875,-0.07293430330753325,0.02651917361319065,-0.040740426792483776
1772457454263785700,3.18078564453125,-0.10945113932192325,0.04550093745887279,-0.05384829363608733
1772457454273853700,3.190853759765625,-0.05681435863375663,0.032600539353489874,-0.054708892520796505
1772457454283923000,3.2009228515625,0.04667582645714283,-0.0018660861328244208,-0.032883466214407235
1772457454293991700,3.21099169921875,0.11967092004120349,0.03084405107498169,0.042439412730094044
1772457454304061000,3.22106103515625,0.15246902779340743,0.06870499517470598,0.0864929826585576
1772457454314129000,3.23112890625,0.13272037122845648,0.09709580787867307,0.0746007021497935
1772457454324198000,3.241197998046875,0.0038192660272121427,0.12355156086683272,0.016016849625483155
1772457454334267000,3.251266845703125,-0.12212532745599745,0.141294722828269,-0.027000454324111342
1772457454344334800,3.2613349609375,-0.06417933444380759,0.10153700519651174,-0.05946631618095562
1772457454354403800,3.27140380859375,0.030699089646339415,0.0693795334354043,-0.03334386853408068
1772457454364472800,3.281472900390625,0.0753594846278429,0.05255465536266565,-0.019987652952596545
1772457454374541800,3.291541748046875,0.033521745851635934,0.05017448222786188,-0.006435439874976873
1772457454384610000,3.301610107421875,-0.02185702702105045,0.06281155322194099,-0.02521360743995756
1772457454394678800,3.3116787109375,-0.03340250338613987,0.08154401848167181,-0.005900766742695122
1772457454404747800,3.321747802734375,0.033579613518714906,0.05767798972576856,0.010155410246178507
1772457454414816000,3.33181591796875,0.12812427560985087,0.039139877994358536,0.017451503804791716
1772457454424884700,3.341884765625,0.15323065981566905,0.002723287484049797,0.03602868717126548
1772457454434954000,3.3519541015625,0.14801847812533378,0.01536123526096344,0.011032320944871752
1772457454445022000,3.36202197265625,0.16942074711620805,0.02516658996045589,0.007768241115007549
1772457454455090700,3.372090576171875,0.23465105191767213,0.010654372744262218,0.012272621595859528
1772457454465160000,3.382159912109375,0.22381986130177972,0.019520693027973175,0.02385035626273602
1772457454475228700,3.392228759765625,0.15539982054829596,0.017253332617878914,0.005700659327022731
1772457454485296600,3.402296630859375,0.15729016433954238,0.012216799755394457,0.004613320748042315
1772457454495366000,3.412365966796875,0.16578385191857814,0.0182233466938138,-0.00292286517675966
1772457454505434600,3.4224345703125,0.1483224295079708,0.03670066814869642,-0.004531907808594406
1772457454515502800,3.4325029296875,0.14413725277781486,0.048994624793529507,-0.03206940988516435
1772457454525571800,3.44257177734375,0.10444529385864734,0.05121873058378696,-0.0071341261962428685
1772457454535640800,3.452640869140625,0.07664367921948433,0.0479731727913022,0.0030150917711667716
1772457454545708800,3.462708740234375,0.08463643153905868,0.04554740694910288,0.027242373321205375
1772457454555777800,3.47277783203125,0.12264379837214946,0.024805355432629583,0.04270429247766733
1772457454565847000,3.482846923828125,0.12828560365140437,0.025163959611952304,0.04932754654232412
1772457454575915800,3.492915771484375,0.10119009145498276,0.031249417005479334,0.024564897740259765
1772457454585983700,3.502983642578125,0.032087329134345054,0.030166005682945248,-0.023856804269831625
1772457454596053000,3.513052978515625,-0.04765373157858848,0.05095218860208988,-0.057241077879536896
1772457454606121700,3.523121826171875,-0.08760872534811497,0.05303045618087053,-0.060299862661957734
1772457454616189700,3.533189697265625,-0.07013327441215515,0.05219020596444607,-0.02437399654434994
1772457454626259000,3.543259033203125,0.022417583513259887,0.036548400196433066,-0.0022129633417353033
1772457454636327700,3.55332763671875,0.045008185505867,0.03747720547914505,-0.028994514218159018
1772457454646396000,3.56339599609375,0.02290624381303787,0.04033814786821604,-0.0392830675910227
1772457454656465000,3.57346484375,-0.03855097219049931,0.02846680054962635,-0.06858681215513497
1772457454666533600,3.58353369140625,-0.01826689357459545,0.010130933392047882,-0.056217251257132735
1772457454676603000,3.593602783203125,0.06708440823554992,0.004794248539209366,-0.006046038698591292
1772457454686670800,3.6036708984375,0.17891864330172538,-0.004468085324764251,0.033142993933428073
1772457454696739800,3.61373974609375,0.18143734812438486,0.019317279410362244,0.07201081352075561
1772457454706808800,3.623808837890625,0.14109656990766525,0.036059155374765395,0.06567410304620862
1772457454716876800,3.633876708984375,0.15293722982704638,0.03383504958450794,0.043406412865035236
1772457454726945800,3.64394580078125,0.18065934948921203,0.015362404304742812,0.03071540146032348
1772457454737014800,3.654014892578125,0.15158698426187037,0.028739772272109984,0.021412242395617065
1772457454747083800,3.664083740234375,0.11056582256555557,0.03460544943511486,0.0031222236737608908
1772457454757151700,3.67415185546875,0.1044821187376976,0.015042378570139407,-0.018796927064377814
1772457454767220700,3.684220703125,0.11816869878470897,0.029000176773965356,-0.011614194219745695
1772457454777290000,3.6942900390625,0.07492284677624703,0.057955637623369693,-0.021503847935516386
1772457454787357700,3.704357666015625,0.029668577554821968,0.06918927156031131,-0.03184555626772344
1772457454797427000,3.714427001953125,0.04074760545194149,0.07935352270007133,-0.03692921620756388
1772457454807496000,3.724495849609375,0.06835983499884606,0.060628363963961596,-0.004399330937489867
1772457454817563600,3.734563720703125,0.09729366853833198,0.03660363751500845,-0.0037074579495005307
1772457454827633000,3.7446328125,0.09555413139462471,0.02192716964781284,0.019307306005619466
1772457454837702000,3.754701904296875,0.08076748115122317,0.03420768228918314,0.022893658326100557
1772457454847771000,3.76477099609375,0.02918576247394085,0.032872342032194135,0.01131955865472555
1772457454857837800,3.774837890625,-0.012069792500138283,0.042428690406680104,-0.026485307876206933
1772457454867907000,3.784906982421875,0.02560673494338989,0.028241759622097014,0.002819203872885555
1772457454877976000,3.79497607421875,0.07584054614305495,0.03880202434211969,0.020926705634687095
1772457454888044000,3.8050439453125,0.08220189786851406,0.027927579106390474,0.03195579344285652
1772457454898113000,3.815113037109375,0.037031215277314185,0.0066124038770794865,-0.010093487458489835
1772457454908182300,3.825182373046875,-0.019155951368808745,-0.011621756471693515,-0.053051279773190615
1772457454918250000,3.83525,-0.07475859612524509,-0.012558452799916266,-0.09831996111245825
1772457454928319000,3.845319091796875,-0.03623509646356106,-0.013425006501376627,-0.0940817207545042
1772457454938388200,3.85538818359375,0.03807341780662536,-0.0385576941922307,-0.03881303892647847
1772457454948457000,3.86545703125,0.09968611663281916,-0.032866204552352424,0.004927428198512643
1772457454958525000,3.87552490234375,0.07847264821231364,0.007987199361622333,0.03042659284789115
1772457454968594200,3.88559423828125,0.11555647045969962,0.019420447523891923,0.07769656753959134
1772457454978663000,3.895662841796875,0.16399170780479908,0.02704495105296373,0.05108737755538895
1772457454988731100,3.905731201171875,0.17571838595569134,0.03213029149323702,0.017734668127726762
1772457454998800100,3.915800048828125,0.09033084378838539,0.03312982392460108,-0.03152142061358318
1772457455008868900,3.925868896484375,0.09097674047648906,0.05352057778537273,-0.07963060434209182
1772457455018937000,3.93593701171875,0.12193886497318744,0.04685352111160755,-0.0766434965563938
1772457455029006000,3.946006103515625,0.11881342642903327,0.05419423926323652,-0.026356110272277144
1772457455039075000,3.956074951171875,0.15313070657253264,0.053232116232812404,0.013402867734804749
1772457455049144000,3.96614404296875,0.1579781466037035,0.05286912813931703,0.02408211919199675
1772457455059212000,3.9762119140625,0.18421791875362395,0.031148586979508397,0.03879331131270155
1772457455069280300,3.9862802734375,0.18480127159953116,0.029381869567930697,0.0387430058975704
1772457455079348000,3.996347900390625,0.16379530844986437,0.04443915344625711,0.02680467602368444
1772457455089417000,4.0064169921875,0.07374620421230793,0.023525252494215963,-0.02888818603316322
1772457455099486200,4.016486328125,-0.0021539631634950635,0.02420943536609411,-0.0716100324338302
1772457455109555000,4.026554931640625,0.008480243575572966,0.013794716596603392,-0.05818982997173443
1772457455119623000,4.036622802734375,0.037331075006723405,-0.002686754865944385,-0.018205317846778778
1772457455129692200,4.046692138671875,0.06504033518731593,0.004090776444971561,0.009894384689815341
1772457455139761000,4.056760986328125,0.11503683049976825,0.011858195576071739,0.03335523017831146
1772457455149829000,4.0668291015625,0.14752455712854862,0.018540449818968772,0.04581997681278735
1772457455159898000,4.076898193359375,0.06379238095283508,0.010110182864964007,0.004707556636445224
1772457455169966800,4.086966796875,-0.005360065728425979,0.026994097648560998,-0.04953046696959063
1772457455180036000,4.0970361328125,-0.0017740239351987839,0.008407470600306987,-0.05771866879602894
1772457455190104000,4.10710400390625,0.0430389312595129,-0.0035828269228339194,-0.05049198721181601
1772457455200173000,4.117173095703125,0.12216624398827552,-0.008159341058135032,-0.02279052674518898
1772457455210242000,4.127241943359375,0.12846329830586908,0.0035749358773231503,-0.042225002794433385
1772457455220310000,4.13731005859375,0.12096797411441802,0.03238280494958162,-0.012350399539805948
1772457455230379000,4.14737890625,0.1100719015687704,0.022222060941159725,-0.03884487710315734
1772457455240448000,4.157447998046875,0.06912672771811484,0.024208266322314737,-0.0542167250896804
1772457455250516000,4.167515869140625,0.07493103008270263,0.023074586117267606,-0.04313068292988464
1772457455260585000,4.1775849609375,0.1109258880496025,0.008224222987890243,-0.02522394617088139
1772457455270654000,4.187654052734375,0.12252981660366058,0.007774433393776417,-0.0020405659168958664
1772457455280723200,4.19772314453125,0.07769406505525112,0.026374796706438063,-0.008210066598374395
1772457455290791000,4.207791015625,0.04055997392535209,0.030194062733650207,-0.053114024544786656
1772457455300860000,4.21785986328125,0.048260465300083155,0.03775456111580133,-0.024338523372169584
1772457455310929200,4.22792919921875,0.08349018411338328,0.012749006935954094,-0.039613779116421936
1772457455320997000,4.2379970703125,0.08075111453831195,0.009202128109335898,-0.02856954853804782
1772457455331066000,4.248066162109375,0.031159692895412445,0.02634966226518154,-0.022068861407134682
1772457455341135000,4.258135009765625,0.036866380104422565,0.03368921137303114,-0.026627492825873195
1772457455351203800,4.268203857421875,0.06381050113141537,0.016949381235241888,-0.03288943929746747
1772457455361272000,4.27827197265625,0.06592004063129425,0.013453355813026428,-0.039837851929571476
1772457455371341000,4.288341064453125,0.10053075076341629,0.03166092041581869,-0.049862840729113664
1772457455381410000,4.29841015625,0.10875555827319622,0.01957271547615528,-0.0032453933957032857
1772457455391478000,4.30847802734375,0.0836468359798193,0.03694295247197151,-0.0038513233995996414
1772457455401547000,4.318547119140625,0.03952069400548935,0.03879091842621565,0.00982436992721632
1772457455411616000,4.328615966796875,0.024644611912965773,0.010559387937188148,0.013012936835456639
1772457455421686000,4.33868603515625,0.09284662600159645,-0.0013303718209266662,0.011172880193032324
1772457455431755000,4.348755126953125,0.1275081895381212,0.03161006701141596,0.07123780158795416
1772457455441824000,4.358823974609375,0.14402970075011254,0.05613748228549957,0.11677720789369195
1772457455451892200,4.368892333984375,0.09544891745448111,0.07884674222171306,0.13076256995787844
1772457455461961000,4.3789609375,0.02916471968591213,0.09161533064097166,0.11041894317446276
1772457455472030000,4.389030029296875,-0.02071954742372036,0.09615998833328485,0.031884463506005704
1772457455482098200,4.39909814453125,-0.05666121389865875,0.05786766707897186,-0.013640475882962345
1772457455492167000,4.4091669921875,-0.04493687383532524,0.040409751799702645,-0.025542821128014474
1772457455502236200,4.419236083984375,-0.028303134420514107,0.05532236651033163,-0.013178721856418996
1772457455512304000,4.42930419921875,-0.003685410514473915,0.07888970458060503,0.0200015353474766
1772457455522372900,4.439372802734375,0.08048574160039425,0.08266688503175973,0.03445232296632603
1772457455532442000,4.449442138671875,0.12461655974984168,0.0828726367369294,0.04793178133498877
1772457455542511000,4.459510986328125,0.0785574038863182,0.0955567617431283,0.02644329536538571
1772457455552578800,4.469578857421875,0.04665478366911411,0.08417933542132378,-0.016617975590098647
1772457455562648000,4.47964794921875,0.1178314296543598,0.06504851849377155,0.012286796251684426
1772457455572717000,4.489717041015625,0.1804769786596298,0.02346621578335762,0.05952553555490449
1772457455582785000,4.499784912109375,0.19266309101581572,0.03604746493697166,0.11548269283743574
1772457455592854000,4.50985400390625,0.17320786443948744,0.06533201161026954,0.14576059792963786
1772457455602923000,4.519923095703125,0.12543196778595447,0.07414952431619166,0.10808909372109919
1772457455612991000,4.529990966796875,0.013607669591903685,0.08394348083883524,0.08521695310706272
1772457455623060000,4.54006005859375,-0.07319850720167159,0.090960081602633,0.021493454405665396
1772457455633129200,4.550129150390625,-0.06064414605498313,0.033198212985694406,-0.0420944900162518
1772457455643198000,4.560197998046875,-0.011906710892915725,-0.0069023267343640326,-0.0792817726381123
1772457455653266000,4.570265869140625,0.03198854493498802,-0.04832651627361774,-0.07653901326861232
1772457455663335200,4.580335205078125,0.06357026263475418,-0.034788989308476445,-0.0351339850875549
1772457455673404000,4.59040380859375,0.08460311379134655,-0.0195870362624526,0.013050857693050056
1772457455683472000,4.600471923828125,0.05759294179081916,-0.017333412116765975,0.0024768932412378487
1772457455693541000,4.610541015625,0.026545477098226546,-0.00034866730719804764,-0.0054618456024676555
1772457455703609900,4.62060986328125,-0.004542319604754447,0.023396657678484915,-0.048010034202970564
1772457455713678000,4.630677978515625,0.024022680622339247,0.007896890729665755,-0.02418492197934538
1772457455723747000,4.6407470703125,0.08246843985021114,0.01919832920581102,-0.006268851136416197
1772457455733816000,4.650816162109375,0.08654781811833381,0.04463409149646759,-0.009127893829345703
1772457455743885000,4.660885009765625,0.07665829226672649,0.03581920913904905,-0.014764018286485225
1772457455753953000,4.670953125,0.11841536702215671,0.038747371545434,0.003403049909137189
1772457455764022000,4.68102197265625,0.19990823983848094,0.03797960204333067,0.0190142230768688
1772457455774091000,4.691091064453125,0.2169377005726099,0.030862463514506815,0.021780966110154985
1772457455784159000,4.701158935546875,0.15695581781864165,0.049591713903844356,0.0053033488388173275
1772457455794228000,4.71122802734375,0.11082593480646609,0.08507862234860658,0.035270507481414824
1772457455804297000,4.721296875,0.09803250420689583,0.06798457194566726,0.05709175080303103
1772457455814365200,4.731365234375,0.09412672894001006,0.05505582452863454,0.0430439910271205
1772457455824434000,4.741433837890625,0.08378829027712345,0.07504881124347448,0.031838012282084674
1772457455834503000,4.7515029296875,0.08180442298352718,0.06539893936663865,0.03646585474582389
1772457455844572200,4.761572265625,0.0762567257285118,0.08550649237185716,0.04578733491851016
1772457455854640400,4.771640380859375,0.060868017938733095,0.089561320720613,0.07161993277333677
1772457455864709400,4.78170947265625,0.04511749109923839,0.08758183734118938,0.08509877008749171
1772457455874778600,4.791778564453125,0.05858136830627918,0.081476506203413,0.07387748417546972
1772457455884846300,4.801846435546875,0.06338146206438541,0.0618611206293106,0.03718280737614259
1772457455894915300,4.811915283203125,0.029658640682697295,0.03745411686450243,-0.004957805070467293
1772457455904984600,4.821984619140625,-0.01367547413110733,0.03277852626889944,-0.04190625570146367
1772457455915053300,4.83205322265625,-0.021122283005714414,0.01613455772101879,-0.10430833307337015
1772457455925121300,4.842121337890625,-0.011181319227814674,-0.01782148789465427,-0.10413485793629661
1772457455935190500,4.8521904296875,-0.004440612795948982,0.006653612670302391,-0.06617032559793443
1772457455945259300,4.86225927734375,0.046188919723033905,0.008626666308939457,-0.05234652903731912
1772457455955327500,4.872327392578125,0.08546469905674457,0.02870294739305973,-0.0324221323129721
1772457455965396500,4.882396484375,0.09993453843593597,0.035550329069793225,-0.031322865834180265
1772457455975465200,4.89246533203125,0.046371875074505804,0.03439472929388285,0.002659501532837748
1772457455985533400,4.902533447265625,0.06839315274655819,0.03504354859143495,-0.026182050613313912
1772457455995602400,4.9126025390625,0.11107084947824478,0.021194179198145865,-0.03446594963287934
1772457456005671400,4.92267138671875,0.09162614429593086,0.040948973242938516,-0.011089202231261879
1772457456015740400,4.932740478515625,0.1209820026397705,0.04103811283111572,-0.023269852961041032
1772457456025808400,4.942808349609375,0.1566664794832468,0.058250528916716574,0.016388349818997085
1772457456035877400,4.95287744140625,0.09263093742430209,0.061573535859584805,0.009393102370481937
1772457456045946400,4.9629462890625,0.1053010339051485,0.06040098494887352,-0.01851809185668826
1772457456056014300,4.973014404296875,0.10043313560783862,0.0738236533626914,0.0017469532651826739
1772457456066083300,4.983083251953125,0.08999649726748465,0.055172144384682174,-0.0005442081456072628
1772457456076152300,4.99315234375,0.09426701419353485,0.04537731107920408,-0.016809790101461112
1772457456086220500,5.003220458984375,0.07549567822813988,0.0445572268679738,-0.011042056887596845
1772457456096289300,5.013289306640625,0.07435176889002322,0.05726268692314625,0.0013162336977198719
1772457456106358300,5.023358154296875,0.15334756419360637,0.03857289176136255,-0.005891688387095928
1772457456116427500,5.033427490234375,0.20982290013134478,0.035441315737366676,0.006446911117061973
1772457456126495500,5.04349560546875,0.24803894127905368,0.032520459854602814,0.04572712916387245
1772457456136564500,5.053564453125,0.1655102956742048,0.05664192467629909,0.03655008069686591
1772457456146633500,5.063633544921875,0.053615854853391647,0.034708909809589385,-0.004015373121201992
1772457456156701400,5.073701416015625,0.008381459376215934,0.04131488394588232,-0.029549883078597485
1772457456166770400,5.0837705078125,0.009913491249084472,0.021239771905541417,-0.012517718930728733
1772457456176839400,5.09383935546875,0.08554010238051414,-0.0017217092260718345,0.022871282097510992
1772457456186907400,5.103907470703125,0.15361059904396532,-0.01965513306260109,0.019327070152014493
1772457456196976400,5.113976318359375,0.1362315942198038,0.011063538067042827,0.003482599685061723
1772457456207045400,5.12404541015625,0.036653029614686965,0.0318324775904417,-0.004033127973601221
1772457456217114400,5.1341142578125,-0.11237491781413554,0.05484042821228504,-0.020318656738940625
1772457456227182300,5.144182373046875,-0.17280805146694184,0.06094079091399908,-0.05292361653922125
1772457456237251600,5.15425146484375,-0.10245499682426452,0.06754355017989873,-0.01588672043979168
1772457456247320300,5.1643203125,0.008224807509779929,0.05820844334065914,0.007996734374947845
1772457456257388300,5.17438818359375,0.1445399883598089,0.044891281127929686,0.04814737858073786
1772457456267457500,5.18445751953125,0.1978928083628416,0.07823825493454933,0.11730685779098421
1772457456277526300,5.1945263671875,0.1937315970301628,0.09084376174658536,0.1642844984726049
1772457456287594200,5.20459423828125,0.1314174719363451,0.11867021856606005,0.12548194440752267
1772457456297663500,5.21466357421875,0.007879355072975158,0.12986059788316487,0.0842007252692245
1772457456307732200,5.224732177734375,-0.007533902636170387,0.10213993952572345,0.0488913105495274
1772457456317801500,5.234801513671875,0.04288169487118721,0.08585252933055162,0.01478396509597078
1772457456327869400,5.244869384765625,0.0371089566886425,0.08195873676240444,0.01364104213854298
1772457456337938400,5.2549384765625,0.004874328038096428,0.07500935601592064,0.02625305175660178
1772457456348007400,5.26500732421875,0.02622866623401642,0.06115910983979702,0.04174620630154386
1772457456358075400,5.275075439453125,0.019101590833067894,0.046154725192487235,0.048955041701812294
1772457456368144600,5.28514453125,0.008829787665605545,0.035928806993365286,0.053383964059967544
1772457456378213400,5.29521337890625,0.03402618824243545,0.00832242266535759,0.004075140484422445
1772457456388281300,5.30528125,-0.028573768055438993,0.0005818915411829948,-0.047652124143391844
1772457456398350600,5.3153505859375,-0.03644961599707603,-0.003801730370521545,-0.056016029596608126
1772457456408419300,5.32541943359375,0.036955811953544616,-0.01382277364730835,-0.02843454224783927
1772457456418488600,5.335488525390625,0.0681616820782423,-0.013164894260466098,-0.007529774450324475
1772457456428556500,5.345556640625,0.0902782368183136,0.016138649374246597,0.06123385557644069
1772457456438625300,5.355625244140625,0.15471066924035548,0.031037527820467946,0.0945438401072286
1772457456448694500,5.365694580078125,0.17903613220155237,0.05357084666788578,0.08541185462465509
1772457456458762500,5.375762451171875,0.18966800085306165,0.0707931996256113,0.049983142640534786
1772457456468831200,5.385831298828125,0.1806733780145645,0.06593290011286736,0.012481149780005215
1772457456478900500,5.395900390625,0.1574813029974699,0.07039601700156926,-0.010862407738063485
1772457456488969200,5.40596923828125,0.1452981132507324,0.07591478042304516,-0.030519477029424157
1772457456499037400,5.416037353515625,0.15960604006648063,0.05881342349648475,-0.0081216576625593
1772457456509106400,5.4261064453125,0.16971300806105136,0.051935062159597874,-0.017289572975039483
1772457456519175200,5.436175048828125,0.11776420963704586,0.04608545934855938,-0.02396402750397101
1772457456529243400,5.446243408203125,0.1624053153961897,0.03593377542942762,0.0001410341721959412
1772457456539312400,5.4563125,0.2013613612562418,0.03286766585707664,0.029658841612096875
1772457456549381400,5.46638134765625,0.2248193937331438,0.0017187866166234016,0.026719664621353147
1772457456559449300,5.476449462890625,0.19618951157629488,0.025468787777423858,0.023720026147644964
1772457456569518300,5.486518310546875,0.10385784935951232,0.02592354580760002,0.00970304510248825
1772457456579587600,5.496587646484375,-0.010944587862491606,0.03084872725009918,-0.04824044542536139
1772457456589656300,5.50665625,-0.08106149566173552,0.044621524275839326,-0.06432491692695766
1772457456599724300,5.516724365234375,-0.06069499945938587,0.029598142667114732,-0.06116329282457009
1772457456609793500,5.52679345703125,-0.028823358902335165,0.02500321609228849,-0.04200858356477692
1772457456619862300,5.5368623046875,-0.01168517709672451,0.019062720127403735,-0.013483166429400444
1772457456629930500,5.546930419921875,0.009995324313640594,0.04776099134534597,0.010182718378212302
1772457456639999500,5.55699951171875,-0.011741875720024109,0.04347761493772268,0.007452252234704792
1772457456650068500,5.567068359375,-0.02110065569579601,0.030880291432142257,-0.03064874769859016
1772457456660136400,5.577136474609375,-0.019758593437075613,0.016627894195914268,-0.05898227725736797
1772457456670205400,5.587205322265625,0.003644493982195854,0.030842882031202314,-0.05520907886158675
1772457456680274400,5.5972744140625,0.05135317061841488,0.023032792802155016,-0.01740607549417764
1772457456690343400,5.607343505859375,0.11015139654576778,0.025569033281505105,0.003867543882038444
1772457456700411400,5.617411376953125,0.13573650417923927,0.02516892804801464,0.015513704142626374
1772457456710480400,5.62748046875,0.08506196347475051,0.029693127474188803,0.007000124553032219
1772457456720549400,5.63754931640625,0.06665887629985809,0.035788814000785346,-0.014828480091132223
1772457456730617600,5.64761767578125,0.1090261919081211,0.034442367827892305,-0.02743811508901417
1772457456740686300,5.657686279296875,0.14712123702466487,0.04035889839529991,-0.022481387730780986
1772457456750755300,5.66775537109375,0.18169629132151602,0.06239069746136665,0.015489135956950485
1772457456760823600,5.677823486328125,0.200790283370018,0.04517331293970346,0.0345378823579289
1772457456770892300,5.687892333984375,0.14928279897272587,0.05233107573986053,0.029682277286611495
1772457456780961500,5.69796142578125,0.1044341879427433,0.0577700519233942,-0.0037413419527933
1772457456791030500,5.708030517578125,0.11841361345648765,0.05161737451255321,-0.016169811697490512
1772457456801098200,5.71809814453125,0.1165904896825552,0.024655717828869817,-0.03025963878314942
1772457456811167500,5.72816748046875,0.11679624138772488,0.028256957191228865,-0.03780713155325502
1772457456821236500,5.738236572265625,0.154295658698678,0.051365737839043135,-0.014275248388852923
1772457456831304200,5.74830419921875,0.08408873452842235,0.055199909174442285,-0.005046725462935864
1772457456841373400,5.75837353515625,0.00988134254515171,0.050018122622370716,-0.029827914568688718
1772457456851442200,5.768442138671875,-0.01592763697206974,0.052983986690640444,-0.02280471966732293
1772457456861510100,5.77851025390625,-0.01567453899383545,0.020837620845437048,-0.03448635310009122
1772457456871579100,5.7885791015625,-0.007412906605005264,0.014637889422476291,-0.020224548714701085
1772457456881648000,5.798648193359375,0.01961889270544052,0.023961598084867,-0.006625555619597435
1772457456891717000,5.808717041015625,0.02295592817366123,0.02207622272968292,0.005002447929792105
1772457456901785000,5.81878515625,0.029882512566447257,0.04568009341806173,0.03172697138935327
1772457456911854300,5.828854248046875,0.046181320938467975,0.028846155256032943,0.06654599050991236
1772457456921923000,5.838923095703125,0.013988193342089653,0.06731734020859002,0.06250729131205007
1772457456931991000,5.848990966796875,-0.0025070143848657605,0.06679302407354117,0.03293570785829797
1772457456942060300,5.859060302734375,0.0037941315859556196,0.06845686563253402,0.027034904582984742
1772457456952129000,5.86912890625,0.06275777720808982,0.08536328450888395,0.03841307982346043
1772457456962197000,5.879197021484375,0.07566635861992836,0.08972820172011851,0.043988834129180754
1772457456972266200,5.889266357421875,0.06336801806092261,0.09140285693407058,0.058743244337104254
1772457456982335000,5.8993349609375,0.12168693603873253,0.08456248952001333,0.06741290953755379
1772457456992404200,5.909404296875,0.16248890202641486,0.054453766982257366,0.05815243883710354
1772457457002472200,5.91947216796875,0.16325813283324242,0.05394143354594707,0.052463506480492646
1772457457012541000,5.929541015625,0.13675591035485266,0.039467210252583027,0.022592282493039965
1772457457022610200,5.939610107421875,0.08556815943121909,0.02972644522190094,-0.015473974920436739
1772457457032678100,5.94967822265625,0.08994272125363349,0.009648410572111606,-0.0007039104856550693
1772457457042747100,5.9597470703125,0.10629998181462287,0.004222586131095886,-0.016164277005847542
1772457457052816100,5.969816162109375,0.11402560763061045,-0.00457534509152174,-0.03642448155581951
1772457457062885000,5.979885009765625,0.060959203353524206,0.006217559340596199,-0.014814195837453007
1772457457072953300,5.989953369140625,0.026641338688135147,0.02388444119542837,-0.020711966905463487
1772457457083022000,6.00002197265625,-0.007551438292860984,0.01641600501090288,-0.03333871743492782
1772457457093091300,6.01009130859375,-0.02495323947072029,0.01687222434580326,-0.014649579860270023
1772457457103159300,6.0201591796875,-0.012860066094994545,0.012623334729671478,-0.029448505063354967
1772457457113228000,6.03022802734375,0.03407879521250724,-0.005600011964142323,0.0032825836009345946
1772457457123297300,6.04029736328125,0.08266308563947677,-0.0002495908468961716,0.03663290014211088
1772457457133365200,6.050365234375,0.1192699380248785,0.013299042034149168,0.07132664891518652
1772457457143434000,6.06043408203125,0.10741700314581394,0.039817046603560446,0.06317945495257153
1772457457153503200,6.070503173828125,0.07324643799662589,0.04392798905372619,0.040823739428073165
1772457457163572000,6.080572021484375,0.03609130407869816,0.055153439684212206,0.01951937785372138
1772457457173640200,6.09064013671875,0.012031798577308654,0.07072744091302156,0.01734924900671467
1772457457183709200,6.100709228515625,0.024531214666366576,0.07028378879874944,0.01890836981590837
1772457457193778000,6.11077783203125,0.012848375657200813,0.06324234585464,0.015027929919678717
1772457457203846100,6.12084619140625,0.011938275074958801,0.06938976256847382,-0.00936457039574161
1772457457213915100,6.1309150390625,0.0506026445120573,0.06067278762757778,-0.021531722323130813
1772457457223984000,6.140984130859375,0.10264145930707454,0.06755114896446467,0.009103818834014236
1772457457234052000,6.151052001953125,0.11102817938029766,0.0828597772553563,0.0323357326711528
1772457457244121000,6.16112109375,0.07332242584228515,0.07900134826153517,0.030813181012682614
1772457457254190000,6.171190185546875,0.07319733815789223,0.06889174991846084,0.03545574612151831
1772457457264259000,6.181259033203125,0.10115209753215312,0.03963292220830917,-0.012308039969112724
1772457457274327000,6.1913271484375,0.09591361235678196,0.010959200909733771,-0.04102145395725965
1772457457284396300,6.201396240234375,0.03371756068468094,0.014328677342832087,-0.049815859782230104
1772457457294465000,6.211465087890625,-0.0011374795973300934,0.042758653013408185,-0.07415831041084602
1772457457304533200,6.221533203125,-0.00023380875587463378,0.0495744705080986,-0.05882743375552818
1772457457314602200,6.231602294921875,0.012696984487771987,0.04303454734534025,-0.032911705928202716
1772457457324671200,6.241671142578125,0.06525310115516185,0.03257014421522617,0.0013116671204566955
1772457457334739200,6.2517392578125,0.13312310681045056,0.046696576984226704,-0.0002864522585645318
1772457457344808200,6.26180810546875,0.16886135966777802,0.044308805064857,-0.012009148354083298
1772457457354877200,6.271877197265625,0.1457253987520933,0.029414310532808303,-0.018457575574796645
1772457457364946200,6.2819462890625,0.13413257611393928,0.03161766579598188,-0.030751349556539204
1772457457375014100,6.29201416015625,0.1089870289415121,0.042563422702252864,-0.02806607426162809
1772457457385083100,6.302083251953125,0.09026596185863017,0.024618892949819563,-0.03944929100340232
1772457457395152100,6.312152099609375,0.1015273605853319,0.032678865286707874,-0.03630094650769606
1772457457405220400,6.322220458984375,0.1667044738948345,0.0029427754536271093,-0.011480795364733785
1772457457415289000,6.3322890625,0.19162030396461485,0.005665186154842377,0.02043042828403413
1772457457425358000,6.342358154296875,0.1611404100269079,0.03348433645069599,0.018888642202131448
1772457457435426300,6.35242626953125,0.14818155973255634,0.04594371279031038,0.009653799133282154
1772457457445495000,6.3624951171875,0.18013035717904566,0.02678834594339132,-0.017716255688201635
1772457457455564300,6.372564208984375,0.15400222871005534,0.021467443181574345,-0.003291387961897999
1772457457465633300,6.38263330078125,0.130994278088212,0.0034931028127670287,-0.008427801002282648
1772457457475701000,6.392700927734375,0.12522972321212292,0.017466683107614515,-0.008630575299076735
1772457457485770200,6.402770263671875,0.07380465640127658,0.03479629583209753,-0.031212774789519605
1772457457495839200,6.412839111328125,-0.01967149967551231,0.0511710920497775,-0.03276833366844803
1772457457505907000,6.422906982421875,-0.0477402408182621,0.04722410798966884,-0.013970968212652951
1772457457515976200,6.43297607421875,0.017407061874866486,0.048097675953805444,-0.005243636274524033
1772457457526045200,6.443045166015625,0.0281944133490324,0.06815817494690418,0.002103822145145386
1772457457536113200,6.453113037109375,0.03642331251204014,0.05403291122168302,0.008541070384718477
1772457457546182100,6.46318212890625,0.03908580971956253,0.06053630176633596,0.01364800160229206
1772457457556251100,6.473251220703125,0.012856558963656424,0.0685512659177184,0.013570552451908588
1772457457566320000,6.483320068359375,-0.03839724293351173,0.07330342888087034,0.008000040576886386
1772457457576388000,6.49338818359375,-0.11841770510971546,0.05584142194837331,-0.03656202686298638
1772457457586457300,6.503457275390625,-0.0592687660485506,0.046455461704730985,-0.028632201978098598
1772457457596526000,6.513526123046875,0.0943997006624937,-0.00495703788548708,-0.007961096805986017
1772457457606594000,6.523593994140625,0.1966506993472576,-0.007447393396496772,0.025463253085780888
1772457457616663300,6.533663330078125,0.22328034759759902,0.00459317300915718,0.09733633863627911
1772457457626732000,6.54373193359375,0.18487082970440386,0.04903729489147663,0.13394050587425008
1772457457636800000,6.553800048828125,0.1875485244810581,0.04927870243191719,0.09848956379201262
1772457457646869200,6.563869140625,0.09847732536494731,0.07709054620414972,0.04245771557176485
1772457457656938000,6.57393798828125,-0.03147650375962257,0.0892906870856881,-0.028447876653447744
1772457457667007200,6.58400732421875,-0.026412206107378003,0.07667348983585834,-0.07324579867580905
1772457457677075200,6.5940751953125,0.03745090199410915,0.03758066585361957,-0.06960367931379005
1772457457687144000,6.60414404296875,0.07380640996694564,0.042751054228842254,-0.03858920357534662
1772457457697213200,6.614213134765625,0.136579969266057,0.034709494331479074,0.0050618134342134
1772457457707281200,6.62428125,0.2236819141358137,0.032487142106890673,0.058515171202272176
1772457457717350100,6.63435009765625,0.24913316625654697,0.05265139373540878,0.06722290339078754
1772457457727419100,6.644419189453125,0.17215455599427223,0.059252983957529065,0.03227866872167215
1772457457737487000,6.654487060546875,0.048402504119277,0.061930386473238466,-0.014321516949683427
1772457457747556000,6.66455615234375,0.03244856366217136,0.028398996010422704,-0.043834520350303496
1772457457757625000,6.674625,0.04168576308488846,0.018783903186023233,-0.05461615446973592
1772457457767694300,6.6846943359375,0.009358195453882216,0.02751432213038206,-0.007113101674523204
1772457457777762000,6.694761962890625,0.06295125395357608,0.010800795477628708,0.045398993188049644
1772457457787831000,6.7048310546875,0.10816928281784056,0.013636895686388015,0.059352151749376206
1772457457797900300,6.714900390625,0.08254384317398071,0.009405833987891674,0.08016010810891167
1772457457807968300,6.72496826171875,0.05959785187244415,0.012546762362122535,0.06274120966577902
1772457457818037200,6.735037353515625,-0.00926350290775299,-0.0091258480027318,0.022235578009858727
1772457457828106200,6.745106201171875,-0.07672609680593014,0.005128887321054935,-0.02518788847681135
1772457457838174200,6.75517431640625,-0.10374386759102344,-0.02788198639899492,-0.037762762688565994
1772457457848243200,6.7652431640625,-0.049642275047302245,-0.029719138698279857,-0.01420872249128297
1772457457858312700,6.775312744140625,0.02628653390109539,-0.02067073984593153,0.0346985528123565
1772457457868381400,6.78538134765625,0.10095803626477717,-0.014613339503109455,0.0784824389539659
1772457457878449400,6.795449462890625,0.13098901739120483,-0.007079729127883911,0.08017375304177403
1772457457888518700,6.8055185546875,0.09707271926403045,0.003207271608710289,0.04489970189640298
1772457457898587400,6.81558740234375,0.0830056154668331,0.024807985781133173,0.0005796630514785647
1772457457908655600,6.825655517578125,0.05807751043736934,0.0303992299169302,-0.0353547151661478
1772457457918724600,6.835724609375,0.07257306877970696,0.02297697096168995,-0.04263853376507759
1772457457928793300,6.84579345703125,0.10608253967165947,0.0521560114338994,-0.04076179837407544
1772457457938861600,6.855861572265625,0.10532090764939785,0.07447890240103006,0.03244076394820586
1772457457948930600,6.8659306640625,0.13998656283915042,0.06240004981160163,0.06203006572173908
1772457457958999600,6.87599951171875,0.16273790835142135,0.05291822797805071,0.04119500215956941
1772457457969068500,6.886068603515625,0.14236498240828513,0.036382103718817234,-0.008366006078757345
1772457457979136500,6.896136474609375,0.11824760923981666,0.02359597964286804,-0.03488021125588566
1772457457989205500,6.90620556640625,0.10260112729668616,0.03445931896269321,-0.06491674534026533
1772457457999274500,6.9162744140625,0.11369827537238597,0.013241758888959884,-0.0440552869615145
1772457458009342500,6.926342529296875,0.1572632763326168,0.022294833916425703,-0.03155587087245658
1772457458019411500,6.936411376953125,0.13070493975281713,0.029442075322568415,-0.019296035692933946
1772457458029480400,6.94648046875,0.07554360902309418,0.018278876273334025,-0.03518830909067765
1772457458039548700,6.956548583984375,0.04860650225877761,0.024026187753677368,-0.07554366382202134
1772457458049617400,6.966617431640625,0.021675240713357923,0.027640286597609517,-0.06981527623785659
1772457458059686400,6.976686279296875,0.01685118155777454,0.030767478707432745,-0.04327502330401912
1772457458069755600,6.986755615234375,0.0694774408519268,0.00675298139154911,-0.030369839425664392
1772457458079823600,6.99682373046875,0.09772796830236911,0.011325988395512103,-0.007669767442904412
1772457458089892600,7.006892578125,0.09628945993185042,0.012784370510280132,-0.00036534444736316797
1772457458099961600,7.016961669921875,0.04389817843735218,0.022647008354961872,-0.03919164471421391
1772457458110029600,7.027029541015625,0.04068915326297283,0.020477847622334955,-0.07906138961939141
1772457458120098600,7.0370986328125,0.039789574074745176,-0.0013654431343078613,-0.06840584783134981
1772457458130167600,7.04716748046875,0.09415069433748721,-0.013294365859031676,-0.04593403164651245
1772457458140235500,7.057235595703125,0.1323971306234598,0.001182195521891117,-0.021516086362581698
1772457458150304500,7.067304443359375,0.1332259826630354,0.006710019032657146,-0.013448880567308514
1772457458160373500,7.07737353515625,0.07431260592341422,0.0214279879540205,-0.0436481674653478
1772457458170442500,7.0874423828125,0.053952539461851114,0.036682547970116136,-0.04041950600873679
1772457458180510500,7.097510498046875,0.11134089859127998,0.026529402746260165,-0.055575501021184026
1772457458190579500,7.107579345703125,0.13026479476988315,0.005080079743266105,-0.03924143867269158
1772457458200648400,7.1176484375,0.1025035121411085,0.03256751386672258,-0.024228012202400714
1772457458210716400,7.12771630859375,0.10317454327046871,0.04134031064808368,-0.013498637993168085
1772457458220785700,7.13778564453125,0.11924012740850448,0.053150867690145966,0.014656868117582052
1772457458230854400,7.1478544921875,0.12754676798284054,0.06294657777845859,0.0207768853678368
1772457458240922400,7.15792236328125,0.17419921356439588,0.039462534077465534,0.010114968637935817
1772457458250991600,7.16799169921875,0.1633411349415779,0.04401479055434465,0.02385764452004805
1772457458261060400,7.178060302734375,0.1594289299339056,0.04898761053085327,0.03599989946819842
1772457458271128300,7.18812841796875,0.18190496563613415,0.03350216436833143,0.02902458056285977
1772457458281197600,7.198197509765625,0.17890695286393166,0.050934068423509594,0.02676134833861142
1772457458291266600,7.2082666015625,0.07600012061893939,0.055145256377756594,-0.017266429561469704
1772457458301335600,7.21833544921875,-0.030237317353487014,0.08263736667633056,-0.019483703752141444
1772457458311403500,7.228403564453125,-0.03926876507103443,0.06419716236144304,-0.0003169021957553923
1772457458321472800,7.23847265625,0.019379823252558707,0.03597469196170568,0.018626831194479016
1772457458331541500,7.24854150390625,0.07216448797881603,0.015200784002244472,0.05433615021826699
1772457458341609500,7.258609375,0.16116028377115726,-0.008451017481088638,0.09639292030632496
1772457458351678700,7.2686787109375,0.20893910303413868,0.005203706122934818,0.12220352552505209
1772457458361747500,7.27874755859375,0.1662380254268646,-0.0024424247160553933,0.1403686209592968
1772457458371815400,7.2888154296875,0.08846212730705738,0.022893384331464765,0.11301714297411963
1772457458381884700,7.298884765625,0.0003863689690828323,0.03779898477941751,0.06012998598776757
1772457458391953400,7.308953369140625,-0.08380699497759342,0.03917670287340879,0.005314418222103268
1772457458402022700,7.319022705078125,-0.13823650430142878,0.05380699351131916,-0.047804720889218145
1772457458412090600,7.329090576171875,-0.11612871738970279,0.04676175117492676,-0.03877022269805893
1772457458422159400,7.339159423828125,-0.07660919242799281,0.04389525582790375,-0.014947046703193335
1772457458432228600,7.349228515625,-0.010114566779136656,0.03178367001265287,-0.0006976999405771493
1772457458442296600,7.359296630859375,0.05597089354693889,0.05184066187441349,0.038537637784890826
1772457458452365600,7.369365478515625,0.11871347318589687,0.04631020801514387,0.07795496274745091
1772457458462434600,7.3794345703125,0.1515770473897457,0.03453998298346996,0.09071724929008633
1772457458472502500,7.38950244140625,0.15326105495393275,0.02489478728175163,0.0607759009421803
1772457458482571500,7.399571533203125,0.1895616178691387,0.01198182195574045,0.01564801631309092
1772457458492640500,7.409640625,0.16511632792055606,-0.009876666370034218,0.008399908348359167
1772457458502709500,7.41970947265625,0.11161503935754298,-0.005003507375717163,0.0263409492357634
1772457458512777500,7.429777587890625,0.1228384441614151,0.0013949614897370338,0.0006842194044962525
1772457458522846500,7.439846435546875,0.1417728617340326,0.004878711952269077,0.0203812736463733
1772457458532915700,7.449915771484375,0.146636083856225,-0.019562486343085765,0.012266210121382027
1772457458542983400,7.4599833984375,0.09297346725165843,-0.014583236625790596,-0.029666002005245534
1772457458553052400,7.470052490234375,0.08096738763749599,-0.01634673916697502,-0.04609862935738638
1772457458563121700,7.48012158203125,0.024144261175394057,-0.014171440954506396,-0.07992460058629512
1772457458573189400,7.490189453125,-0.02025192991197109,0.0011576456025242806,-0.08330925632221624
1772457458583258600,7.500258544921875,0.018337620723247527,-0.00587502951323986,-0.057233479094970965
1772457458593327600,7.51032763671875,0.08581248958110808,-0.008859890542924404,-0.03263608559090644
1772457458603396400,7.520396240234375,0.1174134965032339,-0.0006812602624297142,0.01962022614600137
1772457458613464600,7.530464599609375,0.14650047477781772,0.02125935338884592,0.02847200644770637
1772457458623533600,7.540533447265625,0.15355623850822447,0.016003332556784152,0.04182646846352145
1772457458633602600,7.5506025390625,0.12661445556879042,0.04306786509305238,0.03478915370525792
1772457458643670500,7.56067041015625,0.10692132858335972,0.057680912335216994,-0.019831841336376964
1772457458653739500,7.570739501953125,0.012957681250572204,0.040811318337917325,-0.07793989304248243
1772457458663808500,7.58080859375,-0.03866846109032631,0.045670448806881904,-0.12392097870111465
1772457458673876500,7.59087646484375,-0.00720481681227684,0.021586685647070405,-0.12806660887217147
1772457458683945500,7.600945556640625,0.07816694326400757,-0.00547112488746643,-0.1166803599230945
1772457458694014500,7.611014404296875,0.11046586932241916,-0.008859306021034716,-0.0839131770321168
1772457458704083500,7.62108349609375,0.13918752141594887,-0.002697568520903587,-0.02807911640629172
1772457458714151700,7.631151611328125,0.1516080270498991,-0.006268120484054088,-0.023254363130964337
1772457458724220400,7.641220458984375,0.14847382067739961,0.014108604851365088,0.014778320806473493
1772457458734289700,7.65128955078125,0.1484966170310974,0.028382337136566637,0.03526438826788217
1772457458744357600,7.661357666015625,0.1001245080500841,0.020295769053697586,0.02984886602517217
1772457458754426400,7.67142626953125,0.058924482655525204,0.04277472736537456,0.03298986746463924
1772457458764495600,7.68149560546875,0.03993570454716682,0.05275543863177299,0.024805172769539058
1772457458774563600,7.6915634765625,0.034442367827892305,0.053663493387401104,-0.0017599588772282003
1772457458784632300,7.70163232421875,0.06004734920561313,0.046125206837058064,-0.0011106463893316685
1772457458794701600,7.71170166015625,0.0704138449192047,0.049881636761128896,0.0021491956568323073
1772457458804770600,7.7217705078125,0.07462181800305843,0.05009060333669185,0.025118147708848116
1772457458814838500,7.731838623046875,0.12103519413173199,0.05167173504829407,0.026264358601905406
1772457458824907500,7.741907470703125,0.11223989325761795,0.05210954194366932,0.060768886679504065
1772457458834976500,7.7519765625,0.0660351914435625,0.062301557873189445,0.06109070251239463
1772457458845044700,7.762044677734375,0.03491816864609718,0.05699731398522854,0.004131437248922884
1772457458855113700,7.77211376953125,-0.055850482037663456,0.06250000305473805,-0.025713702449202538
1772457458865183000,7.782182861328125,-0.06131985335946083,0.039103345376253124,-0.07038861914640292
1772457458875251000,7.7922509765625,-0.02088555164039135,0.00137421096265316,-0.05895696015302092
1772457458885319700,7.802319580078125,0.07179039396941661,-0.01514730024933815,-0.04459828953072428
1772457458895389000,7.812388916015625,0.10320844554007053,-0.012261807940900324,-0.015364322267193347
1772457458905457000,7.822456787109375,0.1204722995519638,-0.02817746221423149,0.019337646344956008
1772457458915525600,7.832525634765625,0.14407646250128744,-0.031447277665138246,-0.011913725155591965
1772457458925595000,7.842594970703125,0.11865677456259727,-0.008029577198624611,-0.0073381243357434865
1772457458935663600,7.85266357421875,0.05307634114921093,0.023417700466513633,-0.056516928323451426
1772457458945731800,7.86273193359375,0.0425987862765789,0.011098901641368866,-0.05845509331179782
1772457458955800800,7.87280078125,0.10213000265359878,0.02335515662431717,-0.029713604006636887
1772457458965869600,7.88286962890625,0.1701473078250885,0.048185646498203276,0.0021608130293898284
1772457458975937800,7.892937744140625,0.18867548268437384,0.026582009716331956,0.03077136943126097
1772457458986006800,7.9030068359375,0.21065993547737596,0.03701572544723749,0.036926293598115445
1772457458996075800,7.91307568359375,0.1676496457904577,0.05303513235598802,0.04020599112221971
1772457459006143700,7.923143798828125,0.11365677431821822,0.07056494382768869,0.014735248849727213
1772457459016212700,7.933212646484375,0.09620587330162525,0.07137246081829071,-0.002234261858090758
1772457459026281700,7.94328173828125,0.07009294240176678,0.07196604279726743,0.026350447716470805
1772457459036350700,7.953350830078125,0.06451777261793613,0.0927855434641242,0.06164550511725247
1772457459046418700,7.963418701171875,0.050592123118042946,0.09734393742084503,0.06687359676277264
1772457459056487700,7.97348779296875,-0.0022784663259983063,0.07608984472900629,0.07611749992091209
1772457459066555000,7.983554931640625,-0.0019616554617881772,0.07513824309259652,0.07576360844932496
1772457459076623600,7.99362353515625,0.007661328408122062,0.06346650999933481,0.07167878682110458
1772457459086691800,8.00369189453125,0.025144378128647803,0.011892390106618404,0.07137510943310335
1772457459096760800,8.0137607421875,0.08443594053089618,-0.0030067806005477904,0.06413361387224868
1772457459106829800,8.023829833984376,0.13163374503552913,-0.012816519214212894,0.0414878841589205
1772457459116897800,8.033897705078125,0.16024199988245963,-0.008537526720762252,0.07328068732609971
1772457459126966800,8.043966796875,0.16701719310581684,0.0063613517254590985,0.0948182914007455
1772457459137035800,8.054035888671875,0.08639642694890498,0.025139994214475152,0.08377526639876887
1772457459147103700,8.064103759765626,0.014702479091286658,0.047288989919424054,0.027314232981018722
1772457459157172700,8.0741728515625,-0.03562134847939014,0.0363745049342513,-0.009427369966264814
1772457459167241700,8.08424169921875,-0.02279518465399742,0.01538081674426794,-0.041604898134712125
1772457459177310700,8.094310791015625,0.005392798954248428,-0.00023527006059885023,-0.06834182441812008
1772457459187379000,8.10437890625,0.05720774186551571,0.007110124266147613,-0.06336074806991965
1772457459197447700,8.11444775390625,0.10039572620689868,0.039727322493493554,-0.025228896340634674
1772457459207516700,8.1245166015625,0.07693067946732043,0.06967091759741306,0.006076251173764467
1772457459217585000,8.1345849609375,0.04928279408514499,0.0874766234010458,0.03967621336076409
1772457459227653600,8.144653564453124,0.06982347781062126,0.0908311945259571,0.0700306725542061
1772457459237723000,8.154722900390626,0.10395838712453842,0.07685878327488899,0.05739798547429963
1772457459247790800,8.164790771484375,0.12254852130413055,0.05513531950563192,0.03761142631806433
1772457459257859600,8.174859619140625,0.1263631111562252,0.03106529261022806,-0.0060718489932827645
1772457459267928800,8.1849287109375,0.045049102038145064,0.001947334675490856,-0.07086487662233412
1772457459277997800,8.194997802734376,0.0009960253000259398,-0.024425416204333306,-0.15078171402728185
1772457459288065800,8.205065673828125,-0.03625789281725883,-0.021178981629014014,-0.16520583283491433
1772457459298134800,8.215134765625,-0.050965048083662985,-0.029381577306985852,-0.1656333557982929
1772457459308203800,8.225203857421874,-0.03159691526889801,-0.018968612103164195,-0.1503710143345408
1772457459318272000,8.23527197265625,-0.01186637888252735,-0.017084405791759488,-0.11958568944316357
1772457459328340700,8.2453408203125,0.0068920976012945175,-0.011913725155591965,-0.09698239236576482
1772457459338410000,8.255409912109375,0.05841711765527725,-0.012259762114286423,-0.04668331564385444
1772457459348478000,8.26547802734375,0.11271569407582283,-0.007976385706663132,-0.00037150019351392985
1772457459358546700,8.275546630859376,0.17013152573406695,0.017013970904052256,0.05940289555592462
1772457459368616000,8.285615966796875,0.23548341108858584,0.037195758189260957,0.12018800271786749
1772457459378684700,8.2956845703125,0.25303192726075646,0.09285568609088658,0.1633700687751174
1772457459388752600,8.305752685546874,0.23148761945068835,0.09192220463305711,0.17674098873538896
1772457459398822000,8.31582177734375,0.13628244762420655,0.12169921099841594,0.13260965912928804
1772457459408890600,8.325890625,0.05757306804656982,0.13424568109959364,0.07215106224166229
1772457459418958600,8.33595849609375,0.02693827580809593,0.10069646271914243,0.03906505919247866
1772457459429027800,8.34602783203125,0.0297585939258337,0.08276186983883381,0.024933146530762312
1772457459439096600,8.3560966796875,0.01952653824687004,0.07558715590387582,0.027343221613485364
1772457459449164800,8.366164794921875,0.03931143516898155,0.06706862614452838,0.0281309561913833
1772457459459234800,8.37623486328125,0.00823649794757366,0.06368482892513275,0.05780475791059434
1772457459469302800,8.386302734375,0.024234862068295476,0.061811728529632085,0.032193821716122326
1772457459479371800,8.396371826171874,0.027923195192217826,0.05510317080169916,0.02465148004516959
1772457459489440800,8.406440673828126,0.02197568496465683,0.03763561091125011,0.03109566948218271
1772457459499508700,8.4165087890625,0.031332126852869985,0.04370820882320404,0.03476294155176729
1772457459509577700,8.42657763671875,0.054874915003776545,0.04390548496097326,0.032962139207497236
1772457459519647000,8.43664697265625,0.10274959585666656,0.02029167740046978,0.04368343970812857
1772457459529715700,8.4467158203125,0.15193185217678545,0.0058376201122999185,0.049711869684793054
1772457459539783700,8.45678369140625,0.18757365892231465,0.01498480316400528,0.04554934317786246
1772457459549853000,8.46685302734375,0.17512392719388006,0.01741261483281851,0.025105452624056487
1772457459559921700,8.476921630859374,0.14608897136747837,0.027513153086602685,-0.009942132821679115
1772457459569989600,8.48698974609375,0.1463572669148445,-0.011265782640874385,-0.022719616933446377
1772457459580059000,8.497058837890625,0.1352168642193079,-0.017485095547139645,-0.05250599391534924
1772457459590127600,8.507127685546875,0.11013152280151843,-0.025181203007698057,-0.12668768520178272
1772457459600195800,8.51719580078125,0.03385959950387478,-0.03922258784174919,-0.17135602602772412
1772457459610264800,8.527264892578126,-0.00810147339105606,-0.00644932226985693,-0.11717957814950496
1772457459620333600,8.53733349609375,0.0162953012406826,0.020631284618377686,-0.05957637069299817
1772457459630402800,8.54740283203125,0.05127250659763813,0.0269832839936018,-0.014325772999692708
1772457459640470800,8.557470703125,0.0744791946619749,0.02501461426913738,0.014125647317711263
1772457459650539800,8.567539794921874,0.07331482705771923,0.025235271282494066,0.005065357098169625
1772457459660608800,8.57760888671875,0.02353986554145813,0.01836012481600046,-0.024021602910105137
1772457459670676700,8.5876767578125,-0.034282793352007866,0.022929332427680492,-0.0730831006610766
1772457459680745700,8.597745849609375,-0.045589784786105154,0.03590601063966751,-0.07343273608265444
1772457459690814700,8.607814697265624,-0.005127426016330719,0.036141572961211205,-0.02750131651833653
1772457459700882700,8.617882568359375,0.00429214423596859,0.061005380582809444,0.03827734288088977
1772457459710951700,8.62795166015625,0.08524959500133991,0.06725508862733841,0.07243035410707815
1772457459721020700,8.638020751953125,0.18897592693567275,0.05893208144009113,0.10871049528876318
1772457459731090000,8.64808984375,0.24229250658154486,0.07201397359222174,0.14224875388378277
1772457459741158000,8.658157958984376,0.19156828151643276,0.09591828853189945,0.105801311577484
1772457459751226600,8.6682265625,0.14416940148174762,0.08657441386431455,0.05952946281135082
1772457459761296000,8.6782958984375,0.16343465844392777,0.08130407224595547,0.04543499608319253
1772457459771363800,8.68836376953125,0.15303192237317562,0.06748012955486773,0.02907621941855177
1772457459781432800,8.698432861328126,0.15963585068285463,0.08443243339955807,0.04852381067769602
1772457459791501800,8.708501708984375,0.20248305876255035,0.04694470652639866,0.0633928602412343
1772457459801569800,8.71856982421875,0.20721125632822512,0.046506022848188874,0.08355566883133723
1772457459811638800,8.728638671875,0.1910825438261032,0.03366612275838852,0.0698234230116941
1772457459821707800,8.738707763671876,0.18828794467151164,0.022910919988155365,0.06766271958015858
1772457459831776800,8.74877685546875,0.17953882102668284,0.012931962287425994,0.0649624476455152
1772457459841844700,8.7588447265625,0.10217091918587684,0.0036921325162053106,0.00862244679154828
1772457459851913700,8.768913818359374,0.014186346262693404,-0.001590191800892353,-0.025464458662178367
1772457459861982700,8.778982666015626,-0.0052589434415102,-0.025859832921624182,-0.026404936116375028
1772457459872051000,8.789051025390625,0.0038572599500417705,-0.03980769425332546,-0.022922975752130148
1772457459882120000,8.799119873046875,0.029360534518957135,-0.058525254204869266,-0.014800605703517794
1772457459892189000,8.80918896484375,0.07890519441068172,-0.05157148954421281,-0.03024190219705924
1772457459902257000,8.8192568359375,0.08666355345249176,-0.07178805588185787,-0.07911244395319372
1772457459912326000,8.829325927734375,0.042220016092061996,-0.0534413750693202,-0.11474853334398939
1772457459922395000,8.839394775390625,0.026571196061372756,-0.04185615121573209,-0.11375502879461273
1772457459932462800,8.849462890625,0.042216508960723875,-0.008032499808073043,-0.10707966095022857
1772457459942531800,8.85953173828125,0.025140286475419996,0.01856441521644592,-0.06143562522623688
1772457459952600800,8.869600830078125,0.06906301483213902,0.01948123780041933,-0.02452248337063938
1772457459962669800,8.879669921875,0.1410287653684616,0.020176526588201522,0.019230149116180838
1772457459972737800,8.88973779296875,0.16289397569596767,0.032901860387623307,0.06817609419608488
1772457459982807000,8.89980712890625,0.18065467331409454,0.016291209587454794,0.06937911331029609
1772457459992875800,8.909875732421876,0.13990706786215304,0.03316343393325805,0.06178906004009768
1772457460002944000,8.919944091796875,0.03067278616130352,0.05816022028475999,0.017233897265046833
1772457460013013000,8.930012939453125,-0.04438683873713016,0.0817532773181796,-0.013788980975560843
1772457460023082000,8.94008203125,-0.004036123648285866,0.04376081579327583,-0.03327918753372505
1772457460033150000,8.95014990234375,0.012837854263186455,0.028178631258010862,-0.02358733967868611
1772457460043219000,8.960218994140625,-0.007756605476140975,0.008851707236468791,-0.035318200814351434
1772457460053288000,8.970287841796875,-0.04478489814400673,0.019926643480360506,-0.05952922534933314
1772457460063357000,8.98035693359375,-0.042346272820234294,-0.0018061726391315459,-0.04742467206306755
1772457460073425000,8.9904248046875,0.010339023184776306,-0.02716010186523199,-0.04099315944453701
1772457460083494000,9.000493896484375,0.07918167326450347,-0.04289572339653969,-0.026755557918641714
1772457460093563000,9.01056298828125,0.10425240163505077,-0.038214579842984674,-0.025244568833801894
1772457460103631000,9.020631103515624,0.13019991284012794,-0.023758768989145754,-0.00981613182183355
1772457460113699800,9.030699951171876,0.15808452958762645,-0.01779021597355604,0.02573753998251632
1772457460123768800,9.040768798828125,0.1684738216549158,-0.004196867167949677,0.023104542864114046
1772457460133837000,9.050837158203125,0.11916355504095553,-0.003824234463274479,0.011439075114857405
1772457460143905800,9.06090576171875,0.06607376988828181,0.03388531846702099,-0.011372841478232294
1772457460153975000,9.07097509765625,0.04940612820386886,0.061354340150952334,-0.01588328637368977
1772457460164043800,9.081043701171875,0.03364040379524231,0.05348316838443279,-0.006603106325771659
1772457460174111700,9.09111181640625,0.051582303199172015,0.06614800416827202,-0.01844060617368668
1772457460184181000,9.101180908203125,0.07965396695137024,0.07626666260063648,-0.02685510930297896
1772457460194250000,9.11125,0.06853343800008296,0.0498641011044383,-0.007914389853738248
1772457460204317700,9.121317626953125,0.11001286485791206,0.04665244558155537,0.020370916649140418
1772457460214387000,9.131386962890625,0.13030863391160963,0.03707651572376489,0.038041342167928816
1772457460224456000,9.1414560546875,0.06204349145889282,0.0538140077739954,0.04735469383308664
1772457460234524000,9.15152392578125,0.034756256082653994,0.05472644644379616,0.0067457296668551854
1772457460244593000,9.161593017578125,0.08981880261301994,0.035467911483347415,0.010260532854776828
1772457460254662000,9.171661865234375,0.13645955775678156,0.021791852830350397,0.010786383359786123
1772457460264731000,9.18173095703125,0.14715513929426668,0.026515374220907686,0.0017761610933579503
1772457460274798800,9.191798828125,0.16359774005115033,0.02723024449199438,0.028406156403571366
1772457460284868000,9.2018681640625,0.1821200696915388,0.037277298992872236,0.045980683799833055
1772457460294936800,9.211936767578125,0.117230541151762,0.03875058641582727,0.006370740608312189
1772457460305004800,9.2220048828125,0.05718553003370762,0.06957651731222868,-0.024987434001266955
1772457460315074000,9.232073974609374,0.019710662642121315,0.06470248153507709,-0.040393823578208685
1772457460325142800,9.242142822265626,0.02902268086671829,0.0350458866789937,-0.05782112452350557
1772457460335210800,9.252210693359375,0.029244214662909506,0.012883739231526851,-0.053571467722393566
1772457460345280000,9.262280029296875,0.002762450450658798,0.01119885488450527,-0.06564191780965775
1772457460355348700,9.2723486328125,-0.00961772317290306,0.035196985587477685,-0.05751845178250223
1772457460365418000,9.28241796875,-0.018047113344073294,0.03361497709304094,-0.056645870199054475
1772457460375486000,9.29248583984375,-0.03253916455507278,0.05095218860208988,-0.02144904900835827
1772457460385554700,9.3025546875,0.024887773019075392,0.049258536426723,0.010817162090539931
1772457460395624000,9.3126240234375,0.10191372955441474,0.045907764694094653,0.03900810484085232
1772457460405692000,9.32269189453125,0.11904548161923885,0.04379734841138124,0.06796628737030551
1772457460415761000,9.332760986328125,0.1334428402841091,0.04927373399585485,0.06676142335887998
1772457460425830000,9.342829833984375,0.11315350097119807,0.08172551252841949,0.043132801821734755
1772457460435897900,9.35289794921875,0.1035626658052206,0.08939151711165905,0.051595254012290384
1772457460445966800,9.362966796875,0.1021685810983181,0.08712707931101321,0.03204717978704721
1772457460456035800,9.373035888671875,0.08763385978937148,0.08663608092367649,0.022232527536246924
1772457460466105000,9.38310498046875,0.10915361768007278,0.08054477831125259,0.07366035255976021
1772457460476172800,9.3931728515625,0.07832885582745075,0.10039280359745024,0.07802486791219562
1772457460486241800,9.40324169921875,0.045941082441806794,0.10892010118514299,0.06028400750569999
1772457460496311000,9.41331103515625,0.0741354957908392,0.10426584563851356,0.06947254548110067
1772457460506379000,9.42337890625,0.0987087960332632,0.08747983827143907,0.0690974285583943
1772457460516448000,9.433447998046875,0.11699205622076987,0.09749357502460479,0.03127462451197207
1772457460526517000,9.44351708984375,0.09471534248292446,0.07256839260458946,0.030130532510764894
1772457460536585000,9.4535849609375,0.10944237149357795,0.06228694482594728,0.028905502494145183
1772457460546654000,9.463654052734375,0.03184299898445606,0.06098989075273275,-0.012031140990182756
1772457460556723000,9.473722900390625,-0.016089549535512924,0.062351242233812804,-0.03476038426849991
1772457460566792000,9.4837919921875,-0.030652327895164488,0.04028875576853752,-0.05656283155810088
1772457460576860000,9.49385986328125,0.0047667760103940965,0.019437106397747993,-0.03931074104923755
1772457460586929000,9.503928955078125,0.06032850423455238,0.0042579497054219245,-0.016036832967586814
1772457460596998000,9.513997802734375,0.14185644836425781,-0.01312602355480194,0.03180365335475653
1772457460607065900,9.52406591796875,0.17919044598042963,-0.01888648677766323,0.03023998423460871
1772457460617134800,9.534134765625,0.1859761605978012,-0.008195289154350758,0.06616290947645902
1772457460627203800,9.544203857421875,0.18055822720229625,0.01796586480140686,0.06554970948155969
1772457460637271800,9.554271728515625,0.0749409669548273,0.04741027821153402,0.04429338830001652
1772457460647341000,9.564341064453124,-0.0384510189473629,0.07893383598327636,-0.009746171858161687
1772457460657409800,9.574409912109376,-0.04480009571313858,0.08154957143962382,-0.037278833362832664
1772457460667477800,9.584477783203125,-0.03295183700919151,0.05879442653506994,-0.0466384901214391
1772457460677547000,9.594547119140625,0.0466857633292675,0.04750526301860809,-0.05805646764934062
1772457460687615700,9.60461572265625,0.0798690710067749,0.040380525705218315,-0.01856993164177984
1772457460697685000,9.61468505859375,0.11948621112406253,0.05268295791745185,-0.002188833547476679
1772457460707753000,9.6247529296875,0.12354513112604618,0.04693126252293586,-0.00767953991824761
1772457460717822000,9.634822021484375,0.09586626608371734,0.05543517923504114,-0.012558671995624899
1772457460727891000,9.644890869140625,0.049909986072778696,0.057094929140806196,-0.03117730161733925
1772457460737959000,9.654958984375,0.013940262547135353,0.06586889496594667,-0.03720237059313804
1772457460748028000,9.66502783203125,0.0649678544729948,0.051636955995857714,-0.04675144897662103
1772457460758097000,9.675096923828125,0.1115185932457447,0.05258855763226747,0.002941168018430471
1772457460768166000,9.685165771484375,0.16624796229898928,0.05712181714773178,0.04000285149924457
1772457460778234000,9.695234130859374,0.19809388389289379,0.020177987892925738,0.028298421712778507
1772457460788302800,9.705302734375,0.20448563075661658,0.02796089685410261,0.05425378743074834
1772457460798371800,9.715371826171875,0.151067344301939,0.04319762895256281,0.06797748461775481
1772457460808440000,9.725440185546875,0.07848141604065895,0.04567570950388908,0.018125000885874033
1772457460818508800,9.7355087890625,-0.04758241990804672,0.07428980956971645,-0.028292722624354064
1772457460828578000,9.745578125,-0.05378595072329044,0.04266454498916864,-0.05150956675652414
1772457460838646000,9.75564599609375,0.02739361836016178,-0.00300765738338232,-0.024198767841607332
1772457460848714800,9.76571484375,0.0772983437359333,0.018161971895396707,0.04607694724854081
1772457460858782700,9.77578271484375,0.0856856483310461,-0.02023410199433565,0.05255067330729216
1772457460868850700,9.7858505859375,0.10053601146042346,-0.0321092487052083,0.032639775385335086
1772457460878920000,9.795919921875,0.06455810462832451,0.007638824315369129,0.08035320126190781
1772457460888988700,9.80598876953125,0.006669979283213615,0.0460667546480894,0.1147833306627348
1772457460899058000,9.816057861328124,0.024523031359910963,0.05700169789940118,0.11211480557322502
1772457460909126000,9.8261259765625,0.046101241439580914,0.06813771668076515,0.07119429123979061
1772457460919195000,9.83619482421875,0.028092706540226935,0.06241612416356802,0.028800526016019283
1772457460929263900,9.846263916015625,0.0591641366302967,0.053225394231081004,0.03986154333241284
1772457460939331800,9.856331787109376,0.07666355296373367,0.027459669333696365,0.04480820595435798
1772457460949400800,9.86640087890625,0.08806172981262206,-0.0029743396356701848,0.04100771769285202
1772457460959469800,9.8764697265625,0.13927403065562247,0.0031146248891949654,0.03746986242290586
1772457460969537800,9.886537841796875,0.1351432144612074,0.002210077264904976,0.04820953883044422
1772457460979606800,9.896606689453124,0.10581892029941081,-0.01717412990182638,0.016364530551992357
1772457460989675800,9.90667578125,0.11493687725663185,-0.01131137534826994,-0.03094667119923979
1772457460999744800,9.916744873046875,0.12218787129819392,-0.045669864284992215,-0.04971906661055982
1772457461009812700,9.926812744140625,0.12561667670309543,-0.026357553310692308,-0.036862909505702555
1772457461019881700,9.9368818359375,0.12365677480697632,-0.03685673549324274,-0.032358656889013945
1772457461029951000,9.946950927734376,0.15313070657253264,-0.03844780407696962,-0.016815343059413134
1772457461040018700,9.957018798828125,0.1396919638067484,-0.014825520949065684,-0.0337658933384344
1772457461050088000,9.967087890625,0.08864917431175708,-0.010144377395510672,-0.039601065765321256
1772457461060157000,9.977156982421874,0.029068273574113845,0.0034378654941916464,-0.0531254409879446
1772457461070225700,9.9872255859375,0.02348842761516571,0.030757834096252917,-0.059065936952829357
1772457461080294000,9.9972939453125,0.000027472528815269467,0.04775456160455942,-0.03368099153395742
1772457461090363000,10.00736279296875,-0.010008183795213699,0.057013388337194916,-0.000916932181827724
1772457461100432000,10.017431884765625,0.03707271633148193,0.05368132130503654,0.009399623442813754
1772457461110499800,10.027499755859376,0.08031973738372325,0.031357845816016194,0.013609678885899484
1772457461120568800,10.03756884765625,0.05135550870597362,0.04533347193747759,0.03930602834150195
1772457461130637800,10.047637939453125,0.03487549854815006,0.060903089252114295,0.07003869146388024
1772457461140705800,10.057705810546874,0.09503507595658302,0.05892126778513193,0.07965948337670416
1772457461150774800,10.06777490234375,0.12167992177605629,0.04959580555707216,0.06625632338095457
1772457461160843800,10.07784375,0.11520751089155673,0.044719139431416983,0.08007774532139302
1772457461170911700,10.087911865234375,0.0685971508860588,0.04177402589023113,0.031078005961328745
1772457461180981000,10.09798095703125,-0.016816110244393348,0.046020869679749006,-0.003634191783890128
1772457461191049700,10.1080498046875,-0.016627894195914268,0.02408054828941822,-0.010247253248095512
1772457461201118700,10.11811865234375,0.033435236611962314,0.007162438975274563,-0.017673859584890306
1772457461211187000,10.12818701171875,0.032174422895908356,0.034870237851142884,-0.011041435833089053
1772457461221255700,10.138255615234375,-0.044698388904333114,0.04050093721449375,-0.03200509421098977
1772457461231325000,10.148324951171874,-0.047106034567952156,0.04384644825011492,-0.053571467722393566
1772457461241393000,10.158392822265625,0.051496963003277774,0.023996669398248193,-0.06193235923461616
1772457461251461600,10.168461669921875,0.058276832401752465,0.012883739231526851,-0.026609482245147226
1772457461261531000,10.17853076171875,0.05822364090979099,0.012044950319826601,-0.0070921502180397505
1772457461271598800,10.188598876953124,0.06716916390955448,0.01317395434975624,0.010549779858626424
1772457461281667600,10.19866748046875,0.07610241194963455,0.0111801501840353,0.0032354747898876665
1772457461291736800,10.20873681640625,0.1311427466481924,0.015676877081394196,0.0011218801693990827
1772457461301805800,10.218805908203125,0.1930161422371864,0.008904606467485428,0.028217538496293125
1772457461311873800,10.228873779296874,0.26057401320338247,0.0037090836510062218,0.0927429829640314
1772457461321942800,10.23894287109375,0.2885784569382667,-0.007089666000008582,0.08864964923579245
1772457461332012000,10.249011962890625,0.27343291025459765,-0.004172901770472527,0.03386230291761458
1772457461342080000,10.259080078125,0.17340893996953963,0.00862169787287712,-0.029709274891391396
1772457461352148700,10.269148681640624,0.1325280635267496,-0.0213429400190711,-0.06710819096993655
1772457461362218000,10.279218017578126,0.159293905377388,-0.029760932013392447,-0.03163834325782954
1772457461372286000,10.289285888671875,0.1568020885616541,0.005657295109331608,0.04956931940894574
1772457461382354700,10.299354736328125,0.1152566107302904,0.02398556348234415,0.04980005942489951
1772457461392424000,10.309423828125,0.098878891903162,0.03250000158846378,0.005316993771679699
1772457461402492700,10.31949267578125,0.016347908210754394,0.0406707408234477,-0.02283409189227968
1772457461412561000,10.329560791015625,-0.002746083837747574,0.0483282698392868,-0.04868095573447644
1772457461422630000,10.3396298828125,-0.058229486128687856,0.05626870744973421,-0.12060030984580516
1772457461432698600,10.34969873046875,-0.08873392998576164,0.06030892275124788,-0.12538600975237785
1772457461442766800,10.359766845703126,-0.030901334220170974,0.047779988306760786,-0.09518990119211375
1772457461452835800,10.3698359375,0.017955927929282186,0.040948096460103986,-0.07124229509998113
1772457461462904800,10.37990478515625,0.007045242336392402,0.03022445787191391,-0.045698615455441176
1772457461472972800,10.389972900390624,0.03570551963150501,0.024489421351253985,-0.03301821677628904
1772457461483041800,10.400041748046876,0.06915420024693011,0.020967969226837156,-0.034251302235201
1772457461493110800,10.41011083984375,0.11718904009759426,0.014388883097469806,-0.03313921280745417
1772457461503179800,10.4201796875,0.16747428922355173,-0.0019014497071504592,-0.026371983694843948
1772457461513247700,10.430247802734375,0.20178630867004393,-0.005398644173145294,-0.013322897833772003
1772457461523316700,10.440316650390624,0.1881540891587734,-0.01737842030227184,-0.03574216184746474
1772457461533385700,10.4503857421875,0.1521253289222717,-0.0191556591078639,-0.01319075935408473
1772457461543454000,10.460453857421875,0.11867372569739817,-0.017296002715826035,-0.028686434649676084
1772457461553523000,10.47052294921875,0.08932721970379352,-0.0066571198016405105,-0.019025128063373267
1772457461563591700,10.480591796875,0.0856985078126192,-0.015257190364599226,-0.004699884786643088
1772457461573660000,10.490659912109376,0.10023556720912456,-0.031632278843224046,-0.02700092924814671
1772457461583729000,10.50072900390625,0.0442500606149435,-0.021094810476899147,-0.044662367742881175
1772457461593798000,10.5107978515625,0.027389526706933974,0.004527706557512283,-0.05048497294913977
1772457461603867000,10.520866943359374,-0.014092822760343552,0.01388327166289091,-0.04278773297742009
1772457461613934800,10.530934814453126,-0.038757892939448355,0.018472353018820286,-0.013236863518133758
1772457461624003800,10.54100390625,0.0005371756166219711,0.009537351413071155,-0.002517974170297384
1772457461634072800,10.55107275390625,0.04811433482766151,0.016632278110086916,0.020636618380621075
1772457461644140800,10.561140869140624,0.09030278673768043,0.025063421846926212,0.03207048759739846
1772457461654209800,10.571209716796876,0.09174012606441974,0.06109627373665571,0.06236180016044527
1772457461664278800,10.58127880859375,0.10066694436371326,0.08608896843492984,0.07531875075865536
1772457461674347000,10.591346923828125,0.13833295041322707,0.10345569829940796,0.07941427644398064
1772457461684415700,10.601415771484374,0.13650515046417713,0.15728198103308677,0.09034264382403344
1772457461694484700,10.611484619140626,0.11939268762171268,0.15280688144564628,0.08971694967374205
1772457461704553700,10.6215537109375,0.136814947065711,0.12094780810922384,0.060965486963838335
1772457461714621700,10.63162158203125,0.15721826814711093,0.105712245054543,0.06751943865194916
1772457461724691000,10.64169091796875,0.08828384813070296,0.10095569817721843,0.035898704116046426
1772457461734759700,10.651759765625,0.00248830968439579,0.08047346664071083,-0.02925444379597902
1772457461744827600,10.66182763671875,0.010400397983193397,0.04524140973985195,-0.06668583737201988
1772457461754897000,10.67189697265625,0.0675648852288723,-0.01175005902647972,-0.03964000953622162
1772457461764966000,10.6819658203125,0.13313129011690616,-0.029131401938199995,-0.01482690918855369
1772457461775033600,10.69203369140625,0.14377718729376793,-0.04959755912274122,0.020738361722044647
1772457461785102800,10.702102783203125,0.11359773760735987,-0.04358224435597658,0.0075871671933680765
1772457461795171800,10.712171875,0.06815525233745574,-0.03833236100375652,-0.027513664543256162
1772457461805240800,10.72224072265625,0.0458405446767807,-0.01969721863865852,-0.07979724787957966
1772457461815308800,10.732308837890624,0.02159925286769867,-0.030900749698281285,-0.1301374055305496
1772457461825378000,10.7423779296875,-0.06622165392637253,-0.03615998540073633,-0.13310513276234268
1772457461835446800,10.75244677734375,-0.08113923707306385,-0.00715250210314989,-0.10712298863530158
1772457461845514800,10.7625146484375,0.026885668838024138,-0.009886018720269202,-0.04895973614323884
1772457461855584000,10.772583984375,0.018178630769252777,-0.005668401025235653,0.0001575286492705345
1772457461865653000,10.782653076171876,0.07293956400454044,0.0016956980019807815,-0.003395670320279896
1772457461875721000,10.792720947265625,0.06571078179478645,0.03949643634706736,0.03133099434170872
1772457461885790200,10.802790283203125,0.057153381329774856,0.036000703185796734,0.041784656882099806
1772457461895859000,10.81285888671875,0.08709785321652888,0.052476329429447646,-0.008131430137902497
1772457461905928200,10.82292822265625,0.11867314117550849,0.027775603415071962,0.0394555928800255
1772457461915996200,10.83299609375,0.00400631303191185,0.04893003512471914,0.06656933485288173
1772457461926065000,10.84306494140625,0.004868482819199562,0.09244038328826427,0.010301759914308786
1772457461936134100,10.853134033203125,0.022103110736608506,0.0819604903280735,0.04719166702479124
1772457461946202000,10.8632021484375,-0.009666238489747047,0.08381079436987637,0.06609883126430213
1772457461956271000,10.87327099609375,0.03317980054616928,0.08743161521553992,0.04263440557923168
1772457461966340000,10.883340087890625,0.025462358036637305,0.06868950534462928,0.043313108558394015
1772457461976408000,10.893407958984374,-0.025594459983706474,0.10850655194818973,0.09848850434608757
1772457461986477000,10.90347705078125,-0.05113163682222366,0.12345306892842053,0.11401081192027777
1772457461996546000,10.913546142578125,-0.03058160074651241,0.12093144149631262,0.04941467683650553
1772457462006614000,10.923614013671875,-0.022283143478631973,0.09845511353313922,0.04007449196334928
1772457462016683000,10.93368310546875,0.03295008344352245,0.06766629977673291,0.0167476115854457
1772457462026752000,10.943751953125,0.0712117172986269,0.04998392809182405,-0.027631482236646115
1772457462036821200,10.9538212890625,0.07487257789373397,0.040428748761117454,-0.0519150422848761
1772457462046889000,10.963888916015625,0.12421148608028888,0.04767945054173469,-0.043531098690629
1772457462056958000,10.9739580078125,-0.1023340007930994,0.06963730758875608,-0.07029336034469306
1772457462067027200,10.984027099609374,-0.1673714133709669,0.01962590696811676,-0.22757409926876424
1772457462077095000,10.994094970703125,-0.1627928534090519,-0.010326748225092887,-0.24887681687530128
1772457462087164200,11.0041640625,-0.07013736606538296,-0.04161357463151216,-0.1528610958509147
1772457462097233200,11.014233154296875,0.11894903550744056,-0.05529021780639887,-0.12178422240074724
1772457462107301000,11.024301025390624,0.2166886942476034,-0.0887418210312724,-0.09680347386859357
1772457462117370000,11.0343701171875,0.2953080574542284,-0.10829933893829584,-0.11702994054574518
1772457462127439000,11.044439208984375,0.36953590770363803,-0.07519523397684097,-0.06176872963812202
1772457462137508000,11.054508056640625,0.3016203093409538,-0.03466857779920101,-0.009987141007184982
1772457462147576000,11.064576171875,0.2822399015665054,0.021362229241430757,-0.01589307711534202
1772457462157645000,11.07464501953125,0.30875206091701984,0.04700462002009153,-0.003403707496263087
1772457462167714000,11.084714111328125,0.2731827348858118,0.06349369026720524,0.0010899871937930584
1772457462177782000,11.094781982421875,0.24821020619273185,0.10096826539784669,-0.011950184708461166
1772457462187851300,11.104851318359374,0.33707974525690076,0.09283376652002334,0.01385397250317037
1772457462197920000,11.114919921875,0.4045002535790205,0.05690612857043743,0.062484732420369976
1772457462207988000,11.124988037109375,0.3578320259064436,0.09041881433278322,0.03930274040587246
1772457462218057200,11.13505712890625,0.25742811639308927,0.12103227152228355,0.05601352711226791
1772457462228126000,11.1451259765625,0.26136311775445936,0.11548428200632332,0.06421100822370499
1772457462238195200,11.1551953125,0.25894553521871566,0.10391191763430833,0.06609441081751137
1772457462248263200,11.16526318359375,0.18060674251914025,0.09196078307777643,0.07763225186541677
1772457462258332000,11.175331787109375,0.06029167935550212,0.05985358019918203,0.009065788378566503
1772457462268401200,11.185401123046875,-0.08062018163502216,0.06138911920338869,-0.019768822570145127
1772457462278469000,11.19546923828125,-0.15589607963263988,0.0581514524564147,-0.0126687082413584
1772457462288537900,11.205537841796875,-0.13165829495489598,0.054339492952823636,0.03308525413051248
1772457462298607000,11.215607177734375,-0.016219313395023346,0.03553191663026809,0.10670494588632136
1772457462308675000,11.225675048828125,0.16763853987455368,0.037792847299575806,0.16143643383141607
1772457462318744000,11.235744140625,0.38225393497943877,-0.006178396373987197,0.14301036763973532
1772457462328813000,11.24581298828125,0.2827671403110027,-0.05262070633620024,0.07039028138052672
1772457462338882000,11.255882080078125,0.09574527005255222,0.015792320154607294,-0.04765548514425754
1772457462348950300,11.2659501953125,0.1645353131622076,0.0042751931011676784,-0.047409766754880546
1772457462359019000,11.27601904296875,0.28048224424421786,-0.05609978062361479,0.07098024663031101
1772457462369088300,11.286088134765626,0.2151987479507923,-0.05219458987861871,0.11619118816666305
1772457462379156200,11.29615625,0.12726619747579096,-0.0485746458157897,0.07742536764908582
