time,seconds_elapsed,z,y,x
1772457854271027200,0.060027099609375,-0.9661407470703125,-0.35247802734375,0.034759521484375
1772457854281095200,0.07009521484375,-0.9490509033203125,-0.35113525390625,0.035919189453125
1772457854291163100,0.0801630859375,-0.925811767578125,-0.351806640625,0.0399932861328125
1772457854301231400,0.0902314453125,-0.917205810546875,-0.351470947265625,0.0366973876953125
1772457854311298300,0.10029833984375,-0.9256744384765625,-0.3499603271484375,0.0233306884765625
1772457854321366300,0.1103662109375,-0.9238128662109375,-0.345245361328125,0.013427734375
1772457854331434200,0.120434326171875,-0.92938232421875,-0.3370819091796875,0.010406494140625
1772457854341502500,0.13050244140625,-0.9262847900390625,-0.3248138427734375,0.0155487060546875
1772457854351570400,0.1405703125,-0.9378662109375,-0.313568115234375,0.01690673828125
1772457854361637400,0.150637451171875,-0.9559326171875,-0.3021697998046875,0.0159149169921875
1772457854371705300,0.160705322265625,-0.9510498046875,-0.2921142578125,0.022216796875
1772457854381773300,0.170773193359375,-0.9365692138671875,-0.2904815673828125,0.035308837890625
1772457854391841500,0.180841552734375,-0.916748046875,-0.2911529541015625,0.04327392578125
1772457854401909200,0.1909091796875,-0.9082794189453125,-0.2916259765625,0.0423736572265625
1772457854411977200,0.200977294921875,-0.9055633544921875,-0.29034423828125,0.0416259765625
1772457854422044200,0.211044189453125,-0.9138946533203125,-0.28436279296875,0.037567138671875
1772457854432112000,0.221112060546875,-0.918487548828125,-0.280914306640625,0.03863525390625
1772457854442180400,0.231180419921875,-0.90985107421875,-0.27667236328125,0.0396728515625
1772457854452248300,0.241248291015625,-0.909271240234375,-0.2745208740234375,0.04638671875
1772457854462316300,0.25131640625,-0.9154815673828125,-0.2717132568359375,0.047882080078125
1772457854472383200,0.26138330078125,-0.91522216796875,-0.2701873779296875,0.0525970458984375
1772457854482451200,0.271451171875,-0.9082489013671875,-0.27001953125,0.0579071044921875
1772457854492519400,0.28151953125,-0.8967132568359375,-0.2694549560546875,0.067535400390625
1772457854502587400,0.29158740234375,-0.8911285400390625,-0.2695465087890625,0.0753936767578125
1772457854512655400,0.3016552734375,-0.8990020751953125,-0.271636962890625,0.070587158203125
1772457854522723300,0.311723388671875,-0.91448974609375,-0.2713775634765625,0.063018798828125
1772457854532790500,0.32179052734375,-0.9263153076171875,-0.272216796875,0.0583038330078125
1772457854542858200,0.331858154296875,-0.925018310546875,-0.274566650390625,0.0663299560546875
1772457854552926200,0.34192626953125,-0.9132080078125,-0.28173828125,0.075775146484375
1772457854562994200,0.351994140625,-0.89691162109375,-0.2881011962890625,0.0837554931640625
1772457854573062400,0.3620625,-0.884002685546875,-0.297088623046875,0.08447265625
1772457854583129300,0.37212939453125,-0.892913818359375,-0.3036651611328125,0.0746002197265625
1772457854593197300,0.382197265625,-0.9130096435546875,-0.310028076171875,0.057952880859375
1772457854603265300,0.392265380859375,-0.9217987060546875,-0.3126678466796875,0.0487213134765625
1772457854613333200,0.402333251953125,-0.92572021484375,-0.3175506591796875,0.0421142578125
1772457854623401500,0.4124013671875,-0.9288330078125,-0.32061767578125,0.03265380859375
1772457854633469400,0.422469482421875,-0.94610595703125,-0.3180999755859375,0.0189361572265625
1772457854643536400,0.432536376953125,-0.9769287109375,-0.3141632080078125,-0.000396728515625
1772457854653604400,0.442604248046875,-1.002044677734375,-0.309600830078125,-0.0154571533203125
1772457854663672300,0.45267236328125,-1.0228729248046875,-0.3020477294921875,-0.0179901123046875
1772457854673740300,0.462740234375,-1.027435302734375,-0.295013427734375,-0.0064849853515625
1772457854683808300,0.472808349609375,-1.0272979736328125,-0.2898406982421875,0.006988525390625
1772457854693876200,0.482876220703125,-1.028594970703125,-0.2853546142578125,0.0277099609375
1772457854703943200,0.492943115234375,-1.0310821533203125,-0.2824859619140625,0.0464935302734375
1772457854714011400,0.503011474609375,-1.02825927734375,-0.2812652587890625,0.0578765869140625
1772457854724079400,0.513079345703125,-1.018218994140625,-0.2860107421875,0.065643310546875
1772457854734147300,0.523147216796875,-0.997589111328125,-0.2972564697265625,0.0749359130859375
1772457854744215300,0.53321533203125,-0.981292724609375,-0.312408447265625,0.0750274658203125
1772457854754282200,0.5432822265625,-0.9678802490234375,-0.3247833251953125,0.072662353515625
1772457854764350500,0.5533505859375,-0.9606781005859375,-0.3359222412109375,0.0640106201171875
1772457854774418400,0.56341845703125,-0.9657440185546875,-0.344573974609375,0.0479278564453125
1772457854784486400,0.573486328125,-0.974212646484375,-0.3516387939453125,0.0298614501953125
1772457854794554000,0.58355419921875,-0.9712982177734375,-0.35638427734375,0.0167694091796875
1772457854804622300,0.593622314453125,-0.9655303955078125,-0.357879638671875,0.00823974609375
1772457854814689300,0.603689208984375,-0.9605255126953125,-0.3555755615234375,0.005645751953125
1772457854824757200,0.61375732421875,-0.9592437744140625,-0.3491668701171875,0.0061492919921875
1772457854834825200,0.6238251953125,-0.9591064453125,-0.338531494140625,0.01116943359375
1772457854844893200,0.63389306640625,-0.9651641845703125,-0.3272247314453125,0.01263427734375
1772457854854961400,0.64396142578125,-0.967010498046875,-0.3139495849609375,0.0177154541015625
1772457854865028400,0.6540283203125,-0.96710205078125,-0.3026123046875,0.0298919677734375
1772457854875096300,0.664096435546875,-0.95635986328125,-0.2917633056640625,0.047332763671875
1772457854885164300,0.674164306640625,-0.944183349609375,-0.281524658203125,0.0621185302734375
1772457854895232300,0.684232177734375,-0.944580078125,-0.2749481201171875,0.0699920654296875
1772457854905300500,0.694300537109375,-0.9532928466796875,-0.2680511474609375,0.06585693359375
1772457854915368200,0.7043681640625,-0.9621124267578125,-0.267364501953125,0.058319091796875
1772457854925435400,0.714435302734375,-0.9664306640625,-0.2715606689453125,0.051849365234375
1772457854935503400,0.72450341796875,-0.947540283203125,-0.274566650390625,0.051513671875
1772457854945571300,0.7345712890625,-0.9308013916015625,-0.2804107666015625,0.0536346435546875
1772457854955639300,0.744639404296875,-0.9221343994140625,-0.2877655029296875,0.0471649169921875
1772457854965707300,0.754707275390625,-0.915283203125,-0.2973785400390625,0.03570556640625
1772457854975774200,0.764774169921875,-0.906463623046875,-0.3026275634765625,0.034759521484375
1772457854985842200,0.77484228515625,-0.8984375,-0.3082427978515625,0.0366668701171875
1772457854995910400,0.784910400390625,-0.8912353515625,-0.3109588623046875,0.0427398681640625
1772457855005978400,0.794978271484375,-0.88250732421875,-0.31475830078125,0.046905517578125
1772457855016046300,0.80504638671875,-0.88873291015625,-0.317230224609375,0.04510498046875
1772457855026114300,0.8151142578125,-0.9029998779296875,-0.3168487548828125,0.035308837890625
1772457855036181200,0.82518115234375,-0.9117431640625,-0.31396484375,0.032806396484375
1772457855046249500,0.83524951171875,-0.9104461669921875,-0.311981201171875,0.03826904296875
1772457855056317400,0.8453173828125,-0.91070556640625,-0.3108673095703125,0.04620361328125
1772457855066385200,0.85538525390625,-0.9163665771484375,-0.3117218017578125,0.0438079833984375
1772457855076453000,0.865453125,-0.9288330078125,-0.309783935546875,0.0409393310546875
1772457855086520300,0.875520263671875,-0.939361572265625,-0.3098907470703125,0.0388641357421875
1772457855096588300,0.88558837890625,-0.945953369140625,-0.3079071044921875,0.042083740234375
1772457855106656300,0.89565625,-0.9444580078125,-0.30963134765625,0.045013427734375
1772457855116724200,0.90572412109375,-0.9387664794921875,-0.3125,0.0480499267578125
1772457855126792400,0.91579248046875,-0.9355316162109375,-0.315521240234375,0.0489349365234375
1772457855136860400,0.9258603515625,-0.940338134765625,-0.3156585693359375,0.0453338623046875
1772457855146927400,0.93592724609375,-0.9545440673828125,-0.3155517578125,0.04034423828125
1772457855156995300,0.945995361328125,-0.9658203125,-0.3162384033203125,0.03369140625
1772457855167063300,0.956063232421875,-0.97296142578125,-0.3142242431640625,0.032012939453125
1772457855177131500,0.966131591796875,-0.964691162109375,-0.316192626953125,0.0368194580078125
1772457855187199200,0.97619921875,-0.953704833984375,-0.3228759765625,0.0443572998046875
1772457855197267200,0.98626708984375,-0.9391937255859375,-0.3267669677734375,0.0513763427734375
1772457855207334700,0.996334716796875,-0.935089111328125,-0.3301849365234375,0.060302734375
1772457855217402600,1.006402587890625,-0.9455718994140625,-0.333892822265625,0.060089111328125
1772457855227470600,1.016470703125,-0.950592041015625,-0.3382720947265625,0.058868408203125
1772457855237538600,1.02653857421875,-0.9459228515625,-0.34088134765625,0.0604400634765625
1772457855247606800,1.036606689453125,-0.945770263671875,-0.346588134765625,0.0541839599609375
1772457855257673700,1.046673828125,-0.9563446044921875,-0.3491973876953125,0.04620361328125
1772457855267741700,1.05674169921875,-0.9678955078125,-0.350677490234375,0.046905517578125
1772457855277809700,1.0668095703125,-0.9815521240234375,-0.347686767578125,0.0460205078125
1772457855287878000,1.0768779296875,-0.98370361328125,-0.345977783203125,0.0487518310546875
1772457855297945900,1.08694580078125,-0.98138427734375,-0.3429107666015625,0.055328369140625
1772457855308013600,1.097013671875,-0.978851318359375,-0.34271240234375,0.0581207275390625
1772457855318080800,1.107080810546875,-0.9753875732421875,-0.3404083251953125,0.0628662109375
1772457855328148500,1.1171484375,-0.98284912109375,-0.3416290283203125,0.07208251953125
1772457855338216700,1.127216796875,-0.9876708984375,-0.3469390869140625,0.085662841796875
1772457855348284700,1.13728466796875,-0.9755096435546875,-0.3531494140625,0.091217041015625
1772457855358352600,1.1473525390625,-0.9647674560546875,-0.356964111328125,0.0866851806640625
1772457855368419600,1.157419677734375,-0.966522216796875,-0.363555908203125,0.0794219970703125
1772457855378487600,1.167487548828125,-0.96746826171875,-0.3697357177734375,0.060028076171875
1772457855388555800,1.1775556640625,-0.968109130859375,-0.3679046630859375,0.042449951171875
1772457855398623700,1.187623779296875,-0.9650115966796875,-0.3630523681640625,0.0256805419921875
1772457855408691700,1.197691650390625,-0.965972900390625,-0.3540802001953125,0.0124359130859375
1772457855418759700,1.207759765625,-0.9731903076171875,-0.3415679931640625,0.00238037109375
1772457855428827000,1.217826904296875,-0.9776458740234375,-0.3251800537109375,0.0027923583984375
1772457855438894800,1.227894775390625,-0.986175537109375,-0.3077392578125,0.0082244873046875
1772457855448962800,1.237962890625,-1.0016632080078125,-0.2913055419921875,0.01318359375
1772457855459030500,1.248030517578125,-1.0063629150390625,-0.2795257568359375,0.021148681640625
1772457855469098800,1.2580986328125,-1.001556396484375,-0.2671966552734375,0.0302581787109375
1772457855479166700,1.268166748046875,-0.996734619140625,-0.2591705322265625,0.038238525390625
1772457855489233700,1.278233642578125,-0.9953155517578125,-0.25177001953125,0.047515869140625
1772457855499301600,1.288301513671875,-0.9931793212890625,-0.2489776611328125,0.05181884765625
1772457855509369600,1.29836962890625,-1.0036773681640625,-0.246124267578125,0.0453948974609375
1772457855519437800,1.308437744140625,-1.01385498046875,-0.2483978271484375,0.0421142578125
1772457855529505800,1.318505859375,-1.013763427734375,-0.25506591796875,0.04376220703125
1772457855539572700,1.32857275390625,-1.0087127685546875,-0.2630157470703125,0.046722412109375
1772457855549640700,1.338640625,-0.9955902099609375,-0.2700042724609375,0.050506591796875
1772457855559708700,1.348708740234375,-0.9819183349609375,-0.2785797119140625,0.0552215576171875
1772457855569777000,1.35877685546875,-0.969207763671875,-0.28497314453125,0.0565185546875
1772457855579844600,1.3688447265625,-0.9659271240234375,-0.284698486328125,0.0539093017578125
1772457855589912600,1.37891259765625,-0.9640045166015625,-0.2797088623046875,0.05029296875
1772457855599979500,1.3889794921875,-0.961944580078125,-0.2734222412109375,0.0539093017578125
1772457855610047500,1.399047607421875,-0.9579315185546875,-0.265838623046875,0.0612030029296875
1772457855620115700,1.40911572265625,-0.95294189453125,-0.2577972412109375,0.0688323974609375
1772457855630183700,1.41918359375,-0.9500885009765625,-0.2515869140625,0.078399658203125
1772457855640251600,1.429251708984375,-0.947723388671875,-0.2475128173828125,0.088623046875
1772457855650319600,1.439319580078125,-0.9371337890625,-0.246124267578125,0.093292236328125
1772457855660386800,1.44938671875,-0.93402099609375,-0.2470245361328125,0.0919952392578125
1772457855670454800,1.459454833984375,-0.9383544921875,-0.2465972900390625,0.0903167724609375
1772457855680522800,1.469522705078125,-0.9427642822265625,-0.24835205078125,0.0889434814453125
1772457855690590700,1.4795908203125,-0.9329376220703125,-0.2536163330078125,0.0917510986328125
1772457855700658700,1.48965869140625,-0.9150543212890625,-0.2584686279296875,0.0996551513671875
1772457855710726000,1.499725830078125,-0.893951416015625,-0.26409912109375,0.112518310546875
1772457855720793600,1.509793701171875,-0.87060546875,-0.27294921875,0.1291961669921875
1772457855730861600,1.519861572265625,-0.85565185546875,-0.2771759033203125,0.1407470703125
1772457855740929500,1.529929443359375,-0.84814453125,-0.2847137451171875,0.14788818359375
1772457855750997800,1.539997802734375,-0.8461151123046875,-0.2923736572265625,0.1558990478515625
1772457855761065700,1.550065673828125,-0.8536529541015625,-0.2960052490234375,0.15789794921875
1772457855771132700,1.560132568359375,-0.8545074462890625,-0.3025360107421875,0.1558074951171875
1772457855781200600,1.57020068359375,-0.853668212890625,-0.30950927734375,0.151885986328125
1772457855791268600,1.5802685546875,-0.856292724609375,-0.312255859375,0.148193359375
1772457855801336800,1.5903369140625,-0.86334228515625,-0.3139190673828125,0.14129638671875
1772457855811404800,1.60040478515625,-0.8736419677734375,-0.3094940185546875,0.131134033203125
1772457855821472800,1.61047265625,-0.8903961181640625,-0.3018341064453125,0.11932373046875
1772457855831539700,1.620539794921875,-0.9046173095703125,-0.2927093505859375,0.1100616455078125
1772457855841608000,1.63060791015625,-0.90972900390625,-0.2815399169921875,0.1063232421875
1772457855851675600,1.640675537109375,-0.9203033447265625,-0.2709503173828125,0.1040191650390625
1772457855861743600,1.65074365234375,-0.9315032958984375,-0.2659759521484375,0.10479736328125
1772457855871811600,1.6608115234375,-0.94122314453125,-0.259246826171875,0.1084442138671875
1772457855881878500,1.67087841796875,-0.9420318603515625,-0.2557830810546875,0.118988037109375
1772457855891946800,1.68094677734375,-0.9389801025390625,-0.25830078125,0.1280670166015625
1772457855902014700,1.6910146484375,-0.93511962890625,-0.2598876953125,0.1301422119140625
1772457855912082700,1.701082763671875,-0.9254150390625,-0.2644805908203125,0.1320953369140625
1772457855922150700,1.711150634765625,-0.9073028564453125,-0.2722320556640625,0.13372802734375
1772457855932219000,1.721218994140625,-0.8940582275390625,-0.2830657958984375,0.1322174072265625
1772457855942285800,1.731285888671875,-0.89556884765625,-0.293914794921875,0.127288818359375
1772457855952353800,1.741353759765625,-0.8984527587890625,-0.300994873046875,0.124603271484375
1772457855962421800,1.751421875,-0.892730712890625,-0.30938720703125,0.124114990234375
1772457855972489500,1.761489501953125,-0.89093017578125,-0.317962646484375,0.1185760498046875
1772457855982557700,1.7715576171875,-0.8950347900390625,-0.322021484375,0.11041259765625
1772457855992625700,1.781625732421875,-0.8968048095703125,-0.327850341796875,0.10296630859375
1772457856002692600,1.791692626953125,-0.898040771484375,-0.3362884521484375,0.1019134521484375
1772457856012760600,1.801760498046875,-0.8973541259765625,-0.3394622802734375,0.100372314453125
1772457856022828500,1.81182861328125,-0.9019775390625,-0.343658447265625,0.0924224853515625
1772457856032896800,1.821896728515625,-0.9077911376953125,-0.347564697265625,0.0901641845703125
1772457856042964700,1.83196484375,-0.9175567626953125,-0.348663330078125,0.08856201171875
1772457856053032700,1.84203271484375,-0.9328765869140625,-0.3484039306640625,0.085723876953125
1772457856063099600,1.852099609375,-0.94073486328125,-0.348480224609375,0.0806884765625
1772457856073168000,1.86216796875,-0.9512481689453125,-0.3499908447265625,0.072784423828125
1772457856083235800,1.87223583984375,-0.96600341796875,-0.351318359375,0.062408447265625
1772457856093303800,1.8823037109375,-0.9847564697265625,-0.34881591796875,0.0561370849609375
1772457856103371500,1.89237158203125,-0.996063232421875,-0.3468475341796875,0.0562896728515625
1772457856113438700,1.902438720703125,-0.994140625,-0.3474578857421875,0.06719970703125
1772457856123506700,1.912506591796875,-0.985443115234375,-0.349090576171875,0.077850341796875
1772457856133574700,1.92257470703125,-0.9673614501953125,-0.3539276123046875,0.0851898193359375
1772457856143642600,1.932642578125,-0.944091796875,-0.3609161376953125,0.0908203125
1772457856153710600,1.942710693359375,-0.9228363037109375,-0.368865966796875,0.09625244140625
1772457856163778800,1.95277880859375,-0.904144287109375,-0.3748321533203125,0.1033935546875
1772457856173845800,1.962845703125,-0.894256591796875,-0.37615966796875,0.1056671142578125
1772457856183913700,1.972913818359375,-0.8981781005859375,-0.378997802734375,0.102935791015625
1772457856193981700,1.982981689453125,-0.905364990234375,-0.3824615478515625,0.099456787109375
1772457856204050000,1.9930498046875,-0.910308837890625,-0.3801422119140625,0.096649169921875
1772457856214118000,2.003117919921875,-0.9123077392578125,-0.380340576171875,0.0993194580078125
1772457856224185600,2.013185546875,-0.914276123046875,-0.3798370361328125,0.1040191650390625
1772457856234253000,2.023253173828125,-0.9145660400390625,-0.3795013427734375,0.1074066162109375
1772457856244320800,2.03332080078125,-0.9170074462890625,-0.3808441162109375,0.1094207763671875
1772457856254388700,2.043388671875,-0.923614501953125,-0.3821868896484375,0.112030029296875
1772457856264456700,2.053456787109375,-0.9255523681640625,-0.3803253173828125,0.112396240234375
1772457856274525000,2.06352490234375,-0.9223480224609375,-0.3773345947265625,0.1191558837890625
1772457856284593000,2.073593017578125,-0.9186248779296875,-0.37310791015625,0.1264495849609375
1772457856294659800,2.083659912109375,-0.9224090576171875,-0.367706298828125,0.1300048828125
1772457856304727800,2.093727783203125,-0.929840087890625,-0.3633880615234375,0.135589599609375
1772457856314795800,2.103795654296875,-0.944915771484375,-0.36376953125,0.139984130859375
1772457856324864000,2.113864013671875,-0.9619598388671875,-0.374267578125,0.15289306640625
1772457856334932000,2.123931884765625,-0.9471282958984375,-0.3762969970703125,0.1592559814453125
1772457856344999700,2.133999755859375,-0.920745849609375,-0.3700408935546875,0.1555633544921875
1772457856355067000,2.14406689453125,-0.9217529296875,-0.3731231689453125,0.1430206298828125
1772457856365134600,2.154134521484375,-0.93768310546875,-0.3826446533203125,0.1212615966796875
1772457856375202800,2.164202880859375,-0.95379638671875,-0.3890380859375,0.0989837646484375
1772457856385270800,2.174270751953125,-0.9613494873046875,-0.3851318359375,0.0911102294921875
1772457856395338800,2.1843388671875,-0.95556640625,-0.3823394775390625,0.0928955078125
1772457856405406700,2.19440673828125,-0.9407196044921875,-0.381805419921875,0.0939178466796875
1772457856415473700,2.2044736328125,-0.9416351318359375,-0.3806610107421875,0.086273193359375
1772457856425542000,2.2145419921875,-0.952911376953125,-0.381927490234375,0.0812530517578125
1772457856435609900,2.22460986328125,-0.9698028564453125,-0.3806304931640625,0.069000244140625
1772457856445677800,2.234677734375,-0.982574462890625,-0.3720855712890625,0.0623626708984375
1772457856455746000,2.24474609375,-0.9894866943359375,-0.35980224609375,0.0614013671875
1772457856465813800,2.254813720703125,-0.995147705078125,-0.343841552734375,0.0620880126953125
1772457856475881000,2.264880859375,-1.000823974609375,-0.3275604248046875,0.064453125
1772457856485949000,2.274948974609375,-1.009368896484375,-0.3101959228515625,0.0718231201171875
1772457856496016600,2.2850166015625,-1.0220794677734375,-0.29510498046875,0.074310302734375
1772457856506084900,2.2950849609375,-1.0386505126953125,-0.27728271484375,0.0749664306640625
1772457856516152800,2.30515283203125,-1.0456085205078125,-0.2656707763671875,0.0782012939453125
1772457856526220800,2.315220703125,-1.03997802734375,-0.25665283203125,0.0866851806640625
1772457856536287700,2.325287841796875,-1.0215911865234375,-0.2523040771484375,0.101226806640625
1772457856546355700,2.335355712890625,-1.0063018798828125,-0.2537384033203125,0.111724853515625
1772457856556424000,2.345423828125,-0.97772216796875,-0.2581634521484375,0.112152099609375
1772457856566492000,2.355491943359375,-0.9464111328125,-0.26593017578125,0.1068267822265625
1772457856576559900,2.365559814453125,-0.9279022216796875,-0.2748870849609375,0.0939483642578125
1772457856586626800,2.375626708984375,-0.9135894775390625,-0.284637451171875,0.0785064697265625
1772457856596694800,2.38569482421875,-0.90234375,-0.2945098876953125,0.0675506591796875
1772457856606763000,2.395762939453125,-0.89691162109375,-0.30230712890625,0.054656982421875
1772457856616830700,2.405830810546875,-0.890655517578125,-0.3103179931640625,0.0405426025390625
1772457856626898700,2.415898681640625,-0.881683349609375,-0.31591796875,0.022705078125
1772457856636966700,2.425966552734375,-0.8810882568359375,-0.3178863525390625,0.0064239501953125
1772457856647033900,2.436033935546875,-0.88189697265625,-0.314208984375,-0.01007080078125
1772457856657101800,2.446101806640625,-0.8871612548828125,-0.3090057373046875,-0.0177001953125
1772457856667169800,2.456169677734375,-0.8946685791015625,-0.307708740234375,-0.0206146240234375
1772457856677237800,2.46623779296875,-0.9054718017578125,-0.300933837890625,-0.0207977294921875
1772457856687306000,2.476305908203125,-0.912261962890625,-0.2971038818359375,-0.0212860107421875
1772457856697374000,2.4863740234375,-0.923736572265625,-0.29461669921875,-0.0254058837890625
1772457856707441000,2.49644091796875,-0.9357757568359375,-0.2930145263671875,-0.024078369140625
1772457856717508900,2.5065087890625,-0.9282073974609375,-0.2983245849609375,-0.01202392578125
1772457856727576800,2.516576904296875,-0.899658203125,-0.3101348876953125,0.004150390625
1772457856737644800,2.526644775390625,-0.8663482666015625,-0.31982421875,0.0152740478515625
1772457856747712800,2.536712646484375,-0.8475494384765625,-0.332122802734375,0.021209716796875
1772457856757780700,2.54678076171875,-0.8489532470703125,-0.343658447265625,0.0176544189453125
1772457856767847700,2.55684765625,-0.846099853515625,-0.3467254638671875,0.010986328125
1772457856777915600,2.56691552734375,-0.839691162109375,-0.3536529541015625,0.00152587890625
1772457856787984000,2.57698388671875,-0.8380279541015625,-0.3569488525390625,-0.0094451904296875
1772457856798051800,2.5870517578125,-0.84149169921875,-0.3575592041015625,-0.019927978515625
1772457856808119800,2.597119873046875,-0.859527587890625,-0.3550872802734375,-0.02685546875
1772457856818187800,2.607187744140625,-0.8916473388671875,-0.34674072265625,-0.0392303466796875
1772457856828254700,2.617254638671875,-0.93505859375,-0.337860107421875,-0.039825439453125
1772457856838323000,2.627322998046875,-0.966217041015625,-0.331512451171875,-0.0342559814453125
1772457856848391000,2.637390869140625,-0.9807281494140625,-0.3246917724609375,-0.0182342529296875
1772457856858459000,2.647458984375,-0.973419189453125,-0.321685791015625,0.0070648193359375
1772457856868526800,2.65752685546875,-0.967498779296875,-0.3205413818359375,0.0304412841796875
1772457856878594800,2.6675947265625,-0.954071044921875,-0.3222503662109375,0.0506591796875
1772457856888661800,2.677661865234375,-0.934051513671875,-0.328948974609375,0.06793212890625
1772457856898729700,2.687729736328125,-0.915771484375,-0.337158203125,0.08038330078125
1772457856908797700,2.697797607421875,-0.89520263671875,-0.34423828125,0.0858001708984375
1772457856918866000,2.707865966796875,-0.8754730224609375,-0.353485107421875,0.091522216796875
1772457856928934000,2.717933837890625,-0.8605499267578125,-0.3643646240234375,0.0901641845703125
1772457856939001900,2.728001953125,-0.8560028076171875,-0.37261962890625,0.0844268798828125
1772457856949068800,2.73806884765625,-0.86077880859375,-0.378875732421875,0.072235107421875
1772457856959136800,2.74813671875,-0.8632965087890625,-0.3860931396484375,0.06146240234375
1772457856969205000,2.758205078125,-0.8638153076171875,-0.39239501953125,0.054412841796875
1772457856979273000,2.76827294921875,-0.8649444580078125,-0.393707275390625,0.0468292236328125
1772457856989340700,2.778340576171875,-0.8729400634765625,-0.3939361572265625,0.042083740234375
1772457856999408600,2.78840869140625,-0.8831634521484375,-0.3890533447265625,0.037353515625
1772457857009475600,2.7984755859375,-0.8995513916015625,-0.3849334716796875,0.0283966064453125
1772457857019543800,2.808543701171875,-0.9272918701171875,-0.3812103271484375,0.017333984375
1772457857029611800,2.81861181640625,-0.9468231201171875,-0.375579833984375,0.0105133056640625
1772457857039679700,2.8286796875,-0.9505157470703125,-0.3732452392578125,0.01776123046875
1772457857049747700,2.838747802734375,-0.9423980712890625,-0.3729705810546875,0.0303802490234375
1772457857059816000,2.84881591796875,-0.938446044921875,-0.37109375,0.0393524169921875
1772457857069883000,2.8588828125,-0.9455108642578125,-0.3683929443359375,0.043182373046875
1772457857079950800,2.868950927734375,-0.9612274169921875,-0.368621826171875,0.039703369140625
1772457857090018800,2.879018798828125,-0.9744110107421875,-0.3706817626953125,0.033233642578125
1772457857100087000,2.889087158203125,-0.9726104736328125,-0.3748779296875,0.030242919921875
1772457857110154800,2.89915478515625,-0.965118408203125,-0.3815460205078125,0.0318756103515625
1772457857120222700,2.90922265625,-0.952484130859375,-0.388671875,0.030731201171875
1772457857130290000,2.9192900390625,-0.94195556640625,-0.38580322265625,0.028717041015625
1772457857140357600,2.929357666015625,-0.9432525634765625,-0.379241943359375,0.025299072265625
1772457857150425900,2.93942578125,-0.9601593017578125,-0.3726806640625,0.01983642578125
1772457857160493800,2.949493896484375,-0.980682373046875,-0.362579345703125,0.0121307373046875
1772457857170561800,2.959561767578125,-0.9933013916015625,-0.3556365966796875,0.00384521484375
1772457857180629800,2.969629638671875,-0.9979248046875,-0.3529510498046875,0.0005340576171875
1772457857190696700,2.97969677734375,-0.99658203125,-0.3524322509765625,0.0010986328125
1772457857200765000,2.989764892578125,-0.9908599853515625,-0.36175537109375,0.004608154296875
1772457857210833000,2.9998330078125,-0.9808197021484375,-0.37567138671875,0.0085296630859375
1772457857220900900,3.00990087890625,-0.96527099609375,-0.38897705078125,0.0080108642578125
1772457857230968800,3.01996875,-0.950958251953125,-0.3944244384765625,-0.0074615478515625
1772457857241036500,3.03003662109375,-0.952850341796875,-0.3972320556640625,-0.0280303955078125
1772457857251104800,3.040104736328125,-0.96441650390625,-0.4006500244140625,-0.0438995361328125
1772457857261171700,3.050171630859375,-0.97320556640625,-0.40765380859375,-0.04534912109375
1772457857271239700,3.06023974609375,-0.96295166015625,-0.41265869140625,-0.0366058349609375
1772457857281307600,3.0703076171875,-0.942413330078125,-0.4099578857421875,-0.0236053466796875
1772457857291375600,3.080375732421875,-0.925537109375,-0.4049224853515625,-0.0120849609375
1772457857301443800,3.09044384765625,-0.9150390625,-0.4009552001953125,0.0014190673828125
1772457857311510800,3.1005107421875,-0.9047698974609375,-0.39837646484375,0.0151214599609375
1772457857321578800,3.110578857421875,-0.9033203125,-0.3930816650390625,0.023223876953125
1772457857331646700,3.120646728515625,-0.8995208740234375,-0.38983154296875,0.0303192138671875
1772457857341714700,3.130714599609375,-0.895172119140625,-0.386322021484375,0.0367889404296875
1772457857351783000,3.140782958984375,-0.896942138671875,-0.3828887939453125,0.0391693115234375
1772457857361850600,3.1508505859375,-0.89715576171875,-0.3820953369140625,0.0401611328125
1772457857371918600,3.160918701171875,-0.8962554931640625,-0.38238525390625,0.040679931640625
1772457857381985800,3.17098583984375,-0.8890380859375,-0.3755340576171875,0.0419769287109375
1772457857392053800,3.1810537109375,-0.884063720703125,-0.3725128173828125,0.0416412353515625
1772457857402121700,3.191121826171875,-0.8911895751953125,-0.3647918701171875,0.037567138671875
1772457857412189700,3.201189697265625,-0.9073486328125,-0.3500823974609375,0.0331878662109375
1772457857422257700,3.211257568359375,-0.925048828125,-0.3320465087890625,0.0315093994140625
1772457857432326000,3.221325927734375,-0.9433441162109375,-0.3182220458984375,0.0311431884765625
1772457857442392800,3.231392822265625,-0.9530487060546875,-0.307861328125,0.0334014892578125
1772457857452460800,3.241460693359375,-0.9564056396484375,-0.3042144775390625,0.0357208251953125
1772457857462528800,3.25152880859375,-0.953277587890625,-0.305419921875,0.036590576171875
1772457857472596700,3.2615966796875,-0.9474639892578125,-0.3128204345703125,0.0358428955078125
1772457857482664700,3.271664794921875,-0.941558837890625,-0.3215789794921875,0.0322113037109375
1772457857492732700,3.281732666015625,-0.93243408203125,-0.329437255859375,0.03460693359375
1772457857502800000,3.2917998046875,-0.914886474609375,-0.3356170654296875,0.044036865234375
1772457857512867600,3.30186767578125,-0.9018402099609375,-0.3409423828125,0.05694580078125
1772457857522935600,3.311935546875,-0.895355224609375,-0.3404083251953125,0.0653076171875
1772457857533003800,3.322003662109375,-0.90106201171875,-0.3329010009765625,0.0663299560546875
1772457857543071700,3.33207177734375,-0.9126129150390625,-0.3228607177734375,0.0648193359375
1772457857553139700,3.3421396484375,-0.9250335693359375,-0.3128814697265625,0.0623931884765625
1772457857563206700,3.35220654296875,-0.93035888671875,-0.3051300048828125,0.0648040771484375
1772457857573275000,3.36227490234375,-0.9318695068359375,-0.299163818359375,0.064727783203125
1772457857583342800,3.3723427734375,-0.934234619140625,-0.294921875,0.0609130859375
1772457857593410800,3.382410888671875,-0.930877685546875,-0.29150390625,0.057708740234375
1772457857603478800,3.392478759765625,-0.9246978759765625,-0.2924041748046875,0.0572967529296875
1772457857613546800,3.402546630859375,-0.9087066650390625,-0.29742431640625,0.060272216796875
1772457857623614000,3.412614013671875,-0.8917694091796875,-0.303955078125,0.06964111328125
1772457857633681700,3.422681640625,-0.8790740966796875,-0.3121337890625,0.07818603515625
1772457857643749600,3.43274951171875,-0.8665924072265625,-0.3213653564453125,0.083648681640625
1772457857653817600,3.442817626953125,-0.85028076171875,-0.330230712890625,0.092041015625
1772457857663885800,3.4528857421875,-0.83837890625,-0.3410491943359375,0.1023406982421875
1772457857673953800,3.462953857421875,-0.8293914794921875,-0.3454437255859375,0.1127471923828125
1772457857684021800,3.473021728515625,-0.82177734375,-0.3466644287109375,0.1196746826171875
1772457857694088700,3.483088623046875,-0.8217926025390625,-0.345703125,0.1217803955078125
1772457857704156700,3.49315673828125,-0.828643798828125,-0.34356689453125,0.11614990234375
1772457857714225000,3.503224853515625,-0.8453216552734375,-0.339935302734375,0.1038818359375
1772457857724292900,3.51329296875,-0.8564453125,-0.3308563232421875,0.088043212890625
1772457857734360600,3.523360595703125,-0.8592376708984375,-0.32415771484375,0.0721893310546875
1772457857744428500,3.533428466796875,-0.8780059814453125,-0.318267822265625,0.0554962158203125
1772457857754495700,3.543495849609375,-0.913055419921875,-0.3100128173828125,0.0374603271484375
1772457857764563700,3.553563720703125,-0.9539794921875,-0.2990570068359375,0.0228424072265625
1772457857774631700,3.563631591796875,-0.9836273193359375,-0.2906951904296875,0.015289306640625
1772457857784699600,3.57369970703125,-1.0040435791015625,-0.282928466796875,0.0182647705078125
1772457857794767600,3.583767578125,-1.018707275390625,-0.2797393798828125,0.028839111328125
1772457857804835800,3.5938359375,-1.02734375,-0.2793426513671875,0.03961181640625
1772457857814902800,3.60390283203125,-1.024566650390625,-0.281494140625,0.05279541015625
1772457857824970800,3.613970703125,-1.007171630859375,-0.286895751953125,0.063385009765625
1772457857835038700,3.624038818359375,-0.9916534423828125,-0.2974090576171875,0.071533203125
1772457857845107000,3.63410693359375,-0.977569580078125,-0.3066558837890625,0.077117919921875
1772457857855174700,3.644174560546875,-0.9637451171875,-0.313629150390625,0.0834503173828125
1772457857865242600,3.65424267578125,-0.9481048583984375,-0.318206787109375,0.0788116455078125
1772457857875309800,3.664309814453125,-0.9349517822265625,-0.326416015625,0.060821533203125
1772457857885377500,3.67437744140625,-0.9265594482421875,-0.333251953125,0.0472259521484375
1772457857895445800,3.68444580078125,-0.92291259765625,-0.3343963623046875,0.0402374267578125
1772457857905513700,3.694513671875,-0.9149169921875,-0.3370513916015625,0.0422210693359375
1772457857915581700,3.704581787109375,-0.90325927734375,-0.3417510986328125,0.0457763671875
1772457857925649700,3.714649658203125,-0.89141845703125,-0.3447723388671875,0.0506744384765625
1772457857935716600,3.724716552734375,-0.8822479248046875,-0.3480987548828125,0.047698974609375
1772457857945784800,3.734784912109375,-0.8751220703125,-0.3477935791015625,0.0437469482421875
1772457857955852800,3.744852783203125,-0.8802947998046875,-0.3517913818359375,0.0359039306640625
1772457857965920800,3.754920654296875,-0.90252685546875,-0.35247802734375,0.0242156982421875
1772457857975988700,3.76498876953125,-0.9180145263671875,-0.3505401611328125,0.017303466796875
1772457857986056700,3.775056640625,-0.927093505859375,-0.3448944091796875,0.0139007568359375
1772457857996124700,3.785124755859375,-0.9375152587890625,-0.34063720703125,0.0182647705078125
1772457858006191600,3.795191650390625,-0.94720458984375,-0.337066650390625,0.022125244140625
1772457858016259600,3.805259521484375,-0.9632568359375,-0.333251953125,0.01275634765625
1772457858026327800,3.815327880859375,-0.96978759765625,-0.33245849609375,0.0081634521484375
1772457858036395800,3.825395751953125,-0.966033935546875,-0.3330078125,0.0076904296875
1772457858046463700,3.835463623046875,-0.955535888671875,-0.3339691162109375,0.013916015625
1772457858056531700,3.84553173828125,-0.9430389404296875,-0.3330230712890625,0.02410888671875
1772457858066598700,3.8555986328125,-0.9332427978515625,-0.3364410400390625,0.0338592529296875
1772457858076667000,3.8656669921875,-0.9292144775390625,-0.3421630859375,0.0364227294921875
1772457858086734800,3.87573486328125,-0.92437744140625,-0.347503662109375,0.04095458984375
1772457858096802800,3.885802734375,-0.9088287353515625,-0.35552978515625,0.0492401123046875
1772457858106870500,3.89587060546875,-0.89190673828125,-0.3623199462890625,0.0588226318359375
1772457858116938800,3.905938720703125,-0.8828887939453125,-0.368927001953125,0.0622406005859375
1772457858127005700,3.916005615234375,-0.8805694580078125,-0.3720245361328125,0.0588226318359375
1772457858137073700,3.92607373046875,-0.881805419921875,-0.378814697265625,0.0539398193359375
1772457858147141600,3.9361416015625,-0.8902740478515625,-0.3827667236328125,0.050506591796875
1772457858157209600,3.946209716796875,-0.895782470703125,-0.3853302001953125,0.05096435546875
1772457858167277800,3.95627783203125,-0.895233154296875,-0.3890380859375,0.0559234619140625
1772457858177345800,3.966345703125,-0.892364501953125,-0.395416259765625,0.0656890869140625
1772457858187413800,3.976413818359375,-0.8881072998046875,-0.3976898193359375,0.0713043212890625
1772457858197479700,3.986479736328125,-0.8922882080078125,-0.3992767333984375,0.0741729736328125
1772457858207547600,3.996547607421875,-0.909881591796875,-0.3993377685546875,0.0749053955078125
1772457858217615600,4.00661572265625,-0.9256439208984375,-0.4000396728515625,0.07696533203125
1772457858227682600,4.0166826171875,-0.942901611328125,-0.4028167724609375,0.0948944091796875
1772457858237750500,4.02675048828125,-0.952301025390625,-0.418487548828125,0.1220245361328125
1772457858247818800,4.03681884765625,-0.934051513671875,-0.415802001953125,0.1302032470703125
1772457858257886700,4.04688671875,-0.940032958984375,-0.4031982421875,0.1136932373046875
1772457858267954700,4.05695458984375,-0.97845458984375,-0.3967437744140625,0.1044464111328125
1772457858278022400,4.0670224609375,-1.00762939453125,-0.3959197998046875,0.096527099609375
1772457858288089600,4.077089599609375,-1.026153564453125,-0.3949127197265625,0.09088134765625
1772457858298157600,4.087157470703125,-1.033935546875,-0.3958587646484375,0.09600830078125
1772457858308225500,4.0972255859375,-1.01708984375,-0.3937225341796875,0.102508544921875
1772457858318293500,4.10729345703125,-1.00543212890625,-0.3895263671875,0.1081695556640625
1772457858328361500,4.117361572265625,-0.9943084716796875,-0.3856048583984375,0.10986328125
1772457858338429700,4.1274296875,-0.9859619140625,-0.386810302734375,0.105072021484375
1772457858348497700,4.13749755859375,-0.990081787109375,-0.384521484375,0.092926025390625
1772457858358564600,4.147564697265625,-1.01043701171875,-0.3714447021484375,0.0744781494140625
1772457858368632600,4.157632568359375,-1.03607177734375,-0.3540802001953125,0.0608978271484375
1772457858378700500,4.167700439453125,-1.0595245361328125,-0.3314208984375,0.061676025390625
1772457858388768800,4.177768798828125,-1.07550048828125,-0.30950927734375,0.064453125
1772457858398836700,4.187836669921875,-1.0880126953125,-0.2890625,0.0640716552734375
1772457858408904400,4.197904541015625,-1.0917510986328125,-0.2660064697265625,0.065582275390625
1772457858418971600,4.2079716796875,-1.08709716796875,-0.23968505859375,0.076812744140625
1772457858429039600,4.21803955078125,-1.08056640625,-0.2191314697265625,0.09393310546875
1772457858439107600,4.228107666015625,-1.0741424560546875,-0.1983795166015625,0.103546142578125
1772457858449175600,4.238175537109375,-1.067352294921875,-0.1800994873046875,0.1110687255859375
1772457858459243500,4.248243408203125,-1.0654144287109375,-0.1694183349609375,0.117340087890625
1772457858469311700,4.258311767578125,-1.0597991943359375,-0.161468505859375,0.11077880859375
1772457858479379700,4.268379638671875,-1.0484466552734375,-0.15997314453125,0.0988311767578125
1772457858489446700,4.27844677734375,-1.0382232666015625,-0.16461181640625,0.0823516845703125
1772457858499514600,4.2885146484375,-1.0293121337890625,-0.1708526611328125,0.0598602294921875
1772457858509582600,4.29858251953125,-1.013427734375,-0.175872802734375,0.035308837890625
1772457858519650800,4.30865087890625,-1.000762939453125,-0.1837310791015625,0.015472412109375
1772457858529718500,4.318718505859375,-0.9952850341796875,-0.189605712890625,0.001495361328125
1772457858539786500,4.328786376953125,-0.9859161376953125,-0.1909027099609375,-0.009490966796875
1772457858549853400,4.338853515625,-0.973297119140625,-0.19415283203125,-0.0165863037109375
1772457858559921400,4.34892138671875,-0.948760986328125,-0.1973419189453125,-0.027099609375
1772457858569989600,4.35898974609375,-0.924041748046875,-0.2027740478515625,-0.0388641357421875
1772457858580057600,4.3690576171875,-0.9034423828125,-0.210662841796875,-0.0465087890625
1772457858590125600,4.37912548828125,-0.8901519775390625,-0.2187957763671875,-0.0468902587890625
1772457858600193500,4.389193603515625,-0.879791259765625,-0.223541259765625,-0.0462493896484375
1772457858610260700,4.3992607421875,-0.868316650390625,-0.2298126220703125,-0.0452423095703125
1772457858620328700,4.40932861328125,-0.8594512939453125,-0.2348785400390625,-0.044830322265625
1772457858630396700,4.419396728515625,-0.8550872802734375,-0.24322509765625,-0.0449676513671875
1772457858640464600,4.429464599609375,-0.84906005859375,-0.253936767578125,-0.0388641357421875
1772457858650532600,4.43953271484375,-0.8312530517578125,-0.2653045654296875,-0.0276641845703125
1772457858660600600,4.4496005859375,-0.8111572265625,-0.27691650390625,-0.01690673828125
1772457858670668500,4.45966845703125,-0.7904815673828125,-0.284820556640625,-0.00689697265625
1772457858680735500,4.469735595703125,-0.7785491943359375,-0.289306640625,-0.004730224609375
1772457858690803500,4.479803466796875,-0.778228759765625,-0.287567138671875,-0.0089263916015625
1772457858700871700,4.48987158203125,-0.78253173828125,-0.286773681640625,-0.017608642578125
1772457858710939600,4.499939697265625,-0.795623779296875,-0.283294677734375,-0.0274505615234375
1772457858721007600,4.510007568359375,-0.8280487060546875,-0.2797088623046875,-0.0406036376953125
1772457858731075600,4.52007568359375,-0.869903564453125,-0.2762908935546875,-0.0569000244140625
1772457858741142500,4.530142578125,-0.9052886962890625,-0.2678680419921875,-0.0688323974609375
1772457858751210800,4.540210693359375,-0.9296722412109375,-0.2577056884765625,-0.0727996826171875
1772457858761278700,4.55027880859375,-0.9428558349609375,-0.2489166259765625,-0.0686492919921875
1772457858771346700,4.5603466796875,-0.9526519775390625,-0.2450714111328125,-0.05706787109375
1772457858781414400,4.570414306640625,-0.96746826171875,-0.242523193359375,-0.04034423828125
1772457858791482600,4.580482666015625,-0.9822540283203125,-0.2398223876953125,-0.019561767578125
1772457858801549600,4.590549560546875,-0.9880828857421875,-0.2421112060546875,0.003814697265625
1772457858811617500,4.600617431640625,-0.972869873046875,-0.2537841796875,0.0229034423828125
1772457858821685500,4.610685546875,-0.9383392333984375,-0.2689056396484375,0.036773681640625
1772457858831753500,4.62075341796875,-0.9056854248046875,-0.290069580078125,0.0426025390625
1772457858841821700,4.63082177734375,-0.8836669921875,-0.3124847412109375,0.042633056640625
1772457858851889700,4.6408896484375,-0.872100830078125,-0.330322265625,0.031494140625
1772457858861957600,4.65095751953125,-0.867156982421875,-0.34295654296875,0.0269317626953125
1772457858872024600,4.661024658203125,-0.86639404296875,-0.35443115234375,0.0260162353515625
1772457858882092800,4.6710927734375,-0.861572265625,-0.36444091796875,0.021392822265625
1772457858892160800,4.681160888671875,-0.8520355224609375,-0.376129150390625,0.0113983154296875
1772457858902228500,4.691228515625,-0.8460235595703125,-0.388916015625,0.003875732421875
1772457858912296400,4.70129638671875,-0.84222412109375,-0.3949127197265625,-0.0013275146484375
1772457858922364700,4.71136474609375,-0.8480224609375,-0.401947021484375,-0.0045928955078125
1772457858932431600,4.721431640625,-0.866607666015625,-0.40594482421875,-0.00933837890625
1772457858942499600,4.73149951171875,-0.8900299072265625,-0.4009552001953125,-0.0118255615234375
1772457858952567600,4.741567626953125,-0.91534423828125,-0.3961639404296875,-0.0117034912109375
1772457858962635500,4.751635498046875,-0.9360809326171875,-0.3890533447265625,-0.0127410888671875
1772457858972703700,4.761703857421875,-0.9497833251953125,-0.37872314453125,-0.0139923095703125
1772457858982771700,4.771771728515625,-0.969024658203125,-0.368896484375,-0.009063720703125
1772457858992839700,4.781839599609375,-0.993988037109375,-0.3574676513671875,-0.0031280517578125
1772457859002906600,4.79190673828125,-1.0153961181640625,-0.3458709716796875,0.00042724609375
1772457859012974600,4.801974609375,-1.0329437255859375,-0.33477783203125,0.0005035400390625
1772457859023042600,4.81204248046875,-1.0420379638671875,-0.3292694091796875,-0.000091552734375
1772457859033110500,4.822110595703125,-1.0506134033203125,-0.3219146728515625,-0.0006561279296875
1772457859043178500,4.832178466796875,-1.05780029296875,-0.315155029296875,0.0024261474609375
1772457859053246500,4.84224658203125,-1.06524658203125,-0.3125457763671875,0.009857177734375
1772457859063314700,4.852314697265625,-1.074951171875,-0.314971923828125,0.0153350830078125
1772457859073381600,4.862381591796875,-1.07550048828125,-0.3238983154296875,0.020050048828125
1772457859083449600,4.87244970703125,-1.049957275390625,-0.3363189697265625,0.0239715576171875
1772457859093517600,4.882517578125,-1.015838623046875,-0.346038818359375,0.0139923095703125
1772457859103585800,4.892585693359375,-0.9982147216796875,-0.351531982421875,-0.0032196044921875
1772457859113653800,4.90265380859375,-1.00885009765625,-0.3592681884765625,-0.0299072265625
1772457859123721500,4.912721435546875,-1.026397705078125,-0.357208251953125,-0.0594635009765625
1772457859133788700,4.92278857421875,-1.0399169921875,-0.34320068359375,-0.077850341796875
1772457859143856600,4.932856689453125,-1.04559326171875,-0.3260040283203125,-0.085906982421875
1772457859153924600,4.942924560546875,-1.0433349609375,-0.3082427978515625,-0.0822601318359375
1772457859163992600,4.95299267578125,-1.0338134765625,-0.28778076171875,-0.0691375732421875
1772457859174060500,4.963060546875,-1.02685546875,-0.277130126953125,-0.05224609375
1772457859184128500,4.97312841796875,-1.0129547119140625,-0.26934814453125,-0.0290985107421875
1772457859194196700,4.98319677734375,-0.982025146484375,-0.2584686279296875,0.0015869140625
1772457859204263700,4.993263671875,-0.94610595703125,-0.2497100830078125,0.0328369140625
1772457859214331400,5.003331298828125,-0.9286041259765625,-0.2449951171875,0.0596771240234375
1772457859224399400,5.0133994140625,-0.92608642578125,-0.24041748046875,0.0701141357421875
1772457859234467600,5.023467529296875,-0.9293212890625,-0.2379913330078125,0.063446044921875
1772457859244535600,5.03353564453125,-0.930877685546875,-0.2386016845703125,0.0504608154296875
1772457859254603300,5.043603271484375,-0.927734375,-0.245941162109375,0.04290771484375
1772457859264670500,5.05367041015625,-0.918121337890625,-0.253997802734375,0.0405120849609375
1772457859274738400,5.063738525390625,-0.898468017578125,-0.264190673828125,0.053009033203125
1772457859284806400,5.073806396484375,-0.87451171875,-0.2719573974609375,0.07159423828125
1772457859294874400,5.083874267578125,-0.8558807373046875,-0.2763519287109375,0.090240478515625
1772457859304942300,5.0939423828125,-0.8375396728515625,-0.280731201171875,0.1085968017578125
1772457859315010600,5.104010498046875,-0.8222198486328125,-0.28216552734375,0.1209259033203125
1772457859325078500,5.11407861328125,-0.8183441162109375,-0.280364990234375,0.125396728515625
1772457859335145500,5.1241455078125,-0.8242034912109375,-0.2725982666015625,0.1239471435546875
1772457859345213400,5.13421337890625,-0.8410186767578125,-0.256805419921875,0.1171722412109375
1772457859355281400,5.144281494140625,-0.8665313720703125,-0.2388763427734375,0.10174560546875
1772457859365349600,5.154349609375,-0.9035186767578125,-0.218597412109375,0.0895843505859375
1772457859375417300,5.164417236328125,-0.94287109375,-0.2014617919921875,0.0777435302734375
1772457859385485300,5.1744853515625,-0.9741973876953125,-0.1833648681640625,0.0732269287109375
1772457859395553300,5.18455322265625,-0.99346923828125,-0.167327880859375,0.0816802978515625
1772457859405620200,5.1946201171875,-1.0000762939453125,-0.15631103515625,0.0953369140625
1772457859415688400,5.2046884765625,-0.997222900390625,-0.1552886962890625,0.115997314453125
1772457859425756400,5.21475634765625,-0.9835052490234375,-0.15972900390625,0.139312744140625
1772457859435824400,5.224824462890625,-0.9625396728515625,-0.1715545654296875,0.16802978515625
1772457859445892400,5.234892333984375,-0.9287261962890625,-0.1849822998046875,0.198455810546875
1772457859455960600,5.244960693359375,-0.8933563232421875,-0.2032623291015625,0.218536376953125
1772457859466027500,5.255027587890625,-0.8661651611328125,-0.2249755859375,0.2256927490234375
1772457859476095500,5.265095458984375,-0.8531646728515625,-0.242645263671875,0.226470947265625
1772457859486163500,5.27516357421875,-0.8521270751953125,-0.2562713623046875,0.21807861328125
1772457859496231700,5.285231689453125,-0.8701629638671875,-0.2626800537109375,0.204620361328125
1772457859506299400,5.29529931640625,-0.8961181640625,-0.264892578125,0.1865692138671875
1772457859516367400,5.305367431640625,-0.925872802734375,-0.2602691650390625,0.163604736328125
1772457859526435300,5.315435302734375,-0.958343505859375,-0.2521209716796875,0.1388397216796875
1772457859536502300,5.325502197265625,-0.9853973388671875,-0.23565673828125,0.1144561767578125
1772457859546570500,5.335570556640625,-1.0178985595703125,-0.2222137451171875,0.0952301025390625
1772457859556638500,5.345638427734375,-1.05657958984375,-0.2072906494140625,0.07598876953125
1772457859566706400,5.35570654296875,-1.087799072265625,-0.1981658935546875,0.062835693359375
1772457859576774400,5.3657744140625,-1.10369873046875,-0.1924285888671875,0.06292724609375
1772457859586842600,5.375842529296875,-1.10675048828125,-0.1933746337890625,0.0712432861328125
1772457859596910600,5.38591064453125,-1.0940093994140625,-0.1965179443359375,0.0921783447265625
1772457859606977500,5.3959775390625,-1.065643310546875,-0.20166015625,0.115020751953125
1772457859617045500,5.40604541015625,-1.041351318359375,-0.2082672119140625,0.1281890869140625
1772457859627113200,5.41611328125,-1.02166748046875,-0.21575927734375,0.13299560546875
1772457859637181400,5.426181396484375,-0.996307373046875,-0.2291259765625,0.13323974609375
1772457859647249400,5.43624951171875,-0.9730682373046875,-0.241363525390625,0.1324005126953125
1772457859657317400,5.4463173828125,-0.9529266357421875,-0.25286865234375,0.1304931640625
1772457859667384300,5.45638427734375,-0.9393157958984375,-0.2593536376953125,0.1256866455078125
1772457859677452300,5.466452392578125,-0.9341583251953125,-0.26373291015625,0.1181488037109375
1772457859687520500,5.4765205078125,-0.9296875,-0.266937255859375,0.1092681884765625
1772457859697588500,5.48658837890625,-0.92584228515625,-0.2739715576171875,0.1079559326171875
1772457859707656400,5.496656494140625,-0.926605224609375,-0.27825927734375,0.1024322509765625
1772457859717724700,5.506724609375,-0.9199981689453125,-0.2808685302734375,0.100372314453125
1772457859727792400,5.51679248046875,-0.9172515869140625,-0.28778076171875,0.097991943359375
1772457859737859600,5.526859619140625,-0.918548583984375,-0.2919921875,0.093963623046875
1772457859747927600,5.536927490234375,-0.9218902587890625,-0.2983551025390625,0.0841522216796875
1772457859757995300,5.546995361328125,-0.934051513671875,-0.3037261962890625,0.07220458984375
1772457859768063500,5.5570634765625,-0.946136474609375,-0.3077850341796875,0.0585784912109375
1772457859778131500,5.56713134765625,-0.9466705322265625,-0.3114166259765625,0.053680419921875
1772457859788199400,5.577199462890625,-0.944091796875,-0.31451416015625,0.055389404296875
1772457859798267400,5.587267333984375,-0.943939208984375,-0.3155059814453125,0.05804443359375
1772457859808334300,5.597334228515625,-0.9479827880859375,-0.3125762939453125,0.0593719482421875
1772457859818402600,5.607402587890625,-0.968170166015625,-0.3055572509765625,0.0594940185546875
1772457859828470500,5.617470458984375,-0.99163818359375,-0.29388427734375,0.0570831298828125
1772457859838538500,5.62753857421875,-1.001373291015625,-0.2897491455078125,0.0594482421875
1772457859848606500,5.6376064453125,-0.995452880859375,-0.2845306396484375,0.067657470703125
1772457859858674400,5.64767431640625,-0.9806671142578125,-0.2833251953125,0.0728912353515625
1772457859868742400,5.657742431640625,-0.9616851806640625,-0.2843170166015625,0.077056884765625
1772457859878809300,5.667809326171875,-0.93927001953125,-0.288604736328125,0.07757568359375
1772457859888877300,5.677877197265625,-0.917755126953125,-0.295440673828125,0.08050537109375
1772457859898945300,5.6879453125,-0.904693603515625,-0.30279541015625,0.07965087890625
1772457859909013500,5.698013427734375,-0.9000244140625,-0.3082275390625,0.0780029296875
1772457859919081500,5.70808154296875,-0.8985137939453125,-0.3062286376953125,0.0767364501953125
1772457859929149400,5.7181494140625,-0.8985443115234375,-0.30780029296875,0.080413818359375
1772457859939217400,5.728217529296875,-0.89703369140625,-0.308319091796875,0.0816497802734375
1772457859949284600,5.73828466796875,-0.901763916015625,-0.306488037109375,0.0839691162109375
1772457859959352600,5.7483525390625,-0.911712646484375,-0.30511474609375,0.0893402099609375
1772457859969420500,5.758420654296875,-0.9162445068359375,-0.309051513671875,0.1008453369140625
1772457859979488300,5.76848828125,-0.91290283203125,-0.318634033203125,0.115692138671875
1772457859989556500,5.778556396484375,-0.9051666259765625,-0.3285980224609375,0.1327972412109375
1772457859999624400,5.78862451171875,-0.9061431884765625,-0.32696533203125,0.139129638671875
1772457860009692400,5.7986923828125,-0.9215240478515625,-0.32012939453125,0.1383514404296875
1772457860019759400,5.80875927734375,-0.9521942138671875,-0.31512451171875,0.1317138671875
1772457860029827300,5.818827392578125,-0.9768829345703125,-0.31097412109375,0.128662109375
1772457860039895600,5.8288955078125,-0.98687744140625,-0.3079833984375,0.1267547607421875
1772457860049963500,5.838963623046875,-0.994232177734375,-0.3065185546875,0.1204681396484375
1772457860060031500,5.849031494140625,-0.999420166015625,-0.3089752197265625,0.1162261962890625
1772457860070099500,5.859099365234375,-0.9996185302734375,-0.3108673095703125,0.11334228515625
1772457860080166400,5.86916650390625,-1.001312255859375,-0.3093414306640625,0.1170196533203125
1772457860090234600,5.879234619140625,-1.003509521484375,-0.3045806884765625,0.123443603515625
1772457860100302300,5.88930224609375,-1.0061798095703125,-0.2970428466796875,0.131988525390625
1772457860110370300,5.899370361328125,-1.0018310546875,-0.2950286865234375,0.1410369873046875
1772457860120438300,5.909438232421875,-0.9886322021484375,-0.2928619384765625,0.1546173095703125
1772457860130506500,5.919506591796875,-0.983795166015625,-0.292236328125,0.165313720703125
1772457860140574500,5.929574462890625,-0.98480224609375,-0.2882080078125,0.1683197021484375
1772457860150641400,5.939641357421875,-0.989410400390625,-0.2828521728515625,0.1679840087890625
1772457860160709400,5.94970947265625,-0.990325927734375,-0.2794036865234375,0.1688385009765625
1772457860170777600,5.959777587890625,-0.9808197021484375,-0.2795562744140625,0.1645965576171875
1772457860180845600,5.969845458984375,-0.9720306396484375,-0.2699432373046875,0.1607818603515625
1772457860190913500,5.97991357421875,-0.9626922607421875,-0.2547607421875,0.15087890625
1772457860200981500,5.9899814453125,-0.96771240234375,-0.2429656982421875,0.1385650634765625
1772457860211049200,6.00004931640625,-0.990875244140625,-0.2299652099609375,0.116729736328125
1772457860221116400,6.010116455078125,-1.0253143310546875,-0.2155303955078125,0.0885467529296875
1772457860231184100,6.02018408203125,-1.05413818359375,-0.201019287109375,0.0614013671875
1772457860241252000,6.030252197265625,-1.0720367431640625,-0.190093994140625,0.0307159423828125
1772457860251320000,6.040320068359375,-1.0841827392578125,-0.1846923828125,-0.0000152587890625
1772457860261388300,6.05038818359375,-1.0966033935546875,-0.18011474609375,-0.0251007080078125
1772457860271456300,6.060456298828125,-1.10174560546875,-0.1753082275390625,-0.049468994140625
1772457860281524200,6.070524169921875,-1.0917510986328125,-0.167022705078125,-0.062957763671875
1772457860291591200,6.080591064453125,-1.0645599365234375,-0.156158447265625,-0.059112548828125
1772457860301659400,6.090659423828125,-1.03375244140625,-0.143218994140625,-0.0445098876953125
1772457860311727400,6.100727294921875,-1.0078582763671875,-0.132232666015625,-0.0279388427734375
1772457860321795300,6.11079541015625,-0.992767333984375,-0.12738037109375,-0.010955810546875
1772457860331863000,6.120863037109375,-0.9796142578125,-0.12445068359375,0.010101318359375
1772457860341931300,6.13093115234375,-0.9535980224609375,-0.1259307861328125,0.0288848876953125
1772457860351999200,6.140999267578125,-0.9306488037109375,-0.1292877197265625,0.0424041748046875
1772457860362066200,6.151066162109375,-0.91192626953125,-0.1328887939453125,0.0445709228515625
1772457860372134100,6.161134033203125,-0.8971405029296875,-0.1392059326171875,0.0434417724609375
1772457860382202000,6.1712021484375,-0.8912506103515625,-0.1459503173828125,0.03570556640625
1772457860392270300,6.181270263671875,-0.8930511474609375,-0.1527252197265625,0.0246429443359375
1772457860402338300,6.19133837890625,-0.891845703125,-0.155670166015625,0.01104736328125
1772457860412406300,6.20140625,-0.8817291259765625,-0.158599853515625,-0.00103759765625
1772457860422474200,6.21147412109375,-0.863616943359375,-0.1633453369140625,-0.0071868896484375
1772457860432541200,6.221541259765625,-0.855133056640625,-0.1714324951171875,-0.01434326171875
1772457860442609400,6.231609375,-0.8603973388671875,-0.1776580810546875,-0.0290985107421875
1772457860452677400,6.241677490234375,-0.861053466796875,-0.1797332763671875,-0.0326385498046875
1772457860462745000,6.2517451171875,-0.8629608154296875,-0.18707275390625,-0.0305633544921875
1772457860472813000,6.26181298828125,-0.8797607421875,-0.1912841796875,-0.0244293212890625
1772457860482881300,6.27188134765625,-0.9073028564453125,-0.19146728515625,-0.0186614990234375
1772457860492949200,6.28194921875,-0.926727294921875,-0.19189453125,-0.0126495361328125
1772457860503016200,6.29201611328125,-0.9383544921875,-0.1902313232421875,-0.0042266845703125
1772457860513084200,6.302084228515625,-0.9380950927734375,-0.1918487548828125,0.010040283203125
1772457860523152400,6.31215234375,-0.9396514892578125,-0.1952056884765625,0.026336669921875
1772457860533220400,6.322220458984375,-0.9451904296875,-0.1974334716796875,0.0416259765625
1772457860543288300,6.332288330078125,-0.9494171142578125,-0.2004547119140625,0.0533905029296875
1772457860553356300,6.342356201171875,-0.9508056640625,-0.2069091796875,0.0624542236328125
1772457860563424300,6.35242431640625,-0.9416961669921875,-0.21527099609375,0.065155029296875
1772457860573491500,6.362491455078125,-0.9232177734375,-0.2225799560546875,0.0677337646484375
1772457860583559200,6.37255908203125,-0.904541015625,-0.23638916015625,0.070953369140625
1772457860593627100,6.382627197265625,-0.8993072509765625,-0.2447357177734375,0.067169189453125
1772457860603695000,6.392695068359375,-0.9097442626953125,-0.24688720703125,0.059173583984375
1772457860613763300,6.402763427734375,-0.923828125,-0.2483367919921875,0.045623779296875
1772457860623831300,6.412831298828125,-0.9368743896484375,-0.2515106201171875,0.0302886962890625
1772457860633899300,6.422899169921875,-0.94384765625,-0.2529144287109375,0.01434326171875
1772457860643966200,6.43296630859375,-0.9521484375,-0.2565765380859375,-0.003570556640625
1772457860654034200,6.4430341796875,-0.9638519287109375,-0.2481689453125,-0.0243988037109375
1772457860664102400,6.453102294921875,-0.9748687744140625,-0.2381744384765625,-0.037689208984375
1772457860674170400,6.46317041015625,-0.989959716796875,-0.22393798828125,-0.04937744140625
1772457860684238000,6.473238037109375,-1.009979248046875,-0.2078399658203125,-0.06072998046875
1772457860694306000,6.48330615234375,-1.0288238525390625,-0.195404052734375,-0.0649566650390625
1772457860704374300,6.493374267578125,-1.04351806640625,-0.184722900390625,-0.0614776611328125
1772457860714442200,6.503442138671875,-1.05303955078125,-0.177703857421875,-0.055755615234375
1772457860724509200,6.51350927734375,-1.0575103759765625,-0.1708526611328125,-0.05029296875
1772457860734577200,6.5235771484375,-1.044281005859375,-0.1692962646484375,-0.0428466796875
1772457860744645000,6.53364501953125,-1.028961181640625,-0.1697235107421875,-0.03411865234375
1772457860754713300,6.54371337890625,-1.0153045654296875,-0.1704559326171875,-0.02374267578125
1772457860764781300,6.55378125,-1.003570556640625,-0.171478271484375,-0.01605224609375
1772457860774849300,6.563849365234375,-0.9931488037109375,-0.1767425537109375,-0.0129547119140625
1772457860784917000,6.5739169921875,-0.9843902587890625,-0.1854248046875,-0.0180816650390625
1772457860794984400,6.583984375,-0.9802093505859375,-0.1944427490234375,-0.0260009765625
1772457860805052200,6.59405224609375,-0.9743804931640625,-0.202789306640625,-0.029388427734375
1772457860815120100,6.6041201171875,-0.96588134765625,-0.21142578125,-0.0322113037109375
1772457860825188000,6.61418798828125,-0.9613189697265625,-0.217681884765625,-0.0340728759765625
1772457860835256300,6.62425634765625,-0.962677001953125,-0.2186737060546875,-0.0376129150390625
1772457860845324300,6.63432421875,-0.970947265625,-0.2149200439453125,-0.0420989990234375
1772457860855392300,6.644392333984375,-0.992095947265625,-0.2071990966796875,-0.0486297607421875
1772457860865459200,6.654459228515625,-1.0093841552734375,-0.1929931640625,-0.0550079345703125
1772457860875527200,6.664527099609375,-1.022796630859375,-0.179962158203125,-0.056365966796875
1772457860885595400,6.674595458984375,-1.032073974609375,-0.1665496826171875,-0.0585174560546875
1772457860895663400,6.684663330078125,-1.0497894287109375,-0.1515350341796875,-0.065216064453125
1772457860905731300,6.6947314453125,-1.0718231201171875,-0.13372802734375,-0.069488525390625
1772457860915799000,6.704799072265625,-1.0879974365234375,-0.120391845703125,-0.06512451171875
1772457860925867300,6.7148671875,-1.09344482421875,-0.1125946044921875,-0.0544281005859375
1772457860935934200,6.724934326171875,-1.08197021484375,-0.112945556640625,-0.0387725830078125
1772457860946002200,6.735002197265625,-1.057403564453125,-0.1256103515625,-0.024322509765625
1772457860956070100,6.745070068359375,-1.0346832275390625,-0.14947509765625,-0.0169830322265625
1772457860966138000,6.75513818359375,-1.0150909423828125,-0.176971435546875,-0.0158538818359375
1772457860976206300,6.765206298828125,-0.999847412109375,-0.2032012939453125,-0.0245208740234375
1772457860986274300,6.7752744140625,-0.9923248291015625,-0.2219085693359375,-0.04412841796875
1772457860996342300,6.78534228515625,-0.99322509765625,-0.2324066162109375,-0.0589752197265625
1772457861006409200,6.7954091796875,-0.994476318359375,-0.2351531982421875,-0.061676025390625
1772457861016477400,6.8054775390625,-0.98577880859375,-0.22979736328125,-0.0494232177734375
1772457861026545400,6.81554541015625,-0.9853057861328125,-0.218994140625,-0.028839111328125
1772457861036613000,6.825613037109375,-0.9876556396484375,-0.2067108154296875,-0.0078582763671875
1772457861046681000,6.83568115234375,-0.9953155517578125,-0.195648193359375,0.0084228515625
1772457861056749300,6.845749267578125,-1.0069732666015625,-0.186798095703125,0.015716552734375
1772457861066817300,6.8558173828125,-1.01806640625,-0.183380126953125,0.020721435546875
1772457861076884200,6.86588427734375,-1.02288818359375,-0.1804351806640625,0.0247955322265625
1772457861086952200,6.8759521484375,-1.0196075439453125,-0.177642822265625,0.0301971435546875
1772457861097020200,6.886020263671875,-1.01080322265625,-0.17742919921875,0.0329437255859375
1772457861107088400,6.89608837890625,-1.00262451171875,-0.1744842529296875,0.034393310546875
1772457861117156400,6.90615625,-0.994659423828125,-0.166656494140625,0.0423583984375
1772457861127224300,6.916224365234375,-0.9969940185546875,-0.1628265380859375,0.052459716796875
1772457861137292000,6.9262919921875,-1.002838134765625,-0.1550140380859375,0.0688629150390625
1772457861147360300,6.9363603515625,-1.011688232421875,-0.14825439453125,0.0852203369140625
1772457861157427200,6.94642724609375,-1.0131072998046875,-0.141693115234375,0.0964202880859375
1772457861167495200,6.9564951171875,-1.0025787353515625,-0.1362457275390625,0.1040496826171875
1772457861177563100,6.966563232421875,-0.9938201904296875,-0.1362457275390625,0.1046905517578125
1772457861187631000,6.976631103515625,-0.994415283203125,-0.136993408203125,0.0967254638671875
1772457861197699300,6.98669921875,-0.9997406005859375,-0.137542724609375,0.0934600830078125
1772457861207767300,6.996767333984375,-0.9936981201171875,-0.143646240234375,0.093414306640625
1772457861217835800,7.006835693359375,-0.9795684814453125,-0.1474151611328125,0.094512939453125
1772457861227902700,7.01690283203125,-0.9662628173828125,-0.151580810546875,0.0940399169921875
1772457861237970700,7.026970703125,-0.9536285400390625,-0.15838623046875,0.090667724609375
1772457861248038700,7.03703857421875,-0.946563720703125,-0.1660919189453125,0.077789306640625
1772457861258106600,7.047106689453125,-0.944671630859375,-0.17041015625,0.0613250732421875
1772457861268174600,7.057174560546875,-0.9387054443359375,-0.1688079833984375,0.0557861328125
1772457861278242600,7.06724267578125,-0.9199981689453125,-0.1685791015625,0.060150146484375
1772457861288310500,7.077310546875,-0.903289794921875,-0.166259765625,0.0677337646484375
1772457861298377500,7.08737744140625,-0.8866729736328125,-0.1650390625,0.0792236328125
1772457861308445700,7.09744580078125,-0.8706817626953125,-0.1622161865234375,0.08892822265625
1772457861318513700,7.107513671875,-0.8542022705078125,-0.1648101806640625,0.10052490234375
1772457861328581600,7.11758154296875,-0.834716796875,-0.1693267822265625,0.1083526611328125
1772457861338649600,7.127649658203125,-0.8104248046875,-0.180023193359375,0.116729736328125
1772457861348717600,7.137717529296875,-0.79254150390625,-0.189849853515625,0.12384033203125
1772457861358785500,7.14778564453125,-0.77972412109375,-0.1956024169921875,0.13555908203125
1772457861368852700,7.157852783203125,-0.782623291015625,-0.1975555419921875,0.1475372314453125
1772457861378920400,7.16792041015625,-0.803436279296875,-0.1957855224609375,0.1558990478515625
1772457861388988400,7.177988525390625,-0.82073974609375,-0.190216064453125,0.1617279052734375
1772457861399056600,7.188056640625,-0.8338775634765625,-0.1873931884765625,0.1680908203125
1772457861409124600,7.19812451171875,-0.84375,-0.1875457763671875,0.170013427734375
1772457861419192600,7.208192626953125,-0.8584442138671875,-0.1868438720703125,0.1732940673828125
1772457861429260500,7.218260498046875,-0.8641204833984375,-0.1820220947265625,0.1807861328125
1772457861439328800,7.228328857421875,-0.8719940185546875,-0.1748199462890625,0.1900482177734375
1772457861449395700,7.238395751953125,-0.8914031982421875,-0.168609619140625,0.19024658203125
1772457861459463700,7.248463623046875,-0.9120941162109375,-0.155029296875,0.1875457763671875
1772457861469531600,7.25853173828125,-0.932037353515625,-0.1409759521484375,0.1837615966796875
1772457861479599600,7.268599609375,-0.9565277099609375,-0.132965087890625,0.1779937744140625
1772457861489667600,7.27866748046875,-0.9925079345703125,-0.1241607666015625,0.16619873046875
1772457861499735600,7.288735595703125,-1.03509521484375,-0.1156463623046875,0.1515960693359375
1772457861509803500,7.298803466796875,-1.0747222900390625,-0.110137939453125,0.13726806640625
1772457861519870500,7.308870361328125,-1.1153717041015625,-0.111083984375,0.1230010986328125
1772457861529938700,7.318938720703125,-1.1404876708984375,-0.118408203125,0.1174163818359375
1772457861540006700,7.329006591796875,-1.1342315673828125,-0.134552001953125,0.1142425537109375
1772457861550074600,7.33907470703125,-1.104461669921875,-0.1528472900390625,0.1122283935546875
1772457861560142600,7.349142578125,-1.072113037109375,-0.1719970703125,0.1082763671875
1772457861570210800,7.3592109375,-1.054107666015625,-0.186004638671875,0.1018218994140625
1772457861580278500,7.369278564453125,-1.046661376953125,-0.198699951171875,0.0965728759765625
1772457861590346500,7.379346435546875,-1.0471038818359375,-0.2067108154296875,0.0936126708984375
1772457861600413400,7.389413330078125,-1.0550994873046875,-0.211273193359375,0.0888671875
1772457861610481400,7.3994814453125,-1.0673980712890625,-0.2161712646484375,0.078948974609375
1772457861620549600,7.409549560546875,-1.076263427734375,-0.2179718017578125,0.0626678466796875
1772457861630617600,7.41961767578125,-1.085601806640625,-0.21923828125,0.043548583984375
1772457861640685600,7.429685546875,-1.082672119140625,-0.2241973876953125,0.029449462890625
1772457861650753500,7.43975341796875,-1.0670166015625,-0.2332763671875,0.0181121826171875
1772457861660821800,7.44982177734375,-1.0439300537109375,-0.246429443359375,0.011016845703125
1772457861670888700,7.459888671875,-1.020477294921875,-0.25506591796875,0.0054473876953125
1772457861680956700,7.469956787109375,-1.0018310546875,-0.261993408203125,0.0038604736328125
1772457861691024600,7.480024658203125,-0.992218017578125,-0.2713165283203125,-0.004150390625
1772457861701092600,7.490092529296875,-0.9832305908203125,-0.2774658203125,-0.01153564453125
1772457861711160600,7.50016064453125,-0.9806365966796875,-0.2817230224609375,-0.0240478515625
1772457861721228500,7.510228515625,-0.9814300537109375,-0.2862396240234375,-0.0333404541015625
1772457861731296500,7.520296630859375,-0.9756927490234375,-0.2869110107421875,-0.0343780517578125
1772457861741363500,7.530363525390625,-0.9615020751953125,-0.2862701416015625,-0.029296875
1772457861751431700,7.540431640625,-0.9491729736328125,-0.28277587890625,-0.018341064453125
1772457861761499600,7.550499755859375,-0.938232421875,-0.2792816162109375,-0.005767822265625
1772457861771567600,7.560567626953125,-0.931610107421875,-0.2777252197265625,0.00677490234375
1772457861781635600,7.570635498046875,-0.9326171875,-0.276397705078125,0.0155029296875
1772457861791703800,7.580703857421875,-0.935760498046875,-0.2724151611328125,0.0184783935546875
1772457861801771500,7.590771484375,-0.941436767578125,-0.27227783203125,0.0210723876953125
1772457861811839500,7.600839599609375,-0.937042236328125,-0.2733306884765625,0.0247650146484375
1772457861821906700,7.61090673828125,-0.9283294677734375,-0.278167724609375,0.0293731689453125
1772457861831974400,7.620974365234375,-0.92266845703125,-0.2870330810546875,0.0327301025390625
1772457861842042600,7.631042724609375,-0.9199676513671875,-0.29443359375,0.0355682373046875
1772457861852110600,7.641110595703125,-0.91644287109375,-0.301177978515625,0.0437469482421875
1772457861862178600,7.651178466796875,-0.9035797119140625,-0.3087615966796875,0.0554962158203125
1772457861872246500,7.66124658203125,-0.894012451171875,-0.312957763671875,0.06549072265625
1772457861882314800,7.671314697265625,-0.89361572265625,-0.3166046142578125,0.072906494140625
1772457861892381700,7.681381591796875,-0.8986968994140625,-0.318634033203125,0.077484130859375
1772457861902449700,7.69144970703125,-0.90423583984375,-0.32177734375,0.08380126953125
1772457861912517600,7.701517578125,-0.9109649658203125,-0.3250732421875,0.0912017822265625
1772457861922585600,7.711585693359375,-0.906158447265625,-0.3274383544921875,0.1036834716796875
1772457861932653600,7.721653564453125,-0.89263916015625,-0.334808349609375,0.116424560546875
1772457861942721500,7.731721435546875,-0.879302978515625,-0.342376708984375,0.1268157958984375
1772457861952789500,7.74178955078125,-0.87457275390625,-0.3532257080078125,0.1301422119140625
1772457861962856400,7.7518564453125,-0.87408447265625,-0.3648223876953125,0.126007080078125
1772457861972924700,7.761924560546875,-0.8862152099609375,-0.3723297119140625,0.1170654296875
1772457861982992600,7.77199267578125,-0.9049072265625,-0.3699493408203125,0.107391357421875
1772457861993060600,7.782060546875,-0.923980712890625,-0.3633880615234375,0.09906005859375
1772457862003128600,7.792128662109375,-0.944854736328125,-0.3592529296875,0.08624267578125
1772457862013196800,7.80219677734375,-0.9586334228515625,-0.3520050048828125,0.0680999755859375
1772457862023264800,7.8122646484375,-0.971099853515625,-0.342315673828125,0.050567626953125
1772457862033332500,7.82233251953125,-0.983489990234375,-0.3317718505859375,0.0299224853515625
1772457862043399700,7.832399658203125,-1.00323486328125,-0.3190460205078125,0.013580322265625
1772457862053467400,7.84246728515625,-1.0337066650390625,-0.3054656982421875,-0.0005645751953125
1772457862063535600,7.85253564453125,-1.0515899658203125,-0.287628173828125,-0.0012359619140625
1772457862073603600,7.862603515625,-1.0472412109375,-0.27362060546875,0.01007080078125
1772457862083671600,7.872671630859375,-1.03076171875,-0.2664947509765625,0.027923583984375
1772457862093739500,7.882739501953125,-1.003662109375,-0.2622222900390625,0.0455780029296875
1772457862103807700,7.892807861328125,-0.9786834716796875,-0.259063720703125,0.06097412109375
1772457862113875700,7.902875732421875,-0.9640350341796875,-0.25750732421875,0.07476806640625
1772457862123942700,7.912942626953125,-0.949188232421875,-0.262420654296875,0.078521728515625
1772457862134010600,7.9230107421875,-0.936676025390625,-0.2703399658203125,0.07794189453125
1772457862144078600,7.93307861328125,-0.923553466796875,-0.2787322998046875,0.0714263916015625
1772457862154146600,7.943146484375,-0.9020233154296875,-0.2877960205078125,0.062896728515625
1772457862164214500,7.953214599609375,-0.8910675048828125,-0.3013763427734375,0.051666259765625
1772457862174282500,7.963282470703125,-0.8871002197265625,-0.308807373046875,0.0360107421875
1772457862184350500,7.9733505859375,-0.8877105712890625,-0.3149871826171875,0.024566650390625
1772457862194417700,7.983417724609375,-0.89141845703125,-0.319732666015625,0.0194091796875
1772457862204485600,7.993485595703125,-0.894775390625,-0.3195953369140625,0.0118865966796875
1772457862214553600,8.0035537109375,-0.91217041015625,-0.315399169921875,0.0081787109375
1772457862224621600,8.01362158203125,-0.9366607666015625,-0.3090057373046875,0.0047760009765625
1772457862234689500,8.023689453125,-0.957122802734375,-0.3036956787109375,0.00006103515625
1772457862244757800,8.0337578125,-0.9707794189453125,-0.2997894287109375,-0.0059356689453125
1772457862254825500,8.043825439453125,-0.9783782958984375,-0.29888916015625,-0.0109405517578125
1772457862264892700,8.053892578125,-0.9842071533203125,-0.298370361328125,-0.01275634765625
1772457862274960600,8.063960693359375,-0.983489990234375,-0.2942352294921875,-0.008819580078125
1772457862285028400,8.0740283203125,-0.9815673828125,-0.28997802734375,0.001434326171875
1772457862295096600,8.0840966796875,-0.986785888671875,-0.283477783203125,0.0053863525390625
1772457862305164500,8.09416455078125,-0.995635986328125,-0.27734375,0.0047607421875
1772457862315232500,8.104232421875,-0.9997100830078125,-0.2701873779296875,0.003814697265625
1772457862325300500,8.114300537109376,-1.00347900390625,-0.2659454345703125,0.001800537109375
1772457862335368700,8.12436865234375,-1.0115814208984375,-0.2615509033203125,-0.004638671875
1772457862345435600,8.134435546875,-1.019317626953125,-0.2552490234375,-0.01031494140625
1772457862355503600,8.144503662109376,-1.02996826171875,-0.249481201171875,-0.0191192626953125
1772457862365571600,8.154571533203125,-1.0418701171875,-0.2398681640625,-0.02264404296875
1772457862375639600,8.1646396484375,-1.04302978515625,-0.22998046875,-0.0160675048828125
1772457862385707500,8.17470751953125,-1.0287628173828125,-0.2215576171875,-0.0061187744140625
1772457862395775500,8.184775390625,-1.01263427734375,-0.21649169921875,0.003265380859375
1772457862405843500,8.194843505859374,-0.9984893798828125,-0.2119903564453125,0.0145111083984375
1772457862415911700,8.20491162109375,-0.9887542724609375,-0.2068023681640625,0.020355224609375
1772457862425978600,8.214978515625,-0.979339599609375,-0.2009735107421875,0.0239105224609375
1772457862436046600,8.225046630859374,-0.9577484130859375,-0.1975860595703125,0.0250396728515625
1772457862446114600,8.235114501953126,-0.929443359375,-0.19873046875,0.0314483642578125
1772457862456182500,8.2451826171875,-0.9008331298828125,-0.2057037353515625,0.03839111328125
1772457862466250800,8.255250732421874,-0.8680267333984375,-0.2122039794921875,0.044921875
1772457862476318700,8.265318603515626,-0.8447723388671875,-0.22393798828125,0.0468597412109375
1772457862486386400,8.275386474609375,-0.8427886962890625,-0.230560302734375,0.041046142578125
1772457862496454400,8.285454345703124,-0.844482421875,-0.2353057861328125,0.0283355712890625
1772457862506521300,8.295521240234375,-0.848236083984375,-0.2420196533203125,0.0068817138671875
1772457862516589600,8.305589599609375,-0.8554840087890625,-0.2435150146484375,-0.017547607421875
1772457862526657500,8.315657470703124,-0.8645782470703125,-0.243621826171875,-0.04083251953125
1772457862536725500,8.3257255859375,-0.8874359130859375,-0.2408905029296875,-0.0645904541015625
1772457862546793500,8.33579345703125,-0.91180419921875,-0.2339935302734375,-0.0863189697265625
1772457862556861700,8.34586181640625,-0.93255615234375,-0.2268829345703125,-0.098297119140625
1772457862566929700,8.3559296875,-0.9477386474609375,-0.2185211181640625,-0.1005096435546875
1772457862576996600,8.36599658203125,-0.9517669677734375,-0.214752197265625,-0.0928955078125
1772457862587064600,8.376064697265624,-0.9521331787109375,-0.2122955322265625,-0.0762176513671875
1772457862597132800,8.3861328125,-0.9587860107421875,-0.2089996337890625,-0.0602874755859375
1772457862607200500,8.396200439453125,-0.97662353515625,-0.2064971923828125,-0.0539398193359375
1772457862617268500,8.4062685546875,-0.9942474365234375,-0.209259033203125,-0.045257568359375
1772457862627336400,8.41633642578125,-0.9946746826171875,-0.2217559814453125,-0.033111572265625
1772457862637404700,8.42640478515625,-0.973541259765625,-0.23919677734375,-0.0259552001953125
1772457862647472600,8.43647265625,-0.95361328125,-0.2566986083984375,-0.0206451416015625
1772457862657539600,8.44653955078125,-0.9373779296875,-0.2704315185546875,-0.0186614990234375
1772457862667607600,8.456607666015625,-0.923431396484375,-0.2812347412109375,-0.0200958251953125
1772457862677675500,8.466675537109374,-0.9188690185546875,-0.292816162109375,-0.026824951171875
1772457862687743700,8.47674365234375,-0.91485595703125,-0.3014068603515625,-0.0349884033203125
1772457862697811700,8.486811767578125,-0.9132080078125,-0.3104705810546875,-0.04010009765625
1772457862707879400,8.49687939453125,-0.9088897705078125,-0.321380615234375,-0.036102294921875
1772457862717947400,8.506947509765626,-0.9025115966796875,-0.3274993896484375,-0.036224365234375
1772457862728015600,8.517015625,-0.9131317138671875,-0.3385009765625,-0.044647216796875
1772457862738082600,8.52708251953125,-0.9277496337890625,-0.34124755859375,-0.0558929443359375
1772457862748150500,8.537150634765625,-0.9434051513671875,-0.34027099609375,-0.0666046142578125
1772457862758218500,8.547218505859375,-0.959075927734375,-0.3389434814453125,-0.0717926025390625
1772457862768286500,8.557286376953124,-0.9679718017578125,-0.338531494140625,-0.0708160400390625
1772457862778354700,8.567354736328125,-0.9696502685546875,-0.33721923828125,-0.0613861083984375
1772457862788422700,8.577422607421875,-0.9766845703125,-0.333404541015625,-0.0503692626953125
1772457862798490600,8.58749072265625,-0.97796630859375,-0.3313140869140625,-0.0396881103515625
1772457862808558600,8.59755859375,-0.9813690185546875,-0.3291015625,-0.02899169921875
1772457862818625500,8.60762548828125,-0.9810638427734375,-0.325775146484375,-0.01983642578125
1772457862828693500,8.617693603515624,-0.97821044921875,-0.32379150390625,-0.0044403076171875
1772457862838761500,8.627761474609375,-0.9697418212890625,-0.3181610107421875,0.007049560546875
1772457862848829400,8.637829345703125,-0.967803955078125,-0.3162078857421875,0.016143798828125
1772457862858897700,8.647897705078124,-0.9750518798828125,-0.3127899169921875,0.0224761962890625
1772457862868965600,8.657965576171875,-0.9836273193359375,-0.3073883056640625,0.0225372314453125
1772457862879033600,8.66803369140625,-0.9859161376953125,-0.3034515380859375,0.02313232421875
1772457862889100500,8.6781005859375,-0.982086181640625,-0.302978515625,0.0190582275390625
1772457862899168500,8.68816845703125,-0.9821624755859375,-0.3016204833984375,0.0152435302734375
1772457862909236700,8.69823681640625,-0.9774169921875,-0.299652099609375,0.01507568359375
1772457862919304700,8.7083046875,-0.9659881591796875,-0.3001251220703125,0.0142669677734375
1772457862929372700,8.71837255859375,-0.9565887451171875,-0.303131103515625,0.0178375244140625
1772457862939440400,8.7284404296875,-0.9493408203125,-0.3065338134765625,0.01434326171875
1772457862949508600,8.738508544921874,-0.9443511962890625,-0.307037353515625,0.01336669921875
1772457862959576600,8.74857666015625,-0.9414520263671875,-0.3105621337890625,0.0140838623046875
1772457862969643500,8.7586435546875,-0.93914794921875,-0.31207275390625,0.0136260986328125
1772457862979711500,8.76871142578125,-0.9359893798828125,-0.3137969970703125,0.0109100341796875
1772457862989779500,8.778779541015625,-0.930877685546875,-0.3206939697265625,0.0063018798828125
1772457862999847700,8.78884765625,-0.9301300048828125,-0.327667236328125,0.000030517578125
1772457863009915600,8.79891552734375,-0.92718505859375,-0.3325347900390625,-0.0060577392578125
1772457863019983600,8.808983642578125,-0.920379638671875,-0.3398895263671875,-0.0059814453125
1772457863030051600,8.819051513671875,-0.916168212890625,-0.342864990234375,-0.006805419921875
1772457863040119600,8.82911962890625,-0.919158935546875,-0.34320068359375,-0.0090484619140625
1772457863050186800,8.839186767578125,-0.931854248046875,-0.3472442626953125,-0.009185791015625
1772457863060254500,8.84925439453125,-0.9483184814453125,-0.3449249267578125,-0.012664794921875
1772457863070322400,8.859322509765626,-0.957550048828125,-0.345001220703125,-0.0147857666015625
1772457863080390400,8.869390380859375,-0.9613037109375,-0.352447509765625,-0.009124755859375
1772457863090458600,8.879458740234375,-0.9703826904296875,-0.37286376953125,0.0058441162109375
1772457863100526600,8.889526611328124,-0.94891357421875,-0.3966522216796875,0.0286407470703125
1772457863110594600,8.899594482421875,-0.8876190185546875,-0.4056549072265625,0.039703369140625
1772457863120662500,8.90966259765625,-0.8288421630859375,-0.4065704345703125,0.01751708984375
1772457863130729700,8.919729736328126,-0.8558197021484375,-0.390289306640625,-0.042236328125
1772457863140797700,8.929797607421875,-0.9683685302734375,-0.3520660400390625,-0.103973388671875
1772457863150865700,8.93986572265625,-1.0988311767578125,-0.311737060546875,-0.153656005859375
1772457863160933400,8.949933349609376,-1.2216644287109375,-0.2588043212890625,-0.184417724609375
1772457863171001600,8.960001708984375,-1.2782135009765625,-0.20135498046875,-0.17449951171875
1772457863181069600,8.970069580078125,-1.2499847412109375,-0.163818359375,-0.122955322265625
1772457863191137500,8.980137451171874,-1.16595458984375,-0.1443634033203125,-0.05731201171875
1772457863201205500,8.99020556640625,-1.0836181640625,-0.143280029296875,-0.0044097900390625
1772457863211272400,9.0002724609375,-1.022552490234375,-0.1434478759765625,0.035491943359375
1772457863221340200,9.010340087890626,-0.97698974609375,-0.1453857421875,0.0673370361328125
1772457863231408000,9.020408203125,-0.9623870849609375,-0.1638946533203125,0.0870361328125
1772457863241476400,9.030476318359375,-0.9628448486328125,-0.18768310546875,0.07550048828125
1772457863251544300,9.04054443359375,-0.9637451171875,-0.2150115966796875,0.0484466552734375
1772457863261612300,9.0506123046875,-0.954315185546875,-0.2392425537109375,0.022430419921875
1772457863271680000,9.060679931640625,-0.9423980712890625,-0.2592315673828125,0.006591796875
1772457863281748200,9.070748291015626,-0.927581787109375,-0.2714996337890625,0.0001373291015625
1772457863291815200,9.080815185546875,-0.9104156494140625,-0.274627685546875,-0.005157470703125
1772457863301883100,9.090883056640624,-0.8966217041015625,-0.2742919921875,-0.0027618408203125
1772457863311951000,9.100951171875,-0.89703369140625,-0.27056884765625,0.0008087158203125
1772457863322019300,9.111019287109375,-0.9132080078125,-0.2630462646484375,0.0007781982421875
1772457863332087300,9.12108740234375,-0.931060791015625,-0.2544097900390625,0.004364013671875
1772457863342155300,9.1311552734375,-0.927642822265625,-0.2473297119140625,0.01177978515625
1772457863352223200,9.14122314453125,-0.9111480712890625,-0.243133544921875,0.028900146484375
1772457863362291500,9.15129150390625,-0.892333984375,-0.241607666015625,0.0446014404296875
1772457863372358400,9.1613583984375,-0.8793182373046875,-0.240814208984375,0.053253173828125
1772457863382426400,9.17142626953125,-0.8733978271484375,-0.2430877685546875,0.062530517578125
1772457863392494000,9.181494140625,-0.8712615966796875,-0.244842529296875,0.073333740234375
1772457863402562000,9.19156201171875,-0.868560791015625,-0.2486114501953125,0.0887603759765625
1772457863412630300,9.20163037109375,-0.8504791259765625,-0.2526092529296875,0.1066436767578125
1772457863422698200,9.2116982421875,-0.8320770263671875,-0.2662353515625,0.1218109130859375
1772457863432766200,9.22176611328125,-0.808990478515625,-0.2794189453125,0.133331298828125
1772457863442834200,9.231834228515625,-0.7892608642578125,-0.2954864501953125,0.145172119140625
1772457863452902400,9.24190234375,-0.7859344482421875,-0.3100433349609375,0.1526336669921875
1772457863462969300,9.25196923828125,-0.79315185546875,-0.317291259765625,0.15460205078125
1772457863473037300,9.262037353515625,-0.8005523681640625,-0.31988525390625,0.147125244140625
1772457863483105300,9.272105224609374,-0.810455322265625,-0.32061767578125,0.129913330078125
1772457863493173200,9.28217333984375,-0.832916259765625,-0.3159942626953125,0.1099853515625
1772457863503241200,9.2922412109375,-0.8553466796875,-0.307403564453125,0.08392333984375
1772457863513309200,9.30230908203125,-0.871063232421875,-0.3013763427734375,0.0561065673828125
1772457863523377200,9.312377197265626,-0.8881988525390625,-0.2950439453125,0.03240966796875
1772457863533445000,9.322445068359375,-0.908905029296875,-0.2849273681640625,0.0161895751953125
1772457863543512300,9.33251220703125,-0.9362335205078125,-0.2698516845703125,0.011016845703125
1772457863553580300,9.342580322265626,-0.969696044921875,-0.2509613037109375,0.009735107421875
1772457863563648300,9.352648193359375,-1.003173828125,-0.2303924560546875,0.01263427734375
1772457863573716200,9.36271630859375,-1.032867431640625,-0.21734619140625,0.0238800048828125
1772457863583784400,9.372784423828126,-1.056396484375,-0.2038421630859375,0.0391998291015625
1772457863593852200,9.38285205078125,-1.064849853515625,-0.1946563720703125,0.055450439453125
1772457863603920100,9.392920166015625,-1.0609893798828125,-0.1973724365234375,0.0695037841796875
1772457863613988000,9.402988037109376,-1.044464111328125,-0.2065582275390625,0.07757568359375
1772457863624055000,9.413054931640625,-1.01812744140625,-0.2181396484375,0.0810394287109375
1772457863634123300,9.423123291015624,-0.9931640625,-0.23626708984375,0.0813140869140625
1772457863644191200,9.433191162109376,-0.9748687744140625,-0.25201416015625,0.0756988525390625
1772457863654259200,9.44325927734375,-0.9608154296875,-0.267364501953125,0.06829833984375
1772457863664327200,9.4533271484375,-0.952545166015625,-0.28118896484375,0.0534820556640625
1772457863674395400,9.4633955078125,-0.954742431640625,-0.290283203125,0.040924072265625
1772457863684463400,9.47346337890625,-0.9615631103515625,-0.2952728271484375,0.02752685546875
1772457863694531300,9.48353125,-0.9682159423828125,-0.2997589111328125,0.02081298828125
1772457863704598300,9.493598388671876,-0.9718170166015625,-0.3035736083984375,0.0158233642578125
1772457863714666200,9.503666259765625,-0.9712677001953125,-0.308349609375,0.013458251953125
1772457863724734200,9.513734130859374,-0.968719482421875,-0.3135833740234375,0.0096282958984375
1772457863734802200,9.52380224609375,-0.9673919677734375,-0.319488525390625,0.0021514892578125
1772457863744870100,9.5338701171875,-0.9664154052734375,-0.3253021240234375,-0.0075225830078125
1772457863754938000,9.543938232421874,-0.9634246826171875,-0.3292236328125,-0.0087738037109375
1772457863765006300,9.55400634765625,-0.9639434814453125,-0.3340606689453125,-0.0096435546875
1772457863775074300,9.56407421875,-0.9596710205078125,-0.336273193359375,-0.00689697265625
1772457863785141200,9.574141357421874,-0.94842529296875,-0.336883544921875,-0.00360107421875
1772457863795209200,9.584209228515626,-0.942108154296875,-0.340728759765625,0.0007476806640625
1772457863805277400,9.59427734375,-0.93878173828125,-0.3418121337890625,0.002410888671875
1772457863815345400,9.604345458984374,-0.9395294189453125,-0.3420867919921875,0.00634765625
1772457863825413000,9.6144130859375,-0.935302734375,-0.3449554443359375,0.0135345458984375
1772457863835481000,9.624481201171875,-0.9274749755859375,-0.3468170166015625,0.0220489501953125
1772457863845549300,9.63454931640625,-0.92352294921875,-0.34783935546875,0.0253753662109375
1772457863855617300,9.6446171875,-0.922210693359375,-0.350830078125,0.0237579345703125
1772457863865685200,9.654685302734375,-0.92999267578125,-0.3524017333984375,0.0181427001953125
1772457863875752200,9.664752197265624,-0.9281768798828125,-0.3577117919921875,0.01654052734375
1772457863885820200,9.674820068359375,-0.92181396484375,-0.3651275634765625,0.02008056640625
1772457863895888400,9.684888427734375,-0.915374755859375,-0.36749267578125,0.0159912109375
1772457863905956400,9.694956298828124,-0.9171600341796875,-0.3645477294921875,0.01385498046875
1772457863916024300,9.7050244140625,-0.92584228515625,-0.3621826171875,0.01275634765625
1772457863926092000,9.715092041015625,-0.930694580078125,-0.3555755615234375,0.0126953125
1772457863936160300,9.72516015625,-0.939239501953125,-0.3504638671875,0.017242431640625
1772457863946228200,9.735228271484376,-0.9501953125,-0.34478759765625,0.0230560302734375
1772457863956295200,9.745295166015625,-0.957672119140625,-0.3394927978515625,0.0344390869140625
1772457863966363100,9.755363037109374,-0.962554931640625,-0.3361358642578125,0.050689697265625
1772457863976431000,9.76543115234375,-0.963134765625,-0.3357391357421875,0.07464599609375
1772457863986499300,9.775499267578125,-0.9674835205078125,-0.349517822265625,0.1119232177734375
1772457863996567300,9.7855673828125,-0.9403228759765625,-0.3599090576171875,0.143463134765625
1772457864006635300,9.79563525390625,-0.8912811279296875,-0.355712890625,0.1492462158203125
1772457864016703200,9.805703125,-0.889190673828125,-0.359222412109375,0.14666748046875
1772457864026771200,9.815771240234374,-0.9279327392578125,-0.3631439208984375,0.1307525634765625
1772457864036839200,9.825839111328126,-0.9649658203125,-0.35382080078125,0.10943603515625
1772457864046906000,9.835906005859375,-0.9848175048828125,-0.34088134765625,0.090728759765625
1772457864056974000,9.84597412109375,-0.988067626953125,-0.3283233642578125,0.077850341796875
1772457864067042300,9.856042236328125,-0.9898834228515625,-0.3174285888671875,0.0645751953125
1772457864077110300,9.8661103515625,-0.991241455078125,-0.3135986328125,0.0556640625
1772457864087178200,9.87617822265625,-0.986907958984375,-0.3155517578125,0.0482940673828125
1772457864097246200,9.88624609375,-0.97979736328125,-0.3211822509765625,0.0368194580078125
1772457864107314400,9.896314453125,-0.9708709716796875,-0.3270721435546875,0.0267486572265625
1772457864117382400,9.90638232421875,-0.97540283203125,-0.328094482421875,0.02252197265625
1772457864127450000,9.9164501953125,-0.995361328125,-0.3156585693359375,0.0111541748046875
1772457864137517300,9.926517333984375,-1.034576416015625,-0.290283203125,0.00262451171875
1772457864147585300,9.936585205078124,-1.083282470703125,-0.264739990234375,-0.0038909912109375
1772457864157653200,9.9466533203125,-1.1230316162109375,-0.23516845703125,-0.012847900390625
1772457864167721200,9.95672119140625,-1.1473541259765625,-0.209442138671875,-0.01025390625
1772457864177789200,9.9667890625,-1.1455535888671875,-0.19158935546875,0.0060272216796875
1772457864187857200,9.976857177734376,-1.11968994140625,-0.17791748046875,0.030853271484375
1772457864197925400,9.98692529296875,-1.0915679931640625,-0.1702880859375,0.0558929443359375
1772457864207993300,9.996993408203124,-1.0634613037109375,-0.1688385009765625,0.0705718994140625
1772457864218060300,10.007060302734375,-1.0361328125,-0.1719512939453125,0.0793304443359375
1772457864228128300,10.017128173828125,-1.009063720703125,-0.1822052001953125,0.080474853515625
1772457864238196200,10.0271962890625,-0.9856414794921875,-0.1934814453125,0.078125
1772457864248264200,10.03726416015625,-0.9607391357421875,-0.208465576171875,0.0654449462890625
1772457864258332200,10.047332275390625,-0.9340667724609375,-0.2248992919921875,0.047760009765625
1772457864268400000,10.057400146484374,-0.913665771484375,-0.2413482666015625,0.0277099609375
1772457864278468000,10.067468017578125,-0.8966064453125,-0.25177001953125,0.006103515625
1772457864288536300,10.077536376953125,-0.8790283203125,-0.25469970703125,-0.0091552734375
1772457864298604300,10.087604248046874,-0.864593505859375,-0.2571563720703125,-0.017913818359375
1772457864308671200,10.097671142578125,-0.862030029296875,-0.2597808837890625,-0.019775390625
1772457864318739200,10.1077392578125,-0.8668212890625,-0.254302978515625,-0.0234832763671875
1772457864328807200,10.11780712890625,-0.881317138671875,-0.2484130859375,-0.0295562744140625
1772457864338875400,10.12787548828125,-0.8929443359375,-0.2429962158203125,-0.0377349853515625
1772457864348943400,10.137943359375,-0.89617919921875,-0.2437286376953125,-0.0522308349609375
1772457864359011000,10.148010986328124,-0.8868408203125,-0.248687744140625,-0.068572998046875
1772457864369079000,10.1580791015625,-0.8631744384765625,-0.2547607421875,-0.072113037109375
1772457864379147300,10.168147216796875,-0.8428802490234375,-0.2599029541015625,-0.065338134765625
1772457864389214200,10.178214111328124,-0.8328704833984375,-0.261138916015625,-0.05908203125
1772457864399282200,10.1882822265625,-0.8380279541015625,-0.260955810546875,-0.0551910400390625
1772457864409350100,10.19835009765625,-0.845550537109375,-0.255645751953125,-0.0522613525390625
1772457864419418000,10.208418212890624,-0.8494415283203125,-0.2518463134765625,-0.0543975830078125
1772457864429486300,10.218486328125,-0.8480377197265625,-0.251373291015625,-0.05487060546875
1772457864439554300,10.22855419921875,-0.842864990234375,-0.2537078857421875,-0.05792236328125
1772457864449622300,10.238622314453124,-0.844573974609375,-0.2516326904296875,-0.0594635009765625
1772457864459690000,10.24868994140625,-0.8591461181640625,-0.249114990234375,-0.062774658203125
1772457864469758200,10.25875830078125,-0.8797149658203125,-0.24835205078125,-0.0664215087890625
1772457864479825200,10.2688251953125,-0.9028472900390625,-0.251190185546875,-0.0710296630859375
1772457864489893000,10.27889306640625,-0.934661865234375,-0.2539215087890625,-0.0704498291015625
1772457864499961000,10.288961181640625,-0.9678192138671875,-0.259246826171875,-0.069061279296875
1772457864510029000,10.299029052734374,-0.98529052734375,-0.2591705322265625,-0.061492919921875
1772457864520097300,10.30909716796875,-0.991973876953125,-0.2699432373046875,-0.0553436279296875
1772457864530165200,10.319165283203125,-0.978851318359375,-0.28033447265625,-0.0472259521484375
1772457864540233200,10.329233154296874,-0.96771240234375,-0.291748046875,-0.0445404052734375
1772457864550301200,10.33930126953125,-0.967529296875,-0.3023529052734375,-0.0431976318359375
1772457864560369200,10.349369140625,-0.9687347412109375,-0.3079376220703125,-0.0440521240234375
1772457864570436400,10.359436279296874,-0.967987060546875,-0.30914306640625,-0.0405426025390625
1772457864580504000,10.369504150390625,-0.959686279296875,-0.305511474609375,-0.0331268310546875
1772457864590572000,10.379572021484375,-0.959991455078125,-0.298919677734375,-0.029388427734375
1772457864600640300,10.38964013671875,-0.9733123779296875,-0.2929534912109375,-0.02923583984375
1772457864610708200,10.399708251953125,-1.000732421875,-0.28082275390625,-0.0311431884765625
1772457864620776200,10.409776123046875,-1.024322509765625,-0.2666778564453125,-0.0395355224609375
1772457864630844200,10.41984423828125,-1.0375213623046875,-0.254150390625,-0.043426513671875
1772457864640912400,10.429912353515626,-1.0408477783203125,-0.2468109130859375,-0.0461578369140625
1772457864650979300,10.439979248046875,-1.037994384765625,-0.235870361328125,-0.0424957275390625
1772457864661047300,10.45004736328125,-1.040679931640625,-0.229888916015625,-0.0374603271484375
1772457864671115300,10.460115234375,-1.0435638427734375,-0.22088623046875,-0.0362701416015625
1772457864681183000,10.470182861328125,-1.0367431640625,-0.213623046875,-0.0330963134765625
1772457864691251200,10.480251220703124,-1.0265960693359375,-0.20849609375,-0.0277252197265625
1772457864701319200,10.490319091796875,-1.01495361328125,-0.2005615234375,-0.0230865478515625
1772457864711387100,10.50038720703125,-1.0091705322265625,-0.1954803466796875,-0.0215606689453125
1772457864721455000,10.510455078125,-1.0096435546875,-0.1934967041015625,-0.0299530029296875
1772457864731523300,10.5205234375,-1.0133514404296875,-0.197235107421875,-0.04840087890625
1772457864741590300,10.53059033203125,-1.005279541015625,-0.2034454345703125,-0.059539794921875
1772457864751658200,10.540658203125,-0.9854278564453125,-0.21063232421875,-0.0632476806640625
1772457864761726200,10.550726318359375,-0.9635162353515625,-0.2218017578125,-0.064453125
1772457864771794200,10.560794189453125,-0.93829345703125,-0.2335662841796875,-0.068084716796875
1772457864781862100,10.570862060546874,-0.9163970947265625,-0.2425994873046875,-0.06573486328125
1772457864791930000,10.58093017578125,-0.9034576416015625,-0.2496185302734375,-0.0648040771484375
1772457864801998000,10.590998046875,-0.8985137939453125,-0.2497711181640625,-0.0660858154296875
1772457864812066000,10.601066162109374,-0.8937225341796875,-0.2462615966796875,-0.0643768310546875
1772457864822134300,10.61113427734375,-0.879913330078125,-0.245697021484375,-0.06195068359375
1772457864832201200,10.621201171875,-0.877838134765625,-0.2475128173828125,-0.06646728515625
1772457864842269200,10.631269287109374,-0.88580322265625,-0.24896240234375,-0.080596923828125
1772457864852337200,10.641337158203125,-0.8896331787109375,-0.2493896484375,-0.091522216796875
1772457864862405400,10.6514052734375,-0.90069580078125,-0.2532501220703125,-0.10107421875
1772457864872473300,10.661473388671874,-0.9156036376953125,-0.2509002685546875,-0.1129913330078125
1772457864882541000,10.671541015625,-0.9166412353515625,-0.2518310546875,-0.1185302734375
1772457864892609000,10.681609130859375,-0.907440185546875,-0.2551422119140625,-0.11553955078125
1772457864902677200,10.69167724609375,-0.8951568603515625,-0.257415771484375,-0.105560302734375
1772457864912745200,10.7017451171875,-0.8870849609375,-0.26007080078125,-0.0995330810546875
1772457864922812200,10.711812255859375,-0.8785400390625,-0.26519775390625,-0.0940093994140625
1772457864932880100,10.721880126953126,-0.883758544921875,-0.2741546630859375,-0.0953369140625
1772457864942948000,10.731947998046875,-0.902557373046875,-0.2838897705078125,-0.1053009033203125
1772457864953016300,10.742016357421875,-0.9125213623046875,-0.2939453125,-0.1076507568359375
1772457864963084300,10.752084228515624,-0.923919677734375,-0.29998779296875,-0.0987396240234375
1772457864973152300,10.76215234375,-0.9302978515625,-0.3043670654296875,-0.093231201171875
1772457864983220200,10.77222021484375,-0.9378204345703125,-0.307159423828125,-0.0859375
1772457864993288200,10.7822880859375,-0.9464874267578125,-0.311187744140625,-0.0791168212890625
1772457865003356200,10.792356201171875,-0.9461517333984375,-0.3148345947265625,-0.0717620849609375
1772457865013423000,10.802423095703125,-0.94580078125,-0.3168792724609375,-0.063568115234375
1772457865023491000,10.812490966796876,-0.95660400390625,-0.314544677734375,-0.054840087890625
1772457865033559000,10.82255908203125,-0.978546142578125,-0.30712890625,-0.0522918701171875
1772457865043627300,10.832627197265625,-0.9897613525390625,-0.303985595703125,-0.047027587890625
1772457865053695200,10.8426953125,-0.9921417236328125,-0.3034210205078125,-0.0466156005859375
1772457865063763200,10.85276318359375,-0.998291015625,-0.2983245849609375,-0.0431365966796875
1772457865073831200,10.8628310546875,-1.004974365234375,-0.2987518310546875,-0.0361480712890625
1772457865083899100,10.872899169921874,-1.0176849365234375,-0.2950897216796875,-0.0320892333984375
1772457865093966300,10.88296630859375,-1.0449066162109375,-0.282867431640625,-0.024993896484375
1772457865104034300,10.893034423828125,-1.0756072998046875,-0.2842864990234375,-0.007080078125
1772457865114102000,10.90310205078125,-1.079193115234375,-0.28314208984375,0.005462646484375
1772457865124170200,10.913170166015625,-1.0561370849609375,-0.27630615234375,0.014892578125
1772457865134238200,10.92323828125,-1.0507965087890625,-0.273590087890625,0.022674560546875
1772457865144306200,10.93330615234375,-1.0470123291015625,-0.2743682861328125,0.0237274169921875
1772457865154374100,10.9433740234375,-1.0482330322265625,-0.27301025390625,0.02392578125
1772457865164442400,10.9534423828125,-1.0532073974609375,-0.27294921875,0.007720947265625
1772457865174510300,10.96351025390625,-1.063720703125,-0.2633819580078125,-0.016693115234375
1772457865184578300,10.973578369140625,-1.067901611328125,-0.2513580322265625,-0.0311126708984375
1772457865194645200,10.983645263671875,-1.057891845703125,-0.2396392822265625,-0.024566650390625
1772457865204713200,10.993713134765626,-1.0405426025390625,-0.22613525390625,-0.0084991455078125
1772457865214781200,11.00378125,-1.0243377685546875,-0.219207763671875,0.0053558349609375
1772457865224849400,11.013849365234375,-1.0146484375,-0.210113525390625,0.0184783935546875
1772457865234917400,11.02391748046875,-1.0150909423828125,-0.2025909423828125,0.0253448486328125
1772457865244985300,11.0339853515625,-1.0147247314453125,-0.1974029541015625,0.0296783447265625
1772457865255053600,11.044053466796875,-1.0047149658203125,-0.197845458984375,0.03564453125
1772457865265121500,11.05412158203125,-0.9949493408203125,-0.2047271728515625,0.0431976318359375
1772457865275189500,11.064189453125,-0.9851226806640625,-0.2151947021484375,0.0475006103515625
1772457865285256400,11.07425634765625,-0.9713134765625,-0.2234039306640625,0.0511016845703125
1772457865295324400,11.084324462890624,-0.9534149169921875,-0.2344512939453125,0.0550079345703125
1772457865305392400,11.094392333984375,-0.939239501953125,-0.24639892578125,0.0550079345703125
1772457865315460400,11.10446044921875,-0.9364013671875,-0.2539520263671875,0.050201416015625
1772457865325528300,11.1145283203125,-0.933990478515625,-0.2636566162109375,0.0406036376953125
1772457865335596500,11.124596435546875,-0.9281463623046875,-0.2693634033203125,0.0321044921875
1772457865345664500,11.13466455078125,-0.9188690185546875,-0.272552490234375,0.0298919677734375
1772457865355732500,11.144732421875,-0.900146484375,-0.279754638671875,0.0292816162109375
1772457865365800400,11.154800537109375,-0.883880615234375,-0.2797698974609375,0.0284576416015625
1772457865375867400,11.164867431640625,-0.886505126953125,-0.2801666259765625,0.0243072509765625
1772457865385935600,11.174935546875,-0.9008026123046875,-0.276763916015625,0.01861572265625
1772457865396003600,11.185003662109375,-0.9272003173828125,-0.2682647705078125,0.0160675048828125
1772457865406071600,11.195071533203125,-0.9407196044921875,-0.2621612548828125,0.0180511474609375
1772457865416139300,11.20513916015625,-0.9358978271484375,-0.2580108642578125,0.022491455078125
1772457865426207500,11.21520751953125,-0.9268341064453125,-0.259002685546875,0.0239715576171875
1772457865436275500,11.225275390625,-0.9300079345703125,-0.2558746337890625,0.02789306640625
1772457865446343400,11.235343505859374,-0.93170166015625,-0.249786376953125,0.0367889404296875
1772457865456411400,11.245411376953125,-0.934783935546875,-0.2518463134765625,0.0531768798828125
1772457865466478300,11.255478271484375,-0.9264068603515625,-0.2559814453125,0.0711669921875
1772457865476546600,11.265546630859374,-0.9153594970703125,-0.2608184814453125,0.0895233154296875
1772457865486614500,11.275614501953125,-0.9092559814453125,-0.269866943359375,0.100311279296875
1772457865496682500,11.2856826171875,-0.9121551513671875,-0.2780303955078125,0.1022186279296875
1772457865506750500,11.29575048828125,-0.913421630859375,-0.2805023193359375,0.1042938232421875
1772457865516818400,11.305818359375,-0.903594970703125,-0.2862091064453125,0.115814208984375
1772457865526886400,11.315886474609375,-0.9028778076171875,-0.294586181640625,0.1266937255859375
1772457865536954400,11.325954345703124,-0.8995208740234375,-0.29998779296875,0.127960205078125
1772457865547022300,11.336022216796875,-0.89349365234375,-0.2994537353515625,0.1230926513671875
1772457865557089300,11.34608935546875,-0.8796539306640625,-0.301116943359375,0.1179046630859375
1772457865567157500,11.356157470703126,-0.86517333984375,-0.3023223876953125,0.107330322265625
1772457865577225500,11.3662255859375,-0.8514862060546875,-0.304229736328125,0.0930938720703125
1772457865587293400,11.37629345703125,-0.8490142822265625,-0.3027801513671875,0.07257080078125
1772457865597361400,11.386361328125,-0.8607940673828125,-0.2989959716796875,0.04833984375
1772457865607429600,11.3964296875,-0.902099609375,-0.288970947265625,0.0304718017578125
1772457865617497300,11.406497314453125,-0.9398651123046875,-0.2816619873046875,0.0168914794921875
1772457865627565300,11.4165654296875,-0.9808807373046875,-0.2725372314453125,0.0133514404296875
1772457865637633500,11.426633544921875,-1.016387939453125,-0.26190185546875,0.0230255126953125
1772457865647700500,11.436700439453125,-1.0378875732421875,-0.252655029296875,0.0326080322265625
1772457865657768400,11.4467685546875,-1.03607177734375,-0.2541046142578125,0.0484161376953125
1772457865667836400,11.45683642578125,-0.99896240234375,-0.2595062255859375,0.0675811767578125
1772457865677904400,11.466904296875,-0.95147705078125,-0.27197265625,0.0845947265625
1772457865687972600,11.47697265625,-0.9144439697265625,-0.28900146484375,0.091583251953125
1772457865698040600,11.48704052734375,-0.9507598876953125,-0.2781982421875,0.08026123046875
1772457865708108500,11.497108642578125,-0.9727630615234375,-0.2667694091796875,0.071624755859375
1772457865718176300,11.50717626953125,-0.994842529296875,-0.2694549560546875,0.06744384765625
1772457865728244500,11.517244384765625,-1.0003662109375,-0.268402099609375,0.05633544921875
1772457865738312400,11.5273125,-1.0055084228515625,-0.2768096923828125,0.0498504638671875
1772457865748379400,11.53737939453125,-0.9939422607421875,-0.299041748046875,0.0521240234375
1772457865758447400,11.547447265625,-0.9500579833984375,-0.31475830078125,0.0570220947265625
1772457865768515300,11.557515380859375,-0.9146270751953125,-0.32403564453125,0.0560302734375
1772457865778583600,11.56758349609375,-0.9121856689453125,-0.3301239013671875,0.050811767578125
