time,seconds_elapsed,z,y,x
1772457854277319400,0.0663193359375,-0.19833388924598694,-0.2362132966518402,-0.06952322274446487
1772457854287387400,0.076387451171875,-0.21957112848758698,-0.28328925371170044,-0.08792069554328918
1772457854297455400,0.086455322265625,-0.24304929375648499,-0.32384228706359863,-0.10167831927537918
1772457854307522300,0.096522216796875,-0.2698601186275482,-0.3348148465156555,-0.10883811116218567
1772457854317590300,0.10659033203125,-0.29400113224983215,-0.338070809841156,-0.11934774369001389
1772457854327658500,0.116658447265625,-0.3078523874282837,-0.31263941526412964,-0.13098646700382233
1772457854337726500,0.1267265625,-0.3062877655029297,-0.27112337946891785,-0.13812799751758575
1772457854347794200,0.136794189453125,-0.29011207818984985,-0.20402249693870544,-0.14092084765434265
1772457854357862100,0.146862060546875,-0.2672954499721527,-0.09662920981645584,-0.13955888152122498
1772457854367929300,0.156929443359375,-0.2359970510005951,-0.001336307730525732,-0.14336411654949188
1772457854377997300,0.166997314453125,-0.20025768876075745,0.05816749855875969,-0.1496550291776657
1772457854388065300,0.177065185546875,-0.17765967547893524,0.08347248286008835,-0.16826842725276947
1772457854398133200,0.18713330078125,-0.16615961492061615,0.09653635323047638,-0.18608658015727997
1772457854408201200,0.197201171875,-0.15411780774593353,0.1075557991862297,-0.2120673805475235
1772457854418268200,0.20726806640625,-0.1406739056110382,0.1304749697446823,-0.22579118609428406
1772457854428336400,0.21733642578125,-0.13074089586734772,0.1449478417634964,-0.22935974597930908
1772457854438404400,0.227404296875,-0.12734323740005493,0.13750456273555756,-0.22690270841121674
1772457854448472300,0.237472412109375,-0.12250617146492004,0.12084100395441055,-0.21489661931991577
1772457854458540300,0.247540283203125,-0.11018186807632446,0.1118088886141777,-0.19280223548412323
1772457854468608300,0.257608154296875,-0.10334941744804382,0.10327251255512238,-0.1712905764579773
1772457854478675500,0.267675537109375,-0.08882560580968857,0.07832455635070801,-0.1549994796514511
1772457854488743400,0.277743408203125,-0.07251686602830887,0.026248814538121223,-0.14187659323215485
1772457854498811100,0.28781103515625,-0.05668383836746216,-0.033734895288944244,-0.13095523416996002
1772457854508879400,0.29787939453125,-0.043652866035699844,-0.06926573812961578,-0.11971211433410645
1772457854518947300,0.307947265625,-0.033554960042238235,-0.0645572692155838,-0.1082429438829422
1772457854529014300,0.31801416015625,-0.025782687589526176,-0.03837207332253456,-0.0924123078584671
1772457854539082200,0.328082275390625,-0.0040560876950621605,-0.012199325487017632,-0.07772737741470337
1772457854549150200,0.338150146484375,0.024989290162920952,-0.013875404372811317,-0.07491438835859299
1772457854559218400,0.348218505859375,0.05084485933184624,-0.04251663386821747,-0.08482135087251663
1772457854569286400,0.358286376953125,0.07252272218465805,-0.09060852974653244,-0.11679872125387192
1772457854579354400,0.368354248046875,0.08904603868722916,-0.12201065570116043,-0.14749909937381744
1772457854589421300,0.37842138671875,0.0922144204378128,-0.12822474539279938,-0.18368977308273315
1772457854599489300,0.3884892578125,0.08868493884801865,-0.14202125370502472,-0.21872685849666595
1772457854609557500,0.3985576171875,0.08168110251426697,-0.16651058197021484,-0.25671565532684326
1772457854619625200,0.408625244140625,0.06800257414579391,-0.1902710497379303,-0.304710328578949
1772457854629693200,0.418693115234375,0.041938282549381256,-0.18830008804798126,-0.34771955013275146
1772457854639760100,0.428760009765625,0.012465878389775753,-0.152041956782341,-0.3919141888618469
1772457854649828400,0.438828369140625,-0.02801445685327053,-0.09836899489164352,-0.41698157787323
1772457854659896300,0.448896240234375,-0.06447206437587738,-0.02727324888110161,-0.4271372854709625
1772457854669964300,0.45896435546875,-0.08886703848838806,0.021066119894385338,-0.42491504549980164
1772457854680032300,0.4690322265625,-0.09659180045127869,0.05911363661289215,-0.407295823097229
1772457854690100500,0.4791005859375,-0.09077182412147522,0.08415620028972626,-0.37481215596199036
1772457854700167400,0.48916748046875,-0.07016241550445557,0.09325995296239853,-0.31406307220458984
1772457854710235400,0.4992353515625,-0.04155218228697777,0.09681542217731476,-0.24098937213420868
1772457854720303400,0.509303466796875,-0.013852646574378014,0.08152728527784348,-0.16352280974388123
1772457854730371300,0.519371337890625,0.013855578377842903,0.04352438822388649,-0.09414798766374588
1772457854740439300,0.529439208984375,0.044798046350479126,-0.012844076380133629,-0.032374363392591476
1772457854750506500,0.539506591796875,0.06510690599679947,-0.07816389203071594,0.01567048206925392
1772457854760574500,0.549574462890625,0.07306469231843948,-0.14307604730129242,0.05640752613544464
1772457854770642200,0.55964208984375,0.06764572858810425,-0.16607974469661713,0.08522980660200119
1772457854780710100,0.569710205078125,0.050853438675403595,-0.1488725244998932,0.09793069213628769
1772457854790778400,0.5797783203125,0.024938732385635376,-0.11869760602712631,0.08115237206220627
1772457854800846300,0.589846435546875,-0.0007799465674906969,-0.08330392837524414,0.059057991951704025
1772457854810913300,0.599913330078125,-0.03302966430783272,-0.04715682938694954,0.021343402564525604
1772457854820981200,0.609981201171875,-0.05951239913702011,-0.006462130229920149,-0.014208999462425709
1772457854831049200,0.62004931640625,-0.07657492160797119,0.03740261495113373,-0.05228038504719734
1772457854841117400,0.630117431640625,-0.09053601324558258,0.08277276158332825,-0.07954636216163635
1772457854851185400,0.640185302734375,-0.10046134889125824,0.13065800070762634,-0.09526247531175613
1772457854861252400,0.65025244140625,-0.09714064747095108,0.154950812458992,-0.10079705715179443
1772457854871320300,0.6603203125,-0.07788712531328201,0.14386919140815735,-0.09262889623641968
1772457854881388500,0.670388427734375,-0.045351557433605194,0.0984063670039177,-0.07409355789422989
1772457854891456300,0.680456298828125,-0.013632628135383129,0.04744449630379677,-0.04417039081454277
1772457854901524200,0.690524169921875,0.011249552480876446,0.01694304496049881,-0.0006106630899012089
1772457854911592200,0.70059228515625,0.022415529936552048,0.00781960692256689,0.049438852816820145
1772457854921659100,0.7106591796875,0.03517260402441025,0.030436502769589424,0.09169789403676987
1772457854931727400,0.720727294921875,0.058254729956388474,0.041185420006513596,0.11287260055541992
1772457854941795300,0.73079541015625,0.0841827318072319,0.04157423973083496,0.11993397027254105
1772457854951863300,0.74086328125,0.09398407489061356,0.045357562601566315,0.12567490339279175
1772457854961931300,0.75093115234375,0.09388101100921631,0.05156752094626427,0.12017840147018433
1772457854971999500,0.76099951171875,0.08490937203168869,0.04819590970873833,0.10709786415100098
1772457854982066400,0.77106640625,0.07735531032085419,0.045603055506944656,0.08726929873228073
1772457854992134400,0.781134521484375,0.07640433311462402,0.03509438782930374,0.06389309465885162
1772457855002202400,0.791202392578125,0.07647038251161575,-0.007458132691681385,0.03902609646320343
1772457855012270300,0.801270263671875,0.0739370658993721,-0.02132243476808071,0.01284338254481554
1772457855022338300,0.81133837890625,0.06306763738393784,-0.010068181902170181,-0.004698859993368387
1772457855032405500,0.821405517578125,0.06295109540224075,-0.0019970042631030083,-0.016727294772863388
1772457855042473200,0.83147314453125,0.06474606692790985,-0.018487829715013504,-0.028612183406949043
1772457855052541200,0.841541259765625,0.06448905169963837,-0.04077089950442314,-0.02584311179816723
1772457855062609400,0.851609375,0.06517348438501358,-0.05266484245657921,-0.03281074017286301
1772457855072677400,0.861677490234375,0.06398729234933853,-0.03902576118707657,-0.03605034947395325
1772457855082745300,0.871745361328125,0.06913518160581589,-0.0011375038884580135,-0.04672429710626602
1772457855092812300,0.881812255859375,0.07782347500324249,0.04135775938630104,-0.04703988507390022
1772457855102880300,0.89188037109375,0.08534504473209381,0.0697915330529213,-0.05412895232439041
1772457855112948500,0.901948486328125,0.08624767512083054,0.08339548110961914,-0.05774962902069092
1772457855123016400,0.912016357421875,0.08380715548992157,0.06676936149597168,-0.061540637165308
1772457855133084400,0.92208447265625,0.07604941725730896,0.06187165156006813,-0.05769788846373558
1772457855143152000,0.932152099609375,0.06836646795272827,0.07312111556529999,-0.04635974392294884
1772457855153219300,0.94221923828125,0.06091928854584694,0.09933096170425415,-0.028831250965595245
1772457855163287300,0.952287353515625,0.054457392543554306,0.12728829681873322,-0.009567009285092354
1772457855173355300,0.962355224609375,0.04676831513643265,0.1361512988805771,0.01446695439517498
1772457855183423200,0.97242333984375,0.044819947332143784,0.133639395236969,0.02620110847055912
1772457855193491200,0.9824912109375,0.04925929382443428,0.11382759362459183,0.028675256296992302
1772457855203558700,0.99255859375,0.06271357834339142,0.10138078033924103,0.030665436759591103
1772457855213626600,1.002626708984375,0.07537668943405151,0.10593681782484055,0.04046182334423065
1772457855223694800,1.01269482421875,0.08859289437532425,0.10775362700223923,0.05555715411901474
1772457855233762800,1.0227626953125,0.0973559245467186,0.08593200892210007,0.06522630155086517
1772457855243830800,1.032830810546875,0.0962030366063118,0.061084989458322525,0.07097472995519638
1772457855253898500,1.0428984375,0.08581822365522385,0.04998929426074028,0.08429519087076187
1772457855263965700,1.052965576171875,0.07628277689218521,0.06087816134095192,0.0976802408695221
1772457855274033700,1.06303369140625,0.06420540064573288,0.08930984139442444,0.12250494211912155
1772457855284101600,1.0731015625,0.06495321542024612,0.11097172647714615,0.14656580984592438
1772457855294169600,1.083169677734375,0.06514308601617813,0.12266331911087036,0.1752370148897171
1772457855304237600,1.093237548828125,0.07138793170452118,0.13449706137180328,0.19280429184436798
1772457855314304500,1.103304443359375,0.08016322553157806,0.14634612202644348,0.2027478665113449
1772457855324372700,1.113372802734375,0.10077209770679474,0.17593197524547577,0.22715520858764648
1772457855334440700,1.123440673828125,0.13038024306297302,0.20619188249111176,0.2535472512245178
1772457855344508700,1.1335087890625,0.15850162506103516,0.18710100650787354,0.27845287322998047
1772457855354576600,1.14357666015625,0.17440062761306763,0.149722620844841,0.2950725853443146
1772457855364644900,1.153644775390625,0.17541316151618958,0.11256086081266403,0.30755215883255005
1772457855374711800,1.1637119140625,0.1574617624282837,0.0776049941778183,0.3001818358898163
1772457855384779800,1.17377978515625,0.11902196705341339,0.04571124166250229,0.2889113426208496
1772457855394847700,1.18384765625,0.06845183670520782,0.013324476778507233,0.26990461349487305
1772457855404915700,1.193915771484375,0.008741898462176323,-0.01039549894630909,0.2392369955778122
1772457855414983700,1.203983642578125,-0.04645053669810295,-0.013049913570284843,0.20000611245632172
1772457855425050600,1.214050537109375,-0.09551554918289185,-0.00893825851380825,0.1671256572008133
1772457855435118600,1.22411865234375,-0.13259820640087128,0.021358927711844444,0.13493949174880981
1772457855445186600,1.2341865234375,-0.14975802600383759,0.07824351638555527,0.10515256971120834
1772457855455254800,1.2442548828125,-0.1602332890033722,0.14206865429878235,0.07818354666233063
1772457855465322800,1.25432275390625,-0.16038163006305695,0.18795251846313477,0.05587717890739441
1772457855475390700,1.264390625,-0.14537875354290009,0.2149619609117508,0.04046393185853958
1772457855485457700,1.274457763671875,-0.13112153112888336,0.21897374093532562,0.03132503107190132
1772457855495525600,1.284525634765625,-0.11457525938749313,0.20409341156482697,0.0413602851331234
1772457855505593900,1.29459375,-0.09891214221715927,0.20786283910274506,0.06052226573228836
1772457855515661800,1.304661865234375,-0.08462193608283997,0.21145421266555786,0.091981440782547
1772457855525729500,1.3147294921875,-0.0710616484284401,0.2032546103000641,0.13218984007835388
1772457855535797500,1.324797607421875,-0.05713413283228874,0.18418624997138977,0.16388137638568878
1772457855545864700,1.33486474609375,-0.043742429465055466,0.16423837840557098,0.19614529609680176
1772457855555932700,1.3449326171875,-0.03260156512260437,0.1350698620080948,0.20732396841049194
1772457855566000600,1.355000732421875,-0.03590068966150284,0.11207081377506256,0.20243680477142334
1772457855576068600,1.365068603515625,-0.0396343395113945,0.10634858906269073,0.19220010936260223
1772457855586136600,1.375136474609375,-0.04322561249136925,0.11692346632480621,0.17945848405361176
1772457855596203800,1.385203857421875,-0.04833601415157318,0.12656913697719574,0.16751442849636078
1772457855606271700,1.395271728515625,-0.05066255107522011,0.13034763932228088,0.15864449739456177
1772457855616339700,1.405339599609375,-0.04489152133464813,0.13469834625720978,0.15888026356697083
1772457855626407700,1.41540771484375,-0.03189902380108833,0.1384400874376297,0.16457730531692505
1772457855636476000,1.425475830078125,-0.016740722581744194,0.13066799938678741,0.1894395798444748
1772457855646543600,1.435543701171875,-0.007643630262464285,0.10787399858236313,0.21088415384292603
1772457855656610800,1.44561083984375,0.005647284910082817,0.09076792001724243,0.23706534504890442
1772457855666678800,1.4556787109375,0.008280884474515915,0.099130779504776,0.27038735151290894
1772457855676746500,1.46574658203125,0.005365481600165367,0.12736091017723083,0.30988606810569763
1772457855686814700,1.475814697265625,-0.001357668312266469,0.15818992257118225,0.3400016129016876
1772457855696882700,1.485882568359375,-0.005527727771550417,0.19111736118793488,0.3603655993938446
1772457855706950700,1.49595068359375,-0.00949850119650364,0.19959233701229095,0.36147162318229675
1772457855717017600,1.506017578125,-0.0078032976016402245,0.19865377247333527,0.34264254570007324
1772457855727085600,1.51608544921875,-0.0019049278926104307,0.18478350341320038,0.31356826424598694
1772457855737153800,1.52615380859375,0.003999914973974228,0.17593921720981598,0.27313709259033203
1772457855747221800,1.5362216796875,0.009725977666676044,0.16858409345149994,0.230417862534523
1772457855757289700,1.546289794921875,0.016730910167098045,0.16885381937026978,0.19237551093101501
1772457855767357700,1.556357666015625,0.015154852531850338,0.14639459550380707,0.1543586105108261
1772457855777425000,1.5664248046875,0.004076552577316761,0.1098577231168747,0.12162236869335175
1772457855787492900,1.576492919921875,-0.016090234741568565,0.058289606124162674,0.08931183069944382
1772457855797560600,1.586560546875,-0.03975879028439522,0.005970069207251072,0.0508260540664196
1772457855807628500,1.596628662109375,-0.07096757739782333,-0.03611826151609421,0.015095221810042858
1772457855817696800,1.60669677734375,-0.09803024679422379,-0.05460527539253235,-0.016370845958590508
1772457855827763700,1.616763671875,-0.11980185657739639,-0.06294656544923782,-0.050118688493967056
1772457855837831700,1.626831787109375,-0.13397915661334991,-0.07447202503681183,-0.08338189125061035
1772457855847899600,1.636899658203125,-0.1458699107170105,-0.07152976095676422,-0.1156625971198082
1772457855857967600,1.646967529296875,-0.14079326391220093,-0.04030288755893707,-0.13872043788433075
1772457855868035800,1.657035888671875,-0.12439484894275665,0.013010668568313122,-0.15526586771011353
1772457855878103800,1.667103759765625,-0.09887927025556564,0.05700291693210602,-0.16216160356998444
1772457855888170800,1.677170654296875,-0.06399665027856827,0.09610185027122498,-0.16605007648468018
1772457855898238700,1.68723876953125,-0.0311905425041914,0.12755991518497467,-0.16814325749874115
1772457855908306700,1.697306640625,0.004811667371541262,0.14578606188297272,-0.16694803535938263
1772457855918374700,1.707374755859375,0.0356893427670002,0.1301153153181076,-0.17514005303382874
1772457855928442600,1.717442626953125,0.05369950085878372,0.10020563006401062,-0.1797204315662384
1772457855938510600,1.727510498046875,0.06615188717842102,0.07845102250576019,-0.18713584542274475
1772457855948577500,1.73757763671875,0.07144731283187866,0.05008569359779358,-0.17425253987312317
1772457855958645500,1.7476455078125,0.07320840656757355,-0.0012008734047412872,-0.16451579332351685
1772457855968713700,1.757713623046875,0.06859341263771057,-0.05200865864753723,-0.16119429469108582
1772457855978781700,1.76778173828125,0.06376048922538757,-0.08587650954723358,-0.15918321907520294
1772457855988849700,1.777849609375,0.06036096438765526,-0.1086561307311058,-0.1664201021194458
1772457855998916600,1.78791650390625,0.05704241991043091,-0.12053955346345901,-0.1768697053194046
1772457856008984800,1.79798486328125,0.05060955509543419,-0.12827391922473907,-0.1989329308271408
1772457856019052800,1.808052734375,0.042924124747514725,-0.1326657086610794,-0.22482353448867798
1772457856029120800,1.818120849609375,0.033840082585811615,-0.13124385476112366,-0.24836108088493347
1772457856039188700,1.828188720703125,0.031096963211894035,-0.12868715822696686,-0.2612060606479645
1772457856049256700,1.838256591796875,0.026297947391867638,-0.13252291083335876,-0.26215335726737976
1772457856059324000,1.848323974609375,0.014874666929244995,-0.1449810117483139,-0.24974103271961212
1772457856069391600,1.8583916015625,-0.00025901198387145996,-0.16239142417907715,-0.2280956506729126
1772457856079459600,1.86845947265625,-0.02541601099073887,-0.17315490543842316,-0.19546224176883698
1772457856089527600,1.878527587890625,-0.05406283214688301,-0.1624215692281723,-0.15124709904193878
1772457856099595800,1.888595703125,-0.0777626484632492,-0.13035443425178528,-0.09127259999513626
1772457856109663700,1.898663818359375,-0.088657908141613,-0.115590400993824,-0.029743194580078125
1772457856119730700,1.908730712890625,-0.09445761889219284,-0.1051986813545227,0.029943922534585
1772457856129798700,1.918798583984375,-0.0990891233086586,-0.11499245464801788,0.0838092789053917
1772457856139866600,1.92886669921875,-0.11358442157506943,-0.14179304242134094,0.1195165142416954
1772457856149934800,1.938934814453125,-0.1263452172279358,-0.17678804695606232,0.14625252783298492
1772457856160002800,1.9490029296875,-0.1361517757177353,-0.2079201340675354,0.14917507767677307
1772457856170070500,1.959070556640625,-0.14650748670101166,-0.23589131236076355,0.14010515809059143
1772457856180137700,1.9691376953125,-0.15403787791728973,-0.24010159075260162,0.12871886789798737
1772457856190205700,1.979205810546875,-0.16850896179676056,-0.22466591000556946,0.11877914518117905
1772457856200273700,1.989273681640625,-0.18326832354068756,-0.2023146003484726,0.10939408093690872
1772457856210342000,1.999341796875,-0.19556626677513123,-0.18904274702072144,0.10364565253257751
1772457856220409900,2.009409912109375,-0.205930694937706,-0.17547495663166046,0.10085177421569824
1772457856230477800,2.019477783203125,-0.21432843804359436,-0.1664082258939743,0.09503303468227386
1772457856240544800,2.029544677734375,-0.21978411078453064,-0.15908774733543396,0.0888700857758522
1772457856250612700,2.03961279296875,-0.23258192837238312,-0.14410534501075745,0.09034521132707596
1772457856260681000,2.049680908203125,-0.24262914061546326,-0.13059642910957336,0.08972015231847763
1772457856270749000,2.0597490234375,-0.24660764634609222,-0.13639412820339203,0.09032122790813446
1772457856280817000,2.06981689453125,-0.24453186988830566,-0.1452101320028305,0.08834221214056015
1772457856290883800,2.0798837890625,-0.23309358954429626,-0.1568782478570938,0.0952880010008812
1772457856300951800,2.089951904296875,-0.21645919978618622,-0.15800738334655762,0.10683610290288925
1772457856311019800,2.100019775390625,-0.20282594859600067,-0.1451704204082489,0.13872826099395752
1772457856321087700,2.110087646484375,-0.1776471883058548,-0.1254047304391861,0.18218468129634857
1772457856331155700,2.12015576171875,-0.15046750009059906,-0.17274801433086395,0.21889662742614746
1772457856341223700,2.1302236328125,-0.1252102553844452,-0.26982107758522034,0.2265060395002365
1772457856351290600,2.14029052734375,-0.10758119076490402,-0.3377668261528015,0.22372783720493317
1772457856361358800,2.15035888671875,-0.09920046478509903,-0.3500279188156128,0.2018737643957138
1772457856371426800,2.1604267578125,-0.10602960735559464,-0.3059115707874298,0.17409832775592804
1772457856381494800,2.170494873046875,-0.10696296393871307,-0.24448658525943756,0.14155010879039764
1772457856391562800,2.180562744140625,-0.09842992573976517,-0.21502722799777985,0.10142480581998825
1772457856401631000,2.190630859375,-0.08724115043878555,-0.2254115343093872,0.057060740888118744
1772457856411698000,2.200697998046875,-0.08065222948789597,-0.24440333247184753,0.015163624659180641
1772457856421766000,2.210765869140625,-0.08569354563951492,-0.25380057096481323,-0.01772887073457241
1772457856431833900,2.220833740234375,-0.09853797405958176,-0.24542759358882904,-0.04871794581413269
1772457856441901800,2.23090185546875,-0.11697933822870255,-0.23253628611564636,-0.0730368047952652
1772457856451969800,2.2409697265625,-0.1298179030418396,-0.21234819293022156,-0.08963203430175781
1772457856462037800,2.251037841796875,-0.1400880068540573,-0.19507192075252533,-0.10005342960357666
1772457856472104700,2.261104736328125,-0.14481137692928314,-0.18228022754192352,-0.10257570445537567
1772457856482172700,2.271172607421875,-0.1407446414232254,-0.16990156471729279,-0.09859456866979599
1772457856492241000,2.281240966796875,-0.13405823707580566,-0.14270642399787903,-0.08208909630775452
1772457856502308900,2.291308837890625,-0.1229090541601181,-0.09306850284337997,-0.04869404062628746
1772457856512376800,2.301376953125,-0.09970785677433014,-0.03197824954986572,-0.0001760418526828289
1772457856522444800,2.31144482421875,-0.0727095901966095,0.018868017941713333,0.05670185387134552
1772457856532511700,2.32151171875,-0.035883668810129166,0.052765797823667526,0.11182583123445511
1772457856542580000,2.331580078125,0.006557860411703587,0.06653819978237152,0.17903126776218414
1772457856552648000,2.34164794921875,0.04057015851140022,0.044552743434906006,0.23683437705039978
1772457856562715600,2.351715576171875,0.0634104460477829,-0.008859260007739067,0.28103652596473694
1772457856572783600,2.36178369140625,0.060274574905633926,-0.06820966303348541,0.323879599571228
1772457856582851800,2.371851806640625,0.042866289615631104,-0.13292396068572998,0.35711556673049927
1772457856592918800,2.381918701171875,0.02534189447760582,-0.18590222299098969,0.3862026035785675
1772457856602986800,2.39198681640625,-0.0009722274262458086,-0.22638021409511566,0.4000435471534729
1772457856613054700,2.4020546875,-0.03136235475540161,-0.22713202238082886,0.3881935477256775
1772457856623123000,2.412123046875,-0.06621665507555008,-0.20482967793941498,0.349602609872818
1772457856633191000,2.42219091796875,-0.10022256523370743,-0.15566372871398926,0.28531497716903687
1772457856643259000,2.4322587890625,-0.13627056777477264,-0.09386476874351501,0.21712350845336914
1772457856653325800,2.442325927734375,-0.16869854927062988,-0.030882075428962708,0.15075832605361938
1772457856663393800,2.452393798828125,-0.18990369141101837,0.02096577361226082,0.10321930050849915
1772457856673462000,2.4624619140625,-0.2065122276544571,0.06275636702775955,0.07848838716745377
1772457856683529700,2.47252978515625,-0.2170301377773285,0.08779465407133102,0.07192012667655945
1772457856693597700,2.48259765625,-0.22902049124240875,0.1116214245557785,0.08721892535686493
1772457856703665700,2.492665771484375,-0.23670075833797455,0.140860915184021,0.12761306762695312
1772457856713732600,2.502732666015625,-0.23273052275180817,0.14695289731025696,0.16551756858825684
1772457856723800800,2.51280078125,-0.225094273686409,0.10456787794828415,0.19462193548679352
1772457856733868800,2.522868896484375,-0.21051320433616638,0.024130292236804962,0.19647523760795593
1772457856743936800,2.532936767578125,-0.19722579419612885,-0.06439999490976334,0.1778959482908249
1772457856754004700,2.543004638671875,-0.18060100078582764,-0.1297861784696579,0.14531242847442627
1772457856764073000,2.553072998046875,-0.1665431410074234,-0.17364327609539032,0.09048484265804291
1772457856774140000,2.563139892578125,-0.15189442038536072,-0.22041290998458862,0.01381643209606409
1772457856784208000,2.573207763671875,-0.14494071900844574,-0.2564159631729126,-0.0729677677154541
1772457856794275800,2.58327587890625,-0.1406884491443634,-0.2870878577232361,-0.17310716211795807
1772457856804343800,2.59334375,-0.15093205869197845,-0.29041075706481934,-0.26672548055648804
1772457856814411800,2.603411865234375,-0.1599085032939911,-0.24701401591300964,-0.35075804591178894
1772457856824479700,2.613479736328125,-0.16810737550258636,-0.15880097448825836,-0.398925244808197
1772457856834546700,2.623546630859375,-0.17121180891990662,-0.058567315340042114,-0.4103909432888031
1772457856844614700,2.63361474609375,-0.1677611768245697,0.02478564903140068,-0.3959949314594269
1772457856854683000,2.643682861328125,-0.1525912880897522,0.056831199675798416,-0.34487953782081604
1772457856864750800,2.653750732421875,-0.1377854198217392,0.056426916271448135,-0.26523879170417786
1772457856874818800,2.66381884765625,-0.11935073882341385,0.02337042987346649,-0.17744532227516174
1772457856884886800,2.67388671875,-0.10556646436452866,-0.03796790540218353,-0.08811239898204803
1772457856894953700,2.68395361328125,-0.0901411697268486,-0.0921885296702385,-0.01719960942864418
1772457856905022000,2.69402197265625,-0.07030344754457474,-0.14176785945892334,0.03415755555033684
1772457856915090000,2.70408984375,-0.053071461617946625,-0.1842852234840393,0.057249292731285095
1772457856925158000,2.714157958984375,-0.03561722859740257,-0.20477432012557983,0.05287070944905281
1772457856935225600,2.7242255859375,-0.022908890619874,-0.20191621780395508,0.0262734554708004
1772457856945293800,2.7342939453125,-0.014043821953237057,-0.1699623018503189,-0.009924270212650299
1772457856955360800,2.74436083984375,-0.00789085403084755,-0.13108015060424805,-0.048820268362760544
1772457856965428700,2.7544287109375,-0.00711413286626339,-0.09262286126613617,-0.09965742379426956
1772457856975496700,2.76449658203125,-0.010399408638477325,-0.06543384492397308,-0.15546050667762756
1772457856985564700,2.774564697265625,-0.003874867921695113,-0.037421517074108124,-0.20602566003799438
1772457856995633000,2.7846328125,0.0010589042212814093,-0.017596682533621788,-0.24326783418655396
1772457857005700900,2.794700927734375,0.008693449199199677,0.012372338213026524,-0.2607274651527405
1772457857015767800,2.804767822265625,0.011141159571707249,0.060724422335624695,-0.2569236755371094
1772457857025835800,2.814835693359375,0.016319124028086662,0.11153368651866913,-0.2365037202835083
1772457857035904000,2.824904052734375,0.028963280841708183,0.1386694312095642,-0.20695169270038605
1772457857045972000,2.834971923828125,0.04913654178380966,0.12285947054624557,-0.17516298592090607
1772457857056040000,2.8450400390625,0.08047901839017868,0.0908791646361351,-0.14151927828788757
1772457857066107600,2.855107666015625,0.11909110844135284,0.06465692818164825,-0.09971253573894501
1772457857076174800,2.8651748046875,0.1581767201423645,0.063117615878582,-0.05338259041309357
1772457857086242800,2.875242919921875,0.18793337047100067,0.07912693917751312,0.0005084753502160311
1772457857096310800,2.885310791015625,0.21326962113380432,0.08793321251869202,0.03997465968132019
1772457857106378800,2.895378662109375,0.22539474070072174,0.08853024989366531,0.0704445168375969
1772457857116446700,2.90544677734375,0.22746774554252625,0.08516135066747665,0.07986678183078766
1772457857126515000,2.915514892578125,0.22222471237182617,0.06871283799409866,0.07763154804706573
1772457857136582000,2.925581787109375,0.22003160417079926,0.06091350317001343,0.07094541192054749
1772457857146649900,2.93564990234375,0.2213876098394394,0.07238294184207916,0.0745096504688263
1772457857156717800,2.9457177734375,0.22491948306560516,0.09033504873514175,0.08856049180030823
1772457857166785800,2.955785888671875,0.2257992923259735,0.11841513216495514,0.11361712217330933
1772457857176854000,2.96585400390625,0.22604723274707794,0.14207518100738525,0.14551113545894623
1772457857186921700,2.975921630859375,0.223836749792099,0.1534683257341385,0.18807508051395416
1772457857196989000,2.985989013671875,0.2275255024433136,0.16597452759742737,0.22928562760353088
1772457857207056600,2.996056640625,0.23073208332061768,0.1554846316576004,0.2737369239330292
1772457857217124600,3.00612451171875,0.22355513274669647,0.10461106151342392,0.3088677227497101
1772457857227192600,3.016192626953125,0.2029537856578827,0.04720066115260124,0.32642504572868347
1772457857237260800,3.0262607421875,0.16881978511810303,0.024935569614171982,0.3386859595775604
1772457857247328800,3.036328857421875,0.12571988999843597,0.056196071207523346,0.3414229154586792
1772457857257395700,3.046395751953125,0.07756435126066208,0.11858753859996796,0.35897713899612427
1772457857267463700,3.056463623046875,0.028704890981316566,0.16329261660575867,0.37121257185935974
1772457857277531600,3.06653173828125,-0.011943468824028969,0.1784244328737259,0.37168100476264954
1772457857287599900,3.076599853515625,-0.04722607135772705,0.17642168700695038,0.36176642775535583
1772457857297667800,3.086667724609375,-0.06705357134342194,0.1627626121044159,0.3439283072948456
1772457857307735800,3.09673583984375,-0.08024386316537857,0.14843149483203888,0.3178529143333435
1772457857317802800,3.106802734375,-0.08522637188434601,0.14167079329490662,0.28900688886642456
1772457857327870700,3.11687060546875,-0.09351225942373276,0.13501672446727753,0.25735682249069214
1772457857337938700,3.126938720703125,-0.09862978756427765,0.1230868250131607,0.22947482764720917
1772457857348006700,3.137006591796875,-0.1030602902173996,0.11776233464479446,0.19621244072914124
1772457857358074600,3.14707470703125,-0.11003377288579941,0.09697316586971283,0.17033423483371735
1772457857368142800,3.157142822265625,-0.11163255572319031,0.07158765196800232,0.1378651112318039
1772457857378209800,3.167209716796875,-0.11486110836267471,0.025216693058609962,0.09452056884765625
1772457857388277800,3.17727783203125,-0.11227390170097351,-0.021595323458313942,0.029637672007083893
1772457857398345700,3.187345703125,-0.1074804812669754,-0.05097265541553497,-0.03169839084148407
1772457857408413700,3.19741357421875,-0.09520094841718674,-0.06154255196452141,-0.08645319193601608
1772457857418482000,3.20748193359375,-0.07069028168916702,-0.05505402758717537,-0.12534359097480774
1772457857428550000,3.2175498046875,-0.03727942705154419,-0.0317966565489769,-0.1385645866394043
1772457857438616800,3.227616943359375,0.005022753030061722,-0.002560209482908249,-0.1350817084312439
1772457857448684800,3.237684814453125,0.04919320344924927,0.015422189608216286,-0.11449169367551804
1772457857458752500,3.24775244140625,0.08206646144390106,0.01791837066411972,-0.08871575444936752
1772457857468820700,3.25782080078125,0.09949661046266556,0.013959272764623165,-0.059423014521598816
1772457857478888700,3.267888671875,0.10099411010742188,0.009363988414406776,-0.023912958800792694
1772457857488956700,3.277956787109375,0.09224981814622879,-0.004290708806365728,0.004098146688193083
1772457857499023600,3.288023681640625,0.0834515392780304,-0.02550438418984413,0.011116375215351582
1772457857509091800,3.298091796875,0.07344604283571243,-0.04824458435177803,0.006186864338815212
1772457857519159800,3.308159912109375,0.0698811337351799,-0.07584106177091599,-0.009783847257494926
1772457857529227800,3.318227783203125,0.06122444570064545,-0.08874157071113586,-0.01969734951853752
1772457857539295700,3.328295654296875,0.05617775395512581,-0.0882616639137268,-0.02264333888888359
1772457857549364000,3.338364013671875,0.05205923691391945,-0.07986601442098618,-0.02308751456439495
1772457857559431700,3.348431640625,0.052761245518922806,-0.058749280869960785,-0.015239978209137917
1772457857569499000,3.358498779296875,0.05819542706012726,-0.03856677934527397,-0.006419855169951916
1772457857579566600,3.368566650390625,0.057290218770504,-0.0005775843746960163,0.012687526643276215
1772457857589634600,3.378634521484375,0.05692601948976517,0.04696470499038696,0.02475997991859913
1772457857599702800,3.388702880859375,0.0476081520318985,0.09290556609630585,0.039297375828027725
1772457857609770800,3.398770751953125,0.03789703547954559,0.1247381791472435,0.0499689094722271
1772457857619838700,3.408838623046875,0.02440333366394043,0.13906119763851166,0.05204883962869644
1772457857629905700,3.41890576171875,0.010021607391536236,0.15057237446308136,0.05455479398369789
1772457857639973600,3.4289736328125,-0.006881209090352058,0.1517966240644455,0.05206606909632683
1772457857650041900,3.439041748046875,-0.026707295328378677,0.1335126906633377,0.04310972988605499
1772457857660109800,3.44910986328125,-0.04043402522802353,0.10855673253536224,0.01765044406056404
1772457857670177800,3.459177734375,-0.05394113063812256,0.07187435775995255,-0.0152181601151824
1772457857680245800,3.469245849609375,-0.06701085716485977,0.022678585723042488,-0.055768515914678574
1772457857690312700,3.479312744140625,-0.0673322007060051,-0.017859838902950287,-0.108258917927742
1772457857700381000,3.489380859375,-0.07153493165969849,-0.0455002561211586,-0.17075425386428833
1772457857710448600,3.49944873046875,-0.07705513387918472,-0.0545460470020771,-0.2316996157169342
1772457857720516600,3.5095166015625,-0.08096199482679367,-0.07374157756567001,-0.2903088629245758
1772457857730584600,3.51958447265625,-0.09280992299318314,-0.10892117023468018,-0.36358311772346497
1772457857740652800,3.52965283203125,-0.11229734122753143,-0.1304621547460556,-0.4291197955608368
1772457857750719700,3.5397197265625,-0.13169904053211212,-0.1139354556798935,-0.4868309795856476
1772457857760787700,3.54978759765625,-0.1490122526884079,-0.05252322554588318,-0.523007869720459
1772457857770855700,3.559855712890625,-0.16291740536689758,0.030644632875919342,-0.5407496094703674
1772457857780924000,3.569923828125,-0.1698717176914215,0.11428546160459518,-0.5420974493026733
1772457857790992000,3.579991943359375,-0.16016437113285065,0.19299300014972687,-0.5152704119682312
1772457857801059800,3.590059814453125,-0.14942996203899384,0.24774812161922455,-0.4551157057285309
1772457857811127600,3.60012744140625,-0.13292540609836578,0.26072680950164795,-0.3795424699783325
1772457857821194800,3.61019482421875,-0.12058005481958389,0.22720851004123688,-0.2943381071090698
1772457857831262700,3.6202626953125,-0.11047817766666412,0.17436228692531586,-0.216238871216774
1772457857841330700,3.63033056640625,-0.1003110259771347,0.1021282970905304,-0.13693659007549286
1772457857851398700,3.640398681640625,-0.08656729012727737,0.02616644650697708,-0.06199173256754875
1772457857861466600,3.650466552734375,-0.0833272933959961,-0.038264207541942596,0.0006522075273096561
1772457857871533600,3.660533447265625,-0.08774006366729736,-0.08298241347074509,0.034256644546985626
1772457857881601800,3.670601806640625,-0.10251715034246445,-0.09911664575338364,0.05036930367350578
1772457857891669800,3.680669677734375,-0.12118466198444366,-0.08688953518867493,0.04512966051697731
1772457857901737700,3.69073779296875,-0.13645149767398834,-0.06455519795417786,0.02948225662112236
1772457857911805700,3.7008056640625,-0.13897505402565002,-0.04902893677353859,0.0026485524140298367
1772457857921874000,3.7108740234375,-0.1443818062543869,-0.05563836917281151,-0.024583600461483
1772457857931941600,3.720941650390625,-0.15637187659740448,-0.07206767797470093,-0.06121644750237465
1772457857942008800,3.7310087890625,-0.17008502781391144,-0.10522349923849106,-0.10523717105388641
1772457857952076800,3.741076904296875,-0.19322814047336578,-0.13734827935695648,-0.14205871522426605
1772457857962144800,3.751144775390625,-0.22048000991344452,-0.14433801174163818,-0.16541863977909088
1772457857972212700,3.761212646484375,-0.24960555136203766,-0.15139266848564148,-0.180415078997612
1772457857982280700,3.77128076171875,-0.27889499068260193,-0.1645825058221817,-0.1809282749891281
1772457857992348700,3.7813486328125,-0.3000360429286957,-0.1856386661529541,-0.1795627474784851
1772457858002415600,3.79141552734375,-0.3105456531047821,-0.1942737102508545,-0.17098204791545868
1772457858012483800,3.80148388671875,-0.3237999677658081,-0.1851467490196228,-0.14147113263607025
1772457858022551800,3.8115517578125,-0.3443976640701294,-0.17945104837417603,-0.1111060380935669
1772457858032619800,3.821619873046875,-0.36483457684516907,-0.18008221685886383,-0.08469879627227783
1772457858042687700,3.831687744140625,-0.38199013471603394,-0.18923203647136688,-0.0636659488081932
1772457858052755700,3.841755615234375,-0.39121153950691223,-0.20540297031402588,-0.03869451582431793
1772457858062823000,3.851822998046875,-0.3900463879108429,-0.2267862856388092,-0.025830114260315895
1772457858072891000,3.861890869140625,-0.3953169584274292,-0.23262648284435272,-0.01297292485833168
1772457858082958600,3.87195849609375,-0.39702537655830383,-0.2355349212884903,-0.004691826179623604
1772457858093026600,3.882026611328125,-0.40357255935668945,-0.26692721247673035,0.003598197130486369
1772457858103094800,3.8920947265625,-0.40615689754486084,-0.31543242931365967,0.006355101242661476
1772457858113162800,3.902162841796875,-0.4065094292163849,-0.3685675859451294,0.009013429284095764
1772457858123230700,3.912230712890625,-0.40904393792152405,-0.40618181228637695,-0.004376944620162249
1772457858133297700,3.922297607421875,-0.41913601756095886,-0.4258487820625305,-0.020501121878623962
1772457858143365600,3.93236572265625,-0.42954152822494507,-0.41735997796058655,-0.04497956857085228
1772457858153433900,3.942433837890625,-0.4357782304286957,-0.3957296907901764,-0.06454520672559738
1772457858163501800,3.952501708984375,-0.4390086531639099,-0.3754230737686157,-0.09026575088500977
1772457858173569800,3.96256982421875,-0.43875569105148315,-0.3595142662525177,-0.11868055909872055
1772457858183637500,3.972637451171875,-0.4410891532897949,-0.3442942798137665,-0.14838971197605133
1772457858193703700,3.98270361328125,-0.43477562069892883,-0.3242902159690857,-0.18112929165363312
1772457858203772000,3.99277197265625,-0.43899646401405334,-0.2922835648059845,-0.19545656442642212
1772457858213839600,4.002839599609375,-0.4383266866207123,-0.25889450311660767,-0.2003258317708969
1772457858223907600,4.012907470703125,-0.4295465350151062,-0.22123287618160248,-0.18309250473976135
1772457858233975600,4.0229755859375,-0.4103531539440155,-0.22719576954841614,-0.15707337856292725
1772457858244043500,4.03304345703125,-0.4002688229084015,-0.31089654564857483,-0.15136995911598206
1772457858254110500,4.0431103515625,-0.3958469331264496,-0.3757937252521515,-0.13585366308689117
1772457858264178400,4.053178466796875,-0.3884694576263428,-0.3818571865558624,-0.10981248319149017
1772457858274246700,4.06324658203125,-0.36835524439811707,-0.3446030020713806,-0.08536609262228012
1772457858284314600,4.073314697265625,-0.3577529489994049,-0.2877543866634369,-0.051394809037446976
1772457858294382600,4.083382568359375,-0.34837400913238525,-0.23301929235458374,-0.014910239726305008
1772457858304450600,4.093450439453125,-0.3308216631412506,-0.23263420164585114,0.007060039788484573
1772457858314518800,4.103518798828125,-0.3046169877052307,-0.24826852977275848,0.02014312334358692
1772457858324585700,4.113585693359375,-0.27200552821159363,-0.2813311219215393,0.017335619777441025
1772457858334653700,4.12365380859375,-0.25013959407806396,-0.31835949420928955,-0.007582551799714565
1772457858344721700,4.1337216796875,-0.24497361481189728,-0.35185861587524414,-0.04314400628209114
1772457858354789400,4.143789306640625,-0.2527989447116852,-0.34145817160606384,-0.08614647388458252
1772457858364857600,4.153857666015625,-0.26323267817497253,-0.29773464798927307,-0.11765832453966141
1772457858374925600,4.163925537109375,-0.2664375305175781,-0.23479989171028137,-0.14707428216934204
1772457858384992500,4.173992431640625,-0.26288726925849915,-0.16563306748867035,-0.15926888585090637
1772457858395060500,4.184060546875,-0.25906482338905334,-0.08287347853183746,-0.1664985716342926
1772457858405128700,4.194128662109375,-0.2519102394580841,-0.007351558189839125,-0.16524049639701843
1772457858415196700,4.20419677734375,-0.23330117762088776,0.04902174323797226,-0.1576489806175232
1772457858425264600,4.2142646484375,-0.19834372401237488,0.07501526176929474,-0.1384774148464203
1772457858435332600,4.22433251953125,-0.14637809991836548,0.08632586151361465,-0.10749204456806183
1772457858445400800,4.23440087890625,-0.0879286378622055,0.07762344926595688,-0.057584941387176514
1772457858455467800,4.2444677734375,-0.017476188018918037,0.05950113758444786,0.005857246927917004
1772457858465535700,4.25453564453125,0.05099475011229515,0.03531297296285629,0.07691917568445206
1772457858475603500,4.264603515625,0.11204732209444046,-0.004615499638020992,0.15109342336654663
1772457858485671400,4.27467138671875,0.1521524041891098,-0.0385470986366272,0.21968181431293488
1772457858495739600,4.28473974609375,0.1715068519115448,-0.07715418189764023,0.28778305649757385
1772457858505807600,4.2948076171875,0.17235533893108368,-0.12162017822265625,0.34687888622283936
1772457858515874600,4.30487451171875,0.15874792635440826,-0.15774835646152496,0.40126168727874756
1772457858525942500,4.314942626953125,0.1359403431415558,-0.16826172173023224,0.4453050494194031
1772457858536010500,4.325010498046875,0.11829163879156113,-0.14684705436229706,0.4808780252933502
1772457858546079700,4.335079833984375,0.10269350558519363,-0.10729990899562836,0.5089051723480225
1772457858556147500,4.3451474609375,0.08775793015956879,-0.0569571889936924,0.5129423141479492
1772457858566215400,4.35521533203125,0.06830912828445435,-0.011629918590188026,0.4982890188694
1772457858576283600,4.36528369140625,0.0443701334297657,0.03508048132061958,0.47364336252212524
1772457858586351600,4.3753515625,0.016672994941473007,0.06336990743875504,0.45366406440734863
1772457858596419600,4.385419677734375,-0.010771432891488075,0.07866671681404114,0.43771612644195557
1772457858606486500,4.395486572265625,-0.04045262932777405,0.08247131109237671,0.43582502007484436
1772457858616554500,4.405554443359375,-0.0698113963007927,0.08014888316392899,0.4311368763446808
1772457858626622700,4.415622802734375,-0.10043748468160629,0.08463791012763977,0.42965537309646606
1772457858636690700,4.425690673828125,-0.1275886595249176,0.09658869355916977,0.4096924364566803
1772457858646758700,4.435758544921875,-0.14375990629196167,0.10165109485387802,0.3783864378929138
1772457858656826600,4.44582666015625,-0.1534387767314911,0.09077976644039154,0.3208244740962982
1772457858666894600,4.45589453125,-0.1564020812511444,0.05208484083414078,0.23993174731731415
1772457858676961500,4.46596142578125,-0.15589430928230286,-0.007224562112241983,0.1496308594942093
1772457858687029500,4.476029541015625,-0.15737822651863098,-0.0696093738079071,0.05276796966791153
1772457858697097500,4.486097412109375,-0.15519678592681885,-0.1364116072654724,-0.05043887346982956
1772457858707165700,4.496165771484375,-0.15271951258182526,-0.19447916746139526,-0.15835416316986084
1772457858717233700,4.506233642578125,-0.1529928743839264,-0.20901882648468018,-0.2602958381175995
1772457858727301600,4.516301513671875,-0.15744541585445404,-0.15914154052734375,-0.35304707288742065
1772457858737368600,4.52636865234375,-0.15772153437137604,-0.06417941302061081,-0.435708612203598
1772457858747436500,4.5364365234375,-0.15232756733894348,0.055708639323711395,-0.5088778734207153
1772457858757504800,4.5465048828125,-0.1411030888557434,0.15523983538150787,-0.5672250986099243
1772457858767572700,4.55657275390625,-0.12113018333911896,0.23259587585926056,-0.5960589051246643
1772457858777640700,4.566640625,-0.09822288155555725,0.28781071305274963,-0.5857609510421753
1772457858787708400,4.57670849609375,-0.057507142424583435,0.3245924413204193,-0.5334407091140747
1772457858797775600,4.586775634765625,-0.0022978915367275476,0.3424065411090851,-0.44799527525901794
1772457858807843600,4.596843505859375,0.057143598794937134,0.3369870185852051,-0.34420737624168396
1772457858817911600,4.60691162109375,0.1103682592511177,0.2855067849159241,-0.2578918933868408
1772457858827979500,4.6169794921875,0.15927641093730927,0.19309084117412567,-0.18428662419319153
1772457858838047500,4.627047607421875,0.18791300058364868,0.08512074500322342,-0.11959375441074371
1772457858848115700,4.63711572265625,0.1985270231962204,-0.008563939481973648,-0.07333438098430634
1772457858858183700,4.64718359375,0.20350682735443115,-0.07373566925525665,-0.0376034639775753
1772457858868250600,4.657250732421875,0.2270510345697403,-0.1005459725856781,-0.020760567858815193
1772457858878318600,4.667318603515625,0.2499437928199768,-0.09769099950790405,-0.02747206762433052
1772457858888386800,4.67738671875,0.2687387764453888,-0.08580850809812546,-0.05641663074493408
1772457858898454800,4.687454833984375,0.27665776014328003,-0.06852306425571442,-0.10920814424753189
1772457858908522500,4.6975224609375,0.2736307978630066,-0.06365640461444855,-0.16295339167118073
1772457858918590500,4.707590576171875,0.2663322389125824,-0.07132764160633087,-0.21697816252708435
1772457858928657400,4.717657470703125,0.2556689381599426,-0.06906075775623322,-0.25689947605133057
1772457858938725600,4.7277255859375,0.2456817775964737,-0.0559362918138504,-0.28456345200538635
1772457858948793600,4.737793701171875,0.24647779762744904,-0.026950711384415627,-0.30273473262786865
1772457858958861600,4.747861572265625,0.24351534247398376,0.009025635197758675,-0.31285396218299866
1772457858968929500,4.757929443359375,0.25193437933921814,0.023721223697066307,-0.3213294744491577
1772457858978997800,4.767997802734375,0.26294875144958496,0.033133406192064285,-0.32104209065437317
1772457858989065700,4.778065673828125,0.2826865017414093,0.05458010733127594,-0.30580055713653564
1772457858999132700,4.788132568359375,0.31234079599380493,0.0786079466342926,-0.2786672115325928
1772457859009200600,4.79820068359375,0.3397998511791229,0.10407708585262299,-0.2366185486316681
1772457859019268600,4.8082685546875,0.36045798659324646,0.12303867936134338,-0.1908908486366272
1772457859029336600,4.818336669921875,0.38845738768577576,0.13197225332260132,-0.14241306483745575
1772457859039404500,4.828404541015625,0.4190082252025604,0.13890677690505981,-0.0899888202548027
1772457859049472500,4.838472412109375,0.45423412322998047,0.14889761805534363,-0.024639638140797615
1772457859059540500,4.84854052734375,0.49829134345054626,0.1773231476545334,0.04048902913928032
1772457859069607400,4.858607421875,0.5369314551353455,0.204795241355896,0.11445752531290054
1772457859079675600,4.868675537109375,0.5706638693809509,0.19376100599765778,0.16456760466098785
1772457859089743600,4.87874365234375,0.5926210880279541,0.1294155716896057,0.17849592864513397
1772457859099811600,4.8888115234375,0.5869869589805603,0.0457058884203434,0.16855022311210632
1772457859109879600,4.898879638671875,0.5534468293190002,-0.00021260371431708336,0.1576176881790161
1772457859119947800,4.90894775390625,0.491669237613678,0.013397100381553173,0.14580580592155457
1772457859130014700,4.9190146484375,0.4193612039089203,0.07348120957612991,0.12495218962430954
1772457859140082700,4.929082763671875,0.3533405363559723,0.1620066612958908,0.10253683477640152
1772457859150150700,4.939150634765625,0.2972826063632965,0.2649812400341034,0.08523613959550858
1772457859160218600,4.949218505859375,0.25850534439086914,0.35378241539001465,0.0769382119178772
1772457859170286600,4.95928662109375,0.22859644889831543,0.42830005288124084,0.09582534432411194
1772457859180354600,4.9693544921875,0.2029266357421875,0.48176097869873047,0.1305708885192871
1772457859190422500,4.979422607421875,0.1918199211359024,0.4723919630050659,0.16661277413368225
1772457859200489500,4.989489501953125,0.20197144150733948,0.4007161855697632,0.2025860697031021
1772457859210557400,4.999557373046875,0.2326316088438034,0.29721322655677795,0.2439473569393158
1772457859220625400,5.00962548828125,0.25867271423339844,0.1974998265504837,0.2951141595840454
1772457859230693400,5.019693359375,0.277982234954834,0.13703301548957825,0.33871278166770935
1772457859240761600,5.02976171875,0.28116413950920105,0.11431523412466049,0.3815738558769226
1772457859250829600,5.03982958984375,0.26966726779937744,0.12222401797771454,0.4148101210594177
1772457859260896500,5.049896484375,0.24465730786323547,0.12989692389965057,0.43848901987075806
1772457859270964500,5.059964599609375,0.2169942557811737,0.12538713216781616,0.4453461170196533
1772457859281032400,5.070032470703125,0.1909606009721756,0.10425376892089844,0.43062567710876465
1772457859291100400,5.080100341796875,0.17288120090961456,0.0833791196346283,0.39705199003219604
1772457859301168400,5.09016845703125,0.1687636524438858,0.06398451328277588,0.32903140783309937
1772457859311236400,5.100236328125,0.17638267576694489,0.042240869253873825,0.22746188938617706
1772457859321304600,5.1103046875,0.1804007738828659,0.023353097960352898,0.1129426658153534
1772457859331371500,5.12037158203125,0.18767252564430237,0.01759028434753418,-0.014378800056874752
1772457859341439500,5.130439453125,0.1953590363264084,0.028649214655160904,-0.14274567365646362
1772457859351507500,5.140507568359375,0.20115967094898224,0.05948702245950699,-0.26677361130714417
1772457859361575400,5.150575439453125,0.20774134993553162,0.12974964082241058,-0.36892271041870117
1772457859371643600,5.1606435546875,0.21380829811096191,0.2333492785692215,-0.4406541585922241
1772457859381711400,5.17071142578125,0.2236015349626541,0.3510880470275879,-0.47685447335243225
1772457859391779300,5.180779296875,0.2401197850704193,0.4552339017391205,-0.47914746403694153
1772457859401846500,5.190846435546875,0.2675941288471222,0.5243552923202515,-0.4435141384601593
1772457859411914200,5.200914306640625,0.2965426743030548,0.5594677329063416,-0.3773380219936371
1772457859421982500,5.210982421875,0.32569706439971924,0.577720046043396,-0.2992932200431824
1772457859432050400,5.221050537109375,0.3625836968421936,0.5959714651107788,-0.23861759901046753
1772457859442118400,5.231118408203125,0.420640766620636,0.5908424258232117,-0.21108084917068481
1772457859452186400,5.241186279296875,0.4875476360321045,0.5615745782852173,-0.21420873701572418
1772457859462253300,5.25125341796875,0.5431059002876282,0.5007219314575195,-0.2541120946407318
1772457859472321500,5.261321533203125,0.5773821473121643,0.39639315009117126,-0.29763108491897583
1772457859482389500,5.271389404296875,0.593820333480835,0.2618083357810974,-0.34123411774635315
1772457859492457500,5.28145751953125,0.5913230776786804,0.12244562804698944,-0.3688849210739136
1772457859502525400,5.291525390625,0.5784469842910767,-0.008298836648464203,-0.37691357731819153
1772457859512593400,5.301593505859375,0.5577517747879028,-0.12422756105661392,-0.3780345022678375
1772457859522661400,5.311661376953125,0.5232858657836914,-0.19728073477745056,-0.37306302785873413
1772457859532728300,5.321728271484375,0.4828639030456543,-0.22953641414642334,-0.3794551491737366
1772457859542796300,5.33179638671875,0.4518194794654846,-0.20797185599803925,-0.3913869261741638
1772457859552864500,5.341864501953125,0.4301341474056244,-0.11670665442943573,-0.40137243270874023
1772457859562932500,5.351932373046875,0.41454118490219116,0.02182779461145401,-0.3981878459453583
1772457859573000400,5.36200048828125,0.4143736660480499,0.18342441320419312,-0.38974136114120483
1772457859583068400,5.372068359375,0.4173649549484253,0.32541361451148987,-0.3652433156967163
1772457859593136600,5.38213671875,0.43517565727233887,0.42360571026802063,-0.3301103711128235
1772457859603203600,5.39220361328125,0.4570169746875763,0.45493030548095703,-0.2721778452396393
1772457859613271600,5.402271484375,0.4807862341403961,0.4430789351463318,-0.20982101559638977
1772457859623339500,5.412339599609375,0.500725269317627,0.39319726824760437,-0.1293933093547821
1772457859633407200,5.4224072265625,0.5130128860473633,0.31491580605506897,-0.053971536457538605
1772457859643475500,5.432475341796875,0.5110901594161987,0.2285729944705963,0.014650643803179264
1772457859653543400,5.44254345703125,0.5068416595458984,0.14117443561553955,0.06924677640199661
1772457859663610400,5.4526103515625,0.5052620768547058,0.07006144523620605,0.10717703402042389
1772457859673678300,5.46267822265625,0.5008614659309387,0.02484096959233284,0.13616366684436798
1772457859683746300,5.472746337890625,0.49476587772369385,-0.012951492331922054,0.15745878219604492
1772457859693814500,5.482814453125,0.49223989248275757,-0.04749295860528946,0.16637158393859863
1772457859703882500,5.492882568359375,0.48449116945266724,-0.07187396287918091,0.17096376419067383
1772457859713950500,5.502950439453125,0.47763752937316895,-0.08849848061800003,0.1646459400653839
1772457859724018400,5.513018310546875,0.4727964401245117,-0.10058988630771637,0.14818374812602997
1772457859734085600,5.523085693359375,0.4659915268421173,-0.10108309984207153,0.12035797536373138
1772457859744153600,5.533153564453125,0.454490065574646,-0.08005641400814056,0.08159828931093216
1772457859754221300,5.54322119140625,0.43323245644569397,-0.03281859681010246,0.03173406422138214
1772457859764289300,5.553289306640625,0.40826910734176636,0.030754823237657547,0.0023711516987532377
1772457859774357500,5.563357421875,0.372730016708374,0.07167615741491318,-0.03156657516956329
1772457859784425500,5.573425537109375,0.3315943777561188,0.07418618351221085,-0.05287093669176102
1772457859794493400,5.583493408203125,0.29031750559806824,0.043243713676929474,-0.06008810177445412
1772457859804560400,5.593560302734375,0.25476551055908203,0.0058800233528018,-0.06216713786125183
1772457859814628400,5.60362841796875,0.2201143503189087,-0.014744827523827553,-0.043003298342227936
1772457859824696600,5.613696533203125,0.19650210440158844,-0.0035754912532866,-0.013459102250635624
1772457859834764500,5.6237646484375,0.1841713935136795,0.022040922194719315,0.025557272136211395
1772457859844832500,5.63383251953125,0.18261221051216125,0.03736075386404991,0.06019703671336174
1772457859854900500,5.643900390625,0.17979539930820465,0.047252003103494644,0.09121593832969666
1772457859864968400,5.653968505859375,0.18415109813213348,0.040129341185092926,0.11119384318590164
1772457859875035600,5.66403564453125,0.19005027413368225,0.024954117834568024,0.12350723147392273
1772457859885103400,5.674103271484375,0.19005072116851807,-0.009333550930023193,0.1197427362203598
1772457859895171300,5.68417138671875,0.1859811395406723,-0.03404076024889946,0.10343007743358612
1772457859905239300,5.6942392578125,0.18196821212768555,-0.05307319015264511,0.09261108934879303
1772457859915307500,5.7043076171875,0.1817261278629303,-0.06032737344503403,0.07452316582202911
1772457859925375500,5.71437548828125,0.18471936881542206,-0.06706798821687698,0.05864165723323822
1772457859935443500,5.724443359375,0.18861423432826996,-0.07300683856010437,0.044291213154792786
1772457859945510400,5.734510498046875,0.1945795714855194,-0.06813317537307739,0.03306925296783447
1772457859955578400,5.744578369140625,0.19896338880062103,-0.061471015214920044,0.035675954073667526
1772457859965646600,5.754646484375,0.21287766098976135,-0.05882428586483002,0.042396653443574905
1772457859975714600,5.764714599609375,0.22514258325099945,-0.07808240503072739,0.054434675723314285
1772457859985782300,5.7747822265625,0.23969992995262146,-0.1375056356191635,0.056278783828020096
1772457859995850200,5.784850341796875,0.26282840967178345,-0.21375726163387299,0.059403207153081894
1772457860005918500,5.79491845703125,0.29171475768089294,-0.27379944920539856,0.05326753482222557
1772457860015985400,5.8049853515625,0.31720975041389465,-0.2810206115245819,0.048485029488801956
1772457860026053400,5.815053466796875,0.3491979241371155,-0.24573059380054474,0.040835294872522354
1772457860036121300,5.825121337890625,0.37567001581192017,-0.19437314569950104,0.024911722168326378
1772457860046189600,5.835189453125,0.4003292918205261,-0.13647395372390747,0.0024254978634417057
1772457860056257500,5.845257568359375,0.41624462604522705,-0.07601887732744217,-0.017985500395298004
1772457860066325500,5.855325439453125,0.42399775981903076,-0.035095639526844025,-0.028751274570822716
1772457860076392400,5.865392333984375,0.4291086494922638,-0.013231085613369942,-0.03161390498280525
1772457860086460400,5.87546044921875,0.4375472068786621,-0.000986593309789896,-0.019438249990344048
1772457860096528600,5.885528564453125,0.4611627757549286,0.019368745386600494,-0.006105667445808649
1772457860106596400,5.895596435546875,0.48882079124450684,0.028984010219573975,0.015155051834881306
1772457860116664300,5.905664306640625,0.5163669586181641,0.018777180463075638,0.03210633620619774
1772457860126732300,5.915732177734375,0.5501742362976074,-0.0015149270184338093,0.04398428648710251
1772457860136800500,5.925800537109375,0.5846608281135559,-0.03482787683606148,0.06731197983026505
1772457860146867500,5.935867431640625,0.6204826235771179,-0.06264642626047134,0.08768697082996368
1772457860156935400,5.945935302734375,0.6559170484542847,-0.08252213150262833,0.09811989963054657
1772457860167003400,5.95600341796875,0.6913617253303528,-0.10592514276504517,0.08638589829206467
1772457860177071400,5.9660712890625,0.7272307872772217,-0.13911612331867218,0.05290330946445465
1772457860187139600,5.9761396484375,0.7597885131835938,-0.1907898485660553,0.007607980631291866
1772457860197207600,5.98620751953125,0.7903903722763062,-0.242047980427742,-0.039844490587711334
1772457860207275300,5.996275146484375,0.8138161897659302,-0.2779447138309479,-0.07529344409704208
1772457860217342200,6.00634228515625,0.8287906050682068,-0.281745046377182,-0.09120849519968033
1772457860227410400,6.016410400390625,0.8349936008453369,-0.2675720453262329,-0.09165274351835251
1772457860237478100,6.02647802734375,0.8290494084358215,-0.22697319090366364,-0.09542857110500336
1772457860247546000,6.036546142578125,0.8137602210044861,-0.1441369503736496,-0.1031298115849495
1772457860257614000,6.046614013671875,0.7877911925315857,-0.005398234352469444,-0.11524586379528046
1772457860267682300,6.056682373046875,0.7472662925720215,0.17664247751235962,-0.12832173705101013
1772457860277750300,6.066750244140625,0.7071276307106018,0.3681541085243225,-0.1484198123216629
1772457860287817200,6.076817138671875,0.6742846965789795,0.5389881134033203,-0.1783827245235443
1772457860297885200,6.08688525390625,0.6598857641220093,0.6613630056381226,-0.1922609955072403
1772457860307953200,6.096953125,0.652178943157196,0.7329946160316467,-0.18914496898651123
1772457860318021400,6.107021484375,0.6534580588340759,0.7750094532966614,-0.1515643149614334
1772457860328089300,6.11708935546875,0.661847710609436,0.7661607265472412,-0.07406692206859589
1772457860338157000,6.127156982421875,0.6829026341438293,0.6993873119354248,0.0020198526326566935
1772457860348225000,6.13722509765625,0.7034008502960205,0.5829613208770752,0.09213770180940628
1772457860358292200,6.147292236328125,0.7159872055053711,0.42669767141342163,0.1786385029554367
1772457860368360200,6.157360107421875,0.7224026322364807,0.2523494064807892,0.2590230107307434
1772457860378428200,6.16742822265625,0.7243664264678955,0.09551160037517548,0.3184887170791626
1772457860388496100,6.17749609375,0.7287608981132507,-0.008576640859246254,0.35563212633132935
1772457860398564400,6.187564453125,0.7373808026313782,-0.052636776119470596,0.35851046442985535
1772457860408632300,6.19763232421875,0.7542881369590759,-0.05865518003702164,0.321227490901947
1772457860418700300,6.2077001953125,0.7741894125938416,-0.07741155475378036,0.25636565685272217
1772457860428767200,6.217767333984375,0.7899383306503296,-0.08423686027526855,0.1712077558040619
1772457860438835200,6.227835205078125,0.7969200611114502,-0.07211228460073471,0.08195191621780396
1772457860448903400,6.2379033203125,0.8039898872375488,-0.052457544952631,-0.014562715776264668
1772457860458971100,6.24797119140625,0.8218528032302856,-0.025786520913243294,-0.1164131835103035
1772457860469039000,6.2580390625,0.8476272821426392,0.024040956050157547,-0.21125006675720215
1772457860479107000,6.268107177734375,0.8832433819770813,0.10735315829515457,-0.28005948662757874
1772457860489175300,6.27817529296875,0.927129328250885,0.19961175322532654,-0.33191078901290894
1772457860499242200,6.2882421875,0.9749804735183716,0.27253150939941406,-0.355445921421051
1772457860509310200,6.298310302734375,1.0296367406845093,0.29719898104667664,-0.35844549536705017
1772457860519378200,6.308378173828125,1.0771957635879517,0.2797185182571411,-0.3373372554779053
1772457860529446100,6.318446044921875,1.1294422149658203,0.2486748993396759,-0.28361567854881287
1772457860539514400,6.328514404296875,1.1801844835281372,0.21039648354053497,-0.21023441851139069
1772457860549582300,6.338582275390625,1.2333277463912964,0.17896053194999695,-0.13473302125930786
1772457860559650300,6.348650390625,1.2827427387237549,0.15394572913646698,-0.06494808942079544
1772457860569717200,6.35871728515625,1.3229784965515137,0.11022735387086868,-0.019913142547011375
1772457860579785500,6.368785400390625,1.3578362464904785,0.06269419193267822,0.0015098571311682463
1772457860589853200,6.378853271484375,1.3936259746551514,0.03382457420229912,0.004204278811812401
1772457860599921200,6.388921142578125,1.429628610610962,0.03846593201160431,-0.012897475622594357
1772457860609989000,6.398989013671875,1.4660173654556274,0.07249055057764053,-0.028068874031305313
1772457860620057300,6.409057373046875,1.4885894060134888,0.10296642780303955,-0.04591604694724083
1772457860630125300,6.419125244140625,1.5000594854354858,0.1291402131319046,-0.0692247524857521
1772457860640192300,6.429192138671875,1.4967294931411743,0.16209177672863007,-0.09741244465112686
1772457860650260200,6.43926025390625,1.4900076389312744,0.20216268301010132,-0.13247820734977722
1772457860660328200,6.449328125,1.4862570762634277,0.2396911382675171,-0.16279643774032593
1772457860670396400,6.459396484375,1.4851902723312378,0.2767859399318695,-0.19524960219860077
1772457860680464400,6.46946435546875,1.4823023080825806,0.3290262520313263,-0.21817436814308167
1772457860690532000,6.479531982421875,1.4854915142059326,0.3890194892883301,-0.22141984105110168
1772457860700600000,6.48960009765625,1.496077537536621,0.44239938259124756,-0.21194058656692505
1772457860710668300,6.499668212890625,1.5180182456970215,0.49729835987091064,-0.17832408845424652
1772457860720735200,6.5097353515625,1.5398966073989868,0.5398237109184265,-0.1386837363243103
1772457860730803200,6.51980322265625,1.5636624097824097,0.5558504462242126,-0.09094510972499847
1772457860740871200,6.52987109375,1.5795090198516846,0.5439711809158325,-0.043399691581726074
1772457860750939100,6.539939208984375,1.6099369525909424,0.522704005241394,0.003181624924764037
1772457860761007400,6.55000732421875,1.639264464378357,0.507172703742981,0.04763244837522507
1772457860771075300,6.560075439453125,1.6688803434371948,0.4888007342815399,0.08314651250839233
1772457860781143300,6.570143310546875,1.6870604753494263,0.4826624095439911,0.10577619820833206
1772457860791210200,6.580210205078125,1.692699909210205,0.48781412839889526,0.12311719357967377
1772457860801278500,6.590278564453125,1.696537971496582,0.5004404187202454,0.12267671525478363
1772457860811346200,6.60034619140625,1.693360686302185,0.5083079934120178,0.10074916481971741
1772457860821414100,6.6104140625,1.6842702627182007,0.5067591071128845,0.07475218176841736
1772457860831482000,6.620482177734375,1.6730166673660278,0.5091061592102051,0.03785829618573189
1772457860841550300,6.63055029296875,1.6561015844345093,0.5200560092926025,-0.005632723681628704
1772457860851618300,6.640618408203125,1.645339012145996,0.5535231232643127,-0.039863165467977524
1772457860861685200,6.650685302734375,1.6377077102661133,0.5914649367332458,-0.06236235052347183
1772457860871753200,6.660753173828125,1.632375717163086,0.6168709993362427,-0.07533643394708633
1772457860881821200,6.6708212890625,1.631548523902893,0.6257004141807556,-0.08331606537103653
1772457860891889400,6.680889404296875,1.6340696811676025,0.6465804576873779,-0.07935744524002075
1772457860901957400,6.690957275390625,1.6404119729995728,0.6809568405151367,-0.04791349917650223
1772457860912025000,6.701025146484375,1.6691101789474487,0.7189043760299683,-0.0014960691332817078
1772457860922093000,6.711093017578125,1.7129499912261963,0.7610451579093933,0.0595044307410717
1772457860932160300,6.72116015625,1.76975417137146,0.7705091834068298,0.13159652054309845
1772457860942228200,6.731228271484375,1.828475832939148,0.7400985360145569,0.20279374718666077
1772457860952296200,6.741296142578125,1.8771753311157227,0.6867794394493103,0.2665863633155823
1772457860962364200,6.7513642578125,1.9061795473098755,0.614716649055481,0.31155917048454285
1772457860972432100,6.76143212890625,1.901705026626587,0.5471318960189819,0.3314652442932129
1772457860982500400,6.771500244140625,1.8713335990905762,0.503040611743927,0.3182205259799957
1772457860992568300,6.781568359375,1.8196617364883423,0.5176472663879395,0.28731706738471985
1772457861002635300,6.79163525390625,1.756126880645752,0.5605905055999756,0.23224423825740814
1772457861012703200,6.801703125,1.7062820196151733,0.5878081917762756,0.16929760575294495
1772457861022771200,6.811771240234375,1.6808568239212036,0.6032124757766724,0.11189557611942291
1772457861032839400,6.82183935546875,1.6642218828201294,0.5918611884117126,0.07343193143606186
1772457861042907100,6.8319072265625,1.6612114906311035,0.5665385127067566,0.060597360134124756
1772457861052975000,6.84197509765625,1.6534652709960938,0.5501096248626709,0.06310611218214035
1772457861063043000,6.85204296875,1.6418637037277222,0.5462952256202698,0.07550259679555893
1772457861073110300,6.8621103515625,1.6227697134017944,0.5423049926757812,0.10941741615533829
1772457861083178200,6.87217822265625,1.5993216037750244,0.5283012986183167,0.13860805332660675
1772457861093246200,6.88224609375,1.5609270334243774,0.509454071521759,0.1578938364982605
1772457861103314200,6.892314208984375,1.5169814825057983,0.4805411994457245,0.17458200454711914
1772457861113382400,6.90238232421875,1.4709059000015259,0.4531574249267578,0.1831878274679184
1772457861123450400,6.912450439453125,1.4346749782562256,0.4281085431575775,0.19881020486354828
1772457861133518300,6.922518310546875,1.4080123901367188,0.4098087549209595,0.22493821382522583
1772457861143586000,6.9325859375,1.3990743160247803,0.41941744089126587,0.25323137640953064
1772457861153653200,6.9426533203125,1.4014111757278442,0.42472749948501587,0.28453490138053894
1772457861163721200,6.95272119140625,1.407082438468933,0.41954976320266724,0.3114410936832428
1772457861173789200,6.9627890625,1.4075852632522583,0.41094622015953064,0.3232001066207886
1772457861183857200,6.972857177734375,1.3979363441467285,0.4130996763706207,0.34092772006988525
1772457861193925000,6.982925048828125,1.3855892419815063,0.411902517080307,0.37002676725387573
1772457861203993300,6.992993408203125,1.3709142208099365,0.39747005701065063,0.3937472999095917
1772457861214061600,7.0030615234375,1.3554282188415527,0.371799498796463,0.4135945439338684
1772457861224128800,7.013128662109375,1.3421896696090698,0.3445231318473816,0.43397653102874756
1772457861234196700,7.02319677734375,1.330592155456543,0.3171517550945282,0.4341195821762085
1772457861244264700,7.0332646484375,1.3058830499649048,0.31411948800086975,0.4224051535129547
1772457861254332400,7.04333251953125,1.2709169387817383,0.35597091913223267,0.3977697491645813
1772457861264400600,7.053400634765625,1.2300059795379639,0.43077564239501953,0.36990082263946533
1772457861274468600,7.063468505859375,1.2068709135055542,0.5046172738075256,0.3266292214393616
1772457861284536600,7.07353662109375,1.1916197538375854,0.5864301323890686,0.2752704322338104
1772457861294603500,7.083603515625,1.1915925741195679,0.675082266330719,0.21637573838233948
1772457861304671500,7.09367138671875,1.1992533206939697,0.7673490643501282,0.1519714593887329
1772457861314739700,7.10373974609375,1.2168548107147217,0.8490430116653442,0.08885957300662994
1772457861324807700,7.1138076171875,1.2343984842300415,0.9164673089981079,0.024837717413902283
1772457861334875600,7.123875732421875,1.2484604120254517,0.9643500447273254,-0.04914218559861183
1772457861344943600,7.133943603515625,1.250098705291748,0.9801902770996094,-0.12764418125152588
1772457861355011600,7.144011474609375,1.2454850673675537,0.9494994878768921,-0.20433904230594635
1772457861365078800,7.154078857421875,1.2411762475967407,0.9002576470375061,-0.26854410767555237
1772457861375146800,7.164146728515625,1.242025375366211,0.8651871085166931,-0.3099382221698761
1772457861385214500,7.17421435546875,1.253890037536621,0.8402412533760071,-0.3441188335418701
1772457861395282400,7.184282470703125,1.264371633529663,0.807751476764679,-0.3774569034576416
1772457861405350700,7.1943505859375,1.2715480327606201,0.7807925343513489,-0.41368281841278076
1772457861415418600,7.204418701171875,1.2760456800460815,0.7588215470314026,-0.45118454098701477
1772457861425486600,7.214486572265625,1.2877193689346313,0.717182993888855,-0.48264074325561523
1772457861435554600,7.224554443359375,1.306833028793335,0.6516526341438293,-0.5231698155403137
1772457861445621800,7.234621826171875,1.3327295780181885,0.596977174282074,-0.5549658536911011
1772457861455689700,7.244689697265625,1.3575317859649658,0.5307204723358154,-0.5935850739479065
1772457861465757700,7.2547578125,1.3805758953094482,0.4673686623573303,-0.6394029259681702
1772457861475825700,7.26482568359375,1.4119101762771606,0.41916564106941223,-0.6967588067054749
1772457861485893600,7.2748935546875,1.4439043998718262,0.41097667813301086,-0.752792239189148
1772457861495961600,7.284961669921875,1.4796210527420044,0.4578454792499542,-0.7984193563461304
1772457861506029600,7.295029541015625,1.515813946723938,0.5394319295883179,-0.8167562484741211
1772457861516096500,7.305096435546875,1.5587562322616577,0.652564287185669,-0.7929561734199524
1772457861526164500,7.31516455078125,1.591589331626892,0.7718611359596252,-0.7483525276184082
1772457861536232700,7.325232666015625,1.6207373142242432,0.8404678702354431,-0.6989999413490295
1772457861546300700,7.33530078125,1.6316487789154053,0.8467175364494324,-0.653091311454773
1772457861556368600,7.34536865234375,1.6304166316986084,0.8065417408943176,-0.6212502121925354
1772457861566436600,7.3554365234375,1.6128168106079102,0.7311798930168152,-0.5811315774917603
1772457861576504800,7.3655048828125,1.5911624431610107,0.6237897872924805,-0.5358874797821045
1772457861586572500,7.375572509765625,1.5678901672363281,0.5137074589729309,-0.4694410562515259
1772457861596639700,7.3856396484375,1.5444647073745728,0.41224926710128784,-0.39514628052711487
1772457861606707500,7.39570751953125,1.5288276672363281,0.3342042565345764,-0.3125973343849182
1772457861616775400,7.405775390625,1.510818600654602,0.29345446825027466,-0.23462921380996704
1772457861626843600,7.41584375,1.489174723625183,0.3052386939525604,-0.15848436951637268
1772457861636911600,7.42591162109375,1.4719786643981934,0.3381420969963074,-0.09385456144809723
1772457861646979600,7.4359794921875,1.447627305984497,0.3631848692893982,-0.04531685262918472
1772457861657047600,7.446047607421875,1.4150820970535278,0.3650692403316498,-0.012412842363119125
1772457861667114500,7.456114501953125,1.3748459815979004,0.34777653217315674,0.012892247177660465
1772457861677182700,7.4661826171875,1.3369262218475342,0.32014620304107666,0.0300130695104599
1772457861687250700,7.476250732421875,1.2886439561843872,0.2824550271034241,0.0518730953335762
1772457861697318700,7.486318603515625,1.2331057786941528,0.2397879958152771,0.06823688745498657
1772457861707386400,7.496386474609375,1.1632928848266602,0.2053155153989792,0.0875416100025177
1772457861717454600,7.50645458984375,1.0845613479614258,0.1847120076417923,0.10257769376039505
1772457861727522600,7.5165224609375,1.0061097145080566,0.16558624804019928,0.11792229861021042
1772457861737589500,7.526589599609375,0.9363139271736145,0.14358751475811005,0.11992720514535904
1772457861747657500,7.536657470703125,0.8683484792709351,0.11530765891075134,0.1169990599155426
1772457861757725700,7.5467255859375,0.8197952508926392,0.08650439977645874,0.1030583307147026
1772457861767793700,7.556793701171875,0.7847235798835754,0.0629655197262764,0.09356948733329773
1772457861777861600,7.566861572265625,0.7554850578308105,0.044373299926519394,0.07980907708406448
1772457861787929600,7.5769296875,0.7300401329994202,0.03176749497652054,0.0679183304309845
1772457861797997800,7.586997802734375,0.7005088925361633,0.03105270303785801,0.07161852717399597
1772457861808065500,7.5970654296875,0.6747787594795227,0.02900260128080845,0.07826045155525208
1772457861818132700,7.6071328125,0.6433798670768738,0.011528415605425835,0.08075334876775742
1772457861828200700,7.61720068359375,0.6085752844810486,0.0008890870958566666,0.08300717920064926
1772457861838268400,7.627268310546875,0.5716847777366638,0.0008602989837527275,0.09358090907335281
1772457861848336600,7.637336669921875,0.5336498022079468,-0.004820490255951881,0.1048402190208435
1772457861858404600,7.647404541015625,0.5005813241004944,-0.028239600360393524,0.1119464859366417
1772457861868472600,7.65747265625,0.4671834111213684,-0.0734158605337143,0.12132614105939865
1772457861878540500,7.66754052734375,0.4336135685443878,-0.11705534160137177,0.13448312878608704
1772457861888607500,7.677607421875,0.4042852520942688,-0.14313195645809174,0.14939762651920319
1772457861898675700,7.68767578125,0.38412871956825256,-0.14824384450912476,0.16062726080417633
1772457861908743700,7.69774365234375,0.366164892911911,-0.13401296734809875,0.17092996835708618
1772457861918811600,7.707811767578125,0.35658130049705505,-0.1217808946967125,0.17856666445732117
1772457861928879600,7.717879638671875,0.35496848821640015,-0.11476213485002518,0.16132909059524536
1772457861938947600,7.727947509765625,0.36249154806137085,-0.12025193870067596,0.1395075023174286
1772457861949015600,7.738015625,0.36383670568466187,-0.13728950917720795,0.10533434897661209
1772457861959082500,7.74808251953125,0.3626803159713745,-0.17209762334823608,0.06252574175596237
1772457861969150500,7.758150390625,0.35226842761039734,-0.20666013658046722,0.02309391275048256
1772457861979218700,7.76821875,0.3439062833786011,-0.23187804222106934,-0.010952175594866276
1772457861989286700,7.77828662109375,0.3408564329147339,-0.24870812892913818,-0.04035347327589989
1772457861999354600,7.788354736328125,0.340739905834198,-0.252143532037735,-0.06740420311689377
1772457862009422600,7.798422607421875,0.3309916853904724,-0.25638967752456665,-0.1044546365737915
1772457862019490800,7.80849072265625,0.3089698851108551,-0.2607418894767761,-0.13718335330486298
1772457862029558800,7.818558837890625,0.2835835814476013,-0.25368478894233704,-0.17165690660476685
1772457862039625700,7.828625732421875,0.25944754481315613,-0.21667566895484924,-0.19451405107975006
1772457862049693700,7.838693603515625,0.23897182941436768,-0.13852787017822266,-0.20665566623210907
1772457862059761400,7.848761474609375,0.22951260209083557,-0.03592260181903839,-0.1962938755750656
1772457862069829600,7.85882958984375,0.23645704984664917,0.044144537299871445,-0.17237043380737305
1772457862079897600,7.868897705078125,0.26080211997032166,0.08679912984371185,-0.13480234146118164
1772457862089965600,7.878965576171875,0.29517048597335815,0.08159744739532471,-0.0943201556801796
1772457862100033500,7.889033447265625,0.3316529095172882,0.04626639187335968,-0.04133973270654678
1772457862110101800,7.899101806640625,0.38100793957710266,0.0072113992646336555,0.011590059846639633
1772457862120168700,7.909168701171875,0.4292519986629486,-0.04961885139346123,0.06941884756088257
1772457862130236700,7.919236572265625,0.4747520983219147,-0.1007470190525055,0.12849600613117218
1772457862140304600,7.9293046875,0.5068091154098511,-0.1487199068069458,0.1716773808002472
1772457862150372600,7.93937255859375,0.5293722152709961,-0.2009410262107849,0.19576247036457062
1772457862160440600,7.949440673828125,0.5407619476318359,-0.23120839893817902,0.19868865609169006
1772457862170508500,7.959508544921875,0.5384617447853088,-0.24727870523929596,0.1908419132232666
1772457862180576500,7.969576416015625,0.5243985056877136,-0.24572761356830597,0.16935080289840698
1772457862190643500,7.9796435546875,0.5060964822769165,-0.24787305295467377,0.14303983747959137
1772457862200710700,7.989710693359375,0.4823055565357208,-0.25467589497566223,0.11533943563699722
1772457862210778600,7.999778564453125,0.45747238397598267,-0.24332498013973236,0.09573404490947723
1772457862220846600,8.0098466796875,0.4432799518108368,-0.21172060072422028,0.08202993124723434
1772457862230913500,8.01991357421875,0.4262554347515106,-0.1706586480140686,0.08075933903455734
1772457862240981500,8.0299814453125,0.407481849193573,-0.12783248722553253,0.08788187056779861
1772457862251049500,8.040049560546874,0.377144992351532,-0.09159058332443237,0.09576349705457687
1772457862261117400,8.050117431640626,0.34234896302223206,-0.06940096616744995,0.09442149847745895
1772457862271185700,8.060185546875,0.308693528175354,-0.05549899488687515,0.09464280307292938
1772457862281253600,8.070253662109375,0.2798614203929901,-0.05114737153053284,0.08568017929792404
1772457862291321600,8.080321533203126,0.26621726155281067,-0.04005982726812363,0.07891788333654404
1772457862301389600,8.0903896484375,0.2586020231246948,-0.016320405527949333,0.06270386278629303
1772457862311456800,8.100456787109374,0.25370660424232483,0.005144672933965921,0.04682210087776184
1772457862321524700,8.110524658203126,0.24754422903060913,0.027142394334077835,0.023964937776327133
1772457862331592400,8.120592529296875,0.24185332655906677,0.05424458533525467,0.0005730609409511089
1772457862341660400,8.130660400390624,0.2265017032623291,0.09096436202526093,-0.020492978394031525
1772457862351728600,8.140728759765626,0.20598125457763672,0.14280705153942108,-0.029581017792224884
1772457862361796600,8.150796630859375,0.18861886858940125,0.21306124329566956,-0.024371296167373657
1772457862371864600,8.160864501953125,0.17586712539196014,0.2805121839046478,-0.013908003456890583
1772457862381931500,8.170931640625,0.17435914278030396,0.32168853282928467,0.00570406299084425
1772457862391999500,8.18099951171875,0.18285596370697021,0.34640559554100037,0.03071274235844612
1772457862402067700,8.191067626953124,0.19687235355377197,0.3582431972026825,0.06372831016778946
1772457862412135700,8.2011357421875,0.21873903274536133,0.3669554591178894,0.11251156777143478
1772457862422203600,8.21120361328125,0.24240729212760925,0.38011276721954346,0.16585570573806763
1772457862432271400,8.221271240234374,0.2714003324508667,0.38938936591148376,0.22316986322402954
1772457862442339600,8.231339599609376,0.3039447069168091,0.3795080780982971,0.26495954394340515
1772457862452407600,8.241407470703125,0.3404393494129181,0.35576093196868896,0.29416030645370483
1772457862462474500,8.251474609375,0.3772183656692505,0.3029956519603729,0.3032281696796417
1772457862472542500,8.26154248046875,0.41365334391593933,0.22476424276828766,0.29226231575012207
1772457862482610400,8.2716103515625,0.4525408446788788,0.16603930294513702,0.26572906970977783
1772457862492678700,8.2816787109375,0.4861307740211487,0.11358329653739929,0.22001990675926208
1772457862502746600,8.29174658203125,0.510771632194519,0.07253775000572205,0.15395072102546692
1772457862512814600,8.301814697265625,0.5262187719345093,0.04766782373189926,0.06635882705450058
1772457862522882600,8.311882568359374,0.527038037776947,0.030989086255431175,-0.02017085626721382
1772457862532950500,8.321950439453126,0.5238227844238281,0.0437307134270668,-0.11018490046262741
1772457862543017700,8.332017822265625,0.5104392170906067,0.08285672962665558,-0.18426690995693207
1772457862553087500,8.34208740234375,0.49738410115242004,0.13327303528785706,-0.24772551655769348
1772457862563155700,8.35215576171875,0.48688530921936035,0.1876692771911621,-0.29143401980400085
1772457862573222700,8.36222265625,0.48815539479255676,0.2197989821434021,-0.32649534940719604
1772457862583290600,8.37229052734375,0.4965873062610626,0.2194422483444214,-0.3501330614089966
1772457862593358600,8.382358642578126,0.5181077718734741,0.20121769607067108,-0.3480861485004425
1772457862603426600,8.392426513671875,0.5465463995933533,0.1905374526977539,-0.31772753596305847
1772457862613494500,8.40249462890625,0.581843376159668,0.18794193863868713,-0.25415414571762085
1772457862623562500,8.4125625,0.6140004992485046,0.17337630689144135,-0.18066449463367462
1772457862633630500,8.42263037109375,0.6297981142997742,0.12936784327030182,-0.11510705947875977
1772457862643698400,8.432698486328125,0.6416256427764893,0.0686553493142128,-0.05556907504796982
1772457862653765600,8.442765625,0.6490998268127441,0.011414698325097561,-0.016739388927817345
1772457862663833600,8.45283349609375,0.6483063697814941,-0.03554793447256088,0.0054471977055072784
1772457862673901600,8.462901611328125,0.6396721005439758,-0.05851477012038231,0.011032379232347012
1772457862683969500,8.472969482421876,0.6270674467086792,-0.06297623366117477,-0.0009826936293393373
1772457862694037800,8.483037841796875,0.6128432154655457,-0.06552967429161072,-0.011081666685640812
1772457862704105700,8.493105712890625,0.5981100797653198,-0.07772456854581833,-0.03472739830613136
1772457862714173400,8.50317333984375,0.5809193849563599,-0.1167241632938385,-0.05254261568188667
1772457862724241400,8.513241455078125,0.5436862111091614,-0.13944366574287415,-0.0679769217967987
1772457862734308600,8.52330859375,0.5003052353858948,-0.13596689701080322,-0.09004733711481094
1772457862744376600,8.53337646484375,0.4542211890220642,-0.09048003703355789,-0.11854001134634018
1772457862754444500,8.543444580078125,0.41088730096817017,-0.023753734305500984,-0.14337371289730072
1772457862764512500,8.553512451171875,0.3740915358066559,0.05571475997567177,-0.17243772745132446
1772457862774580500,8.56358056640625,0.3476508855819702,0.1272994577884674,-0.19846080243587494
1772457862784648700,8.573648681640625,0.32769420742988586,0.1875663697719574,-0.212600976228714
1772457862794716700,8.583716552734375,0.30968672037124634,0.24186183512210846,-0.2199947088956833
1772457862804784600,8.59378466796875,0.29459503293037415,0.2744264304637909,-0.20811684429645538
1772457862814851600,8.6038515625,0.2858545482158661,0.29330238699913025,-0.19120843708515167
1772457862824919600,8.61391943359375,0.2830513119697571,0.282987117767334,-0.16467343270778656
1772457862834987500,8.623987548828126,0.29289090633392334,0.25281190872192383,-0.14058513939380646
1772457862845055500,8.634055419921875,0.3132628798484802,0.22096379101276398,-0.11252414435148239
1772457862855123500,8.64412353515625,0.33474498987197876,0.2048972100019455,-0.074017234146595
1772457862865191400,8.65419140625,0.3607277572154999,0.20712777972221375,-0.03497828543186188
1772457862875259600,8.664259765625,0.39075222611427307,0.2139366865158081,0.0014252627734094858
1772457862885326600,8.67432666015625,0.4200356900691986,0.2232789695262909,0.031095482409000397
1772457862895394600,8.68439453125,0.4442366361618042,0.24364469945430756,0.06386461108922958
1772457862905462500,8.694462646484375,0.4700813889503479,0.2633388638496399,0.09503910690546036
1772457862915530800,8.70453076171875,0.49891597032546997,0.2747049629688263,0.11815614253282547
1772457862925598700,8.7145986328125,0.5238814949989319,0.27362072467803955,0.13461345434188843
1772457862935666700,8.724666748046875,0.547640323638916,0.27039483189582825,0.14977562427520752
1772457862945734400,8.734734375,0.5699512958526611,0.2707143723964691,0.1678173989057541
1772457862955802600,8.744802734375,0.5897865295410156,0.2679385840892792,0.18301285803318024
1772457862965869600,8.75486962890625,0.6113734841346741,0.27119743824005127,0.20497262477874756
1772457862975937500,8.7649375,0.6341485977172852,0.27772802114486694,0.21489208936691284
1772457862986005500,8.775005615234376,0.6493931412696838,0.2834357023239136,0.21913723647594452
1772457862996073500,8.785073486328125,0.659467339515686,0.3022477328777313,0.2225079983472824
1772457863006141700,8.7951416015625,0.6623802781105042,0.3126915991306305,0.2177736908197403
1772457863016209700,8.805209716796876,0.661416232585907,0.31506553292274475,0.207691490650177
1772457863026277600,8.815277587890625,0.660125195980072,0.303517609834671,0.1967354714870453
1772457863036345600,8.825345703125,0.6618820428848267,0.2962125837802887,0.17761637270450592
1772457863046412500,8.83541259765625,0.6653311848640442,0.29472535848617554,0.1692846268415451
1772457863056480800,8.845480712890625,0.6653844118118286,0.30243656039237976,0.1787407249212265
1772457863066548500,8.855548583984374,0.6642736196517944,0.29777005314826965,0.19450613856315613
1772457863076616400,8.865616455078126,0.6631547808647156,0.2830670177936554,0.21772465109825134
1772457863086684400,8.875684326171875,0.6627399325370789,0.2985078990459442,0.23960772156715393
1772457863096752600,8.885752685546874,0.6751499772071838,0.27960821986198425,0.2252061516046524
1772457863106820600,8.895820556640626,0.6931453347206116,0.15742912888526917,0.12499171495437622
1772457863116888600,8.905888671875,0.6844591498374939,-0.08287055790424347,-0.08880285173654556
1772457863126955500,8.91595556640625,0.6326338052749634,-0.29553645849227905,-0.3025207221508026
1772457863137023500,8.9260234375,0.5359424352645874,-0.35469114780426025,-0.46481457352638245
1772457863147091700,8.936091796875,0.4098864197731018,-0.23886142671108246,-0.5301574468612671
1772457863157159700,8.94615966796875,0.2842336893081665,0.032555170357227325,-0.4953523874282837
1772457863167227400,8.956227294921876,0.1966700702905655,0.3339582085609436,-0.3763953447341919
1772457863177295600,8.966295654296875,0.16442665457725525,0.5234024524688721,-0.2222212255001068
1772457863187363600,8.976363525390624,0.17365311086177826,0.5363326072692871,-0.0833512470126152
1772457863197431600,8.986431640625,0.20632503926753998,0.45699939131736755,0.025669248774647713
1772457863207498500,8.99649853515625,0.26011165976524353,0.3534570336341858,0.1026376336812973
1772457863217566200,9.006566162109374,0.34435197710990906,0.22620907425880432,0.15613122284412384
1772457863227634200,9.01663427734375,0.44175025820732117,0.138782799243927,0.19710935652256012
1772457863237702100,9.0267021484375,0.5252595543861389,0.0988798588514328,0.22886835038661957
1772457863247770400,9.036770263671874,0.5637586116790771,0.10404201596975327,0.2582097351551056
1772457863257838300,9.04683837890625,0.5680055618286133,0.11308877170085907,0.27714747190475464
1772457863267906300,9.05690625,0.5486747622489929,0.11959563940763474,0.2808176577091217
1772457863277974000,9.06697412109375,0.5220615267753601,0.12298984080553055,0.27390700578689575
1772457863288041500,9.07704150390625,0.4883221685886383,0.11916200816631317,0.2511865496635437
1772457863298109200,9.087109130859375,0.4528680443763733,0.10694742202758789,0.21958069503307343
1772457863308177200,9.09717724609375,0.41812142729759216,0.09674420207738876,0.19596032798290253
1772457863318245000,9.1072451171875,0.382013738155365,0.11084750294685364,0.1861140877008438
1772457863328313300,9.117313232421875,0.35768669843673706,0.1650397926568985,0.19369933009147644
1772457863338381300,9.12738134765625,0.3392765522003174,0.21649286150932312,0.20241877436637878
1772457863348449300,9.13744921875,0.3323369026184082,0.24599573016166687,0.21248914301395416
1772457863358517200,9.147517333984375,0.3297097086906433,0.24897341430187225,0.22252845764160156
1772457863368584200,9.157584228515624,0.3274582028388977,0.23964594304561615,0.2364170104265213
1772457863378652400,9.16765234375,0.3153133690357208,0.2438841015100479,0.25040528178215027
1772457863388720400,9.177720458984375,0.30738818645477295,0.2721007466316223,0.2659732401371002
1772457863398788000,9.1877880859375,0.30915600061416626,0.30816686153411865,0.2809314429759979
1772457863408856000,9.19785595703125,0.32211002707481384,0.32348477840423584,0.2998233437538147
1772457863418924300,9.20792431640625,0.33157914876937866,0.33055174350738525,0.3040684163570404
1772457863428992300,9.2179921875,0.3358246088027954,0.2908651828765869,0.2871195077896118
1772457863439060200,9.228060302734375,0.32791823148727417,0.2239455133676529,0.25779783725738525
1772457863449128200,9.238128173828125,0.3256339132785797,0.1543136090040207,0.21459604799747467
1772457863459195100,9.248195068359376,0.32496440410614014,0.09736936539411545,0.1573263704776764
1772457863469263400,9.258263427734375,0.32316818833351135,0.046664249151945114,0.08522546291351318
1772457863479331300,9.268331298828125,0.3117688000202179,0.01722113788127899,0.0036320670042186975
1772457863489399300,9.2783994140625,0.29451829195022583,0.0075287483632564545,-0.07677201926708221
1772457863499467000,9.288467041015625,0.26571327447891235,0.006957234349101782,-0.15450727939605713
1772457863509535200,9.29853515625,0.22227974236011505,0.009457604959607124,-0.2355022430419922
1772457863519603200,9.308603271484374,0.16539356112480164,0.01244167611002922,-0.33284902572631836
1772457863529671200,9.318671142578125,0.10815081745386124,0.03862195461988449,-0.43122491240501404
1772457863539738000,9.328738037109375,0.062112219631671906,0.08968673646450043,-0.5324388742446899
1772457863549806000,9.33880615234375,0.03226201981306076,0.16454151272773743,-0.6025027632713318
1772457863559874300,9.348874267578125,0.02606324665248394,0.2526191771030426,-0.6498165130615234
1772457863569942300,9.3589423828125,0.04111297056078911,0.339347243309021,-0.6569523215293884
1772457863580010200,9.36901025390625,0.07170362770557404,0.40814095735549927,-0.6238529682159424
1772457863590078500,9.379078369140625,0.12538480758666992,0.43957194685935974,-0.5528424382209778
1772457863600146200,9.389146240234375,0.1775263100862503,0.4316229522228241,-0.456324964761734
1772457863610214100,9.399214111328124,0.22778920829296112,0.3907550275325775,-0.35610124468803406
1772457863620281300,9.40928125,0.271407812833786,0.3181026577949524,-0.26717671751976013
1772457863630349000,9.41934912109375,0.30788055062294006,0.22319281101226807,-0.19290407001972198
1772457863640417300,9.429417236328124,0.33422961831092834,0.12058228254318237,-0.13148757815361023
1772457863650485200,9.4394853515625,0.34954530000686646,0.01937122270464897,-0.08761662989854813
1772457863660553200,9.44955322265625,0.348054438829422,-0.06618575751781464,-0.059929076582193375
1772457863670621200,9.45962109375,0.3378816246986389,-0.11434078216552734,-0.045307088643312454
1772457863680689400,9.469689453125,0.3221641778945923,-0.13241910934448242,-0.04053976386785507
1772457863690757400,9.47975732421875,0.3112102746963501,-0.12447265535593033,-0.04292028397321701
1772457863700824300,9.48982421875,0.30249905586242676,-0.10149889439344406,-0.04545854032039642
1772457863710892300,9.499892333984375,0.2945612370967865,-0.08456036448478699,-0.04790498688817024
1772457863720960300,9.509960205078125,0.281490683555603,-0.07766011357307434,-0.05276738852262497
1772457863731028200,9.5200283203125,0.25321850180625916,-0.07616997510194778,-0.039800308644771576
1772457863741096200,9.53009619140625,0.2219625860452652,-0.07842008024454117,-0.03242335096001625
1772457863751164200,9.5401640625,0.18411442637443542,-0.09453564882278442,-0.014066878706216812
1772457863761232100,9.550232177734374,0.1418394148349762,-0.10711109638214111,0.006308434531092644
1772457863771300400,9.56030029296875,0.09971890598535538,-0.11895610392093658,0.03125546872615814
1772457863781367300,9.5703671875,0.062444236129522324,-0.14014580845832825,0.04508126899600029
1772457863791435300,9.580435302734376,0.03064950928092003,-0.1576235294342041,0.06152961403131485
1772457863801503200,9.590503173828125,0.0016990858130156994,-0.15963847935199738,0.06863225996494293
1772457863811571200,9.6005712890625,-0.027390532195568085,-0.1562151163816452,0.08050811290740967
1772457863821639400,9.610639404296874,-0.049357619136571884,-0.15419964492321014,0.0897868350148201
1772457863831707100,9.62070703125,-0.06558892130851746,-0.16825295984745026,0.09845580160617828
1772457863841775000,9.630775146484375,-0.0781121701002121,-0.18912655115127563,0.10415283590555191
1772457863851843000,9.640843017578124,-0.09605242311954498,-0.21034586429595947,0.1100679486989975
1772457863861911300,9.650911376953125,-0.12296660244464874,-0.22025121748447418,0.12232673913240433
1772457863871978200,9.660978271484375,-0.14762859046459198,-0.23191764950752258,0.12384223937988281
1772457863882046200,9.671046142578126,-0.17252488434314728,-0.2516636550426483,0.11516699194908142
1772457863892114200,9.6811142578125,-0.2020372599363327,-0.2609776258468628,0.08972156792879105
1772457863902182400,9.691182373046875,-0.23477071523666382,-0.2522461712360382,0.057893332093954086
1772457863912250400,9.70125048828125,-0.25838959217071533,-0.21945829689502716,0.02580258809030056
1772457863922318300,9.711318359375,-0.28112632036209106,-0.18219400942325592,-0.00702220294624567
1772457863932386000,9.721385986328125,-0.3054313361644745,-0.1363144963979721,-0.024291619658470154
1772457863942454300,9.731454345703124,-0.32170721888542175,-0.08187282085418701,-0.02721257507801056
1772457863952521200,9.741521240234375,-0.3322582542896271,-0.03060108982026577,-0.017844183370471
1772457863962589200,9.751589111328125,-0.3340691924095154,0.008276000618934631,0.0053032138384878635
1772457863972657200,9.7616572265625,-0.32469886541366577,0.030385563150048256,0.04883125051856041
1772457863982725000,9.77172509765625,-0.29624271392822266,0.045599400997161865,0.10633795708417892
1772457863992793300,9.78179345703125,-0.25938236713409424,-0.03036985918879509,0.16172419488430023
1772457864002861300,9.791861328125,-0.2247714102268219,-0.20913508534431458,0.17754070460796356
1772457864012929300,9.80192919921875,-0.19720163941383362,-0.3598631024360657,0.17796972393989563
1772457864022997200,9.811997314453125,-0.17072714865207672,-0.42294272780418396,0.1699107438325882
1772457864033065200,9.822065185546874,-0.14977794885635376,-0.3999483287334442,0.16228194534778595
1772457864043132400,9.83213232421875,-0.12403875589370728,-0.34119847416877747,0.14583159983158112
1772457864053200100,9.8422001953125,-0.09297381341457367,-0.29143381118774414,0.11857595294713974
1772457864063268000,9.85226806640625,-0.06181242689490318,-0.2428060621023178,0.09018053114414215
1772457864073336000,9.862336181640625,-0.04086087644100189,-0.21242836117744446,0.06398414075374603
1772457864083404300,9.872404296875,-0.02482624724507332,-0.2046375572681427,0.03207361325621605
1772457864093472300,9.88247216796875,-0.02557370997965336,-0.22174222767353058,-0.016924463212490082
1772457864103540200,9.892540283203125,-0.03683941438794136,-0.2571233808994293,-0.08474133163690567
1772457864113608200,9.902608154296875,-0.05245102569460869,-0.28431427478790283,-0.16263197362422943
1772457864123676400,9.912676513671874,-0.06765128672122955,-0.27993205189704895,-0.24975994229316711
1772457864133743400,9.922743408203125,-0.07624823600053787,-0.23389318585395813,-0.30702587962150574
1772457864143811300,9.932811279296875,-0.07927891612052917,-0.14411243796348572,-0.3392341434955597
1772457864153879000,9.942879150390626,-0.076299287378788,-0.018010012805461884,-0.32654428482055664
1772457864163947300,9.952947265625,-0.06281010806560516,0.11569052934646606,-0.28215259313583374
1772457864174015200,9.96301513671875,-0.0368451327085495,0.20935527980327606,-0.2120007872581482
1772457864184083200,9.973083251953126,0.005563843064010143,0.24094223976135254,-0.13715238869190216
1772457864194151200,9.983151123046875,0.06419242918491364,0.22337965667247772,-0.03289920836687088
1772457864204219400,9.993219482421875,0.12353165447711945,0.15875911712646484,0.0783679261803627
1772457864214286000,10.0032861328125,0.18132127821445465,0.062105920165777206,0.20216895639896393
1772457864224354300,10.013354248046875,0.22527329623699188,-0.060720931738615036,0.3190990388393402
1772457864234422300,10.02342236328125,0.25201550126075745,-0.2017178237438202,0.4394890367984772
1772457864244490200,10.033490234375,0.26513850688934326,-0.3117780089378357,0.5389024615287781
1772457864254558200,10.04355810546875,0.2568943202495575,-0.39578768610954285,0.5976659655570984
1772457864264626200,10.053626220703125,0.23860850930213928,-0.4323299825191498,0.6106725931167603
1772457864274694100,10.063694091796876,0.21661436557769775,-0.42857417464256287,0.5871833562850952
1772457864284762000,10.07376220703125,0.19328774511814117,-0.4057421088218689,0.5314016342163086
1772457864294830000,10.083830078125,0.1719251424074173,-0.3724439740180969,0.45449021458625793
1772457864304897300,10.093897216796876,0.15121108293533325,-0.3265955150127411,0.3724702000617981
1772457864314965200,10.10396533203125,0.14146235585212708,-0.259452760219574,0.2939962148666382
1772457864325033200,10.114033203125,0.14066766202449799,-0.16745519638061523,0.23068752884864807
1772457864335101200,10.12410107421875,0.14412547647953033,-0.06574235111474991,0.18011751770973206
1772457864345169400,10.13416943359375,0.13862870633602142,0.0377611368894577,0.13929897546768188
1772457864355237000,10.144237060546875,0.11891286075115204,0.1320517361164093,0.09078739583492279
1772457864365305000,10.15430517578125,0.09709277749061584,0.17970234155654907,0.029059315100312233
1772457864375373000,10.164373046875,0.08039059489965439,0.18239304423332214,-0.022547967731952667
1772457864385440000,10.17443994140625,0.06938561797142029,0.16271334886550903,-0.07807327806949615
1772457864395508200,10.18450830078125,0.07085373252630234,0.158199280500412,-0.12396097183227539
1772457864405576200,10.194576171875,0.08109624683856964,0.15227746963500977,-0.16089926660060883
1772457864415644200,10.20464404296875,0.09433086961507797,0.13961713016033173,-0.1940189152956009
1772457864425712000,10.214712158203126,0.1119799017906189,0.09961486607789993,-0.22817182540893555
1772457864435780400,10.2247802734375,0.1238349974155426,0.046688370406627655,-0.2664742171764374
1772457864445848300,10.234848388671875,0.13292914628982544,-0.01761471852660179,-0.31390485167503357
1772457864455916300,10.244916259765626,0.14697057008743286,-0.05524276942014694,-0.3555941581726074
1772457864465984000,10.25498388671875,0.1641058772802353,-0.08009858429431915,-0.39680391550064087
1772457864476051200,10.26505126953125,0.1792185753583908,-0.0897650197148323,-0.42139604687690735
1772457864486119200,10.275119140625,0.19083422422409058,-0.07785935699939728,-0.43808528780937195
1772457864496187100,10.285187255859375,0.20275411009788513,-0.04815514385700226,-0.42814502120018005
1772457864506255000,10.295255126953125,0.2190324068069458,-0.011179815977811813,-0.396500825881958
1772457864516323000,10.305322998046876,0.23227737843990326,0.03395304083824158,-0.36941567063331604
1772457864526391300,10.315391357421875,0.2400950789451599,0.044298090040683746,-0.3571574091911316
1772457864536459300,10.325459228515625,0.24862875044345856,0.043185267597436905,-0.3490864634513855
1772457864546527200,10.33552734375,0.2434888631105423,0.04449820518493652,-0.34131720662117004
1772457864556595200,10.34559521484375,0.22807730734348297,0.04888245463371277,-0.3330773711204529
1772457864566662400,10.355662353515624,0.21476149559020996,0.04252815246582031,-0.3310283422470093
1772457864576730400,10.36573046875,0.1982150375843048,-0.001325350720435381,-0.3198469877243042
1772457864586798000,10.375798095703125,0.19085592031478882,-0.06307100504636765,-0.30206000804901123
1772457864596866000,10.385865966796874,0.19134192168712616,-0.12128474563360214,-0.2875884473323822
1772457864606934300,10.395934326171876,0.1955539882183075,-0.15064290165901184,-0.256299763917923
1772457864617002200,10.406002197265625,0.20420365035533905,-0.15665163099765778,-0.21462573111057281
1772457864627070200,10.4160703125,0.21080268919467926,-0.13726408779621124,-0.17834895849227905
1772457864637138200,10.42613818359375,0.21610909700393677,-0.1150350347161293,-0.14672379195690155
1772457864647205000,10.436205078125,0.2299008071422577,-0.0973106324672699,-0.12050630152225494
1772457864657273300,10.4462734375,0.2549300491809845,-0.07108218967914581,-0.09540757536888123
1772457864667341300,10.45634130859375,0.2807011902332306,-0.0205116868019104,-0.07715853303670883
1772457864677409300,10.4664091796875,0.30650562047958374,0.011134783737361431,-0.05634583160281181
1772457864687477000,10.47647705078125,0.338909387588501,0.029853610321879387,-0.03273371234536171
1772457864697545200,10.486545166015626,0.3768056035041809,0.03319287672638893,-0.011272592470049858
1772457864707613200,10.49661328125,0.42501014471054077,0.03388876095414162,0.011057214811444283
1772457864717681200,10.50668115234375,0.4646310806274414,0.046078160405159,0.04267289862036705
1772457864727749000,10.5167490234375,0.4896906316280365,0.09376312792301178,0.07152718305587769
1772457864737816000,10.526816162109375,0.4990811347961426,0.14307905733585358,0.10308684408664703
1772457864747884300,10.53688427734375,0.5021224617958069,0.17496508359909058,0.1263572871685028
1772457864757952300,10.5469521484375,0.49452725052833557,0.1955043077468872,0.1395481675863266
1772457864768020200,10.557020263671875,0.48457688093185425,0.19116361439228058,0.14364704489707947
1772457864778088200,10.567088134765624,0.46744734048843384,0.16313810646533966,0.13972172141075134
1772457864788156200,10.57715625,0.4493202865123749,0.14572980999946594,0.12473850697278976
1772457864798224100,10.58722412109375,0.4400468170642853,0.14565810561180115,0.1078551635146141
1772457864808292000,10.5972919921875,0.4405781328678131,0.14787039160728455,0.0831516832113266
1772457864818360000,10.607360107421876,0.44484880566596985,0.13597054779529572,0.05255069583654404
1772457864828427000,10.617427001953125,0.4612157940864563,0.13801638782024384,0.022214364260435104
1772457864838495200,10.6274951171875,0.46368852257728577,0.15266084671020508,-0.007879355922341347
1772457864848563200,10.637563232421876,0.4636605679988861,0.1773877590894699,-0.03920878469944
1772457864858631200,10.647631103515625,0.4556944966316223,0.20834384858608246,-0.058281075209379196
1772457864868699400,10.657699462890625,0.4432191848754883,0.2410743683576584,-0.05698038637638092
1772457864878767400,10.667767333984376,0.42799651622772217,0.26066291332244873,-0.04570905491709709
1772457864888835000,10.6778349609375,0.40852081775665283,0.2330312728881836,-0.04051828756928444
1772457864898903000,10.687903076171875,0.39531391859054565,0.18797925114631653,-0.031266890466213226
1772457864908971300,10.69797119140625,0.3932148218154907,0.15216664969921112,-0.032899145036935806
1772457864919038200,10.7080380859375,0.4000747799873352,0.12533517181873322,-0.05880523845553398
1772457864929106200,10.718106201171874,0.4057057797908783,0.12128982692956924,-0.09101589769124985
1772457864939174100,10.728174072265626,0.39701592922210693,0.15020877122879028,-0.11701355129480362
1772457864949242000,10.7382421875,0.3772504925727844,0.1713324338197708,-0.13545088469982147
1772457864959310300,10.748310302734374,0.354720801115036,0.18897183239459991,-0.14294113218784332
1772457864969378300,10.75837841796875,0.33974719047546387,0.20389032363891602,-0.14288361370563507
1772457864979446300,10.7684462890625,0.3263412415981293,0.216493621468544,-0.14359891414642334
1772457864989514200,10.77851416015625,0.3084013760089874,0.23071223497390747,-0.13940231502056122
1772457864999582200,10.788582275390626,0.2861761748790741,0.24452361464500427,-0.141558438539505
1772457865009649200,10.798649169921875,0.26925793290138245,0.25182974338531494,-0.1498994529247284
1772457865019717000,10.808717041015624,0.2503289580345154,0.2636440396308899,-0.15329284965991974
1772457865029785000,10.81878515625,0.23459555208683014,0.30278852581977844,-0.1385168433189392
1772457865039853000,10.82885302734375,0.2156302034854889,0.3149296045303345,-0.1151650920510292
1772457865049921300,10.83892138671875,0.19116054475307465,0.3044460713863373,-0.0859701856970787
1772457865059989200,10.8489892578125,0.15961796045303345,0.2905418574810028,-0.05180847644805908
1772457865070057200,10.85905712890625,0.11925695091485977,0.2574281096458435,-0.022166961804032326
1772457865080125200,10.869125244140625,0.08488967269659042,0.24334555864334106,0.022848190739750862
1772457865090192100,10.879192138671876,0.07510841637849808,0.2919761836528778,0.06789129972457886
1772457865100260400,10.88926025390625,0.08921586722135544,0.38005512952804565,0.12763267755508423
1772457865110328300,10.899328369140624,0.11612524092197418,0.45156925916671753,0.16115067899227142
1772457865120396000,10.90939599609375,0.1467122584581375,0.46995797753334045,0.17645232379436493
1772457865130464000,10.919464111328125,0.1839861273765564,0.49876832962036133,0.18022575974464417
1772457865140532200,10.9295322265625,0.22059366106987,0.5021074414253235,0.17839668691158295
1772457865150600200,10.93960009765625,0.23769941926002502,0.4950636029243469,0.1858024150133133
1772457865160668200,10.949668212890625,0.21925915777683258,0.45052826404571533,0.195174440741539
1772457865170736000,10.959736083984374,0.1744099259376526,0.41122880578041077,0.21930640935897827
1772457865180804400,10.969804443359376,0.12319596856832504,0.38241222500801086,0.2502593398094177
1772457865190871300,10.979871337890625,0.08379663527011871,0.3346012830734253,0.2764408588409424
1772457865200939300,10.989939208984374,0.062434885650873184,0.27502384781837463,0.3037424087524414
1772457865211007200,11.00000732421875,0.05271834507584572,0.2188122421503067,0.3151324689388275
1772457865221075500,11.010075439453125,0.05287719517946243,0.19611874222755432,0.31957390904426575
1772457865231143400,11.020143310546874,0.06593174487352371,0.21893617510795593,0.31975018978118896
1772457865241211400,11.03021142578125,0.08999188244342804,0.2786811590194702,0.31701797246932983
1772457865251279400,11.040279296875,0.12977738678455353,0.3422180414199829,0.3137638568878174
1772457865261347600,11.05034765625,0.16946902871131897,0.3804883360862732,0.3155559301376343
1772457865271415600,11.06041552734375,0.20712053775787354,0.38925468921661377,0.33197563886642456
1772457865281482500,11.070482421875,0.2340288907289505,0.3502258360385895,0.36436840891838074
1772457865291550500,11.080550537109374,0.2581517994403839,0.2858324646949768,0.3952738642692566
1772457865301618400,11.090618408203126,0.26901566982269287,0.2130795121192932,0.42099329829216003
1772457865311686400,11.100686279296875,0.26697036623954773,0.15383057296276093,0.4391230344772339
1772457865321754400,11.11075439453125,0.2592099905014038,0.10371454060077667,0.4536859393119812
1772457865331822300,11.120822265625,0.2465469390153885,0.07576599717140198,0.44983795285224915
1772457865341890300,11.130890380859375,0.2343023270368576,0.04901575297117233,0.42354661226272583
1772457865351958500,11.14095849609375,0.22106029093265533,0.012193022295832634,0.3750357925891876
1772457865362026500,11.151026611328126,0.20848874747753143,-0.029799938201904297,0.3081120550632477
1772457865372093400,11.161093505859375,0.1936541348695755,-0.037904202938079834,0.23551003634929657
1772457865382161400,11.171161376953124,0.1787203550338745,-0.011963527649641037,0.16510991752147675
1772457865392229600,11.181229736328126,0.1694032847881317,0.05825630575418472,0.11470106244087219
1772457865402297600,11.191297607421875,0.168116956949234,0.14004521071910858,0.0794583261013031
1772457865412365300,11.201365234375,0.1677129566669464,0.2081451714038849,0.04895900934934616
1772457865422433300,11.211433349609376,0.15636476874351501,0.2601117193698883,0.01874653436243534
1772457865432501500,11.22150146484375,0.14896704256534576,0.3119312524795532,-0.002295633777976036
1772457865442569500,11.231569580078125,0.14788395166397095,0.34421923756599426,-0.0013689508195966482
1772457865452637400,11.241637451171876,0.14606128633022308,0.375135600566864,0.016117097809910774
1772457865462704400,11.251704345703125,0.15482018887996674,0.3677740693092346,0.03662862256169319
1772457865472772400,11.2617724609375,0.1680198758840561,0.33193883299827576,0.07117221504449844
1772457865482840600,11.271840576171876,0.16976357996463776,0.2740665674209595,0.10172963887453079
1772457865492908500,11.281908447265625,0.15726590156555176,0.22937685251235962,0.13757818937301636
1772457865502976500,11.2919765625,0.15026599168777466,0.18220487236976624,0.17076238989830017
1772457865513044500,11.30204443359375,0.15123938024044037,0.12693069875240326,0.18558500707149506
1772457865523112400,11.312112548828125,0.15823422372341156,0.08491750806570053,0.18802981078624725
1772457865533180400,11.322180419921875,0.1685744822025299,0.06162763386964798,0.17673000693321228
1772457865543248400,11.332248291015626,0.17470963299274445,0.02935168892145157,0.1554410457611084
1772457865553315300,11.3423154296875,0.17438393831253052,-0.005235316697508097,0.11736209690570831
1772457865563383300,11.35238330078125,0.17776229977607727,-0.03843063861131668,0.05343446135520935
1772457865573451500,11.362451416015626,0.17599768936634064,-0.07784382998943329,-0.03503521531820297
1772457865583519500,11.37251953125,0.1583442986011505,-0.10526024550199509,-0.14698980748653412
1772457865593587500,11.38258740234375,0.13531140983104706,-0.10912848263978958,-0.2714821696281433
1772457865603655400,11.392655517578126,0.11296666413545609,-0.05176889896392822,-0.38321828842163086
1772457865613723400,11.402723388671875,0.07990404963493347,0.020674407482147217,-0.4756518006324768
1772457865623791400,11.412791259765624,0.05771811679005623,0.1343458890914917,-0.5206602811813354
1772457865633859300,11.422859375,0.062322456389665604,0.25546807050704956,-0.5234235525131226
1772457865643926300,11.43292626953125,0.08088276535272598,0.36931654810905457,-0.48382529616355896
1772457865653994500,11.442994384765624,0.08809620141983032,0.3974746763706207,-0.4079510569572449
1772457865664062500,11.4530625,0.08981934189796448,0.33557552099227905,-0.3060077130794525
1772457865674130400,11.46313037109375,0.053883716464042664,0.12077957391738892,-0.22659625113010406
1772457865684198400,11.473198486328124,0.03701949864625931,-0.07646195590496063,-0.17878733575344086
1772457865694266600,11.4832666015625,0.03209318220615387,-0.2082356959581375,-0.10714245587587357
1772457865704334600,11.49333447265625,0.037352658808231354,-0.28148671984672546,-0.026619119569659233
1772457865714402600,11.503402587890625,0.04322626069188118,-0.29293113946914673,0.04152664542198181
1772457865724470300,11.51347021484375,0.04244239255785942,-0.2797539234161377,0.09658245742321014
1772457865734538500,11.52353857421875,0.04112971946597099,-0.2220461517572403,0.14301306009292603
1772457865744605400,11.53360546875,0.02478817291557789,-0.16409079730510712,0.16222666203975677
1772457865754673400,11.54367333984375,0.004803544841706753,-0.18692606687545776,0.15111514925956726
1772457865764741400,11.553741455078125,-0.024334117770195007,-0.2802039086818695,0.11034225672483444
1772457865774809300,11.563809326171874,-0.060845255851745605,-0.3487667441368103,0.06647093594074249
