time,seconds_elapsed,z,y,x
1772457854271027200,0.060027099609375,-0.18308833241462708,-0.22192654013633728,-0.06902167946100235
1772457854281095200,0.07009521484375,-0.2077031284570694,-0.256022185087204,-0.0716499537229538
1772457854291163100,0.0801630859375,-0.23139727115631104,-0.30862414836883545,-0.0896124392747879
1772457854301231400,0.0902314453125,-0.25689437985420227,-0.3301592767238617,-0.10310188680887222
1772457854311298300,0.10029833984375,-0.28325355052948,-0.3453941345214844,-0.11123570799827576
1772457854321366300,0.1103662109375,-0.30637431144714355,-0.3380424976348877,-0.1183743104338646
1772457854331434200,0.120434326171875,-0.3121917247772217,-0.30345016717910767,-0.12909433245658875
1772457854341502500,0.13050244140625,-0.30389782786369324,-0.25685763359069824,-0.13821512460708618
1772457854351570400,0.1405703125,-0.2861182987689972,-0.16763080656528473,-0.13648566603660583
1772457854361637400,0.150637451171875,-0.2595553994178772,-0.06377258896827698,-0.13808196783065796
1772457854371705300,0.160705322265625,-0.22635537385940552,0.020315125584602356,-0.14116404950618744
1772457854381773300,0.170773193359375,-0.1917920708656311,0.06345487385988235,-0.15269553661346436
1772457854391841500,0.180841552734375,-0.17439310252666473,0.08322644978761673,-0.16965347528457642
1772457854401909200,0.1909091796875,-0.1633085012435913,0.09922591596841812,-0.19543127715587616
1772457854411977200,0.200977294921875,-0.15047898888587952,0.11105035245418549,-0.21391122043132782
1772457854422044200,0.211044189453125,-0.13853789865970612,0.1308341771364212,-0.2223699539899826
1772457854432112000,0.221112060546875,-0.13550350069999695,0.13968892395496368,-0.22311058640480042
1772457854442180400,0.231180419921875,-0.13013537228107452,0.12479173392057419,-0.22174863517284393
1772457854452248300,0.241248291015625,-0.12341327965259552,0.11298301070928574,-0.20500241219997406
1772457854462316300,0.25131640625,-0.11243093758821487,0.10253196954727173,-0.18489901721477509
1772457854472383200,0.26138330078125,-0.10140012204647064,0.09011843800544739,-0.16143150627613068
1772457854482451200,0.271451171875,-0.08799723535776138,0.05742281302809715,-0.14741314947605133
1772457854492519400,0.28151953125,-0.07031464576721191,-0.0020418455824255943,-0.1346142739057541
1772457854502587400,0.29158740234375,-0.05263524875044823,-0.05491411313414574,-0.12155546247959137
1772457854512655400,0.3016552734375,-0.04182201623916626,-0.07802742719650269,-0.11148631572723389
1772457854522723300,0.311723388671875,-0.03612125292420387,-0.060022324323654175,-0.09503010660409927
1772457854532790500,0.32179052734375,-0.019338011741638184,-0.030026875436306,-0.08479797840118408
1772457854542858200,0.331858154296875,0.003364105010405183,-0.017353158444166183,-0.07046884298324585
1772457854552926200,0.34192626953125,0.03279256820678711,-0.025471538305282593,-0.07387448847293854
1772457854562994200,0.351994140625,0.05898156017065048,-0.061998654156923294,-0.09272727370262146
1772457854573062400,0.3620625,0.07475333660840988,-0.11500594764947891,-0.12246280163526535
1772457854583129300,0.37212939453125,0.08669308573007584,-0.13003043830394745,-0.15769721567630768
1772457854593197300,0.382197265625,0.08876369148492813,-0.13592427968978882,-0.1945234090089798
1772457854603265300,0.392265380859375,0.085364431142807,-0.15762318670749664,-0.2303066998720169
1772457854613333200,0.402333251953125,0.07674750685691833,-0.18413281440734863,-0.2702506482601166
1772457854623401500,0.4124013671875,0.05453648045659065,-0.20342928171157837,-0.3205612301826477
1772457854633469400,0.422469482421875,0.028988242149353027,-0.18300843238830566,-0.365327388048172
1772457854643536400,0.432536376953125,-0.0067934575490653515,-0.13980424404144287,-0.4036204218864441
1772457854653604400,0.442604248046875,-0.045158687978982925,-0.07607132941484451,-0.4201924800872803
1772457854663672300,0.45267236328125,-0.07924448698759079,-0.01137063279747963,-0.4252050817012787
1772457854673740300,0.462740234375,-0.09744372963905334,0.03340908885002136,-0.41683292388916016
1772457854683808300,0.472808349609375,-0.1015617772936821,0.06449989974498749,-0.3919195830821991
1772457854693876200,0.482876220703125,-0.08689495176076889,0.07946605980396271,-0.34825199842453003
1772457854703943200,0.492943115234375,-0.06304953992366791,0.08896396309137344,-0.2818191647529602
1772457854714011400,0.503011474609375,-0.03689143806695938,0.0876488909125328,-0.20866559445858002
1772457854724079400,0.513079345703125,-0.005577724426984787,0.06645172834396362,-0.13612960278987885
1772457854734147300,0.523147216796875,0.0254619512706995,0.019575033336877823,-0.06423970311880112
1772457854744215300,0.53321533203125,0.04940216988325119,-0.04158739000558853,-0.008868859149515629
1772457854754282200,0.5432822265625,0.06657157093286514,-0.11178325861692429,0.03901105001568794
1772457854764350500,0.5533505859375,0.06920703500509262,-0.16472476720809937,0.07059374451637268
1772457854774418400,0.56341845703125,0.055809736251831055,-0.16442489624023438,0.09403941035270691
1772457854784486400,0.573486328125,0.03520672395825386,-0.144110307097435,0.09727728366851807
1772457854794554000,0.58355419921875,0.012679842300713062,-0.11244798451662064,0.0754992812871933
1772457854804622300,0.593622314453125,-0.01697632111608982,-0.07791610062122345,0.04983599856495857
1772457854814689300,0.603689208984375,-0.04746312275528908,-0.040293361991643906,0.013394901528954506
1772457854824757200,0.61375732421875,-0.07056444883346558,0.006296511739492416,-0.026636138558387756
1772457854834825200,0.6238251953125,-0.0853431299328804,0.04951322451233864,-0.05926545336842537
1772457854844893200,0.63389306640625,-0.09732282161712646,0.09667567908763885,-0.0820368155837059
1772457854854961400,0.64396142578125,-0.10366993397474289,0.13710646331310272,-0.0972122997045517
1772457854865028400,0.6540283203125,-0.09857743978500366,0.1517075002193451,-0.09553451091051102
1772457854875096300,0.664096435546875,-0.07024779915809631,0.12600533664226532,-0.08531995862722397
1772457854885164300,0.674164306640625,-0.0367811843752861,0.07372162491083145,-0.0615650936961174
1772457854895232300,0.684232177734375,-0.003971572034060955,0.029205555096268654,-0.019841881468892097
1772457854905300500,0.694300537109375,0.01619175262749195,0.0035806200467050076,0.024295752868056297
1772457854915368200,0.7043681640625,0.024382570758461952,0.00944996066391468,0.07331682741641998
1772457854925435400,0.714435302734375,0.03898921236395836,0.03368445858359337,0.10157109797000885
1772457854935503400,0.72450341796875,0.06425808370113373,0.03580433502793312,0.11764034628868103
1772457854945571300,0.7345712890625,0.08712291717529297,0.04049656167626381,0.127859964966774
1772457854955639300,0.744639404296875,0.09215309470891953,0.04243827238678932,0.1268620789051056
1772457854965707300,0.754707275390625,0.08664621412754059,0.04620105028152466,0.11896660178899765
1772457854975774200,0.764774169921875,0.07751769572496414,0.04139697551727295,0.10411814600229263
1772457854985842200,0.77484228515625,0.07175328582525253,0.04025687649846077,0.0798191949725151
1772457854995910400,0.784910400390625,0.07393387705087662,0.015595737844705582,0.05830378457903862
1772457855005978400,0.794978271484375,0.07421191036701202,-0.02219212055206299,0.030817300081253052
1772457855016046300,0.80504638671875,0.06471800804138184,-0.023783359676599503,0.012477442622184753
1772457855026114300,0.8151142578125,0.05866331234574318,-0.011035873554646969,-0.003145459573715925
1772457855036181200,0.82518115234375,0.05970301106572151,-0.010025203227996826,-0.019530823454260826
1772457855046249500,0.83524951171875,0.061219681054353714,-0.03375423327088356,-0.024770859628915787
1772457855056317400,0.8453173828125,0.06114058569073677,-0.053351372480392456,-0.0252840518951416
1772457855066385200,0.85538525390625,0.06089051440358162,-0.055447813123464584,-0.03254329413175583
1772457855076453000,0.865453125,0.06216324120759964,-0.028874259442090988,-0.03843793645501137
1772457855086520300,0.875520263671875,0.06689940392971039,0.01002067606896162,-0.042209770530462265
1772457855096588300,0.88558837890625,0.07613871246576309,0.04703435301780701,-0.046905990689992905
1772457855106656300,0.89565625,0.08517854660749435,0.07267500460147858,-0.054972704499959946
1772457855116724200,0.90572412109375,0.0811435878276825,0.07545427978038788,-0.05253564566373825
1772457855126792400,0.91579248046875,0.07853022962808609,0.056534115225076675,-0.05981006845831871
1772457855136860400,0.9258603515625,0.0685843899846077,0.06108066439628601,-0.050764910876750946
1772457855146927400,0.93592724609375,0.06240372359752655,0.07853768765926361,-0.03934980183839798
1772457855156995300,0.945995361328125,0.05477403104305267,0.1079925149679184,-0.020432837307453156
1772457855167063300,0.956063232421875,0.04767404496669769,0.12784744799137115,0.00119575927965343
1772457855177131500,0.966131591796875,0.04295092821121216,0.13068504631519318,0.023754332214593887
1772457855187199200,0.97619921875,0.04139058291912079,0.12252750992774963,0.03051716275513172
1772457855197267200,0.98626708984375,0.04999152943491936,0.10334369540214539,0.030227944254875183
1772457855207334700,0.996334716796875,0.06590737402439117,0.09407589584589005,0.03640248253941536
1772457855217402600,1.006402587890625,0.07843782007694244,0.10200865566730499,0.04928871989250183
1772457855227470600,1.016470703125,0.08902707695960999,0.09489934891462326,0.06286924332380295
1772457855237538600,1.02653857421875,0.0945773720741272,0.06952661275863647,0.06829623132944107
1772457855247606800,1.036606689453125,0.08995838463306427,0.04940856248140335,0.0739077776670456
1772457855257673700,1.046673828125,0.07941626012325287,0.04693528264760971,0.09106732904911041
1772457855267741700,1.05674169921875,0.06564425677061081,0.06528446078300476,0.11291083693504333
1772457855277809700,1.0668095703125,0.05925373733043671,0.09445939213037491,0.13919836282730103
1772457855287878000,1.0768779296875,0.06060502305626869,0.10680074989795685,0.1624365746974945
1772457855297945900,1.08694580078125,0.06438085436820984,0.12643782794475555,0.1850588023662567
1772457855308013600,1.097013671875,0.07076071947813034,0.13307230174541473,0.19997143745422363
1772457855318080800,1.107080810546875,0.08163227885961533,0.1497836410999298,0.21451495587825775
1772457855328148500,1.1171484375,0.10422120988368988,0.1840454638004303,0.2419481873512268
1772457855338216700,1.127216796875,0.1373615860939026,0.20021884143352509,0.2704320251941681
1772457855348284700,1.13728466796875,0.16309252381324768,0.16880393028259277,0.2879484295845032
1772457855358352600,1.1473525390625,0.17376886308193207,0.13069196045398712,0.3024379014968872
1772457855368419600,1.157419677734375,0.1671900600194931,0.09228865057229996,0.30755141377449036
1772457855378487600,1.167487548828125,0.14228017628192902,0.06283062696456909,0.29848018288612366
1772457855388555800,1.1775556640625,0.09579763561487198,0.030116889625787735,0.2847350537776947
1772457855398623700,1.187623779296875,0.04272562637925148,-0.003221093211323023,0.25957563519477844
1772457855408691700,1.197691650390625,-0.01239408552646637,-0.01817873679101467,0.22773303091526031
1772457855418759700,1.207759765625,-0.06783177703619003,-0.016334498301148415,0.19329489767551422
1772457855428827000,1.217826904296875,-0.1147332414984703,-0.006724747829139233,0.15913905203342438
1772457855438894800,1.227894775390625,-0.1417137235403061,0.03657638654112816,0.12533022463321686
1772457855448962800,1.237962890625,-0.16224056482315063,0.09540854394435883,0.09707488119602203
1772457855459030500,1.248030517578125,-0.16335910558700562,0.1568540632724762,0.07044007629156113
1772457855469098800,1.2580986328125,-0.15901681780815125,0.19277557730674744,0.05314524471759796
1772457855479166700,1.268166748046875,-0.14479713141918182,0.21328085660934448,0.03846696391701698
1772457855489233700,1.278233642578125,-0.12622664868831635,0.21060384809970856,0.03507915884256363
1772457855499301600,1.288301513671875,-0.11244824528694153,0.1974153369665146,0.04908338934183121
1772457855509369600,1.29836962890625,-0.09548924118280411,0.20663359761238098,0.07276181876659393
1772457855519437800,1.308437744140625,-0.08484324812889099,0.2035648375749588,0.111946240067482
1772457855529505800,1.318505859375,-0.06892207264900208,0.19265440106391907,0.1489276885986328
1772457855539572700,1.32857275390625,-0.053940463811159134,0.1744825839996338,0.1833900660276413
1772457855549640700,1.338640625,-0.04469956085085869,0.15076661109924316,0.20623013377189636
1772457855559708700,1.348708740234375,-0.037871748208999634,0.12014877796173096,0.20921100676059723
1772457855569777000,1.35877685546875,-0.03948482498526573,0.10237058252096176,0.20598138868808746
1772457855579844600,1.3688447265625,-0.04189019277691841,0.1039932444691658,0.19119685888290405
1772457855589912600,1.37891259765625,-0.048229578882455826,0.11703554540872574,0.17796067893505096
1772457855599979500,1.3889794921875,-0.05150633305311203,0.12087129056453705,0.16555353999137878
1772457855610047500,1.399047607421875,-0.05085066333413124,0.1251661777496338,0.1612088680267334
1772457855620115700,1.40911572265625,-0.04516907408833504,0.13140036165714264,0.1610059291124344
1772457855630183700,1.41918359375,-0.03160000219941139,0.1324818730354309,0.17713643610477448
1772457855640251600,1.429251708984375,-0.015120097436010838,0.1163971796631813,0.2012833058834076
1772457855650319600,1.439319580078125,-0.006101568229496479,0.09352941811084747,0.22736923396587372
1772457855660386800,1.44938671875,0.0036724992096424103,0.08648589253425598,0.2529427707195282
1772457855670454800,1.459454833984375,0.004479969386011362,0.10234261304140091,0.288441926240921
1772457855680522800,1.469522705078125,0.00304638990201056,0.13479083776474,0.3266332447528839
1772457855690590700,1.4795908203125,-0.007027016952633858,0.16315296292304993,0.35645559430122375
1772457855700658700,1.48965869140625,-0.010877947323024273,0.19143973290920258,0.36846962571144104
1772457855710726000,1.499725830078125,-0.013531787320971489,0.19679056107997894,0.3618468940258026
1772457855720793600,1.509793701171875,-0.006613960489630699,0.1866777390241623,0.33904170989990234
1772457855730861600,1.519861572265625,-0.003689809702336788,0.17383570969104767,0.30254602432250977
1772457855740929500,1.529929443359375,0.003364371368661523,0.16657805442810059,0.2606387734413147
1772457855750997800,1.539997802734375,0.009629989974200726,0.16714105010032654,0.2177427113056183
1772457855761065700,1.550065673828125,0.014976552687585354,0.156161367893219,0.1808299720287323
1772457855771132700,1.560132568359375,0.007113835774362087,0.1274394541978836,0.14416277408599854
1772457855781200600,1.57020068359375,-0.005898102652281523,0.0853995829820633,0.10988815128803253
1772457855791268600,1.5802685546875,-0.0286412313580513,0.032396022230386734,0.07659970223903656
1772457855801336800,1.5903369140625,-0.05531252548098564,-0.015497466549277306,0.04000334069132805
1772457855811404800,1.60040478515625,-0.08562649041414261,-0.04728788509964943,0.0041039311327040195
1772457855821472800,1.61047265625,-0.10959520190954208,-0.06343649327754974,-0.024525582790374756
1772457855831539700,1.620539794921875,-0.12871722877025604,-0.07581087201833725,-0.05621293932199478
1772457855841608000,1.63060791015625,-0.14343546330928802,-0.08047140389680862,-0.09096399694681168
1772457855851675600,1.640675537109375,-0.1472504436969757,-0.06890343129634857,-0.1241547018289566
1772457855861743600,1.65074365234375,-0.13877013325691223,-0.03050437942147255,-0.14375902712345123
1772457855871811600,1.6608115234375,-0.1205061748623848,0.024395886808633804,-0.1540803760290146
1772457855881878500,1.67087841796875,-0.08938953280448914,0.06627169996500015,-0.16014279425144196
1772457855891946800,1.68094677734375,-0.05395857244729996,0.10443799197673798,-0.16505952179431915
1772457855902014700,1.6910146484375,-0.018160628154873848,0.13348162174224854,-0.16677486896514893
1772457855912082700,1.701082763671875,0.015322763472795486,0.1385408341884613,-0.16670510172843933
1772457855922150700,1.711150634765625,0.03835058584809303,0.11353561282157898,-0.1750173568725586
1772457855932219000,1.721218994140625,0.057068876922130585,0.0857900083065033,-0.1812848299741745
1772457855942285800,1.731285888671875,0.06542907655239105,0.06417179852724075,-0.1786336600780487
1772457855952353800,1.741353759765625,0.06987228989601135,0.026681944727897644,-0.16459374129772186
1772457855962421800,1.751421875,0.06980305165052414,-0.024404408410191536,-0.16099101305007935
1772457855972489500,1.761489501953125,0.06480509787797928,-0.06717611104249954,-0.15486840903759003
1772457855982557700,1.7715576171875,0.059179965406656265,-0.09950927644968033,-0.15447905659675598
1772457855992625700,1.781625732421875,0.054730355739593506,-0.1181119903922081,-0.16640202701091766
1772457856002692600,1.791692626953125,0.049192313104867935,-0.13156814873218536,-0.17940197885036469
1772457856012760600,1.801760498046875,0.043720316141843796,-0.13870994746685028,-0.20154429972171783
1772457856022828500,1.81182861328125,0.035471972078084946,-0.13673867285251617,-0.22965370118618011
1772457856032896800,1.821896728515625,0.028744030743837357,-0.13620896637439728,-0.2507408857345581
1772457856042964700,1.83196484375,0.024029701948165894,-0.13381825387477875,-0.2575788199901581
1772457856053032700,1.84203271484375,0.02105575054883957,-0.13923245668411255,-0.25667014718055725
1772457856063099600,1.852099609375,0.009408948011696339,-0.1571693867444992,-0.23982538282871246
1772457856073168000,1.86216796875,-0.01305428333580494,-0.17444290220737457,-0.21022461354732513
1772457856083235800,1.87223583984375,-0.041194573044776917,-0.17757052183151245,-0.1766304224729538
1772457856093303800,1.8823037109375,-0.06405355036258698,-0.15966396033763885,-0.12427587807178497
1772457856103371500,1.89237158203125,-0.0831257775425911,-0.1307995617389679,-0.0635688528418541
1772457856113438700,1.902438720703125,-0.09507298469543457,-0.11535588651895523,-0.001612011343240738
1772457856123506700,1.912506591796875,-0.09601041674613953,-0.11245650053024292,0.0561428964138031
1772457856133574700,1.92257470703125,-0.10813339054584503,-0.12810790538787842,0.10414238274097443
1772457856143642600,1.932642578125,-0.12006489187479019,-0.1616450846195221,0.13413356244564056
1772457856153710600,1.942710693359375,-0.1296410858631134,-0.19407972693443298,0.15235865116119385
1772457856163778800,1.95277880859375,-0.14269137382507324,-0.2270408719778061,0.15174531936645508
1772457856173845800,1.962845703125,-0.15263481438159943,-0.24462385475635529,0.13747157156467438
1772457856183913700,1.972913818359375,-0.16306215524673462,-0.24179717898368835,0.12963788211345673
1772457856193981700,1.982981689453125,-0.17920410633087158,-0.2185472548007965,0.12413206696510315
1772457856204050000,1.9930498046875,-0.19198009371757507,-0.20219971239566803,0.11444108933210373
1772457856214118000,2.003117919921875,-0.205381378531456,-0.1883203685283661,0.1052747592329979
1772457856224185600,2.013185546875,-0.21313677728176117,-0.17623122036457062,0.10181717574596405
1772457856234253000,2.023253173828125,-0.22058004140853882,-0.16885319352149963,0.0997399091720581
1772457856244320800,2.03332080078125,-0.23169846832752228,-0.16066505014896393,0.0918220654129982
1772457856254388700,2.043388671875,-0.23896783590316772,-0.14271293580532074,0.092584528028965
1772457856264456700,2.053456787109375,-0.24843138456344604,-0.13545235991477966,0.09746743738651276
1772457856274525000,2.06352490234375,-0.25083649158477783,-0.14311614632606506,0.09556646645069122
1772457856284593000,2.073593017578125,-0.2427266240119934,-0.15454483032226562,0.09328227490186691
1772457856294659800,2.083659912109375,-0.2330886423587799,-0.16488029062747955,0.10093247145414352
1772457856304727800,2.093727783203125,-0.21254342794418335,-0.1630810648202896,0.11840387433767319
1772457856314795800,2.103795654296875,-0.19661851227283478,-0.14006230235099792,0.15639732778072357
1772457856324864000,2.113864013671875,-0.1710558980703354,-0.13947241008281708,0.19704702496528625
1772457856334932000,2.123931884765625,-0.14720596373081207,-0.21300867199897766,0.22695964574813843
1772457856344999700,2.133999755859375,-0.12228037416934967,-0.3043646812438965,0.23309023678302765
1772457856355067000,2.14406689453125,-0.10480577498674393,-0.35377031564712524,0.2193339467048645
1772457856365134600,2.154134521484375,-0.10380016267299652,-0.342800498008728,0.20091286301612854
1772457856375202800,2.164202880859375,-0.11242853850126266,-0.2871689200401306,0.16684357821941376
1772457856385270800,2.174270751953125,-0.10664628446102142,-0.23510971665382385,0.13066799938678741
1772457856395338800,2.1843388671875,-0.0962919145822525,-0.21952064335346222,0.08633195608854294
1772457856405406700,2.19440673828125,-0.08828618377447128,-0.24161235988140106,0.04177168011665344
1772457856415473700,2.2044736328125,-0.08482886850833893,-0.25642192363739014,0.004466920159757137
1772457856425542000,2.2145419921875,-0.09240023791790009,-0.2569412589073181,-0.027608191594481468
1772457856435609900,2.22460986328125,-0.10875284671783447,-0.24604332447052002,-0.05251274257898331
1772457856445677800,2.234677734375,-0.12555205821990967,-0.22803476452827454,-0.07665829360485077
1772457856455746000,2.24474609375,-0.138955757021904,-0.21353544294834137,-0.0904121845960617
1772457856465813800,2.254813720703125,-0.1471947729587555,-0.19492128491401672,-0.09657713770866394
1772457856475881000,2.264880859375,-0.14499154686927795,-0.1818385124206543,-0.0980227068066597
1772457856485949000,2.274948974609375,-0.14436303079128265,-0.17162661254405975,-0.09118290990591049
1772457856496016600,2.2850166015625,-0.13351865112781525,-0.1306120753288269,-0.06932608038187027
1772457856506084900,2.2950849609375,-0.11851652711629868,-0.0775350034236908,-0.030600786209106445
1772457856516152800,2.30515283203125,-0.09466791898012161,-0.013315538875758648,0.022354042157530785
1772457856526220800,2.315220703125,-0.06472519785165787,0.029682528227567673,0.07931852340698242
1772457856536287700,2.325287841796875,-0.025550633668899536,0.05391436442732811,0.1436610221862793
1772457856546355700,2.335355712890625,0.017000287771224976,0.06127294525504112,0.20141886174678802
1772457856556424000,2.345423828125,0.0491691455245018,0.023031283169984818,0.2570725381374359
1772457856566492000,2.355491943359375,0.05994056537747383,-0.036664802581071854,0.2996183931827545
1772457856576559900,2.365559814453125,0.04941175878047943,-0.09832603484392166,0.3395996391773224
1772457856586626800,2.375626708984375,0.03580886498093605,-0.15974678099155426,0.37225398421287537
1772457856596694800,2.38569482421875,0.013118199072778225,-0.2124355584383011,0.397640585899353
1772457856606763000,2.395762939453125,-0.012457734905183315,-0.2351163774728775,0.4014265239238739
1772457856616830700,2.405830810546875,-0.04778376594185829,-0.2311360090970993,0.3793984651565552
1772457856626898700,2.415898681640625,-0.0810391902923584,-0.1937665343284607,0.33184531331062317
1772457856636966700,2.425966552734375,-0.11717429012060165,-0.1381155252456665,0.262032687664032
1772457856647033900,2.436033935546875,-0.15246304869651794,-0.0746406838297844,0.19113320112228394
1772457856657101800,2.446101806640625,-0.17972634732723236,-0.01565246284008026,0.1345820426940918
1772457856667169800,2.456169677734375,-0.20009393990039825,0.03188922256231308,0.09367536008358002
1772457856677237800,2.46623779296875,-0.2149493247270584,0.06842246651649475,0.07700583338737488
1772457856687306000,2.476305908203125,-0.22658494114875793,0.0902223065495491,0.07789693027734756
1772457856697374000,2.4863740234375,-0.2389148473739624,0.11655431240797043,0.10669635236263275
1772457856707441000,2.49644091796875,-0.23888768255710602,0.14450977742671967,0.14350230991840363
1772457856717508900,2.5065087890625,-0.2329365760087967,0.1320270150899887,0.18415066599845886
1772457856727576800,2.516576904296875,-0.22416998445987701,0.07482683658599854,0.2077942043542862
1772457856737644800,2.526644775390625,-0.20994311571121216,-0.013601562939584255,0.1984449177980423
1772457856747712800,2.536712646484375,-0.1952238231897354,-0.09660137444734573,0.16773174703121185
1772457856757780700,2.54678076171875,-0.17611856758594513,-0.14932850003242493,0.1281563639640808
1772457856767847700,2.55684765625,-0.15974678099155426,-0.19562196731567383,0.06565384566783905
1772457856777915600,2.56691552734375,-0.15168006718158722,-0.23746901750564575,-0.011697135865688324
1772457856787984000,2.57698388671875,-0.14634709060192108,-0.2758057415485382,-0.10923168063163757
1772457856798051800,2.5870517578125,-0.1478714793920517,-0.29488304257392883,-0.2056458294391632
1772457856808119800,2.597119873046875,-0.15703675150871277,-0.2856951355934143,-0.29908284544944763
1772457856818187800,2.607187744140625,-0.16725051403045654,-0.222396582365036,-0.3659247159957886
1772457856828254700,2.617254638671875,-0.17390760779380798,-0.12804904580116272,-0.41041815280914307
1772457856838323000,2.627322998046875,-0.17326578497886658,-0.02977946773171425,-0.4068647027015686
1772457856848391000,2.637390869140625,-0.16896425187587738,0.03743951767683029,-0.3759605884552002
1772457856858459000,2.647458984375,-0.1521645039319992,0.05398254096508026,-0.3149813711643219
1772457856868526800,2.65752685546875,-0.13177160918712616,0.04569611698389053,-0.23046809434890747
1772457856878594800,2.6675947265625,-0.11955888569355011,-0.0032887374982237816,-0.1414458155632019
1772457856888661800,2.677661865234375,-0.10337938368320465,-0.06400241702795029,-0.05639776214957237
1772457856898729700,2.687729736328125,-0.08743450790643692,-0.11908191442489624,0.00932266190648079
1772457856908797700,2.697797607421875,-0.06921475380659103,-0.16442649066448212,0.05167863890528679
1772457856918866000,2.707865966796875,-0.04975024610757828,-0.1993194967508316,0.06071874126791954
1772457856928934000,2.717933837890625,-0.03573642671108246,-0.21282225847244263,0.047870852053165436
1772457856939001900,2.728001953125,-0.0200477447360754,-0.19629867374897003,0.01774384267628193
1772457856949068800,2.73806884765625,-0.013711018487811089,-0.16230502724647522,-0.0197294969111681
1772457856959136800,2.74813671875,-0.010794058442115784,-0.12073387205600739,-0.06670765578746796
1772457856969205000,2.758205078125,-0.011986355297267437,-0.08861615508794785,-0.11805713176727295
1772457856979273000,2.76827294921875,-0.009586581028997898,-0.05992485210299492,-0.17388445138931274
1772457856989340700,2.778340576171875,-0.00791305024176836,-0.034200314432382584,-0.21751821041107178
1772457856999408600,2.78840869140625,0.0013076120521873236,-0.01167263463139534,-0.24736319482326508
1772457857009475600,2.7984755859375,0.006705839652568102,0.023252058774232864,-0.2551420032978058
1772457857019543800,2.808543701171875,0.008095743134617805,0.07699944078922272,-0.24604013562202454
1772457857029611800,2.81861181640625,0.015400527976453304,0.12000682950019836,-0.22084635496139526
1772457857039679700,2.8286796875,0.029319806024432182,0.13066640496253967,-0.18947698175907135
1772457857049747700,2.838747802734375,0.05566991865634918,0.10366274416446686,-0.15866874158382416
1772457857059816000,2.84881591796875,0.09261142462491989,0.07468169182538986,-0.12368199229240417
1772457857069883000,2.8588828125,0.1340763121843338,0.05706355348229408,-0.07971666753292084
1772457857079950800,2.868950927734375,0.169386625289917,0.06374968588352203,-0.030305175110697746
1772457857090018800,2.879018798828125,0.1937931776046753,0.07593151926994324,0.018878882750868797
1772457857100087000,2.889087158203125,0.21327605843544006,0.08405362069606781,0.058093927800655365
1772457857110154800,2.89915478515625,0.22448956966400146,0.08039044588804245,0.08172362297773361
1772457857120222700,2.90922265625,0.22306956350803375,0.07509155571460724,0.0883873850107193
1772457857130290000,2.9192900390625,0.22045274078845978,0.05892030894756317,0.077053502202034
1772457857140357600,2.929357666015625,0.21725907921791077,0.05699590966105461,0.0732816681265831
1772457857150425900,2.93942578125,0.21906471252441406,0.07259058207273483,0.07922584563493729
1772457857160493800,2.949493896484375,0.22229458391666412,0.09618592262268066,0.10126589983701706
1772457857170561800,2.959561767578125,0.22327595949172974,0.12356933951377869,0.12877342104911804
1772457857180629800,2.969629638671875,0.22200404107570648,0.14184288680553436,0.16286322474479675
1772457857190696700,2.97969677734375,0.21988309919834137,0.15416081249713898,0.2031717598438263
1772457857200765000,2.989764892578125,0.22482991218566895,0.15774649381637573,0.2519720494747162
1772457857210833000,2.9998330078125,0.22432976961135864,0.13154950737953186,0.29394879937171936
1772457857220900900,3.00990087890625,0.21621698141098022,0.07701408863067627,0.3178703784942627
1772457857230968800,3.01996875,0.18881812691688538,0.02558285742998123,0.33574631810188293
1772457857241036500,3.03003662109375,0.15069523453712463,0.027105653658509254,0.34341728687286377
1772457857251104800,3.040104736328125,0.10771181434392929,0.07233145833015442,0.3548814058303833
1772457857261171700,3.050171630859375,0.05721748247742653,0.13481773436069489,0.3701455593109131
1772457857271239700,3.06023974609375,0.010338391177356243,0.16442357003688812,0.3750433921813965
1772457857281307600,3.0703076171875,-0.02869396284222603,0.17676997184753418,0.36929094791412354
1772457857291375600,3.080375732421875,-0.057794589549303055,0.16819407045841217,0.3603893518447876
1772457857301443800,3.09044384765625,-0.07732035219669342,0.15173199772834778,0.3374081254005432
1772457857311510800,3.1005107421875,-0.08692025393247604,0.13745373487472534,0.3137323558330536
1772457857321578800,3.110578857421875,-0.09423249214887619,0.1301630586385727,0.28485891222953796
1772457857331646700,3.120646728515625,-0.10071755945682526,0.12221192568540573,0.24802765250205994
1772457857341714700,3.130714599609375,-0.10511124134063721,0.11681263893842697,0.21948708593845367
1772457857351783000,3.140782958984375,-0.10777013748884201,0.10490217804908752,0.1882021278142929
1772457857361850600,3.1508505859375,-0.11291083693504333,0.08162721991539001,0.16266748309135437
1772457857371918600,3.160918701171875,-0.11586721241474152,0.05088768154382706,0.1278919130563736
1772457857381985800,3.17098583984375,-0.11887898296117783,0.0024232103023678064,0.07988684624433517
1772457857392053800,3.1810537109375,-0.11418329924345016,-0.04141934588551521,0.009219330735504627
1772457857402121700,3.191121826171875,-0.10579860210418701,-0.06265432387590408,-0.04722876474261284
1772457857412189700,3.201189697265625,-0.08880283683538437,-0.06678302586078644,-0.097757987678051
1772457857422257700,3.211257568359375,-0.06106068938970566,-0.0522775836288929,-0.12806768715381622
1772457857432326000,3.221325927734375,-0.0264851376414299,-0.02496686950325966,-0.13875176012516022
1772457857442392800,3.231392822265625,0.01842161826789379,0.0012551478575915098,-0.12718884646892548
1772457857452460800,3.241460693359375,0.06261491030454636,0.012734970077872276,-0.10274901241064072
1772457857462528800,3.25152880859375,0.08798311650753021,0.011377024464309216,-0.07434773445129395
1772457857472596700,3.2615966796875,0.09799820184707642,0.004571049474179745,-0.04127287119626999
1772457857482664700,3.271664794921875,0.09600349515676498,0.0006074670236557722,-0.006670685950666666
1772457857492732700,3.281732666015625,0.08908247202634811,-0.016816264018416405,0.009483516216278076
1772457857502800000,3.2917998046875,0.07508756220340729,-0.0382150299847126,0.015152587555348873
1772457857512867600,3.30186767578125,0.06823737919330597,-0.06283435225486755,0.0005480785621330142
1772457857522935600,3.311935546875,0.06229959428310394,-0.08769070357084274,-0.010220679454505444
1772457857533003800,3.322003662109375,0.05781429633498192,-0.09530707448720932,-0.02003895491361618
1772457857543071700,3.33207177734375,0.04942693933844566,-0.09131446480751038,-0.01980353146791458
1772457857553139700,3.3421396484375,0.04839656129479408,-0.07761356979608536,-0.014056430198252201
1772457857563206700,3.35220654296875,0.052078913897275925,-0.06006786599755287,-0.00749173853546381
1772457857573275000,3.36227490234375,0.057200171053409576,-0.03262026235461235,0.002960369922220707
1772457857583342800,3.3723427734375,0.053996387869119644,0.009610815905034542,0.020439494401216507
1772457857593410800,3.382410888671875,0.050459977239370346,0.06013710796833038,0.034921497106552124
1772457857603478800,3.392478759765625,0.03991572558879852,0.10074339061975479,0.04881361126899719
1772457857613546800,3.402546630859375,0.029387449845671654,0.1247083768248558,0.05047835409641266
1772457857623614000,3.412614013671875,0.013440707698464394,0.13554131984710693,0.05993150919675827
1772457857633681700,3.422681640625,0.0008948221220634878,0.14535799622535706,0.05431623384356499
1772457857643749600,3.43274951171875,-0.01750895194709301,0.14187058806419373,0.0528741329908371
1772457857653817600,3.442817626953125,-0.033728137612342834,0.12130272388458252,0.036977726966142654
1772457857663885800,3.4528857421875,-0.048958487808704376,0.0919102132320404,0.012505405582487583
1772457857673953800,3.462953857421875,-0.06311984360218048,0.05032282695174217,-0.023255521431565285
1772457857684021800,3.473021728515625,-0.06952821463346481,0.004021639470010996,-0.07141879200935364
1772457857694088700,3.483088623046875,-0.07077483832836151,-0.0384584441781044,-0.12738512456417084
1772457857704156700,3.49315673828125,-0.07642393559217453,-0.056644368916749954,-0.19039924442768097
1772457857714225000,3.503224853515625,-0.08002479374408722,-0.06347750872373581,-0.24933978915214539
1772457857724292900,3.51329296875,-0.08712770789861679,-0.08931310474872589,-0.3160807192325592
1772457857734360600,3.523360595703125,-0.10011754930019379,-0.12463247776031494,-0.38351622223854065
1772457857744428500,3.533428466796875,-0.12178342789411545,-0.1342238485813141,-0.4503176212310791
1772457857754495700,3.543495849609375,-0.1434655487537384,-0.10214314609766006,-0.49892112612724304
1772457857764563700,3.553563720703125,-0.15594539046287537,-0.028744030743837357,-0.5268627405166626
1772457857774631700,3.563631591796875,-0.16956107318401337,0.05813494324684143,-0.5398163795471191
1772457857784699600,3.57369970703125,-0.17294754087924957,0.13913817703723907,-0.529672384262085
1772457857794767600,3.583767578125,-0.1642501950263977,0.2109053134918213,-0.4913974404335022
1772457857804835800,3.5938359375,-0.14748719334602356,0.2568906545639038,-0.4234417974948883
1772457857814902800,3.60390283203125,-0.1333303600549698,0.2470763623714447,-0.34402981400489807
1772457857824970800,3.613970703125,-0.12106224149465561,0.20611454546451569,-0.2599141299724579
1772457857835038700,3.624038818359375,-0.10968415439128876,0.14467675983905792,-0.17919665575027466
1772457857845107000,3.63410693359375,-0.09906160086393356,0.0668749064207077,-0.1029234528541565
1772457857855174700,3.644174560546875,-0.08900816738605499,-0.004388889297842979,-0.031216243281960487
1772457857865242600,3.65424267578125,-0.08526403456926346,-0.06253395229578018,0.015566176734864712
1772457857875309800,3.664309814453125,-0.09610948711633682,-0.0963454470038414,0.03957989811897278
1772457857885377500,3.67437744140625,-0.11174890398979187,-0.09944190084934235,0.049783267080783844
1772457857895445800,3.68444580078125,-0.13023443520069122,-0.08569519966840744,0.042018823325634
1772457857905513700,3.694513671875,-0.13881008327007294,-0.06151476129889488,0.0252198688685894
1772457857915581700,3.704581787109375,-0.14501337707042694,-0.05313432589173317,-0.003710049670189619
1772457857925649700,3.714649658203125,-0.152496337890625,-0.06521948426961899,-0.035707663744688034
1772457857935716600,3.724716552734375,-0.1656978875398636,-0.08663821965456009,-0.06832978874444962
1772457857945784800,3.734784912109375,-0.18254637718200684,-0.12498880922794342,-0.11740811914205551
1772457857955852800,3.744852783203125,-0.2055390477180481,-0.14405064284801483,-0.14881104230880737
1772457857965920800,3.754920654296875,-0.23473873734474182,-0.15263241529464722,-0.16786889731884003
1772457857975988700,3.76498876953125,-0.26362738013267517,-0.1627553552389145,-0.17859451472759247
1772457857986056700,3.775056640625,-0.2910366356372833,-0.17853592336177826,-0.18108776211738586
1772457857996124700,3.785124755859375,-0.3069503605365753,-0.19504192471504211,-0.17481335997581482
1772457858006191600,3.795191650390625,-0.3175920844078064,-0.20084762573242188,-0.15526922047138214
1772457858016259600,3.805259521484375,-0.33422672748565674,-0.1889512836933136,-0.1252972036600113
1772457858026327800,3.815327880859375,-0.3573474884033203,-0.18429234623908997,-0.09740085154771805
1772457858036395800,3.825395751953125,-0.3767840266227722,-0.18704472482204437,-0.07106006145477295
1772457858046463700,3.835463623046875,-0.390472412109375,-0.20067158341407776,-0.049094308167696
1772457858056531700,3.84553173828125,-0.39220958948135376,-0.2204948216676712,-0.02864682488143444
1772457858066598700,3.8555986328125,-0.3946352005004883,-0.23630841076374054,-0.02088530734181404
1772457858076667000,3.8656669921875,-0.39749568700790405,-0.2366253286600113,-0.010386860929429531
1772457858086734800,3.87573486328125,-0.4063222110271454,-0.24773655831813812,0.003876230912283063
1772457858096802800,3.885802734375,-0.4083520770072937,-0.28717851638793945,0.009303486905992031
1772457858106870500,3.89587060546875,-0.4111047089099884,-0.3422132730484009,0.009618804790079594
1772457858116938800,3.905938720703125,-0.4123356342315674,-0.3888036608695984,0.009423862211406231
1772457858127005700,3.916005615234375,-0.41594529151916504,-0.4218364655971527,-0.005543103441596031
1772457858137073700,3.92607373046875,-0.42716625332832336,-0.43078359961509705,-0.026132002472877502
1772457858147141600,3.9361416015625,-0.43471336364746094,-0.41452449560165405,-0.0474090613424778
1772457858157209600,3.946209716796875,-0.4396287798881531,-0.39314115047454834,-0.07206939905881882
1772457858167277800,3.95627783203125,-0.4426565170288086,-0.37292030453681946,-0.09799740463495255
1772457858177345800,3.966345703125,-0.44427919387817383,-0.35698315501213074,-0.1223118007183075
1772457858187413800,3.976413818359375,-0.44490474462509155,-0.3436279296875,-0.15872173011302948
1772457858197479700,3.986479736328125,-0.4405052065849304,-0.3183649182319641,-0.18423455953598022
1772457858207547600,3.996547607421875,-0.4419156312942505,-0.28498753905296326,-0.19706246256828308
1772457858217615600,4.00661572265625,-0.4392615258693695,-0.24957308173179626,-0.19120724499225616
1772457858227682600,4.0166826171875,-0.42700111865997314,-0.22143492102622986,-0.16921326518058777
1772457858237750500,4.02675048828125,-0.4073062539100647,-0.2581431269645691,-0.14943821728229523
1772457858247818800,4.03681884765625,-0.3997862935066223,-0.3480333387851715,-0.14267033338546753
1772457858257886700,4.04688671875,-0.39766746759414673,-0.38787582516670227,-0.12804637849330902
1772457858267954700,4.05695458984375,-0.38226667046546936,-0.3752143681049347,-0.09534355998039246
1772457858278022400,4.0670224609375,-0.36745762825012207,-0.3316655457019806,-0.06918440014123917
1772457858288089600,4.077089599609375,-0.356587678194046,-0.26851293444633484,-0.03597104921936989
1772457858298157600,4.087157470703125,-0.34571611881256104,-0.23285561800003052,-0.00236195744946599
1772457858308225500,4.0972255859375,-0.32718905806541443,-0.24232076108455658,0.015854330733418465
1772457858318293500,4.10729345703125,-0.29875022172927856,-0.26402950286865234,0.023921310901641846
1772457858328361500,4.117361572265625,-0.2669461965560913,-0.2985885739326477,0.014472948387265205
1772457858338429700,4.1274296875,-0.2510245144367218,-0.34041351079940796,-0.015837285667657852
1772457858348497700,4.13749755859375,-0.24967613816261292,-0.3604937493801117,-0.05463528260588646
1772457858358564600,4.147564697265625,-0.2630545198917389,-0.33470261096954346,-0.09655050933361053
1772457858368632600,4.157632568359375,-0.2714890241622925,-0.27652454376220703,-0.12894493341445923
1772457858378700500,4.167700439453125,-0.2682833969593048,-0.21322359144687653,-0.15098604559898376
1772457858388768800,4.177768798828125,-0.2617192268371582,-0.14389938116073608,-0.1562463343143463
1772457858398836700,4.187836669921875,-0.2605820596218109,-0.05763639882206917,-0.16411544382572174
1772457858408904400,4.197904541015625,-0.2520245313644409,0.014297446236014366,-0.16024479269981384
1772457858418971600,4.2079716796875,-0.2249886393547058,0.057131461799144745,-0.1503218561410904
1772457858429039600,4.21803955078125,-0.18131226301193237,0.0765584260225296,-0.11943584680557251
1772457858439107600,4.228107666015625,-0.12800723314285278,0.08210765570402145,-0.08664754033088684
1772457858449175600,4.238175537109375,-0.06733376532793045,0.0678461566567421,-0.0323353037238121
1772457858459243500,4.248243408203125,0.006336991675198078,0.04567321389913559,0.035962529480457306
1772457858469311700,4.258311767578125,0.07036417722702026,0.018336663022637367,0.10904978960752487
1772457858479379700,4.268379638671875,0.1251315474510193,-0.021817680448293686,0.18009227514266968
1772457858489446700,4.27844677734375,0.15926767885684967,-0.059491291642189026,0.24650432169437408
1772457858499514600,4.2885146484375,0.16963882744312286,-0.09893643110990524,0.31679046154022217
1772457858509582600,4.29858251953125,0.167216956615448,-0.1418178528547287,0.37148886919021606
1772457858519650800,4.30865087890625,0.14773699641227722,-0.16951340436935425,0.4195866286754608
1772457858529718500,4.318718505859375,0.12447348237037659,-0.16982898116111755,0.46175509691238403
1772457858539786500,4.328786376953125,0.10566837340593338,-0.14116138219833374,0.49794748425483704
1772457858549853400,4.338853515625,0.09334725886583328,-0.09402795881032944,0.5187060236930847
1772457858559921400,4.34892138671875,0.07857896387577057,-0.04746764898300171,0.515690803527832
1772457858569989600,4.35898974609375,0.0578710213303566,0.0012066783383488655,0.49406030774116516
1772457858580057600,4.3690576171875,0.029801305383443832,0.040401753038167953,0.465484082698822
1772457858590125600,4.37912548828125,0.0008556736283935606,0.06571083515882492,0.4524460434913635
1772457858600193500,4.389193603515625,-0.026815634220838547,0.07408993691205978,0.43944287300109863
1772457858610260700,4.3992607421875,-0.055561263114213943,0.07712514698505402,0.43702179193496704
1772457858620328700,4.40932861328125,-0.0881735309958458,0.07468036562204361,0.435790091753006
1772457858630396700,4.419396728515625,-0.11455614119768143,0.08514605462551117,0.428952693939209
1772457858640464600,4.429464599609375,-0.13562600314617157,0.09471612423658371,0.4045970141887665
1772457858650532600,4.43953271484375,-0.15372325479984283,0.0920708030462265,0.3633478581905365
1772457858660600600,4.4496005859375,-0.15948952734470367,0.07712807506322861,0.3009220063686371
1772457858670668500,4.45966845703125,-0.15954625606536865,0.028324315324425697,0.2125394344329834
1772457858680735500,4.469735595703125,-0.16057263314723969,-0.03551378473639488,0.11599131673574448
1772457858690803500,4.479803466796875,-0.1580900400876999,-0.09970369189977646,0.014763765968382359
1772457858700871700,4.48987158203125,-0.15886235237121582,-0.16977864503860474,-0.08760201930999756
1772457858710939600,4.499939697265625,-0.1543019562959671,-0.2117260992527008,-0.19330927729606628
1772457858721007600,4.510007568359375,-0.15629985928535461,-0.20378881692886353,-0.29289472103118896
1772457858731075600,4.52007568359375,-0.16260169446468353,-0.13506248593330383,-0.379607230424881
1772457858741142500,4.530142578125,-0.16311489045619965,-0.02310398779809475,-0.4584383964538574
1772457858751210800,4.540210693359375,-0.1517903208732605,0.0889759436249733,-0.5266427397727966
1772457858761278700,4.55027880859375,-0.13805080950260162,0.18278339505195618,-0.5756646394729614
1772457858771346700,4.5603466796875,-0.11591488122940063,0.2507864236831665,-0.5889327526092529
1772457858781414400,4.570414306640625,-0.0876542180776596,0.29723647236824036,-0.5665009617805481
1772457858791482600,4.580482666015625,-0.04170270636677742,0.32917657494544983,-0.4976145625114441
1772457858801549600,4.590549560546875,0.017586184665560722,0.34208783507347107,-0.40195780992507935
1772457858811617500,4.600617431640625,0.07506918162107468,0.3197218179702759,-0.30479639768600464
1772457858821685500,4.610685546875,0.12604208290576935,0.24707317352294922,-0.22521980106830597
1772457858831753500,4.62075341796875,0.16974429786205292,0.14888721704483032,-0.1553400605916977
1772457858841821700,4.63082177734375,0.1890982836484909,0.041663821786642075,-0.09912578761577606
1772457858851889700,4.6408896484375,0.19479025900363922,-0.042211636900901794,-0.053520482033491135
1772457858861957600,4.65095751953125,0.2080986052751541,-0.0944303646683693,-0.027472903952002525
1772457858872024600,4.661024658203125,0.232371985912323,-0.10590992122888565,-0.019659986719489098
1772457858882092800,4.6710927734375,0.25690343976020813,-0.09965602308511734,-0.035289280116558075
1772457858892160800,4.681160888671875,0.2703063189983368,-0.08248395472764969,-0.07055193185806274
1772457858902228500,4.691228515625,0.27263179421424866,-0.0716363713145256,-0.12257838249206543
1772457858912296400,4.70129638671875,0.2685595452785492,-0.07102623581886292,-0.17859797179698944
1772457858922364700,4.71136474609375,0.25872769951820374,-0.07632619887590408,-0.23115332424640656
1772457858932431600,4.721431640625,0.2475709170103073,-0.07302041351795197,-0.26628682017326355
1772457858942499600,4.73149951171875,0.24135349690914154,-0.05246560648083687,-0.28916096687316895
1772457858952567600,4.741567626953125,0.23990687727928162,-0.018070347607135773,-0.3040482997894287
1772457858962635500,4.751635498046875,0.24387498199939728,0.009874735027551651,-0.3129179775714874
1772457858972703700,4.761703857421875,0.25137072801589966,0.02251116745173931,-0.3204163610935211
1772457858982771700,4.771771728515625,0.26676830649375916,0.034742798656225204,-0.3150714039802551
1772457858992839700,4.781839599609375,0.292182058095932,0.05926225706934929,-0.2900121212005615
1772457859002906600,4.79190673828125,0.3169683516025543,0.08194786310195923,-0.2590622007846832
1772457859012974600,4.801974609375,0.3434492349624634,0.10739756375551224,-0.21488887071609497
1772457859023042600,4.81204248046875,0.367459237575531,0.12169048190116882,-0.1664970964193344
1772457859033110500,4.822110595703125,0.3976658880710602,0.12950019538402557,-0.11482192575931549
1772457859043178500,4.832178466796875,0.4282413721084595,0.13578499853610992,-0.05998770147562027
1772457859053246500,4.84224658203125,0.4658513069152832,0.15132667124271393,0.00024767397553659976
1772457859063314700,4.852314697265625,0.5073550939559937,0.1871909350156784,0.07717947661876678
1772457859073381600,4.862381591796875,0.5488146543502808,0.20177999138832092,0.14212918281555176
1772457859083449600,4.87244970703125,0.578757643699646,0.170017272233963,0.17629434168338776
1772457859093517600,4.882517578125,0.5896803140640259,0.09185855090618134,0.18142172694206238
1772457859103585800,4.892585693359375,0.5728344917297363,0.017106814309954643,0.16926972568035126
1772457859113653800,4.90265380859375,0.5289485454559326,-0.006416886579245329,0.15616297721862793
1772457859123721500,4.912721435546875,0.4612288773059845,0.026611903682351112,0.14257046580314636
1772457859133788700,4.92278857421875,0.3914948105812073,0.09885919839143753,0.12265321612358093
1772457859143856600,4.932856689453125,0.3263235092163086,0.19429144263267517,0.09947865456342697
1772457859153924600,4.942924560546875,0.2804127633571625,0.2936590611934662,0.08284002542495728
1772457859163992600,4.95299267578125,0.24097347259521484,0.38031458854675293,0.08748510479927063
1772457859174060500,4.963060546875,0.21386994421482086,0.4493727385997772,0.11123624444007874
1772457859184128500,4.97312841796875,0.19236837327480316,0.48376452922821045,0.1476280689239502
1772457859194196700,4.98319677734375,0.19161443412303925,0.447557270526886,0.18048669397830963
1772457859204263700,4.993263671875,0.20744426548480988,0.3593224883079529,0.2208133339881897
1772457859214331400,5.003331298828125,0.23772281408309937,0.2501877248287201,0.26931536197662354
1772457859224399400,5.0133994140625,0.26164811849594116,0.16637566685676575,0.3170951306819916
1772457859234467600,5.023467529296875,0.2752419710159302,0.11920788139104843,0.3633078932762146
1772457859244535600,5.03353564453125,0.2763381004333496,0.10927615314722061,0.3961838185787201
1772457859254603300,5.043603271484375,0.2601969540119171,0.12320475280284882,0.4244508743286133
1772457859264670500,5.05367041015625,0.2368447631597519,0.12741787731647491,0.4431617259979248
1772457859274738400,5.063738525390625,0.2026124894618988,0.11071666330099106,0.4472390115261078
1772457859284806400,5.073806396484375,0.1793109029531479,0.09204576909542084,0.4234743118286133
1772457859294874400,5.083874267578125,0.16893762350082397,0.0724148079752922,0.3797827363014221
1772457859304942300,5.0939423828125,0.16773973405361176,0.04903332144021988,0.3016330897808075
1772457859315010600,5.104010498046875,0.1736532747745514,0.028416460379958153,0.1923566609621048
1772457859325078500,5.11407861328125,0.17966696619987488,0.015262842178344727,0.06832259893417358
1772457859335145500,5.1241455078125,0.18849587440490723,0.01347825862467289,-0.06022179499268532
1772457859345213400,5.13421337890625,0.19271592795848846,0.03206579014658928,-0.18667320907115936
1772457859355281400,5.144281494140625,0.20202261209487915,0.07614829391241074,-0.3011300265789032
1772457859365349600,5.154349609375,0.20559097826480865,0.16123069822788239,-0.3950785994529724
1772457859375417300,5.164417236328125,0.2136973738670349,0.2705915570259094,-0.4532340466976166
1772457859385485300,5.1744853515625,0.22470581531524658,0.38572800159454346,-0.47805526852607727
1772457859395553300,5.18455322265625,0.248117133975029,0.47945234179496765,-0.4652020335197449
1772457859405620200,5.1946201171875,0.27496686577796936,0.5350503921508789,-0.41790881752967834
1772457859415688400,5.2046884765625,0.30383366346359253,0.5604451894760132,-0.3422265946865082
1772457859425756400,5.21475634765625,0.33581796288490295,0.5800458192825317,-0.266147255897522
1772457859435824400,5.224824462890625,0.37837713956832886,0.5871465802192688,-0.22042211890220642
1772457859445892400,5.234892333984375,0.442923367023468,0.5773229598999023,-0.20681843161582947
1772457859455960600,5.244960693359375,0.503899872303009,0.5385766625404358,-0.22641423344612122
1772457859466027500,5.255027587890625,0.5520714521408081,0.462350070476532,-0.2670484781265259
1772457859476095500,5.265095458984375,0.5816455483436584,0.3444330096244812,-0.3106388449668884
1772457859486163500,5.27516357421875,0.5916529297828674,0.20629511773586273,-0.34726688265800476
1772457859496231700,5.285231689453125,0.5841507911682129,0.06642243266105652,-0.3689673840999603
1772457859506299400,5.29529931640625,0.5687361359596252,-0.05997705087065697,-0.3756977319717407
1772457859516367400,5.305367431640625,0.5397647023200989,-0.16280889511108398,-0.37243109941482544
1772457859526435300,5.315435302734375,0.5062608122825623,-0.21880477666854858,-0.3681524693965912
1772457859536502300,5.325502197265625,0.4670760929584503,-0.2360905557870865,-0.38031911849975586
1772457859546570500,5.335570556640625,0.43732112646102905,-0.18592166900634766,-0.3925427496433258
1772457859556638500,5.345638427734375,0.41956639289855957,-0.0745948776602745,-0.39608821272850037
1772457859566706400,5.35570654296875,0.4088181257247925,0.07543670386075974,-0.39038586616516113
1772457859576774400,5.3657744140625,0.407625287771225,0.23027847707271576,-0.37683942914009094
1772457859586842600,5.375842529296875,0.4184361398220062,0.364056795835495,-0.3534206449985504
1772457859596910600,5.38591064453125,0.4368566870689392,0.43735602498054504,-0.30672532320022583
1772457859606977500,5.3959775390625,0.4630590081214905,0.44927874207496643,-0.24782471358776093
1772457859617045500,5.40604541015625,0.4828944802284241,0.42551374435424805,-0.1773233860731125
1772457859627113200,5.41611328125,0.5016274452209473,0.362979531288147,-0.09943817555904388
1772457859637181400,5.426181396484375,0.5078701376914978,0.2771727442741394,-0.02575889229774475
1772457859647249400,5.43624951171875,0.5064160823822021,0.19084131717681885,0.03988403454422951
1772457859657317400,5.4463173828125,0.5031760334968567,0.10615253448486328,0.09043775498867035
1772457859667384300,5.45638427734375,0.4988816976547241,0.0435115247964859,0.12482289224863052
1772457859677452300,5.466452392578125,0.49688592553138733,0.005367068573832512,0.1506129503250122
1772457859687520500,5.4765205078125,0.49360305070877075,-0.0342453233897686,0.16667233407497406
1772457859697588500,5.48658837890625,0.4886639714241028,-0.06439390033483505,0.17582295835018158
1772457859707656400,5.496656494140625,0.4775090515613556,-0.08205492049455643,0.17649593949317932
1772457859717724700,5.506724609375,0.4711850881576538,-0.0994645357131958,0.16104267537593842
1772457859727792400,5.51679248046875,0.46636876463890076,-0.10798399150371552,0.1455012708902359
1772457859737859600,5.526859619140625,0.45843520760536194,-0.10083180665969849,0.10627663880586624
1772457859747927600,5.536927490234375,0.4455481767654419,-0.07199402898550034,0.06859876960515976
1772457859757995300,5.546995361328125,0.42329585552215576,-0.015187474898993969,0.026856647804379463
1772457859768063500,5.5570634765625,0.3903975784778595,0.046670567244291306,-0.0084275733679533
1772457859778131500,5.56713134765625,0.35082167387008667,0.07134555280208588,-0.035481829196214676
1772457859788199400,5.577199462890625,0.3134591281414032,0.062494002282619476,-0.050330016762018204
1772457859798267400,5.587267333984375,0.2740328907966614,0.022786539047956467,-0.060872405767440796
1772457859808334300,5.597334228515625,0.2402655929327011,-0.01152802538126707,-0.058638546615839005
1772457859818402600,5.607402587890625,0.20746131241321564,-0.01775609329342842,-0.02641802467405796
1772457859828470500,5.617470458984375,0.19260379672050476,0.0027254789602011442,0.0028181569650769234
1772457859838538500,5.62753857421875,0.17878545820713043,0.02635570801794529,0.0433991402387619
1772457859848606500,5.6376064453125,0.17699740827083588,0.03533561900258064,0.07672780007123947
1772457859858674400,5.64767431640625,0.17769356071949005,0.041126664727926254,0.10445796698331833
1772457859868742400,5.657742431640625,0.18187099695205688,0.032391227781772614,0.11899323016405106
1772457859878809300,5.667809326171875,0.1854870319366455,0.007559382822364569,0.12794998288154602
1772457859888877300,5.677877197265625,0.18605881929397583,-0.025658491998910904,0.11826219409704208
1772457859898945300,5.6879453125,0.18012022972106934,-0.04952414333820343,0.10487022250890732
1772457859909013500,5.698013427734375,0.17960038781166077,-0.06283435225486755,0.08984094113111496
1772457859919081500,5.70808154296875,0.17952421307563782,-0.06937561184167862,0.07227952033281326
1772457859929149400,5.7181494140625,0.18204542994499207,-0.07233651727437973,0.05668431892991066
1772457859939217400,5.728217529296875,0.18743567168712616,-0.07497810572385788,0.043778106570243835
1772457859949284600,5.73828466796875,0.19289062917232513,-0.07016816735267639,0.03801742196083069
1772457859959352600,5.7483525390625,0.20227773487567902,-0.06336512416601181,0.03940839320421219
1772457859969420500,5.758420654296875,0.2154872864484787,-0.06723975390195847,0.049252502620220184
1772457859979488300,5.76848828125,0.22669865190982819,-0.10085470974445343,0.05884334444999695
1772457859989556500,5.778556396484375,0.2464689016342163,-0.16917277872562408,0.05979808419942856
1772457859999624400,5.78862451171875,0.27093616127967834,-0.24416179955005646,0.06202368810772896
1772457860009692400,5.7986923828125,0.2966841459274292,-0.28702113032341003,0.05452768877148628
1772457860019759400,5.80875927734375,0.32629022002220154,-0.2773192226886749,0.04814089834690094
1772457860029827300,5.818827392578125,0.35341906547546387,-0.23343192040920258,0.040099747478961945
1772457860039895600,5.8288955078125,0.3802429437637329,-0.18012982606887817,0.01998409442603588
1772457860049963500,5.838963623046875,0.4019690155982971,-0.11684192717075348,-0.00025539714260958135
1772457860060031500,5.849031494140625,0.4134967625141144,-0.06354834884405136,-0.01780882477760315
1772457860070099500,5.859099365234375,0.4199296236038208,-0.028178641572594643,-0.02966175600886345
1772457860080166400,5.86916650390625,0.42927199602127075,-0.012130964547395706,-0.02153325453400612
1772457860090234600,5.879234619140625,0.441280722618103,0.002704173792153597,-0.010808705352246761
1772457860100302300,5.88930224609375,0.4648646116256714,0.021102888509631157,0.007138070650398731
1772457860110370300,5.899370361328125,0.49642279744148254,0.023935958743095398,0.02274392731487751
1772457860120438300,5.909438232421875,0.5257764458656311,0.008612662553787231,0.04090295732021332
1772457860130506500,5.919506591796875,0.5610218048095703,-0.019410183653235435,0.06142501160502434
1772457860140574500,5.929574462890625,0.5962247848510742,-0.04942214488983154,0.07770491391420364
1772457860150641400,5.939641357421875,0.6294455528259277,-0.07329711318016052,0.10062620788812637
1772457860160709400,5.94970947265625,0.668354332447052,-0.09483250230550766,0.09590601921081543
1772457860170777600,5.959777587890625,0.7003341317176819,-0.1187165305018425,0.0773262158036232
1772457860180845600,5.969845458984375,0.7360473871231079,-0.16169436275959015,0.04000627249479294
1772457860190913500,5.97991357421875,0.7713057994842529,-0.2146632969379425,-0.006108226254582405
1772457860200981500,5.9899814453125,0.794689953327179,-0.2655254006385803,-0.04695046320557594
1772457860211049200,6.00004931640625,0.8167659044265747,-0.286650151014328,-0.07778720557689667
1772457860221116400,6.010116455078125,0.8298370242118835,-0.28159332275390625,-0.08914612233638763
1772457860231184100,6.02018408203125,0.8307613730430603,-0.2607106864452362,-0.08977702260017395
1772457860241252000,6.030252197265625,0.8249082565307617,-0.2047685831785202,-0.09602746367454529
1772457860251320000,6.040320068359375,0.8016431927680969,-0.10537036508321762,-0.09943178296089172
1772457860261388300,6.05038818359375,0.7678641676902771,0.053226470947265625,-0.11301763355731964
1772457860271456300,6.060456298828125,0.7296440601348877,0.2462896704673767,-0.13143578171730042
1772457860281524200,6.070524169921875,0.6912972331047058,0.43003153800964355,-0.15856194496154785
1772457860291591200,6.080591064453125,0.6645116806030273,0.5854887962341309,-0.18637387454509735
1772457860301659400,6.090659423828125,0.652128279209137,0.6868612170219421,-0.18933264911174774
1772457860311727400,6.100727294921875,0.6496190428733826,0.7490167021751404,-0.17400935292243958
1772457860321795300,6.11079541015625,0.6516046524047852,0.774523138999939,-0.12092775106430054
1772457860331863000,6.120863037109375,0.6661646962165833,0.743969202041626,-0.047876711934804916
1772457860341931300,6.13093115234375,0.6856558322906494,0.6546809077262878,0.03848986700177193
1772457860351999200,6.140999267578125,0.7037320733070374,0.5224648118019104,0.1277337223291397
1772457860362066200,6.151066162109375,0.7153844237327576,0.3577621281147003,0.2137375771999359
1772457860372134100,6.161134033203125,0.7204039692878723,0.1827823370695114,0.2867785096168518
1772457860382202000,6.1712021484375,0.7254605293273926,0.04454456642270088,0.33699852228164673
1772457860392270300,6.181270263671875,0.7286525964736938,-0.03551458567380905,0.3657692074775696
1772457860402338300,6.19133837890625,0.7410485148429871,-0.05974508821964264,0.35173913836479187
1772457860412406300,6.20140625,0.7561616897583008,-0.07214583456516266,0.3040355145931244
1772457860422474200,6.21147412109375,0.7812281847000122,-0.08674102276563644,0.22503018379211426
1772457860432541200,6.221541259765625,0.7931066751480103,-0.09190195798873901,0.14026257395744324
1772457860442609400,6.231609375,0.7951469421386719,-0.07308326661586761,0.0497683547437191
1772457860452677400,6.241677490234375,0.8071466088294983,-0.04808603599667549,-0.04791346192359924
1772457860462745000,6.2517451171875,0.8279901146888733,-0.01555419247597456,-0.15304547548294067
1772457860472813000,6.26181298828125,0.8572049736976624,0.048659682273864746,-0.23708072304725647
1772457860482881300,6.27188134765625,0.8950136303901672,0.13484357297420502,-0.2966894507408142
1772457860492949200,6.28194921875,0.94256591796875,0.22546668350696564,-0.33666110038757324
1772457860503016200,6.29201611328125,0.9932941198348999,0.2827067971229553,-0.3563610315322876
1772457860513084200,6.302084228515625,1.0440139770507812,0.290311723947525,-0.35401132702827454
1772457860523152400,6.31215234375,1.0911865234375,0.26372432708740234,-0.3150032162666321
1772457860533220400,6.322220458984375,1.143309473991394,0.23045878112316132,-0.2544429302215576
1772457860543288300,6.332288330078125,1.2016770839691162,0.19544699788093567,-0.1800840198993683
1772457860553356300,6.342356201171875,1.2490859031677246,0.16413328051567078,-0.10122675448656082
1772457860563424300,6.35242431640625,1.295379877090454,0.13468803465366364,-0.042759448289871216
1772457860573491500,6.362491455078125,1.3337656259536743,0.08784410357475281,-0.0051779840141534805
1772457860583559200,6.37255908203125,1.36913001537323,0.04308408871293068,0.009288040921092033
1772457860593627100,6.382627197265625,1.4047306776046753,0.028448153287172318,0.004018443636596203
1772457860603695000,6.392695068359375,1.4393075704574585,0.04381725564599037,-0.01233656145632267
1772457860613763300,6.402763427734375,1.4700912237167358,0.08121549338102341,-0.03080318681895733
1772457860623831300,6.412831298828125,1.4921939373016357,0.10901995748281479,-0.05059979483485222
1772457860633899300,6.422899169921875,1.4974265098571777,0.13498790562152863,-0.07309498637914658
1772457860643966200,6.43296630859375,1.4903004169464111,0.17056135833263397,-0.10548887401819229
1772457860654034200,6.4430341796875,1.4851224422454834,0.21338126063346863,-0.14035817980766296
1772457860664102400,6.453102294921875,1.4829002618789673,0.24846626818180084,-0.17471934854984283
1772457860674170400,6.46317041015625,1.481189489364624,0.2906648516654968,-0.20221808552742004
1772457860684238000,6.473238037109375,1.4809468984603882,0.34326547384262085,-0.2179190069437027
1772457860694306000,6.48330615234375,1.4848947525024414,0.40335917472839355,-0.21703803539276123
1772457860704374300,6.493374267578125,1.5014628171920776,0.4585452079772949,-0.1980249285697937
1772457860714442200,6.503442138671875,1.524397373199463,0.5116361379623413,-0.1616264432668686
1772457860724509200,6.51350927734375,1.5453037023544312,0.5454734563827515,-0.1133451983332634
1772457860734577200,6.5235771484375,1.5660852193832397,0.5462854504585266,-0.06949865072965622
1772457860744645000,6.53364501953125,1.5872058868408203,0.5296518802642822,-0.022772157564759254
1772457860754713300,6.54371337890625,1.6170055866241455,0.5119506120681763,0.025233184918761253
1772457860764781300,6.55378125,1.647687315940857,0.4935615062713623,0.062125954777002335
1772457860774849300,6.563849365234375,1.673812747001648,0.4778784215450287,0.09794014692306519
1772457860784917000,6.5739169921875,1.68586003780365,0.4771665632724762,0.12003958970308304
1772457860794984400,6.583984375,1.6935888528823853,0.48963654041290283,0.12474513053894043
1772457860805052200,6.59405224609375,1.691657543182373,0.49851471185684204,0.11938977986574173
1772457860815120100,6.6041201171875,1.687349557876587,0.5027195811271667,0.09569616615772247
1772457860825188000,6.61418798828125,1.6780660152435303,0.5055339932441711,0.0646788626909256
1772457860835256300,6.62425634765625,1.6634469032287598,0.5078336596488953,0.022242987528443336
1772457860845324300,6.63432421875,1.6495795249938965,0.5258022546768188,-0.013309413567185402
1772457860855392300,6.644392333984375,1.636696457862854,0.5615695714950562,-0.04421406611800194
1772457860865459200,6.654459228515625,1.6330267190933228,0.5985976457595825,-0.0657862052321434
1772457860875527200,6.664527099609375,1.6290292739868164,0.6177255511283875,-0.07753633707761765
1772457860885595400,6.674595458984375,1.6266335248947144,0.6265525817871094,-0.07885593175888062
1772457860895663400,6.684663330078125,1.6269711256027222,0.6509034633636475,-0.06523545831441879
1772457860905731300,6.6947314453125,1.6479188203811646,0.6883395314216614,-0.0314846895635128
1772457860915799000,6.704799072265625,1.6789387464523315,0.7334193587303162,0.020135894417762756
1772457860925867300,6.7148671875,1.7306221723556519,0.7645980715751648,0.09259863942861557
1772457860935934200,6.724934326171875,1.7871432304382324,0.7563409209251404,0.15947647392749786
1772457860946002200,6.735002197265625,1.8468401432037354,0.7183096408843994,0.23133735358715057
1772457860956070100,6.745070068359375,1.8870453834533691,0.6566207408905029,0.2908259630203247
1772457860966138000,6.75513818359375,1.9037226438522339,0.5824130773544312,0.3270559012889862
1772457860976206300,6.765206298828125,1.8893918991088867,0.5221769213676453,0.33086952567100525
1772457860986274300,6.7752744140625,1.850820541381836,0.49558818340301514,0.31553399562835693
1772457860996342300,6.78534228515625,1.792014479637146,0.5280065536499023,0.27474740147590637
1772457861006409200,6.7954091796875,1.7363024950027466,0.5673579573631287,0.21582071483135223
1772457861016477400,6.8054775390625,1.6915302276611328,0.5922390818595886,0.1486605852842331
1772457861026545400,6.81554541015625,1.6680136919021606,0.5966455340385437,0.09810233116149902
1772457861036613000,6.825613037109375,1.662388801574707,0.5785560011863708,0.07068455219268799
1772457861046681000,6.83568115234375,1.6547255516052246,0.5514293313026428,0.05698392540216446
1772457861056749300,6.845749267578125,1.6470253467559814,0.5435296297073364,0.07012183219194412
1772457861066817300,6.8558173828125,1.6324082612991333,0.5375071167945862,0.09080367535352707
1772457861076884200,6.86588427734375,1.6149318218231201,0.5306598544120789,0.12311127781867981
1772457861086952200,6.8759521484375,1.5851811170578003,0.5177651047706604,0.15137992799282074
1772457861097020200,6.886020263671875,1.5419726371765137,0.4946310222148895,0.1692819744348526
1772457861107088400,6.89608837890625,1.4961830377578735,0.46775442361831665,0.18143583834171295
1772457861117156400,6.90615625,1.4524446725845337,0.43699410557746887,0.19342458248138428
1772457861127224300,6.916224365234375,1.4205173254013062,0.41421955823898315,0.20974284410476685
1772457861137292000,6.9262919921875,1.4028472900390625,0.4041650593280792,0.23778113722801208
1772457861147360300,6.9363603515625,1.395797610282898,0.4173911213874817,0.2686524987220764
1772457861157427200,6.94642724609375,1.400124192237854,0.4216209948062897,0.300883412361145
1772457861167495200,6.9564951171875,1.4033572673797607,0.4099512994289398,0.3169015049934387
1772457861177563100,6.966563232421875,1.401843786239624,0.4034598469734192,0.3334014117717743
1772457861187631000,6.976631103515625,1.3920044898986816,0.4100240170955658,0.3571125864982605
1772457861197699300,6.98669921875,1.3758620023727417,0.4026142954826355,0.3850800395011902
1772457861207767300,6.996767333984375,1.3612492084503174,0.38554129004478455,0.40810519456863403
1772457861217835800,7.006835693359375,1.3471338748931885,0.35385075211524963,0.4303598999977112
1772457861227902700,7.01690283203125,1.335490345954895,0.3257400095462799,0.4388276934623718
1772457861237970700,7.026970703125,1.3187958002090454,0.30476948618888855,0.43536052107810974
1772457861248038700,7.03703857421875,1.2893131971359253,0.3174261748790741,0.4194529354572296
1772457861258106600,7.047106689453125,1.2519618272781372,0.37784451246261597,0.39066654443740845
1772457861268174600,7.057174560546875,1.2160824537277222,0.4518952965736389,0.3581080734729767
1772457861278242600,7.06724267578125,1.1944069862365723,0.527952253818512,0.31008675694465637
1772457861288310500,7.077310546875,1.187483310699463,0.6142817735671997,0.255828320980072
1772457861298377500,7.08737744140625,1.189434289932251,0.7057427167892456,0.1948227435350418
1772457861308445700,7.09744580078125,1.203985333442688,0.7930257320404053,0.1344723254442215
1772457861318513700,7.107513671875,1.2225134372711182,0.8741975426673889,0.07045792043209076
1772457861328581600,7.11758154296875,1.2415872812271118,0.9346107840538025,-0.0003400856803636998
1772457861338649600,7.127649658203125,1.2486425638198853,0.970268964767456,-0.0787305012345314
1772457861348717600,7.137717529296875,1.2448458671569824,0.9688276648521423,-0.15646657347679138
1772457861358785500,7.14778564453125,1.2394742965698242,0.9222726225852966,-0.22413696348667145
1772457861368852700,7.157852783203125,1.2389789819717407,0.8779835104942322,-0.28399550914764404
1772457861378920400,7.16792041015625,1.2425931692123413,0.849989652633667,-0.31959769129753113
1772457861388988400,7.177988525390625,1.2566977739334106,0.821069061756134,-0.3543032109737396
1772457861399056600,7.188056640625,1.2647359371185303,0.7930741906166077,-0.3882598578929901
1772457861409124600,7.19812451171875,1.2709712982177734,0.7709651589393616,-0.42502400279045105
1772457861419192600,7.208192626953125,1.2771745920181274,0.7433108687400818,-0.45653530955314636
1772457861429260500,7.218260498046875,1.289639949798584,0.687469482421875,-0.49679166078567505
1772457861439328800,7.228328857421875,1.3128238916397095,0.623285174369812,-0.531538188457489
1772457861449395700,7.238395751953125,1.3360072374343872,0.5668953657150269,-0.5673180222511292
1772457861459463700,7.248463623046875,1.363075613975525,0.5021765828132629,-0.6085328459739685
1772457861469531600,7.25853173828125,1.3891305923461914,0.4430682361125946,-0.6574596166610718
1772457861479599600,7.268599609375,1.4205509424209595,0.40569236874580383,-0.7138898968696594
1772457861489667600,7.27866748046875,1.4546571969985962,0.41997864842414856,-0.7697286605834961
1772457861499735600,7.288735595703125,1.4896814823150635,0.4779018461704254,-0.8034943342208862
1772457861509803500,7.298803466796875,1.529089331626892,0.5745384097099304,-0.8075152039527893
1772457861519870500,7.308870361328125,1.569518804550171,0.6953292489051819,-0.779080331325531
1772457861529938700,7.318938720703125,1.5999568700790405,0.7983919978141785,-0.723854124546051
1772457861540006700,7.329006591796875,1.6236393451690674,0.8451102375984192,-0.6744996309280396
1772457861550074600,7.33907470703125,1.6322053670883179,0.8280617594718933,-0.6386550664901733
1772457861560142600,7.349142578125,1.622191071510315,0.7753300666809082,-0.5999201536178589
1772457861570210800,7.3592109375,1.602008581161499,0.6863738298416138,-0.5615760087966919
1772457861580278500,7.369278564453125,1.5771937370300293,0.5757381319999695,-0.5070109963417053
1772457861590346500,7.379346435546875,1.5567718744277954,0.4687248766422272,-0.43931958079338074
1772457861600413400,7.389413330078125,1.5353072881698608,0.3739893138408661,-0.36213716864585876
1772457861610481400,7.3994814453125,1.5176880359649658,0.3083690106868744,-0.2808396518230438
1772457861620549600,7.409549560546875,1.500011920928955,0.28787973523139954,-0.20320531725883484
1772457861630617600,7.41961767578125,1.47804856300354,0.312051385641098,-0.13134470582008362
1772457861640685600,7.429685546875,1.4613430500030518,0.34246572852134705,-0.07087257504463196
1772457861650753500,7.43975341796875,1.4340664148330688,0.35976243019104004,-0.029751503840088844
1772457861660821800,7.44982177734375,1.3958992958068848,0.3570023477077484,0.0000029294772048160667
1772457861670888700,7.459888671875,1.357754111289978,0.32975900173187256,0.024924524128437042
1772457861680956700,7.469956787109375,1.3155986070632935,0.29980403184890747,0.0421418622136116
1772457861691024600,7.480024658203125,1.2684047222137451,0.2609351873397827,0.06272117048501968
1772457861701092600,7.490092529296875,1.205328106880188,0.21974940598011017,0.08007512986660004
1772457861711160600,7.50016064453125,1.132477045059204,0.1938280612230301,0.09501892328262329
1772457861721228500,7.510228515625,1.0548450946807861,0.1729952096939087,0.11295957118272781
1772457861731296500,7.520296630859375,0.9730346202850342,0.15151575207710266,0.12114293873310089
1772457861741363500,7.530363525390625,0.9054835438728333,0.12526817619800568,0.1236652135848999
1772457861751431700,7.540431640625,0.8416950106620789,0.09739978611469269,0.12039592117071152
1772457861761499600,7.550499755859375,0.8021518588066101,0.06867600232362747,0.10196790844202042
1772457861771567600,7.560567626953125,0.7708684802055359,0.051420047879219055,0.0905139222741127
1772457861781635600,7.570635498046875,0.741350531578064,0.03241706266999245,0.08111802488565445
1772457861791703800,7.580703857421875,0.7160845994949341,0.024337030947208405,0.07633072137832642
1772457861801771500,7.590771484375,0.6877298951148987,0.02532453089952469,0.077229805290699
1772457861811839500,7.600839599609375,0.660347580909729,0.016768326982855797,0.07992172986268997
1772457861821906700,7.61090673828125,0.6266564726829529,0.0026027073618024588,0.08405762165784836
1772457861831974400,7.620974365234375,0.5894454121589661,-0.004905276466161013,0.09072431176900864
1772457861842042600,7.631042724609375,0.5540815591812134,-0.00567013630643487,0.09716569632291794
1772457861852110600,7.641110595703125,0.5191992521286011,-0.01594647578895092,0.11291802674531937
1772457861862178600,7.651178466796875,0.4831634759902954,-0.05059340223670006,0.11917006969451904
1772457861872246500,7.66124658203125,0.4512327015399933,-0.09368015080690384,0.12701892852783203
1772457861882314800,7.671314697265625,0.41888993978500366,-0.13483211398124695,0.14566479623317719
1772457861892381700,7.681381591796875,0.3938722014427185,-0.15198740363121033,0.16011297702789307
1772457861902449700,7.69144970703125,0.37372058629989624,-0.15125423669815063,0.17102926969528198
1772457861912517600,7.701517578125,0.36031851172447205,-0.13322916626930237,0.18206673860549927
1772457861922585600,7.711585693359375,0.3516850769519806,-0.12341407686471939,0.17915217578411102
1772457861932653600,7.721653564453125,0.3528669774532318,-0.12204175442457199,0.16146692633628845
1772457861942721500,7.731721435546875,0.3572832942008972,-0.13019821047782898,0.12997397780418396
1772457861952789500,7.74178955078125,0.36244744062423706,-0.15288275480270386,0.09292913973331451
1772457861962856400,7.7518564453125,0.3572843670845032,-0.1899787187576294,0.04927806556224823
1772457861972924700,7.761924560546875,0.3436170220375061,-0.21974115073680878,0.015064436942338943
1772457861982992600,7.77199267578125,0.3395423889160156,-0.24470482766628265,-0.020198745653033257
1772457861993060600,7.782060546875,0.33962947130203247,-0.25701847672462463,-0.04677629470825195
1772457862003128600,7.792128662109375,0.3349263370037079,-0.2582959830760956,-0.07901918143033981
1772457862013196800,7.80219677734375,0.3202855885028839,-0.26588600873947144,-0.10547236353158951
1772457862023264800,7.8122646484375,0.2962287366390228,-0.2667731046676636,-0.14555373787879944
1772457862033332500,7.82233251953125,0.274030476808548,-0.24993926286697388,-0.17683443427085876
1772457862043399700,7.832399658203125,0.24719540774822235,-0.2003144472837448,-0.20172034204006195
1772457862053467400,7.84246728515625,0.2285010814666748,-0.10163155198097229,-0.2044500708580017
1772457862063535600,7.85253564453125,0.22814235091209412,-0.004305532667785883,-0.1873493790626526
1772457862073603600,7.862603515625,0.24438391625881195,0.0607813261449337,-0.15983866155147552
1772457862083671600,7.872671630859375,0.2707846164703369,0.08606217801570892,-0.11456786096096039
1772457862093739500,7.882739501953125,0.3023636043071747,0.06387458741664886,-0.07163077592849731
1772457862103807700,7.892807861328125,0.34773799777030945,0.027236415073275566,-0.01890205219388008
1772457862113875700,7.902875732421875,0.39475396275520325,-0.01841309480369091,0.0359654575586319
1772457862123942700,7.912942626953125,0.4442903697490692,-0.07544149458408356,0.0929376631975174
1772457862134010600,7.9230107421875,0.4859347641468048,-0.12416242808103561,0.14962570369243622
1772457862144078600,7.93307861328125,0.5130079388618469,-0.17209187150001526,0.18636001646518707
1772457862154146600,7.943146484375,0.5314231514930725,-0.22245916724205017,0.20198611915111542
1772457862164214500,7.953214599609375,0.5362343788146973,-0.24553972482681274,0.20212353765964508
1772457862174282500,7.963282470703125,0.5323438048362732,-0.25165700912475586,0.18869641423225403
1772457862184350500,7.9733505859375,0.517566442489624,-0.2514628469944,0.1612514704465866
1772457862194417700,7.983417724609375,0.49351224303245544,-0.25297659635543823,0.13645078241825104
1772457862204485600,7.993485595703125,0.4703264832496643,-0.2572336494922638,0.10916483402252197
1772457862214553600,8.0035537109375,0.4454003870487213,-0.2398378998041153,0.09029047936201096
1772457862224621600,8.01362158203125,0.43497729301452637,-0.2004697173833847,0.08048046380281448
1772457862234689500,8.023689453125,0.415836364030838,-0.15720346570014954,0.08571064472198486
1772457862244757800,8.0337578125,0.3938088119029999,-0.11853063851594925,0.09165561944246292
1772457862254825500,8.043825439453125,0.36090704798698425,-0.08657510578632355,0.09637980163097382
1772457862264892700,8.053892578125,0.3236246705055237,-0.06672177463769913,0.09860619902610779
1772457862274960600,8.063960693359375,0.29322680830955505,-0.057972755283117294,0.09824854135513306
1772457862285028400,8.0740283203125,0.27183976769447327,-0.05438920482993126,0.08647231012582779
1772457862295096600,8.0840966796875,0.2584722936153412,-0.03514840081334114,0.07861492037773132
1772457862305164500,8.09416455078125,0.24955736100673676,-0.011410580016672611,0.06280586123466492
1772457862315232500,8.104232421875,0.2445642054080963,0.007238471880555153,0.043060120195150375
1772457862325300500,8.114300537109376,0.2415314018726349,0.03099280409514904,0.017123593017458916
1772457862335368700,8.12436865234375,0.23285003006458282,0.060796771198511124,-0.005587045568972826
1772457862345435600,8.134435546875,0.2122478187084198,0.1023884266614914,-0.022938605397939682
1772457862355503600,8.144503662109376,0.19323071837425232,0.16146425902843475,-0.026624953374266624
1772457862365571600,8.154571533203125,0.18258659541606903,0.23452621698379517,-0.018614962697029114
1772457862375639600,8.1646396484375,0.1717616319656372,0.29191067814826965,-0.005840045865625143
1772457862385707500,8.17470751953125,0.1760682314634323,0.32731741666793823,0.013906494714319706
1772457862395775500,8.184775390625,0.18360204994678497,0.34615954756736755,0.044608745723962784
1772457862405843500,8.194843505859374,0.20337708294391632,0.35525262355804443,0.08202296495437622
1772457862415911700,8.20491162109375,0.22302189469337463,0.367343932390213,0.1351626217365265
1772457862425978600,8.214978515625,0.24983486533164978,0.37989646196365356,0.19245599210262299
1772457862436046600,8.225046630859374,0.2801312506198883,0.3817891776561737,0.23844052851200104
1772457862446114600,8.235114501953126,0.3146998882293701,0.3682483434677124,0.28320375084877014
1772457862456182500,8.2451826171875,0.34731560945510864,0.335928738117218,0.3066917657852173
1772457862466250800,8.255250732421874,0.3864787220954895,0.26785755157470703,0.3029252588748932
1772457862476318700,8.265318603515626,0.4264666438102722,0.19854211807250977,0.2862434685230255
1772457862486386400,8.275386474609375,0.46277591586112976,0.1414804309606552,0.25500380992889404
1772457862496454400,8.285454345703124,0.4945005476474762,0.08963454514741898,0.19751067459583282
1772457862506521300,8.295521240234375,0.5132031440734863,0.05940713360905647,0.1262279748916626
1772457862516589600,8.305589599609375,0.5260201096534729,0.03431003540754318,0.038787342607975006
1772457862526657500,8.315657470703124,0.5252571105957031,0.026208966970443726,-0.05151458829641342
1772457862536725500,8.3257255859375,0.5164638757705688,0.05071058124303818,-0.1357642263174057
1772457862546793500,8.33579345703125,0.5038365125656128,0.09536087512969971,-0.20603439211845398
1772457862556861700,8.34586181640625,0.48929378390312195,0.15101347863674164,-0.25850799679756165
1772457862566929700,8.3559296875,0.4808683395385742,0.19842255115509033,-0.3004719614982605
1772457862576996600,8.36599658203125,0.48771533370018005,0.21964207291603088,-0.33385148644447327
1772457862587064600,8.376064697265624,0.5002567172050476,0.2049883008003235,-0.3491867482662201
1772457862597132800,8.3861328125,0.5254419445991516,0.18868257105350494,-0.33823689818382263
1772457862607200500,8.396200439453125,0.5583218932151794,0.1873757541179657,-0.2943224310874939
1772457862617268500,8.4062685546875,0.5926668047904968,0.1807580590248108,-0.2257028967142105
1772457862627336400,8.41633642578125,0.6151118874549866,0.15274666249752045,-0.1523410677909851
1772457862637404700,8.42640478515625,0.6324922442436218,0.10055936127901077,-0.08656098693609238
1772457862647472600,8.43647265625,0.6420934796333313,0.04039136320352554,-0.04138951748609543
1772457862657539600,8.44653955078125,0.6443949341773987,-0.013125123456120491,0.000006924218723725062
1772457862667607600,8.456607666015625,0.6425925493240356,-0.051593951880931854,0.009150621481239796
1772457862677675500,8.466675537109374,0.6317949891090393,-0.06758437305688858,0.0105328019708395
1772457862687743700,8.47674365234375,0.6180951595306396,-0.06574492156505585,0.00088949577184394
1772457862697811700,8.486811767578125,0.6029391288757324,-0.07406224310398102,-0.014357900246977806
1772457862707879400,8.49687939453125,0.5888672471046448,-0.0951765850186348,-0.03615560755133629
1772457862717947400,8.506947509765626,0.5636276602745056,-0.1347588747739792,-0.052930060774087906
1772457862728015600,8.517015625,0.5238925218582153,-0.1468656063079834,-0.07283559441566467
1772457862738082600,8.52708251953125,0.47853410243988037,-0.13031485676765442,-0.0956500917673111
1772457862748150500,8.537150634765625,0.4343740940093994,-0.07504042237997055,-0.12062308937311172
1772457862758218500,8.547218505859375,0.3951329290866852,0.0007869640830904245,-0.1521834135055542
1772457862768286500,8.557286376953124,0.36248978972435,0.0767885223031044,-0.17811007797718048
1772457862778354700,8.567354736328125,0.33787259459495544,0.14556679129600525,-0.20371611416339874
1772457862788422700,8.577422607421875,0.3163560926914215,0.20515315234661102,-0.2095729261636734
1772457862798490600,8.58749072265625,0.299472451210022,0.24951449036598206,-0.21195246279239655
1772457862808558600,8.59755859375,0.28486156463623047,0.27731308341026306,-0.1998838186264038
1772457862818625500,8.60762548828125,0.2801363170146942,0.28770875930786133,-0.17922700941562653
1772457862828693500,8.617693603515624,0.28328683972358704,0.2684341073036194,-0.1508750021457672
1772457862838761500,8.627761474609375,0.29978805780410767,0.23415710031986237,-0.12763865292072296
1772457862848829400,8.637829345703125,0.3165939152240753,0.21041129529476166,-0.09797769784927368
1772457862858897700,8.647897705078124,0.3404979407787323,0.1981991082429886,-0.05781163275241852
1772457862868965600,8.657965576171875,0.3712236285209656,0.20525620877742767,-0.016353139653801918
1772457862879033600,8.66803369140625,0.40079987049102783,0.20895615220069885,0.017183514311909676
1772457862889100500,8.6781005859375,0.42487406730651855,0.2246679961681366,0.054434746503829956
1772457862899168500,8.68816845703125,0.44973039627075195,0.2472180426120758,0.0809214785695076
1772457862909236700,8.69823681640625,0.4769580364227295,0.26589587330818176,0.10740315169095993
1772457862919304700,8.7083046875,0.5060072541236877,0.26888686418533325,0.13056306540966034
1772457862929372700,8.71837255859375,0.5303370952606201,0.26705753803253174,0.14122769236564636
1772457862939440400,8.7284404296875,0.5526450872421265,0.26698750257492065,0.1621207296848297
1772457862949508600,8.738508544921874,0.5722360610961914,0.2653491199016571,0.17695879936218262
1772457862959576600,8.74857666015625,0.5939815640449524,0.2646995782852173,0.19393964111804962
1772457862969643500,8.7586435546875,0.6179409623146057,0.2673262357711792,0.21336394548416138
1772457862979711500,8.76871142578125,0.6374877691268921,0.27335137128829956,0.22208845615386963
1772457862989779500,8.778779541015625,0.6514161229133606,0.28552281856536865,0.2248416393995285
1772457862999847700,8.78884765625,0.6572830677032471,0.3020562529563904,0.22593539953231812
1772457863009915600,8.79891552734375,0.6591611504554749,0.3101392090320587,0.21832939982414246
1772457863019983600,8.808983642578125,0.6576135754585266,0.304317831993103,0.20325884222984314
1772457863030051600,8.819051513671875,0.6566340327262878,0.29348912835121155,0.1900588870048523
1772457863040119600,8.82911962890625,0.6611118912696838,0.28830263018608093,0.17364981770515442
1772457863050186800,8.839186767578125,0.660868763923645,0.2929922044277191,0.17664694786071777
1772457863060254500,8.84925439453125,0.6625435948371887,0.2977275550365448,0.18685483932495117
1772457863070322400,8.859322509765626,0.6602548956871033,0.28691592812538147,0.20599816739559174
1772457863080390400,8.869390380859375,0.6586548686027527,0.2827067971229553,0.22921933233737946
1772457863090458600,8.879458740234375,0.662079393863678,0.2943432033061981,0.24881593883037567
1772457863100526600,8.889526611328124,0.6803542971611023,0.24444729089736938,0.20102472603321075
1772457863110594600,8.899594482421875,0.6905733942985535,0.07237859070301056,0.054787613451480865
1772457863120662500,8.90966259765625,0.666481077671051,-0.18437384068965912,-0.17180265486240387
1772457863130729700,8.919729736328126,0.5962859988212585,-0.34153681993484497,-0.36755403876304626
1772457863140797700,8.929797607421875,0.4883742034435272,-0.3382275700569153,-0.5006124973297119
1772457863150865700,8.93986572265625,0.3545900285243988,-0.1573036015033722,-0.5262289047241211
1772457863160933400,8.949933349609376,0.2424248903989792,0.14659449458122253,-0.45391982793807983
1772457863171001600,8.960001708984375,0.1754876673221588,0.4157679080963135,-0.3206222355365753
1772457863181069600,8.970069580078125,0.16003601253032684,0.5429162979125977,-0.1633383333683014
1772457863191137500,8.980137451171874,0.18271735310554504,0.5076102018356323,-0.0356765054166317
1772457863201205500,8.99020556640625,0.22110921144485474,0.41780683398246765,0.063696950674057
1772457863211272400,9.0002724609375,0.282391220331192,0.30253535509109497,0.1270144134759903
1772457863221340200,9.010340087890626,0.3783662021160126,0.18176420032978058,0.17584453523159027
1772457863231408000,9.020408203125,0.47423893213272095,0.11074408888816833,0.2137136161327362
1772457863241476400,9.030476318359375,0.5404424667358398,0.09194830060005188,0.24639113247394562
1772457863251544300,9.04054443359375,0.5644308924674988,0.1028004139661789,0.26985758543014526
1772457863261612300,9.0506123046875,0.5581775307655334,0.10898294299840927,0.2817848026752472
1772457863271680000,9.060679931640625,0.5355635285377502,0.11788082867860794,0.28164419531822205
1772457863281748200,9.070748291015626,0.5057950019836426,0.11779773980379105,0.2694048285484314
1772457863291815200,9.080815185546875,0.4714634120464325,0.11202267557382584,0.24244698882102966
1772457863301883100,9.090883056640624,0.4343043267726898,0.09958358108997345,0.2095356434583664
1772457863311951000,9.100951171875,0.40169548988342285,0.09308546781539917,0.19388744235038757
1772457863322019300,9.111019287109375,0.37304094433784485,0.1246630996465683,0.19364909827709198
1772457863332087300,9.12108740234375,0.3479960560798645,0.17793245613574982,0.2031318098306656
1772457863342155300,9.1311552734375,0.3320533037185669,0.22505202889442444,0.21134766936302185
1772457863352223200,9.14122314453125,0.3276684284210205,0.24382278323173523,0.22048203647136688
1772457863362291500,9.15129150390625,0.32685455679893494,0.24114550650119781,0.22942520678043365
1772457863372358400,9.1613583984375,0.31780779361724854,0.23764558136463165,0.24384728074073792
1772457863382426400,9.17142626953125,0.30815303325653076,0.24397404491901398,0.2591593861579895
1772457863392494000,9.181494140625,0.3015958070755005,0.28140026330947876,0.27533143758773804
1772457863402562000,9.19156201171875,0.3067072033882141,0.3097669184207916,0.2933218777179718
1772457863412630300,9.20163037109375,0.3228723406791687,0.3245629072189331,0.3065170645713806
1772457863422698200,9.2116982421875,0.33489781618118286,0.31671804189682007,0.30540597438812256
1772457863432766200,9.22176611328125,0.33022770285606384,0.26330485939979553,0.2847430408000946
1772457863442834200,9.231834228515625,0.3262353539466858,0.19454924762248993,0.24398230016231537
1772457863452902400,9.24190234375,0.31798622012138367,0.1244090348482132,0.1948387324810028
1772457863462969300,9.25196923828125,0.3228355646133423,0.07237832993268967,0.14003780484199524
1772457863473037300,9.262037353515625,0.3176115155220032,0.028562668710947037,0.05397508293390274
1772457863483105300,9.272105224609374,0.3007281422615051,0.0054967645555734634,-0.0225596372038126
1772457863493173200,9.28217333984375,0.28067800402641296,0.0012958941515535116,-0.09969889372587204
1772457863503241200,9.2922412109375,0.2458060383796692,0.0013126720441505313,-0.18002596497535706
1772457863513309200,9.30230908203125,0.19582143425941467,0.005337773822247982,-0.26716646552085876
1772457863523377200,9.312377197265626,0.14118988811969757,0.015114237554371357,-0.3659239113330841
1772457863533445000,9.322445068359375,0.08479904383420944,0.05260409042239189,-0.4679131507873535
1772457863543512300,9.33251220703125,0.04597175121307373,0.10672351717948914,-0.5539636015892029
1772457863553580300,9.342580322265626,0.024049410596489906,0.1918642371892929,-0.6196922659873962
1772457863563648300,9.352648193359375,0.025827068835496902,0.28185832500457764,-0.6521993279457092
1772457863573716200,9.36271630859375,0.048410143703222275,0.36230015754699707,-0.6452599763870239
1772457863583784400,9.372784423828126,0.09208465367555618,0.41752931475639343,-0.5966753959655762
1772457863593852200,9.38285205078125,0.14166685938835144,0.43621593713760376,-0.5125506520271301
1772457863603920100,9.392920166015625,0.1966422200202942,0.41601690649986267,-0.41514259576797485
1772457863613988000,9.402988037109376,0.24185709655284882,0.36141759157180786,-0.31684213876724243
1772457863624055000,9.413054931640625,0.282879114151001,0.2767482399940491,-0.2329656034708023
1772457863634123300,9.423123291015624,0.31897133588790894,0.17902621626853943,-0.16342727839946747
1772457863644191200,9.433191162109376,0.340263307094574,0.07863302528858185,-0.11420220881700516
1772457863654259200,9.44325927734375,0.34784772992134094,-0.02262062393128872,-0.07269151508808136
1772457863664327200,9.4533271484375,0.338998019695282,-0.096198171377182,-0.04826926067471504
1772457863674395400,9.4633955078125,0.32981839776039124,-0.1323084980249405,-0.03870078921318054
1772457863684463400,9.47346337890625,0.31601467728614807,-0.13574744760990143,-0.037810761481523514
1772457863694531300,9.48353125,0.30574020743370056,-0.11967979371547699,-0.04123958200216293
1772457863704598300,9.493598388671876,0.2983182370662689,-0.09426818042993546,-0.04183666408061981
1772457863714666200,9.503666259765625,0.2853768765926361,-0.08707445114850998,-0.04406679421663284
1772457863724734200,9.513734130859374,0.26943811774253845,-0.08023278415203094,-0.04682742804288864
1772457863734802200,9.52380224609375,0.2388187050819397,-0.0801832526922226,-0.033486854285001755
1772457863744870100,9.5338701171875,0.20546233654022217,-0.09035812318325043,-0.018751850351691246
1772457863754938000,9.543938232421874,0.16322061419487,-0.10481856018304825,-0.001621066126972437
1772457863765006300,9.55400634765625,0.12428972870111465,-0.11801345646381378,0.019631225615739822
1772457863775074300,9.56407421875,0.08418092131614685,-0.13124696910381317,0.04097006842494011
1772457863785141200,9.574141357421874,0.04803943261504173,-0.1522076427936554,0.05716129019856453
1772457863795209200,9.584209228515626,0.015297196805477142,-0.164788156747818,0.07010771334171295
1772457863805277400,9.59427734375,-0.01241991762071848,-0.1614954173564911,0.07710490375757217
1772457863815345400,9.604345458984374,-0.03840384632349014,-0.15911509096622467,0.08423098921775818
1772457863825413000,9.6144130859375,-0.06006573513150215,-0.16605475544929504,0.09545355290174484
1772457863835481000,9.624481201171875,-0.07082223892211914,-0.18192799389362335,0.10230932384729385
1772457863845549300,9.63454931640625,-0.08813624829053879,-0.20663467049598694,0.10848519951105118
1772457863855617300,9.6446171875,-0.10934619605541229,-0.22153158485889435,0.11759401112794876
1772457863865685200,9.654685302734375,-0.13501854240894318,-0.22850960493087769,0.12530119717121124
1772457863875752200,9.664752197265624,-0.15879444777965546,-0.2433716356754303,0.12723438441753387
1772457863885820200,9.674820068359375,-0.18663592636585236,-0.2610076367855072,0.11183705180883408
1772457863895888400,9.684888427734375,-0.21762846410274506,-0.2666415572166443,0.07870866358280182
1772457863905956400,9.694956298828124,-0.2478601336479187,-0.24570989608764648,0.04905276373028755
1772457863916024300,9.7050244140625,-0.26916542649269104,-0.20890741050243378,0.013438843190670013
1772457863926092000,9.715092041015625,-0.2935360074043274,-0.17172595858573914,-0.012226305902004242
1772457863936160300,9.72516015625,-0.31321144104003906,-0.12037009000778198,-0.023201726377010345
1772457863946228200,9.735228271484376,-0.3299936056137085,-0.06787598878145218,-0.024384435266256332
1772457863956295200,9.745295166015625,-0.3369812071323395,-0.01919872872531414,-0.008615592494606972
1772457863966363100,9.755363037109374,-0.33538493514060974,0.011178085580468178,0.021766813471913338
1772457863976431000,9.76543115234375,-0.3205271363258362,0.03386662155389786,0.07072876393795013
1772457863986499300,9.775499267578125,-0.28911224007606506,0.023693878203630447,0.13676823675632477
1772457863996567300,9.7855673828125,-0.24840502440929413,-0.09976228326559067,0.17457926273345947
1772457864006635300,9.79563525390625,-0.21551364660263062,-0.2793818414211273,0.18145553767681122
1772457864016703200,9.805703125,-0.18933025002479553,-0.402199387550354,0.17938973009586334
1772457864026771200,9.815771240234374,-0.166804701089859,-0.4270373582839966,0.17165298759937286
1772457864036839200,9.825839111328126,-0.1442921906709671,-0.38186267018318176,0.16115213930606842
1772457864046906000,9.835906005859375,-0.11268606781959534,-0.32299697399139404,0.14033474028110504
1772457864056974000,9.84597412109375,-0.08397132903337479,-0.2799445688724518,0.11238379776477814
1772457864067042300,9.856042236328125,-0.05679856613278389,-0.2339800000190735,0.08322112262248993
1772457864077110300,9.8661103515625,-0.03929494321346283,-0.2105436623096466,0.057489924132823944
1772457864087178200,9.87617822265625,-0.027875039726495743,-0.21363238990306854,0.019171563908457756
1772457864097246200,9.88624609375,-0.030083067715168,-0.23768818378448486,-0.0371905118227005
1772457864107314400,9.896314453125,-0.04601356387138367,-0.27423128485679626,-0.10501936078071594
1772457864117382400,9.90638232421875,-0.061470016837120056,-0.29168909788131714,-0.19167862832546234
1772457864127450000,9.9164501953125,-0.0754883661866188,-0.27616366744041443,-0.2726019620895386
1772457864137517300,9.926517333984375,-0.08226904273033142,-0.210517019033432,-0.31791138648986816
1772457864147585300,9.936585205078124,-0.08160431683063507,-0.10429365187883377,-0.33690905570983887
1772457864157653200,9.9466533203125,-0.07484015077352524,0.028307538479566574,-0.3155806064605713
1772457864167721200,9.95672119140625,-0.058419369161129,0.150629460811615,-0.25877535343170166
1772457864177789200,9.9667890625,-0.02725292555987835,0.2235574573278427,-0.18225476145744324
1772457864187857200,9.976857177734376,0.02334047667682171,0.23212137818336487,-0.09511905908584595
1772457864197925400,9.98692529296875,0.08169406652450562,0.1998571902513504,0.00939110480248928
1772457864207993300,9.996993408203124,0.14365249872207642,0.12241113185882568,0.1280921846628189
1772457864218060300,10.007060302734375,0.19648562371730804,0.015663648024201393,0.25069135427474976
1772457864228128300,10.017128173828125,0.2340809404850006,-0.12107289582490921,0.37071362137794495
1772457864238196200,10.0271962890625,0.2567809224128723,-0.24998800456523895,0.483158677816391
1772457864248264200,10.03726416015625,0.25970348715782166,-0.3563213646411896,0.5679265260696411
1772457864258332200,10.047332275390625,0.24928785860538483,-0.4191994071006775,0.6086912751197815
1772457864268400000,10.057400146484374,0.22851093113422394,-0.4402913749217987,0.6104987859725952
1772457864278468000,10.067468017578125,0.20511959493160248,-0.4253595471382141,0.5718289017677307
1772457864288536300,10.077536376953125,0.18246302008628845,-0.4045320451259613,0.5071196556091309
1772457864298604300,10.087604248046874,0.1583355814218521,-0.36555373668670654,0.4257398545742035
1772457864308671200,10.097671142578125,0.1425827145576477,-0.3083796799182892,0.3438521921634674
1772457864318739200,10.1077392578125,0.13567447662353516,-0.2320854365825653,0.27271753549575806
1772457864328807200,10.11780712890625,0.1377144604921341,-0.1348387748003006,0.2167605310678482
1772457864338875400,10.12787548828125,0.13992834091186523,-0.03202185034751892,0.16936399042606354
1772457864348943400,10.137943359375,0.13138465583324432,0.07115833461284637,0.12703970074653625
1772457864359011000,10.148010986328124,0.10809344798326492,0.1534223109483719,0.07380791008472443
1772457864369079000,10.1580791015625,0.08498093485832214,0.1796264797449112,0.013201289810240269
1772457864379147300,10.168147216796875,0.07044274359941483,0.1734415590763092,-0.04237142577767372
1772457864389214200,10.178214111328124,0.06563840061426163,0.15405693650245667,-0.09285164624452591
1772457864399282200,10.1882822265625,0.06735853105783463,0.15274479985237122,-0.1336299628019333
1772457864409350100,10.19835009765625,0.08336146920919418,0.1441880613565445,-0.17057760059833527
1772457864419418000,10.208418212890624,0.09711270034313202,0.12373339384794235,-0.20204870402812958
1772457864429486300,10.218486328125,0.11140748113393784,0.07721835374832153,-0.236068993806839
1772457864439554300,10.22855419921875,0.12100125849246979,0.015848204493522644,-0.27911072969436646
1772457864449622300,10.238622314453124,0.1337474137544632,-0.03949175029993057,-0.32809293270111084
1772457864459690000,10.24868994140625,0.14900678396224976,-0.0725996345281601,-0.36678600311279297
1772457864469758200,10.25875830078125,0.16598443686962128,-0.09153684228658676,-0.40269020199775696
1772457864479825200,10.2688251953125,0.18213917315006256,-0.09526846557855606,-0.4258463680744171
1772457864489893000,10.27889306640625,0.19496069848537445,-0.07489874213933945,-0.43308138847351074
1772457864499961000,10.288961181640625,0.2082781046628952,-0.03810424357652664,-0.4129662811756134
1772457864510029000,10.299029052734374,0.22059708833694458,0.005677592940628529,-0.3844102621078491
1772457864520097300,10.30909716796875,0.22998127341270447,0.03592630848288536,-0.35562148690223694
1772457864530165200,10.319165283203125,0.24056360125541687,0.03689197078347206,-0.35069170594215393
1772457864540233200,10.329233154296874,0.24535436928272247,0.03731647878885269,-0.34419092535972595
1772457864550301200,10.33930126953125,0.23577497899532318,0.04074423387646675,-0.3366616368293762
1772457864560369200,10.349369140625,0.2220168262720108,0.04319647327065468,-0.3290886878967285
1772457864570436400,10.359436279296874,0.20610709488391876,0.023861125111579895,-0.32396823167800903
1772457864580504000,10.369504150390625,0.19408585131168365,-0.027188478037714958,-0.31302449107170105
1772457864590572000,10.379572021484375,0.18572059273719788,-0.09276029467582703,-0.29201799631118774
1772457864600640300,10.38964013671875,0.18777309358119965,-0.14116191864013672,-0.27422595024108887
1772457864610708200,10.399708251953125,0.1992952674627304,-0.16019073128700256,-0.23957876861095428
1772457864620776200,10.409776123046875,0.20503464341163635,-0.15574592351913452,-0.19851228594779968
1772457864630844200,10.41984423828125,0.20992021262645721,-0.13274367153644562,-0.15905490517616272
1772457864640912400,10.429912353515626,0.2156955450773239,-0.11272255331277847,-0.12978382408618927
1772457864650979300,10.439979248046875,0.23552197217941284,-0.09467484056949615,-0.107136569917202
1772457864661047300,10.45004736328125,0.2600763142108917,-0.05808966979384422,-0.08738310635089874
1772457864671115300,10.460115234375,0.28854498267173767,-0.011563445441424847,-0.0650961771607399
1772457864681183000,10.470182861328125,0.31622347235679626,0.013410081155598164,-0.04271017760038376
1772457864691251200,10.480251220703124,0.34838488698005676,0.026815103366971016,-0.022478410974144936
1772457864701319200,10.490319091796875,0.39260268211364746,0.02966628223657608,0.0011728560784831643
1772457864711387100,10.50038720703125,0.4412365257740021,0.029824741184711456,0.02798156626522541
1772457864721455000,10.510455078125,0.47060880064964294,0.05336175858974457,0.05535460263490677
1772457864731523300,10.5205234375,0.48958009481430054,0.10720634460449219,0.08955278247594833
1772457864741590300,10.53059033203125,0.496533066034317,0.15188433229923248,0.11761478334665298
1772457864751658200,10.540658203125,0.49415379762649536,0.1803141087293625,0.13518312573432922
1772457864761726200,10.550726318359375,0.4892311990261078,0.19482381641864777,0.1489631086587906
1772457864771794200,10.560794189453125,0.47513988614082336,0.18103688955307007,0.1520683616399765
1772457864781862100,10.570862060546874,0.45732468366622925,0.15033064782619476,0.1392604261636734
1772457864791930000,10.58093017578125,0.44377025961875916,0.13862019777297974,0.12051070481538773
1772457864801998000,10.590998046875,0.4373839795589447,0.14085619151592255,0.10230852663516998
1772457864812066000,10.601066162109374,0.4383901357650757,0.13565875589847565,0.07982399314641953
1772457864822134300,10.61113427734375,0.4497349262237549,0.13121049106121063,0.042998865246772766
1772457864832201200,10.621201171875,0.4563339948654175,0.13619592785835266,0.012527509592473507
1772457864842269200,10.631269287109374,0.46291863918304443,0.15645858645439148,-0.018281003460288048
1772457864852337200,10.641337158203125,0.45922937989234924,0.1807253062725067,-0.04583646357059479
1772457864862405400,10.6514052734375,0.4485847055912018,0.21811369061470032,-0.05615914240479469
1772457864872473300,10.661473388671874,0.4353461265563965,0.24650564789772034,-0.04976675659418106
1772457864882541000,10.671541015625,0.4158208966255188,0.2491762638092041,-0.03911304846405983
1772457864892609000,10.681609130859375,0.39984381198883057,0.21048852801322937,-0.03157736733555794
1772457864902677200,10.69167724609375,0.3896063566207886,0.16978077590465546,-0.030296387150883675
1772457864912745200,10.7017451171875,0.3903360664844513,0.13624785840511322,-0.04017964377999306
1772457864922812200,10.711812255859375,0.3989095687866211,0.1140565276145935,-0.06815002858638763
1772457864932880100,10.721880126953126,0.4038340151309967,0.12663383781909943,-0.0997963696718216
1772457864942948000,10.731947998046875,0.38772696256637573,0.1522715538740158,-0.12062228471040726
1772457864953016300,10.742016357421875,0.3643196225166321,0.17139439284801483,-0.13488724827766418
1772457864963084300,10.752084228515624,0.3427480161190033,0.18893024325370789,-0.1366097778081894
1772457864973152300,10.76215234375,0.33002984523773193,0.20247720181941986,-0.13995683193206787
1772457864983220200,10.77222021484375,0.31899821758270264,0.21941597759723663,-0.13711658120155334
1772457864993288200,10.7822880859375,0.29765698313713074,0.23160099983215332,-0.13745106756687164
1772457865003356200,10.792356201171875,0.2802806496620178,0.24346405267715454,-0.14175207912921906
1772457865013423000,10.802423095703125,0.25883448123931885,0.24697835743427277,-0.15063850581645966
1772457865023491000,10.812490966796876,0.239244282245636,0.27369359135627747,-0.14695189893245697
1772457865033559000,10.82255908203125,0.22558066248893738,0.3039689362049103,-0.12439864873886108
1772457865043627300,10.832627197265625,0.20564131438732147,0.30801376700401306,-0.10200679302215576
1772457865053695200,10.8426953125,0.17794735729694366,0.2946891486644745,-0.07218391448259354
1772457865063763200,10.85276318359375,0.1438290774822235,0.27368107438087463,-0.03906644135713577
1772457865073831200,10.8628310546875,0.09868583083152771,0.2417662888765335,-0.003457582090049982
1772457865083899100,10.872899169921874,0.07395545393228531,0.2504814863204956,0.04673821106553078
1772457865093966300,10.88296630859375,0.07469075173139572,0.31670525670051575,0.09472677856683731
1772457865104034300,10.893034423828125,0.09896333515644073,0.4063538908958435,0.14448606967926025
1772457865114102000,10.90310205078125,0.12273044884204865,0.454469233751297,0.1759081780910492
1772457865124170200,10.913170166015625,0.15735207498073578,0.4772006571292877,0.18155141174793243
1772457865134238200,10.92323828125,0.19128847122192383,0.49734026193618774,0.18244491517543793
1772457865144306200,10.93330615234375,0.22708241641521454,0.4974476099014282,0.1830126941204071
1772457865154374100,10.9433740234375,0.23036129772663116,0.47818148136138916,0.19103467464447021
1772457865164442400,10.9534423828125,0.20328041911125183,0.4283241927623749,0.2047576755285263
1772457865174510300,10.96351025390625,0.14943023025989532,0.39432573318481445,0.2302505075931549
1772457865184578300,10.973578369140625,0.10123234242200851,0.36338114738464355,0.26390329003334045
1772457865194645200,10.983645263671875,0.0731988474726677,0.3058241009712219,0.2902289032936096
1772457865204713200,10.993713134765626,0.053110089153051376,0.24827532470226288,0.31138426065444946
1772457865214781200,11.00378125,0.04968739673495293,0.20201808214187622,0.3188647925853729
1772457865224849400,11.013849365234375,0.05378866195678711,0.19465364515781403,0.3254697024822235
1772457865234917400,11.02391748046875,0.0712166577577591,0.23448866605758667,0.3232249319553375
1772457865244985300,11.0339853515625,0.10049012303352356,0.30261099338531494,0.3188546895980835
1772457865255053600,11.044053466796875,0.14081624150276184,0.3534044027328491,0.3168139159679413
1772457865265121500,11.05412158203125,0.18089334666728973,0.38393062353134155,0.32011860609054565
1772457865275189500,11.064189453125,0.2151983231306076,0.3728097975254059,0.3450798988342285
1772457865285256400,11.07425634765625,0.24155935645103455,0.32428035140037537,0.37888607382774353
1772457865295324400,11.084324462890624,0.2600315809249878,0.25411564111709595,0.4060806632041931
1772457865305392400,11.094392333984375,0.2685164213180542,0.18469448387622833,0.4304161071777344
1772457865315460400,11.10446044921875,0.2635951638221741,0.12775635719299316,0.4480757713317871
1772457865325528300,11.1145283203125,0.24860289692878723,0.08807766437530518,0.45775237679481506
1772457865335596500,11.124596435546875,0.23824426531791687,0.06052832305431366,0.44226741790771484
1772457865345664500,11.13466455078125,0.2254786640405655,0.030100909993052483,0.4141431152820587
1772457865355732500,11.144732421875,0.2132803201675415,-0.010573548264801502,0.35293301939964294
1772457865365800400,11.154800537109375,0.20095840096473694,-0.04073038697242737,0.2839542329311371
1772457865375867400,11.164867431640625,0.18271255493164062,-0.03681980073451996,0.21171970665454865
1772457865385935600,11.174935546875,0.17362718284130096,0.0028583707753568888,0.14524561166763306
1772457865396003600,11.185003662109375,0.16384512186050415,0.08671731501817703,0.10395356267690659
1772457865406071600,11.195071533203125,0.1658422350883484,0.1633809357881546,0.07372508943080902
1772457865416139300,11.20513916015625,0.15961097180843353,0.2207038849592209,0.03687279671430588
1772457865426207500,11.21520751953125,0.1517365276813507,0.27292659878730774,0.009341570548713207
1772457865436275500,11.225275390625,0.14492149651050568,0.31982195377349854,-0.00247594085521996
1772457865446343400,11.235343505859374,0.14502456784248352,0.35121262073516846,0.0014330470003187656
1772457865456411400,11.245411376953125,0.14691168069839478,0.3702544867992401,0.023029951378703117
1772457865466478300,11.255478271484375,0.15868711471557617,0.34843921661376953,0.05029832571744919
1772457865476546600,11.265546630859374,0.16378706693649292,0.3088313341140747,0.0837034210562706
1772457865486614500,11.275614501953125,0.16221021115779877,0.24895548820495605,0.12059299647808075
1772457865496682500,11.2856826171875,0.15058284997940063,0.20891433954238892,0.15517547726631165
1772457865506750500,11.29575048828125,0.14889787137508392,0.1546684056520462,0.17956550419330597
1772457865516818400,11.305818359375,0.15140816569328308,0.10728731006383896,0.19093932211399078
1772457865526886400,11.315886474609375,0.15843304991722107,0.07138070464134216,0.1876431405544281
1772457865536954400,11.325954345703124,0.16626913845539093,0.043891292065382004,0.1760741025209427
1772457865547022300,11.336022216796875,0.1728665828704834,0.008164718747138977,0.14901424944400787
1772457865557089300,11.34608935546875,0.17114324867725372,-0.02232714369893074,0.09850500524044037
1772457865567157500,11.356157470703126,0.17428897321224213,-0.057673148810863495,0.025065938010811806
1772457865577225500,11.3662255859375,0.16651681065559387,-0.09467590600252151,-0.072484590113163
1772457865587293400,11.37629345703125,0.1475372612476349,-0.11808162927627563,-0.18874861299991608
1772457865597361400,11.386361328125,0.12269822508096695,-0.09680004417896271,-0.31556302309036255
1772457865607429600,11.3964296875,0.09808208793401718,-0.028202610090374947,-0.41619375348091125
1772457865617497300,11.406497314453125,0.06490948796272278,0.055272042751312256,-0.49428030848503113
1772457865627565300,11.4165654296875,0.05655169114470482,0.17584799230098724,-0.5250241160392761
1772457865637633500,11.426633544921875,0.06293795257806778,0.29604336619377136,-0.5079140663146973
1772457865647700500,11.436700439453125,0.0808386579155922,0.385130375623703,-0.45562317967414856
1772457865657768400,11.4467685546875,0.08886303007602692,0.3746284544467926,-0.37163639068603516
1772457865667836400,11.45683642578125,0.0760529562830925,0.2760382294654846,-0.2606411874294281
1772457865677904400,11.466904296875,0.04525402933359146,0.02209118753671646,-0.21115484833717346
1772457865687972600,11.47697265625,0.02876213937997818,-0.13151249289512634,-0.14981719851493835
1772457865698040600,11.48704052734375,0.026797259226441383,-0.24827025830745697,-0.07645722478628159
1772457865708108500,11.497108642578125,0.03365037217736244,-0.29464733600616455,0.004165716469287872
1772457865718176300,11.50717626953125,0.03907123580574989,-0.2964361906051636,0.07084967195987701
1772457865728244500,11.517244384765625,0.04133172705769539,-0.26777419447898865,0.11834847927093506
1772457865738312400,11.5273125,0.0327981598675251,-0.20200476050376892,0.1537110060453415
1772457865748379400,11.53737939453125,0.013080115430057049,-0.16641826927661896,0.16226826608181
1772457865758447400,11.547447265625,-0.007499195169657469,-0.22482885420322418,0.14086923003196716
1772457865768515300,11.557515380859375,-0.041072867810726166,-0.317626953125,0.09527139365673065
1772457865778583600,11.56758349609375,-0.07312294840812683,-0.36536943912506104,0.05545952916145325
