time,seconds_elapsed,z,y,x
1772562877322348800,0.057348876953125,-0.005336974747478962,0.04961974918842316,0.008638495579361916
1772562877332417000,0.0674169921875,-0.004704207647591829,-0.006841660942882299,-0.00013608753215521574
1772562877342484000,0.07748388671875,-0.0015076154377311468,-0.05191512778401375,-0.0037880802992731333
1772562877352551000,0.087551025390625,-0.0034053840208798647,-0.05356655642390251,-0.004643221385776997
1772562877362617900,0.097617919921875,-0.0036946034524589777,-0.014681740663945675,0.0004551342281047255
1772562877372685000,0.10768505859375,-0.003686347510665655,0.030702251940965652,0.01010669581592083
1772562877382752800,0.117752685546875,-0.005307679995894432,0.03954660892486572,0.0049098036251962185
1772562877392820000,0.127820068359375,-0.0033510555513203144,0.009665144607424736,0.003802194958552718
1772562877402887000,0.137886962890625,-0.0022298647090792656,-0.031315311789512634,0.001564873498864472
1772562877412953900,0.147953857421875,-0.0008154599345289171,-0.04164997488260269,-0.0006255765329115093
1772562877423020800,0.158020751953125,-0.0020567593164741993,-0.01907063089311123,0.003989415243268013
1772562877433089000,0.168089111328125,-0.004350007511675358,0.013080914504826069,0.004038683604449034
1772562877443156000,0.178156005859375,-0.00279072648845613,0.026267556473612785,0.005192098673433065
1772562877453223000,0.188222900390625,-0.001719869440421462,0.01167423278093338,0.004744421225041151
1772562877463289900,0.198289794921875,-0.0024056334514170885,-0.016695089638233185,-0.000005326322025211994
1772562877473357800,0.20835791015625,-0.002629871480166912,-0.031095601618289948,0.003221093211323023
1772562877483425000,0.218425048828125,-0.0035273567773401737,-0.01974041573703289,0.002415487077087164
1772562877493492000,0.228491943359375,-0.0038088529836386442,0.0029166939202696085,0.0007219829712994397
1772562877503559000,0.238558837890625,-0.0046786414459347725,0.016596820205450058,0.009851831942796707
1772562877513625900,0.2486259765625,-0.0034202977549284697,0.010548514313995838,0.005438441410660744
1772562877523694000,0.258694091796875,-0.003233876544982195,-0.00854315422475338,0.004181961994618177
1772562877533761000,0.268760986328125,-0.002682868391275406,-0.02149144373834133,0.0009416937828063965
1772562877543828000,0.278827880859375,-0.0030956584960222244,-0.01824265345931053,0.0035031221341341734
1772562877553895000,0.28889501953125,-0.0034732946660369635,-0.0025656893849372864,0.004774515051394701
1772562877563963000,0.298962890625,-0.0028991170693188906,0.008597216568887234,0.00148151651956141
1772562877574029800,0.30902978515625,-0.004960670135915279,0.006661364808678627,0.005419799126684666
1772562877584097000,0.319096923828125,-0.0027478495612740517,-0.0018018947448581457,0.0021638183388859034
1772562877594164000,0.3291640625,-0.004193413536995649,-0.01278796698898077,0.003057841444388032
1772562877604231000,0.33923095703125,-0.004537493921816349,-0.016534501686692238,0.0018109495285898447
1772562877614299000,0.349298828125,-0.0019949739798903465,-0.0062421830371022224,0.003495132550597191
1772562877624366000,0.359365966796875,-0.005279982928186655,0.0023270701058208942,0.0059745353646576405
1772562877634433000,0.36943310546875,-0.0018783274572342634,0.004458930809050798,0.007822503335773945
1772562877644500000,0.3795,-0.003171025775372982,-0.0043801008723676205,0.008173241280019283
1772562877654567000,0.38956689453125,-0.0036365464329719543,-0.011482485570013523,0.003215234261006117
1772562877664635000,0.399634765625,-0.004172640852630138,-0.0128145981580019,-0.0003701793903019279
1772562877674701800,0.409701904296875,-0.0032415995374321938,-0.00809148233383894,0.0031878037843853235
1772562877684769000,0.41976904296875,-0.00290364446118474,-0.002160090021789074,0.004566788673400879
1772562877694836000,0.4298359375,-0.0016618125373497605,-0.0001280980504816398,0.006038983818143606
1772562877704904000,0.439904052734375,-0.002755040070042014,-0.0007648598402738571,0.0018871158827096224
1772562877714971000,0.449970947265625,0.00041039311327040195,-0.008381767198443413,0.0008900284301489592
1772562877725038000,0.4600380859375,-0.002176867797970772,-0.012223643250763416,0.004787564743310213
1772562877735105000,0.47010498046875,-0.0022298647090792656,-0.007990282028913498,0.0024461133871227503
1772562877745172000,0.480171875,-0.002007757080718875,-0.0007723167072981596,0.004225105047225952
1772562877755240000,0.490239990234375,-0.0022892532870173454,0.0024711471050977707,0.006091448478400707
1772562877765307000,0.500306884765625,-0.004131894558668137,-0.002074069809168577,0.0011552792275324464
1772562877775373800,0.510373779296875,-0.004116714466363192,-0.008913866244256496,0.0019600866362452507
1772562877785441000,0.52044091796875,-0.003466636873781681,-0.009762882255017757,0.004070375580340624
1772562877795508700,0.5305087890625,-0.0014602112350985408,-0.00771863991394639,0.0028003137558698654
1772562877805576000,0.540575927734375,-0.0025686188600957394,-0.0030692932195961475,0.0035894084721803665
1772562877815643000,0.550642822265625,-0.0024311996530741453,-0.001585912425071001,0.0008623315370641649
1772562877825709800,0.560709716796875,-0.004762530792504549,-0.002659432590007782,0.0013257216196507215
1772562877835777000,0.570777099609375,-0.0025925873778760433,-0.003213103860616684,0.0019025622168555856
1772562877845845000,0.580844970703125,-0.002151301596313715,-0.007770305033773184,0.006219279952347279
1772562877855912000,0.590911865234375,-0.0035217641852796078,-0.00768774701282382,0.00279019377194345
1772562877865979000,0.600978759765625,-0.002662628423422575,-0.006626477465033531,0.0029228192288428545
1772562877876045800,0.6110458984375,-0.004205930046737194,-0.004312722943723202,0.004692489746958017
1772562877886113000,0.621113037109375,-0.003403519745916128,-0.004709267523139715,0.003070092061534524
1772562877896181000,0.631180908203125,-0.002686064224690199,-0.0034586472902446985,0.003656253917142749
1772562877906248000,0.641248046875,-0.004275971557945013,-0.008220379240810871,0.005588909611105919
1772562877916315000,0.65131494140625,-0.0016562198288738728,-0.005964948330074549,-0.00019494339358061552
1772562877926381800,0.6613818359375,-0.0034669029992073774,-0.007153517100960016,0.00318886898458004
1772562877936450000,0.671449951171875,0.00011957593233091757,-0.003689010627567768,0.000987766426987946
1772562877946517000,0.68151708984375,-0.0038693067617714405,-0.0034882084000855684,0.004208327271044254
1772562877956584000,0.691583984375,-0.00421285443007946,-0.0026011094450950623,0.0041308291256427765
1772562877966651000,0.70165087890625,-0.005730057135224342,-0.004503405187278986,0.0031377363484352827
1772562877976717800,0.7117177734375,-0.0025007082149386406,-0.007861917838454247,0.0009861685102805495
1772562877986785800,0.721785888671875,-0.003893541404977441,-0.006372411735355854,0.003751861397176981
1772562877996852700,0.731852783203125,-0.0016783240716904402,-0.0029646309558302164,0.002516420790925622
1772562878006919700,0.741919677734375,-0.00421232171356678,-0.006396912969648838,0.0048858351074159145
1772562878016986600,0.751986572265625,-0.0035087147261947393,-0.005288239102810621,0.003319630166515708
1772562878027054800,0.762054931640625,-0.0020623519085347652,-0.0068150293081998825,0.004203533288091421
1772562878037121800,0.772121826171875,-0.005652559455484152,-0.00509755639359355,0.004083691164851189
1772562878047188700,0.782188720703125,-0.0038956720381975174,-0.004828311037272215,0.002216815249994397
1772562878057255700,0.792255615234375,-0.005407814867794514,-0.00452684098854661,0.004322310443967581
1772562878067322600,0.802322509765625,-0.005832056514918804,-0.003967311233282089,0.0037140443455427885
1772562878077390600,0.812390625,-0.00350392097607255,-0.001933987601660192,0.003966245800256729
1772562878087457500,0.82245751953125,-0.004502606578171253,-0.006111422087997198,0.003064765827730298
1772562878097524700,0.832524658203125,-0.0025129588320851326,-0.005452289711683989,0.0009033442474901676
1772562878107591700,0.842591796875,-0.0054240599274635315,-0.0060115535743534565,0.0017206683987751603
1772562878117659600,0.85265966796875,-0.0017965685110539198,-0.0051963599398732185,0.005426190793514252
1772562878127726800,0.862726806640625,-0.0005880259559489787,-0.0044394894503057,0.0020719394087791443
1772562878137793800,0.872793701171875,-0.004575843457132578,-0.005289037711918354,0.00535348616540432
1772562878147860700,0.88286083984375,-0.0009036105475388467,-0.005003813188523054,0.001398425898514688
1772562878157927700,0.892927734375,-0.0041276332922279835,-0.004292216617614031,0.0026349315885454416
1772562878167995600,0.90299560546875,-0.001674861996434629,-0.006586529780179262,0.003172357566654682
1772562878178062600,0.9130625,-0.003989681601524353,-0.005050418432801962,0.0020642161834985018
1772562878188129500,0.923129638671875,-0.0038253646343946457,-0.005005411338061094,0.005471730604767799
1772562878198196700,0.93319677734375,-0.0034887411165982485,-0.004000866785645485,0.004288488067686558
1772562878208263700,0.943263671875,-0.003931092098355293,-0.006149238906800747,0.0033065807074308395
1772562878218331600,0.95333154296875,-0.0005850964807905257,-0.00555322365835309,0.0018402442801743746
1772562878228398800,0.96339892578125,-0.004066380672156811,-0.007051251363009214,0.0022011026740074158
1772562878238465800,0.9734658203125,-0.002555835759267211,-0.004442152567207813,0.0031646343413740396
1772562878248532700,0.98353271484375,-0.0016753945965319872,-0.006360960192978382,0.001106809708289802
1772562878258600700,0.9936005859375,-0.002773682354018092,-0.0043595945462584496,0.0025566346012055874
1772562878268667600,1.003667724609375,-0.0032743564806878567,-0.004317516926676035,0.001449292292818427
1772562878278734600,1.013734619140625,-0.004451740067452192,-0.01722026616334915,0.004601409658789635
1772562878288801800,1.0238017578125,-0.00230816169641912,-0.032591499388217926,-0.003894074121490121
1772562878298868700,1.03386865234375,-0.003341201925650239,-0.012484366074204445,0.0028581044171005487
1772562878308936700,1.043936767578125,-0.002055694116279483,0.02666623145341873,0.013711018487811089
1772562878319003600,1.054003662109375,-0.005606220569461584,0.03999828174710274,0.0010050770360976458
1772562878329070600,1.064070556640625,-0.0009182579233311117,0.003961185924708843,0.0014205301413312554
1772562878339137800,1.0741376953125,-0.0023848607670515776,-0.04096074774861336,0.00433056615293026
1772562878349205800,1.084205810546875,-0.003126284806057811,-0.0389721654355526,-0.0007185208378359675
1772562878359272700,1.094272705078125,-0.0043798345141112804,-0.008023039437830448,-0.0010820423485711217
1772562878369339600,1.104339599609375,-0.0056980992667376995,0.016753679141402245,0.006514624692499638
1772562878379406600,1.114406494140625,-0.001924666459672153,0.021151358261704445,0.0043960800394415855
1772562878389473800,1.124473876953125,-0.0037087181117385626,0.003192331176251173,0.002681004349142313
1772562878399541500,1.13454150390625,-0.0007251787465065718,-0.01543781254440546,-0.0022216090001165867
1772562878409608700,1.144608642578125,-0.003005377249792218,-0.02388615719974041,-0.0006511429091915488
1772562878419675600,1.154675537109375,-0.0033161682076752186,-0.01804238371551037,0.005097024142742157
1772562878429742600,1.16474267578125,-0.0036724992096424103,0.0011411645682528615,0.0036663739010691643
1772562878439810800,1.174810791015625,-0.006200105417519808,0.01378212496638298,0.003606186481192708
1772562878449877800,1.184877685546875,-0.002700445242226124,0.005452289711683989,0.006268548313528299
1772562878459944700,1.19494482421875,-0.0032738239970058203,-0.011529623530805111,0.005044027231633663
1772562878470011600,1.20501171875,-0.002749181119725108,-0.019874371588230133,-0.0001877528557088226
1772562878480078600,1.21507861328125,-0.0023987090680748224,-0.011480088345706463,-0.0007869640830904245
1772562878490146600,1.225146484375,-0.0034914042335003614,-0.0005478122038766742,0.003650394966825843
1772562878500213500,1.235213623046875,-0.003424292430281639,0.004567055031657219,0.004196875728666782
1772562878510280700,1.24528076171875,-0.0031108383554965258,0.001020257011987269,0.001981391804292798
1772562878520347600,1.25534765625,-0.002715625334531069,-0.0059598879888653755,0.0013020194601267576
1772562878530414600,1.26541455078125,-0.0033249566331505775,-0.013528059236705303,0.002829608740285039
1772562878540482800,1.27548291015625,-0.0032679650466889143,-0.0142329977825284,0.006104764062911272
1772562878550549800,1.2855498046875,-0.0046964846551418304,-0.004458131734281778,0.00029108350281603634
1772562878560616700,1.29561669921875,-0.00387383415363729,0.0038136467337608337,0.0007611314067617059
1772562878570683600,1.30568359375,-0.004287156742066145,0.002351038623601198,0.004920722916722298
1772562878580751600,1.315751708984375,-0.0037760960403829813,-0.007424094248563051,0.003564374754205346
1772562878590818600,1.325818603515625,-0.001927595934830606,-0.011657188646495342,0.003780623432248831
1772562878600885500,1.335885498046875,-0.003002181416377425,-0.011269432492554188,0.0040884846821427345
1772562878610952700,1.34595263671875,-0.0016402408946305513,-0.0052048820070922375,0.0018775284988805652
1772562878621020700,1.356020751953125,-0.0019257317762821913,0.002511627273634076,0.0030027141328901052
1772562878631087900,1.366087890625,-0.0034882084000855684,-0.0011329087428748608,0.0034991272259503603
1772562878641154800,1.37615478515625,-0.0041643851436674595,-0.0034298852551728487,0.002292981604114175
1772562878651221800,1.3862216796875,-0.004729507956653833,-0.010212955996394157,0.002770220162346959
1772562878661288700,1.396288818359375,-0.00270736962556839,-0.010330401360988617,0.002189118415117264
1772562878671356700,1.406356689453125,-0.0008375641773454845,-0.00887684803456068,0.004165716469287872
1772562878681423600,1.416423583984375,-0.0019180085510015488,-0.0002801645314320922,0.0032354744616895914
1772562878691490600,1.426490478515625,-0.004260791465640068,0.0008037420338951051,0.005618204362690449
1772562878701557800,1.436557861328125,-0.0033039175905287266,-0.0017299894243478775,0.00012996226723771542
1772562878711624700,1.446624755859375,-0.0031521173659712076,-0.007485613226890564,0.0004522047529462725
1772562878721693000,1.45669287109375,-0.005604089703410864,-0.0095069520175457,0.0007872303831391037
1772562878731759900,1.466759765625,-0.0042719766497612,-0.007772968150675297,0.0025385250337421894
1772562878741826800,1.476826904296875,-0.0035396073944866657,-0.0033135050907731056,0.002594451420009136
1772562878751893800,1.486893798828125,-0.0010404969798400998,0.0001371527905575931,0.005362274590879679
1772562878761961700,1.496961669921875,-0.004487692844122648,-0.0014410364674404263,0.004836566746234894
1772562878772028700,1.507028564453125,-0.004236556589603424,-0.0057710702531039715,0.0042131207883358
1772562878782095600,1.517095703125,-0.004548412747681141,-0.006420082412660122,0.0013731258222833276
1772562878792162600,1.52716259765625,-0.001900964416563511,-0.009827863425016403,0.004430434666574001
1772562878802229800,1.537229736328125,-0.0032898029312491417,-0.005824067164212465,0.0036131106317043304
1772562878812297500,1.54729736328125,-0.002260757377371192,-0.001139566651545465,0.00395612558349967
1772562878822364700,1.55736474609375,-0.004584365524351597,-0.002922020386904478,0.005628857295960188
1772562878832431900,1.567431884765625,-0.0015933692920953035,-0.00509835546836257,0.002877012826502323
1772562878842498800,1.577498779296875,-0.0033910030033439398,-0.005441370885819197,0.0027451864443719387
1772562878852566800,1.58756689453125,-0.003549461020156741,-0.006411293987184763,0.00036751621519215405
1772562878862633700,1.5976337890625,-0.0037204360123723745,-0.009066731669008732,0.002971555106341839
1772562878872700700,1.60770068359375,-0.0020160130225121975,-0.004816326778382063,0.00276169809512794
1772562878882767600,1.617767578125,-0.0033041839487850666,-0.0020812603179365396,0.0024016385432332754
1772562878892834600,1.62783447265625,-0.0030005834996700287,-0.0038948729634284973,0.0036272252909839153
1772562878902902500,1.637902587890625,-0.004059456288814545,-0.004577973857522011,0.003179814200848341
1772562878912969500,1.647969482421875,-0.0023790018167346716,-0.007591607049107552,0.0010407633380964398
1772562878923036700,1.65803662109375,-0.003341201925650239,-0.003973968792706728,-0.0007137271459214389
1772562878933103900,1.668103759765625,-0.0031220237724483013,-0.004069043789058924,0.0021614215802401304
1772562878943171800,1.678171875,-0.002237854292616248,-0.005774265620857477,0.005530053749680519
1772562878953238800,1.68823876953125,-0.002575543010607362,-0.006101301871240139,0.0026730147656053305
1772562878963305700,1.6983056640625,-0.0041646515019237995,-0.004752677399665117,0.0022423816844820976
1772562878973372700,1.70837255859375,-0.005483714863657951,-0.006311691831797361,0.00404507527127862
1772562878983439600,1.718439697265625,-0.002112419344484806,-0.005517803598195314,0.005528189707547426
1772562878993507800,1.7285078125,-0.004729773849248886,-0.0036360137164592743,0.005774798337370157
1772562879003574800,1.73857470703125,-0.004122573416680098,-0.0036067189648747444,0.00657641002908349
1772562879013641700,1.748641845703125,-0.003038400551304221,-0.0037798245903104544,0.001547030289657414
1772562879023709000,1.758708984375,-0.0009970874525606632,-0.006555370986461639,0.0011667308863252401
1772562879033776600,1.768776611328125,-0.0018407768802717328,-0.006798251066356897,0.002139050979167223
1772562879043843800,1.77884375,-0.00282055395655334,-0.004219512455165386,0.0023696806747466326
1772562879053910800,1.788910888671875,-0.000651675509288907,-0.0017965685110539198,0.005784652195870876
1772562879063978000,1.79897802734375,-0.004070641472935677,-0.005044293589890003,0.0034501252230256796
1772562879074045000,1.809044921875,-0.003891677362844348,-0.005243764258921146,0.0030778152868151665
1772562879084113000,1.81911279296875,-0.0028248149901628494,-0.006154032424092293,0.00210602767765522
1772562879094179800,1.829179931640625,-0.0031406658235937357,-0.006679208017885685,0.0030445256270468235
1772562879104246800,1.839246826171875,-0.0004974784678779542,-0.004641090985387564,-0.0014229270163923502
1772562879114313700,1.849313720703125,-0.004732171073555946,-0.004122839774936438,0.003698598127812147
1772562879124381700,1.859381591796875,-0.003979561384767294,-0.0031462584156543016,0.0006982808117754757
1772562879134448600,1.86944873046875,-0.003163569141179323,-0.005829127039760351,0.0024658208712935448
1772562879144515800,1.879515869140625,-0.00515721132978797,-0.005486111622303724,0.0035454663448035717
1772562879154582800,1.889582763671875,-0.002031725598499179,-0.0046759783290326595,0.0015049523208290339
1772562879164650000,1.89964990234375,-0.003433347214013338,-0.006487726699560881,0.003316967049613595
1772562879174718000,1.909718017578125,-0.0033036512322723866,-0.003890611929818988,0.00440966198220849
1772562879184785000,1.919784912109375,-0.003614442190155387,-0.002731071785092354,0.00173744629137218
1772562879194851800,1.929851806640625,-0.0021752698812633753,-0.0075633772648870945,0.004122839774936438
1772562879204918800,1.939918701171875,-0.00207726564258337,-0.004829376470297575,0.004998486954718828
1772562879214986800,1.94998681640625,-0.0022277343086898327,-0.006734868045896292,0.0020727382507175207
1772562879225053700,1.9600537109375,-0.001898301183246076,-0.005800630897283554,0.002877279184758663
1772562879235121000,1.970120849609375,-0.002132659312337637,-0.005378786474466324,0.004442685283720493
1772562879245187800,1.980187744140625,-0.002183792181313038,-0.004877046681940556,0.0037553233560174704
1772562879255254800,1.9902548828125,-0.0028847360517829657,-0.005918875336647034,0.005508482456207275
1772562879265323000,2.000322998046875,-0.0034996599424630404,-0.003632818115875125,0.005620068870484829
1772562879275390000,2.010389892578125,-0.0030890004709362984,-0.004141481593251228,0.004296744242310524
1772562879285457000,2.020456787109375,-0.0019600866362452507,-0.00498197553679347,0.0038338867016136646
1772562879295523800,2.03052392578125,-0.004595550708472729,-0.007982558570802212,0.0022274679504334927
1772562879305591800,2.040591796875,-0.002752110594883561,-0.004562261048704386,0.0012242551892995834
1772562879315658800,2.05065869140625,-0.001886317040771246,-0.005231780000030994,0.0016338493442162871
1772562879325725700,2.0607255859375,-0.004777178168296814,-0.004245345015078783,0.003920705523341894
1772562879335793000,2.07079296875,-0.0037356161046773195,-0.003947070799767971,0.0033076461404561996
1772562879345859800,2.08085986328125,-0.0011060107499361038,-0.006667756475508213,0.0035214978270232677
1772562879355928000,2.090927978515625,-0.0016700683627277613,-0.004209658596664667,0.004454669542610645
1772562879365995000,2.1009951171875,-0.004562793765217066,-0.005378786474466324,0.01002360600978136
1772562879376062000,2.11106201171875,-0.0020245350897312164,-0.0032439965289086103,0.005783054046332836
1772562879386129000,2.12112890625,-0.005709284916520119,-0.005341502372175455,0.004692489746958017
1772562879396196900,2.13119677734375,-0.004610997159034014,-0.0062584285624325275,0.0006191849242895842
1772562879406263800,2.141263916015625,-0.002112152986228466,-0.004727643448859453,0.0013041499769315124
1772562879416330800,2.151330810546875,-0.00410473020747304,-0.0027350664604455233,0.005805424880236387
1772562879426397700,2.161397705078125,-0.003177950158715248,-0.006951116491109133,0.00017789915727917105
1772562879436465700,2.171465576171875,-0.0031518512405455112,-0.004963333252817392,0.003852795111015439
1772562879446532900,2.181532958984375,-0.0011198592837899923,-0.003910852130502462,0.002877279184758663
1772562879456600000,2.19160009765625,-0.00224903947673738,-0.0034762241411954165,0.0024144218768924475
1772562879466667000,2.2016669921875,-0.0019068233668804169,-0.003739344421774149,0.0030242856591939926
1772562879476734000,2.21173388671875,-0.0033478597179055214,-0.005007009021937847,0.0008532768115401268
1772562879486802000,2.221802001953125,-0.004138285759836435,-0.0032080437522381544,0.005320729687809944
1772562879496868900,2.231868896484375,-0.004323641769587994,-0.0014705975772812963,0.0031728900503367186
1772562879506935800,2.241935791015625,-0.00352868833579123,-0.0057316552847623825,0.003611246356740594
1772562879517002800,2.252002685546875,-0.004395014606416225,-0.0072837453335523605,0.0038091193418949842
1772562879527070700,2.26207080078125,-0.0029257487040013075,-0.0027955202385783195,0.0046570696868002415
1772562879537137700,2.2721376953125,-0.00552312983199954,-0.0043713124468922615,0.002945456188172102
1772562879547204600,2.28220458984375,-0.002910302486270666,-0.004747350700199604,0.0033806166611611843
1772562879557272000,2.29227197265625,-0.0036421390250325203,-0.0029169602785259485,0.004323109518736601
1772562879567339000,2.302339111328125,-0.0038362834602594376,-0.0068328725174069405,0.0031734227668493986
1772562879577407000,2.312406982421875,-0.0054363105446100235,-0.004490355961024761,0.005401423200964928
1772562879587474000,2.322473876953125,-0.004671450704336166,-0.004826979245990515,-0.0013875069562345743
1772562879597540900,2.332540771484375,-0.0057588196359574795,-0.005441637244075537,0.003692206460982561
1772562879607607800,2.34260791015625,-0.003338006092235446,-0.0049404301680624485,0.0016761935548856854
1772562879617675800,2.35267578125,-0.0049795787781476974,-0.005916478578001261,0.00800492987036705
1772562879627742700,2.36274267578125,-0.004247741773724556,-0.006598247680813074,0.005406749434769154
1772562879637809700,2.3728095703125,-0.004965996369719505,-0.003022421384230256,0.005244030617177486
1772562879647876900,2.382876953125,-0.004077832214534283,-0.006106095854192972,0.005694371182471514
1772562879657944000,2.392944091796875,-0.0036938043776899576,-0.005119394510984421,0.0018618159228935838
1772562879668011800,2.40301171875,-0.002861832967028022,-0.006308495998382568,0.003683151677250862
1772562879678079000,2.413078857421875,-0.005071723833680153,-0.006001166999340057,0.003946005832403898
1772562879688146000,2.42314599609375,-0.0011800467036664486,-0.004601143300533295,0.00261841993778944
1772562879698212900,2.433212890625,-0.0026844663079828024,-0.0041244374588131905,0.0022477079182863235
1772562879708280800,2.44328076171875,-0.000910268456209451,-0.006447513122111559,0.0017947042360901833
1772562879718347800,2.45334765625,-0.002433330286294222,-0.006142048165202141,0.004535097163170576
1772562879728414700,2.463414794921875,-0.0027379959356039762,-0.00490314606577158,0.0001257012045243755
1772562879738481700,2.473481689453125,-0.003043726785108447,-0.005516205448657274,0.001463939668610692
1772562879748548900,2.483548828125,-0.006656837183982134,-0.006067213602364063,0.0016876452136784792
1772562879758616800,2.493616943359375,-0.0020591560751199722,-0.004582235123962164,0.005282113794237375
1772562879768684000,2.50368408203125,-0.003923102747648954,-0.003061303636059165,0.003977164626121521
1772562879778751000,2.5137509765625,-0.0021811288315802813,-0.005290369503200054,0.0015744607662782073
1772562879788818000,2.52381787109375,-0.0037001960445195436,-0.005566539242863655,0.0032490564044564962
1772562879798886000,2.533885986328125,-0.005648031830787659,-0.006626743823289871,0.0012634035665541887
1772562879808952800,2.543952880859375,-0.0026820695493370295,-0.004999818746000528,0.002942260354757309
1772562879819019800,2.554019775390625,-0.0031467911321669817,-0.004339887294918299,0.0018096179701387882
1772562879829086700,2.564086669921875,-0.003230680711567402,-0.004082093480974436,0.005250688176602125
1772562879839153700,2.574153564453125,-0.005599029827862978,-0.0038490667939186096,0.003052781568840146
1772562879849222000,2.584221923828125,-0.005111671518534422,-0.0064802695997059345,0.004834969062358141
1772562879859288800,2.594288818359375,-0.005154015496373177,-0.005891977343708277,0.00794261135160923
1772562879869356000,2.60435595703125,-0.002721750643104315,-0.004600610584020615,0.0017592841759324074
1772562879879423000,2.614423095703125,-0.0030863373540341854,-0.00683207344263792,0.0028213527984917164
1772562879889491000,2.624490966796875,-0.0023153522051870823,-0.004875448998063803,0.0017156084068119526
1772562879899558000,2.634557861328125,-0.004474643152207136,-0.00458649592474103,0.0022650184109807014
1772562879909624800,2.644624755859375,-0.002439455594867468,-0.0036581179592758417,0.0034112429711967707
1772562879919691800,2.65469189453125,-0.00358807691372931,-0.005052016582340002,0.0037670412566512823
1772562879929759700,2.664759765625,-0.0023403859231621027,-0.004452006425708532,0.0034109766129404306
1772562879939827000,2.674826904296875,-0.002924949862062931,-0.0040978058241307735,0.0011060107499361038
1772562879949894000,2.684893798828125,-0.004984638653695583,-0.005842708982527256,0.000565389113035053
1772562879959960800,2.6949609375,-0.0023249397054314613,-0.0054626758210361,0.0025627599097788334
1772562879970028000,2.705028076171875,-0.0029981867410242558,-0.00481419637799263,0.002280997345224023
1772562879980095700,2.715095703125,-0.0033862092532217503,-0.0065162223763763905,0.003944141324609518
1772562879990163000,2.725162841796875,-0.003710582386702299,-0.007969509810209274,0.0021638183388859034
1772562880000230700,2.735230712890625,-0.0035808864049613476,-0.00729413190856576,0.0025427863001823425
1772562880010297600,2.745297607421875,-0.0020357202738523483,-0.003721501212567091,0.005862150341272354
1772562880020365600,2.755365478515625,-0.0025161546654999256,-0.006478938274085522,0.0046693203039467335
1772562880030432500,2.7654326171875,-0.0020354539155960083,-0.004882373381406069,0.0026881948579102755
1772562880040499500,2.77549951171875,-0.0005898901727050543,-0.006201436743140221,0.0016620787791907787
1772562880050566700,2.785566650390625,-0.0026461167726665735,-0.00458569684997201,0.0032344090286642313
1772562880060633600,2.795633544921875,-0.0026996464002877474,-0.00526666734367609,0.0037819549906998873
1772562880070701600,2.80570166015625,-0.00339153571985662,-0.0059753344394266605,0.007926899008452892
1772562880080768500,2.8157685546875,-0.003347327234223485,-0.007213970646262169,0.0046698530204594135
1772562880090835500,2.82583544921875,-0.001321194227784872,-0.0043473439291119576,0.002828543307259679
1772562880100902700,2.835902587890625,-0.002130528911948204,-0.003715375903993845,0.004795287735760212
1772562880110970600,2.845970703125,-0.0021315941121429205,-0.004563060123473406,-0.0004492752777878195
1772562880121037600,2.85603759765625,-0.00170761882327497,-0.003829092951491475,0.0010841728653758764
1772562880131104500,2.8661044921875,-0.0024311996530741453,-0.004035754129290581,0.0037734329234808683
1772562880141171500,2.87617138671875,-0.0031302794814109802,-0.0038011297583580017,0.0021382521372288465
1772562880151238400,2.88623828125,-0.003221093211323023,-0.004609399009495974,0.002956641372293234
1772562880161306600,2.896306640625,-0.0034048515371978283,-0.00472551304847002,0.003724697045981884
1772562880171373600,2.90637353515625,-0.0037151097785681486,-0.007287207525223494,0.002487925114110112
1772562880181440500,2.9164404296875,-0.004473578184843063,-0.005064000841230154,0.003510312642902136
1772562880191507500,2.926507568359375,-0.0007009439868852496,-0.0032490564044564962,0.003382747294381261
1772562880201575400,2.936575439453125,-0.0021752698812633753,-0.006397179327905178,0.004772651009261608
1772562880211642600,2.946642578125,-0.001472461735829711,-0.004686364438384771,0.0031579763162881136
1772562880221709600,2.95670947265625,-0.003948402591049671,-0.004896754398941994,0.004788629710674286
1772562880231776500,2.966776611328125,-0.001368598430417478,-0.0032120386604219675,0.002444781828671694
1772562880241844700,2.9768447265625,-0.002639458980411291,-0.005810218397527933,0.0023611586075276136
1772562880251911700,2.98691162109375,-0.0031044469214975834,-0.004062652122229338,0.0046658581122756
1772562880261978600,2.996978515625,-0.0034993935842067003,-0.0017022925894707441,0.006448844447731972
1772562880272045600,3.007045654296875,-0.0030916635878384113,-0.003437075763940811,0.004706604406237602
1772562880282112500,3.017112548828125,-0.0035401401109993458,-0.006440588738769293,0.0010543455136939883
1772562880292180500,3.027180419921875,-0.003649862250313163,-0.004693022463470697,0.004565190523862839
1772562880302247400,3.037247314453125,-0.00330338510684669,-0.004757737275213003,0.0008434231276623905
1772562880312314600,3.047314697265625,-0.0028943235520273447,-0.0047177900560200214,0.004119910299777985
1772562880322381600,3.057381591796875,-0.00436145905405283,-0.005844573490321636,0.004619519226253033
1772562880332449800,3.06744970703125,-0.00440966198220849,-0.005589708685874939,0.0017358483746647835
1772562880342516700,3.077516845703125,-0.002799781272187829,-0.004831506870687008,0.0031254857312887907
1772562880352583700,3.087583740234375,-0.003165433183312416,-0.007248857989907265,0.0011225224006921053
1772562880362650600,3.097650634765625,-0.0035116442013531923,-0.003879959462210536,0.0029049760196357965
1772562880372717600,3.107717529296875,-0.0010013486025854945,-0.002737463219091296,0.002251702593639493
1772562880382785500,3.11778564453125,-0.0028362665325403214,-0.0064895907416939735,0.0014210627414286137
1772562880392852500,3.1278525390625,-0.003751328680664301,-0.004963333252817392,0.00026525085559114814
1772562880402919400,3.13791943359375,-0.0027569043450057507,-0.003971039317548275,0.005037635564804077
1772562880412986600,3.147986572265625,-0.002088983543217182,-0.003949468024075031,0.0015331818722188473
1772562880423054300,3.158054443359375,-0.0016791230300441384,-0.0033340114168822765,0.004321777727454901
1772562880433121500,3.16812158203125,-0.0013907026732340455,-0.00469462014734745,0.0018069547368213534
1772562880443188700,3.178188720703125,-0.005081577692180872,-0.004637895151972771,0.0006269080913625658
1772562880453255700,3.188255615234375,-0.00058323226403445,-0.006807838566601276,-0.00039947417099028826
1772562880463322600,3.198322509765625,-0.004003263544291258,-0.006073072552680969,0.004413124173879623
1772562880473390600,3.208390625,-0.0018141453620046377,-0.004531634971499443,0.0021965752821415663
1772562880483457500,3.21845751953125,-0.002046905690804124,-0.0038599856197834015,0.0013451626291498542
1772562880493524500,3.2285244140625,-0.002510828198865056,-0.004797684494405985,0.00410499656572938
1772562880503591400,3.23859130859375,-0.002168079372495413,-0.004780374001711607,0.00458702864125371
1772562880513659400,3.248659423828125,-0.0033910030033439398,-0.004787564743310213,0.0016551546286791563
1772562880523726300,3.258726318359375,-0.0016282566357403994,-0.005992378573864698,0.005352421198040247
1772562880533793500,3.26879345703125,-0.0032751555554568768,-0.004285824950784445,0.0013946974650025368
1772562880543860700,3.27886083984375,-0.0012650014832615852,-0.0018796591321006417,0.003364904085174203
1772562880553928700,3.2889287109375,-0.0037707698065787554,-0.005928462836891413,0.002546780975535512
1772562880563995600,3.29899560546875,-0.0038370825350284576,-0.005820338614284992,0.00418302696198225
1772562880574062600,3.3090625,-0.0028735508676618338,-0.007935686968266964,0.0017036241479218006
1772562880584129500,3.319129638671875,-0.0031878037843853235,-0.003885818412527442,0.002232261700555682
1772562880594196500,3.329196533203125,-0.0035547874867916107,-0.006097839679569006,0.0005888249143026769
1772562880604264400,3.339264404296875,-0.0015518239233642817,-0.005327120888978243,0.002743055811151862
1772562880614331400,3.349331298828125,-0.004327370319515467,-0.0059537626802921295,0.0010793792316690087
1772562880624398600,3.359398681640625,-0.0033337450586259365,-0.004282363224774599,0.005820604972541332
1772562880634465500,3.369465576171875,-0.003576359013095498,-0.006798517424613237,0.005811816547065973
1772562880644533800,3.37953369140625,-0.0034029872622340918,-0.0016812535468488932,0.006935404147952795
1772562880654600700,3.3896005859375,-0.0030123014003038406,-0.006624879315495491,0.005599562544375658
1772562880664667600,3.399667724609375,-0.004584898240864277,-0.0043710460886359215,0.003531085327267647
1772562880674734600,3.409734619140625,-0.001982190879061818,-0.005107942968606949,0.0007550061563961208
1772562880684801500,3.419801513671875,-0.006301305256783962,-0.004707403481006622,0.0010626012226566672
1772562880694869500,3.429869384765625,-0.0038213697262108326,-0.004384894855320454,0.004495948553085327
1772562880704936400,3.4399365234375,-0.006070409435778856,-0.0054821171797811985,0.0033832797780632973
1772562880715003400,3.45000341796875,-0.0046876962296664715,-0.005195294506847858,0.0033507891930639744
1772562880725070600,3.460070556640625,-0.0012279836228117347,-0.004488757811486721,0.0016237293602898717
1772562880735138600,3.470138671875,-0.003088467987254262,-0.004735366906970739,0.0028043086640536785
1772562880745205800,3.480205810546875,-0.0011371697764843702,-0.006010221783071756,0.003784351982176304
1772562880755272700,3.490272705078125,-0.0014881744282320142,-0.0038336203433573246,0.002376604825258255
1772562880765339600,3.500339599609375,-0.003977430984377861,-0.003808053908869624,0.0036072516813874245
1772562880775407600,3.51040771484375,-0.0020820593927055597,-0.004899417515844107,0.002748914761468768
1772562880785474600,3.520474609375,-0.0014205301413312554,-0.004792358260601759,0.0016961672808974981
1772562880795541500,3.53054150390625,-0.0028778119012713432,-0.0019494339358061552,0.002366218715906143
1772562880805608400,3.5406083984375,-0.0038868836127221584,-0.004501008428633213,0.001689775730483234
1772562880815675400,3.55067529296875,-0.002156361471861601,-0.003162503708153963,0.007742342073470354
1772562880825743600,3.56074365234375,-0.0036250948905944824,-0.005811816547065973,0.003910319413989782
1772562880835810600,3.570810546875,-0.005075452383607626,-0.002799514913931489,0.0028786107432097197
1772562880845877800,3.580877685546875,-0.0046815709210932255,-0.0041587925516068935,0.0016828514635562897
1772562880855944700,3.59094482421875,-0.004521781112998724,-0.0023672839161008596,0.005507417023181915
1772562880866012700,3.6010126953125,-0.00424294825643301,-0.005763346794992685,0.004719387739896774
1772562880876079600,3.61107958984375,-0.003896470880135894,-0.004996889270842075,0.004250404890626669
1772562880886146600,3.621146484375,-0.0006972155533730984,-0.00851652305573225,0.0046179210767149925
1772562880896213500,3.631213623046875,-0.0032471923623234034,-0.005067463032901287,0.0020876519847661257
1772562880906280400,3.641280517578125,-0.00498144282028079,-0.004728442523628473,0.0027925907634198666
1772562880916348400,3.651348388671875,-0.0028695559594780207,-0.006031527183949947,0.0031321437563747168
1772562880926415400,3.661415283203125,-0.0017949705943465233,-0.004484497010707855,0.003977164626121521
1772562880936482600,3.671482666015625,-0.00304718897677958,-0.006792126223444939,0.0055031562224030495
1772562880946549800,3.6815498046875,-0.004289020784199238,-0.00606481684371829,0.002293514320626855
1772562880956617500,3.691617431640625,-0.00279046013019979,-0.0035148400347679853,0.00290391081944108
1772562880966684700,3.7016845703125,-0.004700479097664356,-0.005909021943807602,0.004854942671954632
1772562880976751600,3.711751708984375,-0.0022714100778102875,-0.005603024736046791,0.003620034782215953
1772562880986818600,3.721818603515625,-0.0027025758754462004,-0.004206196404993534,0.008550877682864666
1772562880996884700,3.731884765625,-0.0027241474017500877,-0.006166016682982445,0.004478904418647289
1772562881006952700,3.74195263671875,-0.003591006388887763,-0.0054847802966833115,0.003721234854310751
1772562881017019600,3.75201953125,-0.002095375210046768,-0.00498224189504981,0.0002942793071269989
1772562881027086800,3.7620869140625,-0.005406217183917761,-0.0035180358681827784,0.0025387913919985294
1772562881037153800,3.77215380859375,-0.003537210635840893,-0.006265885196626186,0.003703924361616373
1772562881047222000,3.782221923828125,-0.004482898861169815,-0.006706106010824442,0.0033832797780632973
1772562881057289000,3.7922890625,-0.003693005535751581,-0.0062331282533705235,0.003172357566654682
1772562881067356000,3.80235595703125,-0.0004069310089107603,-0.0029710223898291588,0.0032690302468836308
1772562881077422800,3.8124228515625,-0.002704173792153597,-0.0038605183362960815,0.003397394670173526
1772562881087490800,3.82249072265625,-0.001100684516131878,-0.005577191710472107,0.0025534387677907944
1772562881097557800,3.832557861328125,-0.005323392804712057,-0.005132177844643593,0.004378769546747208
1772562881107624700,3.842624755859375,-0.005829127039760351,-0.005921538453549147,0.004697815980762243
1772562881117691600,3.852691650390625,-0.001973402453586459,-0.006132727488875389,0.004636829718947411
1772562881127758800,3.8627587890625,-0.0021289309952408075,-0.004475175868719816,0.005905027035623789
1772562881137826800,3.872826904296875,-0.0034043188206851482,-0.003626692807301879,0.0016655409708619118
1772562881147894000,3.88289404296875,-0.0035923379473388195,-0.005336974747478962,0.0007840346079319715
1772562881157961000,3.8929609375,-0.002031192881986499,-0.005262938793748617,0.0034413367975503206
1772562881168028000,3.90302783203125,-0.005801163613796234,-0.004547880031168461,0.005117530468851328
1772562881178095900,3.913095947265625,-0.004519384354352951,-0.0063092950731515884,0.004038417246192694
1772562881188162800,3.923162841796875,-0.001567802974022925,-0.004316717851907015,0.002290851203724742
1772562881198229800,3.933229736328125,-0.002246376359835267,-0.003166498616337776,0.0005560680292546749
1772562881208296700,3.943296630859375,-0.0028727517928928137,-0.006469350773841143,0.000984570593573153
1772562881218363600,3.95336376953125,-0.00256435782648623,-0.0016327840276062489,0.00005885586142539978
1772562881228431600,3.963431640625,-0.0032754219137132168,-0.0051811798475682735,0.0043710460886359215
1772562881238498800,3.973498779296875,-0.0022053637076169252,-0.005293298978358507,0.002516953507438302
1772562881248566000,3.98356591796875,-0.0015899071004241705,-0.004608334042131901,0.006524478085339069
1772562881258633000,3.993633056640625,-0.0030157635919749737,-0.004309260752052069,0.0034751589410007
1772562881268701000,4.003700927734375,-0.002776611829176545,-0.005188636481761932,0.004893558565527201
1772562881278767900,4.013767822265625,-0.004853078629821539,-0.003067162586376071,0.0008623315370641649
1772562881288834800,4.023834716796875,-0.002758235903456807,-0.00558145297691226,0.003486077766865492
1772562881298901800,4.03390185546875,-0.0028519791085273027,-0.006602242588996887,0.0008665926288813353
1772562881308969700,4.0439697265625,-0.0032831449061632156,-0.00433003343641758,0.004476507660001516
1772562881319036700,4.05403662109375,-0.003266367129981518,-0.004205131437629461,0.0025659557431936264
1772562881329103600,4.064103515625,-0.0021289309952408075,-0.005952697712928057,0.0032344090286642313
1772562881339170800,4.0741708984375,-0.0036301547661423683,-0.004936435259878635,0.002993126632645726
1772562881349238000,4.084238037109375,-0.002965429797768593,-0.005861084908246994,0.0029875340405851603
1772562881359306000,4.094305908203125,-0.0046661244705319405,-0.006837932392954826,0.0018037590198218822
1772562881369373000,4.104373046875,-0.002835201332345605,-0.005554022267460823,0.0027417242527008057
1772562881379439900,4.11443994140625,-0.0020242687314748764,-0.004652542527765036,0.002380333375185728
1772562881389506800,4.1245068359375,-0.0038802255876362324,-0.00555322365835309,0.0029917950741946697
1772562881399574800,4.13457470703125,-0.001988049829378724,-0.00401551416143775,0.0012905678013339639
1772562881409641700,4.144641845703125,-0.004442152567207813,-0.005032575689256191,0.004061320796608925
1772562881419708700,4.154708740234375,-0.001443166984245181,-0.0046850331127643585,0.004444549325853586
1772562881429775600,4.164775634765625,-0.002061819192022085,-0.006309827324002981,0.0020852552261203527
1772562881439842800,4.1748427734375,-0.0031103058718144894,-0.005928729195147753,0.004246410448104143
1772562881449910800,4.184910888671875,-0.0028674255590885878,-0.004427505191415548,0.004071706905961037
1772562881459978000,4.19497802734375,-0.005751895252615213,-0.005366802215576172,0.004209125880151987
1772562881470045000,4.205044921875,-0.0034384073223918676,-0.00395745737478137,0.0020908478181809187
1772562881480111900,4.21511181640625,-0.0007624630234204233,-0.004250404890626669,0.0018634138396009803
1772562881490179800,4.225179931640625,-0.0031108383554965258,-0.0060176788829267025,0.0013275857781991363
1772562881500246800,4.235246826171875,-0.003093794221058488,-0.006053631659597158,0.004290352575480938
1772562881510313700,4.245313720703125,-0.005499161314219236,-0.0068113007582724094,0.00688986387103796
1772562881520380700,4.255380615234375,-0.004554271697998047,-0.003270095447078347,0.002939863596111536
1772562881530447600,4.265447509765625,-0.002772350562736392,-0.00538464542478323,0.0027856663800776005
1772562881540515800,4.275515869140625,-0.0038120488170534372,-0.004028031136840582,0.004896754398941994
1772562881550582800,4.285582763671875,-0.003454652614891529,-0.0032527849543839693,0.001002413802780211
1772562881560650000,4.29564990234375,-0.001356614287942648,-0.001677791471593082,0.0006676545017398894
1772562881570717000,4.305717041015625,-0.001654622028581798,-0.005146292503923178,0.0037358824629336596
1772562881580785000,4.315784912109375,-0.0037265613209456205,-0.005846171174198389,0.0016937704058364034
1772562881590851800,4.325851806640625,-0.0028551749419420958,-0.007690410129725933,0.0033907366450875998
1772562881600918800,4.335918701171875,-0.0028876655269414186,-0.006940996740013361,0.005819273181259632
1772562881610985700,4.34598583984375,-0.002989398315548897,-0.0036975329276174307,0.0031190942972898483
1772562881621053700,4.3560537109375,-0.000708134553860873,-0.004286091309040785,0.0011883024126291275
1772562881631121000,4.366120849609375,-0.0009294432238675654,-0.005381449591368437,-0.00018855179951060563
1772562881641187800,4.376187744140625,-0.0031707596499472857,-0.004492486361414194,0.0029316076543182135
1772562881651254800,4.3862548828125,-0.005029912106692791,-0.006228601094335318,0.004866127856075764
1772562881661322000,4.396322021484375,-0.0034820830915123224,-0.007604656275361776,0.003743072971701622
1772562881671389700,4.4063896484375,-0.004607801325619221,-0.004246144089847803,0.0019345202017575502
1772562881681457000,4.416456787109375,-0.0014173343079164624,-0.00430020596832037,0.00344586418941617
1772562881691523800,4.42652392578125,-0.004324174486100674,-0.0044115264900028706,0.003665574826300144
1772562881701590800,4.4365908203125,-0.0024881914723664522,-0.004111920483410358,0.0007464840309694409
1772562881711658800,4.44665869140625,-0.003522296901792288,-0.00754926260560751,0.004845355171710253
1772562881721725700,4.4567255859375,-0.0043923514895141125,-0.006544984877109528,0.0015931029338389635
1772562881731793000,4.46679296875,-0.003141731023788452,-0.00887791346758604,0.0005427522119134665
1772562881741859800,4.47685986328125,-0.0025656893849372864,-0.00714579364284873,0.003245594445616007
1772562881751926800,4.4869267578125,-0.00261788722127676,-0.004332962911576033,0.0030312100425362587
1772562881761994800,4.496994873046875,-0.005367867648601532,-0.0028032432310283184,0.0037388119380921125
1772562881772062000,4.50706201171875,-0.003721767570823431,-0.006434996146708727,0.0023214775137603283
1772562881782129000,4.51712890625,-0.0035124430432915688,-0.003822701284661889,0.005299157928675413
1772562881792195800,4.52719580078125,-0.003073820611461997,-0.006844590418040752,0.004658934194594622
1772562881802263800,4.537263916015625,-0.003034405643120408,-0.0041007352992892265,0.0033156354911625385
1772562881812330800,4.547330810546875,-0.003506850451231003,-0.006305832881480455,0.004713262431323528
1772562881822397700,4.557397705078125,-0.0036727653350681067,-0.004513525404036045,0.0022770026698708534
1772562881832464600,4.567464599609375,-0.00341577036306262,-0.006564425770193338,0.00264851376414299
1772562881842532900,4.577532958984375,-0.001606685109436512,-0.007030212786048651,0.005546565633267164
1772562881852599800,4.587599853515625,-0.0031734227668493986,-0.0032000544015318155,0.0049063414335250854
1772562881862666800,4.597666748046875,-0.0030900659039616585,-0.00446931691840291,0.003020557342097163
1772562881872734000,4.60773388671875,-0.003020290983840823,-0.00566986994817853,0.002775812754407525
1772562881882801000,4.61780078125,-0.004565989598631859,-0.0021821942646056414,0.000844754686113447
1772562881892868900,4.627868896484375,-0.005459479987621307,-0.006925550289452076,0.0015345134306699038
1772562881902935800,4.637935791015625,-0.004218713380396366,-0.0072776200249791145,0.004448277875781059
1772562881913002800,4.648002685546875,-0.0028692898340523243,-0.00845526996999979,0.006040315609425306
1772562881923069700,4.658069580078125,-0.0033425334841012955,-0.003314303932711482,0.00236249016597867
1772562881933138000,4.668137939453125,-0.0016743293963372707,-0.004603540059179068,0.004226436838507652
1772562881943204900,4.678204833984375,0.0004122573300264776,-0.005024852231144905,0.002001631772145629
1772562881953271800,4.688271728515625,-0.0031878037843853235,-0.003938548732548952,0.0019917781464755535
1772562881963338800,4.6983388671875,-0.003447728231549263,-0.0057321880012750626,0.005351622123271227
1772562881973406000,4.708406005859375,-0.005788114387542009,-0.004089017398655415,0.005468801129609346
1772562881983473700,4.7184736328125,-0.004466121084988117,-0.004987568128854036,0.0036037894897162914
1772562881993540900,4.728540771484375,-0.005542038008570671,-0.003961452282965183,0.006441387813538313
1772562882003608300,4.7386083984375,-0.00375985074788332,-0.005328985396772623,0.006393184419721365
1772562882013675300,4.74867529296875,-0.0036759611684828997,-0.005274390336126089,0.004563592839986086
1772562882023743500,4.758743408203125,-0.0037848844658583403,-0.005285043269395828,0.0018013621447607875
1772562882033810400,4.768810546875,-0.004181695636361837,-0.006762298755347729,0.0020871192682534456
1772562882043877400,4.77887744140625,-0.0054696002043783665,-0.003425091505050659,0.0014982944121584296
1772562882053944300,4.7889443359375,-0.00313001312315464,-0.006593720521777868,0.005399292800575495
1772562882064011300,4.79901123046875,-0.0030341395176947117,-0.006691458635032177,0.0041337586008012295
1772562882074079200,4.809079345703125,-0.003469299990683794,-0.006627808790653944,0.0005603290628641844
1772562882084146200,4.819146240234375,-0.002755306428298354,-0.0015773903578519821,0.003695402294397354
1772562882094213000,4.829213134765625,-0.002525475574657321,-0.004340686369687319,0.0036336169578135014
1772562882104280300,4.8392802734375,-0.0027515781112015247,-0.004039482679218054,0.0021904499735683203
1772562882114348300,4.849348388671875,-0.0024112260434776545,-0.00612180819734931,0.004807538352906704
1772562882124415500,4.85941552734375,-0.0019710054621100426,-0.004539357963949442,0.0016556872287765145
1772562882134482400,4.869482421875,-0.0017616810509935021,-0.005395297892391682,-0.00009427589975530282
1772562882144549400,4.87954931640625,-0.003421629313379526,-0.006313822232186794,0.0005494101205840707
1772562882154616300,4.8896162109375,-0.00344586418941617,-0.005661880597472191,0.0016106797847896814
1772562882164684300,4.899684326171875,-0.0026788737159222364,-0.004683168604969978,0.0020532971248030663
1772562882174751200,4.909751220703125,-0.0009278453071601689,-0.006381999235600233,0.0009113337146118283
1772562882184818200,4.919818115234375,-0.004096740856766701,-0.005579056218266487,0.002502039773389697
1772562882194885400,4.929885498046875,-0.003935352899134159,-0.00401684595271945,0.0025808694772422314
1772562882204953000,4.939953125,-0.003072755178436637,-0.0029441246297210455,0.0022058964241296053
1772562882215020500,4.9500205078125,-0.0027140274178236723,-0.004082892090082169,0.0007057376787997782
1772562882225087500,4.96008740234375,-0.0023550332989543676,-0.005081044975668192,0.0018639464396983385
1772562882235154400,4.970154541015625,-0.00037763622822239995,-0.0063798688352108,0.003394731320440769
1772562882245222400,4.980222412109375,-0.0008697884040884674,-0.005667206831276417,0.003194994293153286
1772562882255289300,4.990289306640625,-0.0028610338922590017,-0.00723447697237134,0.004822718445211649
1772562882265356300,5.000356201171875,-0.003329484025016427,-0.003967577591538429,0.004649613052606583
1772562882275423200,5.01042333984375,-0.004667722620069981,-0.005041630007326603,0.0037619813811033964
1772562882285490200,5.020490234375,-0.001416269107721746,-0.0024650217965245247,0.0012199940392747521
1772562882295558100,5.03055810546875,-0.0046570696868002415,-0.004607268609106541,0.0010213222121819854
1772562882305625000,5.040625,-0.0016567525453865528,-0.005826197564601898,0.003183809109032154
1772562882315691300,5.050691162109375,-0.004089283756911755,-0.004738562274724245,0.0029585056472569704
1772562882325758200,5.06075830078125,-0.0027238810434937477,-0.003968642558902502,0.0046845003962516785
1772562882335825200,5.0708251953125,-0.0028367992490530014,-0.004294347018003464,0.0025329324416816235
1772562882345893400,5.080893310546875,-0.004733502399176359,-0.005679723806679249,0.0021494373213499784
1772562882355960300,5.090960205078125,-0.0014194648247212172,-0.006327138282358646,0.0026754115242511034
1772562882366027300,5.10102734375,-0.004573446698486805,-0.005673598498106003,0.0011235876008868217
1772562882376094500,5.111094482421875,-0.004013650119304657,-0.006648581475019455,0.003567570587620139
1772562882386161400,5.121161376953125,-0.0026117621455341578,-0.004530835896730423,0.0009406284661963582
1772562882396229400,5.1312294921875,-0.0021995047573000193,-0.005149754695594311,0.002965429797768593
1772562882406296300,5.14129638671875,-0.0027174896094948053,-0.004738296382129192,0.002519350266084075
1772562882416363300,5.15136328125,-0.0041822283528745174,-0.00487251952290535,0.0034117756877094507
1772562882426430200,5.16143017578125,-0.0019856528379023075,-0.004141215234994888,0.004080228973180056
1772562882436498400,5.17149853515625,-0.003297259798273444,-0.004059722647070885,0.002010686555877328
1772562882446565400,5.1815654296875,-0.0027510453946888447,-0.005574794951826334,0.0014556838432326913
1772562882456632300,5.19163232421875,-0.0006317017832770944,-0.003906324505805969,0.0004141215467825532
1772562882466699300,5.20169921875,-0.0010407633380964398,-0.005793973337858915,0.003201119601726532
1772562882476766500,5.211766357421875,-0.003859453136101365,-0.002673813607543707,0.0008266451768577099
1772562882486834200,5.221834228515625,-0.0031198931392282248,-0.0024626250378787518,0.0023339942563325167
1772562882496901400,5.2319013671875,-0.00449781259521842,-0.007305583450943232,0.005238703917711973
1772562882506968300,5.24196826171875,-0.0025867284275591373,-0.0030682277865707874,0.0035577169619500637
1772562882517035300,5.25203515625,-0.000883636821527034,-0.003829359309747815,0.0025063008069992065
1772562882527103500,5.262103515625,-0.003200853243470192,-0.0034503915812820196,0.003022954100742936
1772562882537170400,5.27217041015625,-0.0033449302427470684,-0.003519367426633835,0.000743820914067328
1772562882547237400,5.2822373046875,-0.003495398908853531,-0.003991013392806053,0.00041012681322172284
1772562882557304300,5.29230419921875,-0.0011057445080950856,-0.005832589231431484,0.0031936627347022295
1772562882567372300,5.302372314453125,0.000027963191314483993,-0.003290601773187518,0.00046365635353140533
1772562882577439200,5.312439208984375,-0.006311159115284681,-0.006829410325735807,0.0018229337874799967
1772562882587506200,5.322506103515625,-0.0007427555974572897,-0.004761998075991869,0.0011805793037638068
1772562882597573400,5.332573486328125,-0.003459978848695755,-0.005828594323247671,0.006499444600194693
1772562882607640300,5.342640380859375,0.00035606464371085167,-0.004677842371165752,0.002663427498191595
1772562882617708300,5.352708251953125,-0.003870371961966157,-0.0030977888964116573,0.0034852789249271154
1772562882627775200,5.362775146484375,-0.0018788601737469435,-0.004041879437863827,0.00440966198220849
1772562882637842400,5.372842529296875,-0.0036719664931297302,-0.0049279131926596165,0.003596332622691989
1772562882647909400,5.382909423828125,-0.00045087316539138556,-0.004014182835817337,0.0059897154569625854
1772562882657977300,5.392977294921875,-0.0009094694978557527,-0.0051873051561415195,0.0032418658956885338
1772562882668044300,5.403044189453125,-0.0041183121502399445,-0.003995007835328579,0.004731904715299606
1772562882678111200,5.413111328125,-0.00478463526815176,-0.005487177055329084,0.004052532371133566
1772562882688178200,5.42317822265625,-0.0010839065071195364,-0.004247209057211876,0.002055694116279483
1772562882698245400,5.433245361328125,-0.004173705819994211,-0.005025651305913925,0.0031305458396673203
1772562882708314400,5.443314453125,-0.004191016778349876,-0.00555162550881505,0.0064922538585960865
1772562882718381300,5.45338134765625,-0.00361683894880116,-0.006352704484015703,0.0013659353135153651
1772562882728448500,5.463448486328125,-0.0020066918805241585,-0.0036695697344839573,-0.00018615495355334133
1772562882738516200,5.47351611328125,-0.0007499461644329131,-0.003947869874536991,0.0006173207075335085
1772562882748583400,5.48358349609375,-0.003418167121708393,-0.0067934575490653515,0.0006564692012034357
1772562882758650400,5.493650390625,-0.0036567864008247852,-0.004226702731102705,0.0020394488237798214
1772562882768717300,5.50371728515625,-0.003385410411283374,-0.006096508353948593,0.004144943784922361
1772562882778784300,5.5137841796875,-0.0019856528379023075,-0.004343882203102112,0.005465871654450893
1772562882788852200,5.523852294921875,-0.004432565066963434,-0.005253351293504238,0.002481799805536866
1772562882798919200,5.533919189453125,-0.005548429675400257,-0.007257912773638964,0.005135905928909779
1772562882808986400,5.543986328125,-0.0044048684649169445,-0.005805158521980047,0.0009246495319530368
1772562882819053300,5.55405322265625,-0.004354801028966904,-0.005008074454963207,0.003367833560332656
1772562882829121300,5.564121337890625,-0.0031012510880827904,-0.0038155107758939266,0.003430950455367565
1772562882839188200,5.574188232421875,-0.0016548882704228163,-0.005082110408693552,0.002739860210567713
1772562882849255400,5.58425537109375,-0.0026820695493370295,-0.006302104331552982,0.004580636974424124
1772562882859322400,5.594322265625,-0.0046450854279100895,-0.0035049861762672663,0.002763828495517373
1772562882869389300,5.604389404296875,-0.003768639173358679,-0.001856755930930376,0.0032437301706522703
1772562882879457300,5.614457275390625,-0.0035779569298028946,-0.004058923572301865,0.003674097126349807
1772562882889524200,5.624524169921875,-0.0021028320770710707,-0.002695651724934578,0.0015566176734864712
1772562882899591200,5.634591064453125,-0.003296727081760764,-0.005787848029285669,0.0010466222884133458
1772562882909658000,5.644658203125,-0.0036586506757885218,-0.005359877832233906,-0.0009829727932810783
1772562882919726300,5.654726318359375,-0.005110872443765402,-0.005651760380715132,0.004765992984175682
1772562882929793300,5.664793212890625,-0.003718838095664978,-0.0029979203827679157,0.004265584982931614
1772562882939860200,5.674860107421875,-0.005477589555084705,-0.006650179624557495,0.0026873957831412554
1772562882949927400,5.684927490234375,-0.002645317930728197,-0.00570049649104476,0.005050418432801962
1772562882959994400,5.694994384765625,-0.0011084076249971986,-0.003716174978762865,-0.0000804274677648209
1772562882970062300,5.705062255859375,-0.004620318301022053,-0.003984355367720127,0.003379817819222808
1772562882980129300,5.71512939453125,-0.00469568558037281,-0.004160656593739986,0.0023909860756248236
1772562882990196200,5.7251962890625,-0.003413107246160507,-0.0046631949953734875,0.004305799026042223
1772562883000262700,5.7352626953125,-0.0027624969370663166,-0.006132194772362709,0.001449025934562087
1772562883010331000,5.745330810546875,-0.0010149306617677212,-0.004816859494894743,-0.0011382350930944085
1772562883020397800,5.755397705078125,-0.0027835359796881676,-0.005893309134989977,0.002843457041308284
1772562883030464800,5.76546484375,-0.0028748824261128902,-0.004807271994650364,0.003132942598313093
1772562883040532000,5.775531982421875,-0.004532699938863516,-0.005998503882437944,0.005373992491513491
1772562883050599000,5.785598876953125,-0.005480519030243158,-0.005872003734111786,0.0006370281334966421
1772562883060667000,5.7956669921875,-0.0026794064324349165,-0.004249606281518936,0.005134574603289366
1772562883070733800,5.80573388671875,-0.0034288198221474886,-0.0030186930671334267,-0.00024474450037814677
1772562883080800800,5.81580078125,-0.002971821464598179,-0.005021123681217432,0.00199284334667027
1772562883090867700,5.82586767578125,-0.004093012306839228,-0.004758802708238363,0.002807770622894168
1772562883100935700,5.835935791015625,-0.003439472522586584,-0.005499161314219236,0.004200337454676628
1772562883111003000,5.8460029296875,-0.004677842371165752,-0.00490234699100256,0.0059657469391822815
1772562883121069800,5.85606982421875,-0.0016607472207397223,-0.006321811582893133,0.004416320007294416
1772562883131136800,5.86613671875,-0.005800630897283554,-0.006142847239971161,0.002120675053447485
1772562883141204700,5.876204833984375,-0.0028626318089663982,-0.006075735669583082,0.004546548705548048
1772562883151272000,5.88627197265625,-0.0034533210564404726,-0.004023503512144089,0.0041004689410328865
1772562883161339000,5.8963388671875,-0.0034027209039777517,-0.005025651305913925,0.002183525823056698
1772562883171405800,5.90640576171875,-0.0016538230702280998,-0.0020394488237798214,0.00233825552277267
1772562883181472800,5.91647265625,-0.0029321403708308935,-0.005557218100875616,0.005541771650314331
1772562883191540700,5.926540771484375,-0.0033931334037333727,-0.002799514913931489,0.004713262431323528
1772562883201607700,5.936607666015625,-0.002703641075640917,-0.004938033409416676,0.003605121048167348
1772562883211675000,5.9466748046875,-0.0032051142770797014,-0.0038274950347840786,0.0028181569650769234
1772562883221741800,5.956741943359375,-0.0027337349019944668,-0.0038480013608932495,0.0067484499886631966
1772562883231809800,5.966809814453125,-0.0046426886692643166,-0.004062652122229338,0.002566754585132003
1772562883241876700,5.976876708984375,-0.0038541266694664955,-0.00697881355881691,0.0032631712965667248
1772562883251944000,5.98694384765625,-0.002724946476519108,-0.004494084510952234,0.00523737259209156
1772562883262011000,5.997010986328125,-0.0019715381786227226,-0.005767341703176498,0.0017164073651656508
1772562883272077800,6.007077880859375,-0.0014532869681715965,-0.007330351043492556,0.004471980035305023
1772562883282145800,6.017145751953125,-0.0016370450612157583,-0.005881857592612505,0.0030120352748781443
1772562883292212700,6.027212646484375,-0.0031467911321669817,-0.0032772859558463097,0.0029372002463787794
1772562883302279700,6.03727978515625,-0.003010969841852784,-0.005571599118411541,0.0027052389923483133
1772562883312346600,6.0473466796875,-0.0018239989876747131,-0.0035633095540106297,0.004364388529211283
1772562883322414800,6.057414794921875,-0.004277036525309086,-0.005677326582372189,0.0033846113365143538
1772562883332481800,6.067481689453125,-0.0032828785479068756,-0.005043760873377323,0.0007400924805551767
1772562883342548700,6.077548828125,-0.0016250609187409282,-0.004083691164851189,0.0024828650057315826
1772562883352616000,6.087615966796875,-0.004620318301022053,-0.006059490609914064,0.0014452975010499358
1772562883362683000,6.097682861328125,-0.0044197821989655495,-0.006935670506209135,0.001463673310354352
1772562883372750800,6.107750732421875,-0.002516953507438302,-0.002746518002822995,0.0018279937794432044
1772562883382817800,6.11781787109375,-0.0032863407395780087,-0.0047055394388735294,0.002348109148442745
1772562883392884700,6.127884765625,-0.003367034485563636,-0.005077316425740719,-0.00030306773260235786
1772562883402951700,6.13795166015625,-0.0018037590198218822,-0.005256547126919031,0.003978496417403221
1772562883413020000,6.14802001953125,-0.001487641828134656,-0.005057076457887888,0.0022714100778102875
1772562883423086800,6.1580869140625,-0.003251719754189253,-0.0037758296821266413,0.0031465247739106417
1772562883433153800,6.16815380859375,-0.0029885992407798767,-0.006179332733154297,0.00202267081476748
1772562883443220700,6.178220703125,-0.00469568558037281,-0.004973985720425844,0.003328951308503747
1772562883453288700,6.188288818359375,-0.0035989959724247456,-0.003355316584929824,0.005801429972052574
1772562883463356000,6.19835595703125,-0.0030067088082432747,-0.004926847759634256,0.003096190979704261
1772562883473422800,6.2084228515625,-0.0017656758427619934,-0.00646668765693903,0.0012447615154087543
1772562883483489800,6.21848974609375,-0.004172374494373798,-0.006743123754858971,0.0028184233233332634
1772562883493556700,6.228556640625,-0.004414988216012716,-0.005979862064123154,0.0015219965716823936
1772562883503625000,6.238625,-0.002938798163086176,-0.006904511246830225,0.003138535423204303
1772562883513692000,6.24869189453125,-0.001698564155958593,-0.004366518929600716,0.00421471893787384
1772562883523758800,6.2587587890625,-0.003888215171173215,-0.008052067831158638,0.006097041070461273
1772562883533825800,6.26882568359375,-0.0032077773939818144,-0.005411277059465647,0.0033486587926745415
1772562883543893800,6.278893798828125,-0.0010370349045842886,-0.004619252867996693,0.003126817522570491
1772562883553960700,6.288960693359375,-0.002261822810396552,-0.0041310954838991165,0.004207794554531574
1772562883564028000,6.29902783203125,-0.0010378338629379869,-0.006865096744149923,0.0030751521699130535
1772562883574094800,6.3090947265625,-0.0057471017353236675,-0.006028064992278814,0.0023957795929163694
1772562883584161800,6.319161865234375,-0.002510561840608716,-0.001910019083879888,0.004522580187767744
1772562883594229800,6.329229736328125,-0.0032290827948600054,-0.00472577940672636,0.001865544356405735
1772562883604297000,6.339296875,-0.003918042406439781,-0.008049404248595238,0.004569984506815672
1772562883614364000,6.349364013671875,-0.005185973364859819,-0.006926083005964756,0.004816326778382063
1772562883624430800,6.359430908203125,-0.002132392954081297,-0.004745486658066511,0.005913549102842808
1772562883634498800,6.369498779296875,-0.0030421288684010506,-0.004709800239652395,0.0030415961518883705
1772562883644565800,6.379565673828125,-0.0020532971248030663,-0.0029204224701970816,0.00529702752828598
1772562883654632700,6.3896328125,-0.004450408276170492,-0.005598763469606638,0.005030977539718151
1772562883664700000,6.399699951171875,-0.003055178327485919,-0.00487331859767437,0.0028485171496868134
1772562883674766800,6.409766845703125,-0.002682602033019066,-0.004275172483175993,0.0042706448584795
1772562883684834800,6.419834716796875,-0.003626959165558219,-0.006309827324002981,0.0009060074225999415
1772562883694901800,6.42990185546875,-0.005765477195382118,-0.00401604687795043,0.0036218990571796894
1772562883704968700,6.43996875,-0.0030104373581707478,-0.00440966198220849,0.002543851500377059
1772562883715036000,6.450035888671875,-0.0022037657909095287,-0.005249090492725372,0.0028061727061867714
1772562883725103900,6.460103759765625,-0.0022184131667017937,-0.0054672034457325935,0.002814961364492774
1772562883735170800,6.4701708984375,-0.003531617810949683,-0.005601959303021431,0.004517253953963518
1772562883745237800,6.48023779296875,-0.0005350290448404849,-0.004083691164851189,0.008823585696518421
1772562883755304700,6.4903046875,-0.00264798104763031,-0.0034402713645249605,0.0023939155507832766
1772562883765372700,6.50037255859375,-0.001734250457957387,-0.007099454756826162,0.0023089605383574963
1772562883775439600,6.510439697265625,-0.004480235744267702,-0.005908755585551262,0.002898318227380514
1772562883785506800,6.5205068359375,-0.0030663637444376945,-0.0036642432678490877,0.0021081583108752966
1772562883795573800,6.53057373046875,-0.004424042999744415,-0.004553472623229027,0.0049007488414645195
1772562883805640700,6.540640625,-0.0016607472207397223,-0.004752144683152437,0.0037848844658583403
1772562883815709000,6.550708984375,-0.0020034960471093655,-0.005805158521980047,0.004739361349493265
1772562883825775900,6.56077587890625,-0.004495948553085327,-0.004357996862381697,0.0049042110331356525
1772562883835842800,6.5708427734375,-0.0022418489679694176,-0.005289037711918354,0.003359045134857297
1772562883845909800,6.58090966796875,-0.00427250936627388,-0.005306082312017679,0.0046847667545080185
1772562883855977700,6.590977783203125,-0.003973968792706728,-0.005905826110392809,0.002299106912687421
1772562883866044700,6.601044677734375,-0.0035153725184500217,-0.00574869941920042,0.00028575718170031905
1772562883876112000,6.61111181640625,-0.0047177900560200214,-0.005239769350737333,0.001395496423356235
1772562883886178800,6.6211787109375,-0.002737196860834956,-0.006686132401227951,0.00481233187019825
1772562883896245800,6.631245849609375,-0.006215019151568413,-0.004351072479039431,0.004206995479762554
1772562883906314000,6.64131396484375,-0.0034117756877094507,-0.004536162130534649,0.002290052128955722
1772562883916381000,6.651380859375,-0.004905542824417353,-0.003078347770497203,0.002799248555675149
1772562883926447900,6.66144775390625,-0.0016050871927291155,-0.0032226911280304193,0.0025268071331083775
1772562883936514800,6.671514892578125,-0.0018695390317589045,-0.004373176954686642,0.0031241541728377342
1772562883946582800,6.681582763671875,-0.004294613376259804,-0.004283428192138672,0.0009643306257203221
1772562883956649700,6.691649658203125,-0.002092179376631975,-0.006329002324491739,0.004031493328511715
1772562883966716700,6.701716552734375,-0.004567321389913559,-0.003968376200646162,0.004459729418158531
1772562883976784000,6.711783935546875,-0.002442118711769581,-0.005624862387776375,0.0025100293569266796
1772562883986850800,6.721850830078125,-0.0020271982066333294,-0.0027923244051635265,0.006986802909523249
1772562883996919000,6.7319189453125,-0.0005896238726563752,-0.003947070799767971,0.0038072550669312477
1772562884006986000,6.741986083984375,-0.003563842037692666,-0.00436172541230917,0.004598746541887522
1772562884017053000,6.752052978515625,-0.002427737694233656,-0.0024106933269649744,0.0030866037122905254
1772562884027119900,6.762119873046875,-0.005471730604767799,-0.004233094397932291,0.006314621306955814
1772562884037188000,6.77218798828125,-0.00447064870968461,-0.004237888380885124,0.0006508765509352088
1772562884047255000,6.782255126953125,-0.002335326047614217,-0.0054698665626347065,0.0046903593465685844
1772562884057322000,6.792322021484375,-0.003052781568840146,-0.0032629049383103848,0.002061286708340049
1772562884067389000,6.802388916015625,-0.0039049931801855564,-0.0046821036376059055,0.005665076430886984
1772562884077457000,6.812456787109375,-0.002584864152595401,-0.0054613444954156876,0.003065032185986638
1772562884087523800,6.82252392578125,-0.003483148291707039,-0.00404454255476594,0.0032115059439092875
1772562884097591000,6.832591064453125,-0.003727892879396677,-0.005730057135224342,0.002700445242226124
1772562884107658000,6.842657958984375,-0.004406199790537357,-0.0029875340405851603,0.004531901329755783
1772562884117725000,6.852724853515625,-0.0034437335561960936,-0.004313255660235882,0.0020359866321086884
1772562884127793200,6.862793212890625,-0.004658667836338282,-0.007930094376206398,0.003641340183094144
1772562884137860000,6.872860107421875,-0.003831756068393588,-0.0054882424883544445,0.004433364141732454
1772562884147927000,6.882927001953125,-0.003980094101279974,-0.0033774208277463913,0.003613909473642707
1772562884157994000,6.892993896484375,-0.0036306874826550484,-0.0026013758033514023,0.0020506340079009533
1772562884168062000,6.90306201171875,-0.004975583869963884,-0.0060919807292521,0.003926032222807407
1772562884178129000,6.91312890625,-0.004026965703815222,-0.003632818115875125,0.0035148400347679853
1772562884188195800,6.92319580078125,-0.00180855265352875,-0.0035451999865472317,0.0030045784078538418
1772562884198263000,6.933262939453125,-0.0033276197500526905,-0.0044291033409535885,0.002111886627972126
1772562884208330000,6.943330078125,-0.0030900659039616585,-0.005028580781072378,0.0062333946116268635
1772562884218398200,6.953398193359375,-0.002251702593639493,-0.004898884799331427,0.0023758059833198786
1772562884228465200,6.963465087890625,-0.003025883575901389,-0.002578738844022155,0.005774531979113817
1772562884238532000,6.973531982421875,-0.0028754149097949266,-0.005585447885096073,0.0021230720449239016
1772562884248599000,6.98359912109375,-0.002326004905626178,-0.005212338641285896,0.0011864382540807128
1772562884258667000,6.9936669921875,-0.004335360135883093,-0.006054962985217571,0.003451190423220396
1772562884268734000,7.00373388671875,-0.003867708845064044,-0.004584365524351597,0.005736715160310268
1772562884278801000,7.01380078125,-0.0005438174703158438,-0.005388906225562096,0.0028184233233332634
1772562884288867800,7.023867919921875,-0.005685849115252495,-0.004744421225041151,0.004335093777626753
1772562884298935000,7.03393505859375,-0.00273133791051805,-0.006939931306988001,-0.000958205375354737
1772562884309002800,7.044002685546875,-0.0054333810694515705,-0.006312224548310041,0.00395772373303771
1772562884319070000,7.054070068359375,-0.0007384945638477802,-0.0031699605751782656,0.0023406522814184427
1772562884329137200,7.06413720703125,-0.0033105756156146526,-0.004024036228656769,0.0030008498579263687
1772562884339204000,7.0742041015625,-0.0035715652629733086,-0.003721767570823431,0.003988882526755333
1772562884349272000,7.08427197265625,-0.0041518681682646275,-0.0023523701820522547,0.002159823663532734
1772562884359339000,7.094339111328125,-0.0016202671686187387,-0.0062341936863958836,-0.0012514194240793586
1772562884369406000,7.104406005859375,-0.0030663637444376945,-0.004971855320036411,0.0005755090969614685
1772562884379473000,7.114472900390625,-0.0033430662006139755,-0.005797435529530048,0.002269812161102891
1772562884389540900,7.124540771484375,-0.0025249430909752846,-0.00487251952290535,0.002688727341592312
1772562884399607800,7.13460791015625,-0.004253600724041462,-0.006186523009091616,0.005674929823726416
1772562884409675000,7.144675048828125,-0.001907089608721435,-0.005772135220468044,0.00344559783115983
1772562884419742000,7.154741943359375,-0.002180329989641905,-0.0028450549580156803,0.000743820914067328
1772562884429809200,7.16480908203125,-0.0036250948905944824,-0.004391286056488752,0.0035659726709127426
1772562884439877000,7.174877197265625,-0.0020668793004006147,-0.0030690268613398075,0.0008394283941015601
1772562884449944000,7.184944091796875,-0.0031787490006536245,-0.004619785584509373,0.0023755396250635386
1772562884460011000,7.195010986328125,-0.0009145294898189604,-0.005393433850258589,0.0023696806747466326
1772562884470078000,7.205077880859375,-0.0026557042729109526,-0.004905809182673693,0.0013129384024068713
1772562884480146000,7.21514599609375,-0.004581169690936804,-0.006252835970371962,0.003932689782232046
1772562884490212900,7.225212890625,-0.0048829056322574615,-0.0065564364194869995,0.005496498197317123
1772562884500279800,7.23527978515625,-0.004766792058944702,-0.002974484581500292,0.0043806335888803005
1772562884510347000,7.245346923828125,-0.0034735610242933035,-0.0019915117882192135,0.003941211849451065
1772562884520414000,7.2554140625,-0.0020301276817917824,-0.005559881217777729,0.005741775035858154
1772562884530482200,7.265482177734375,-0.002092179376631975,-0.004859469830989838,0.000847950461320579
1772562884540549000,7.275549072265625,-0.0024684839881956577,-0.00535375252366066,0.0028269453905522823
1772562884550616000,7.285615966796875,-0.003555586328729987,-0.004339887294918299,0.004338023252785206
1772562884560683000,7.29568310546875,-0.0026439863722771406,-0.0037404096219688654,0.0024823325220495462
1772562884570751000,7.3057509765625,-0.003930293023586273,-0.004532966297119856,0.003690076060593128
1772562884580818000,7.31581787109375,-0.001659948262386024,-0.00421258807182312,0.0030304109677672386
1772562884590884900,7.325884765625,-0.004536162130534649,-0.004036553204059601,0.004810734186321497
1772562884600951800,7.335951904296875,-0.0032708945218473673,-0.0046211169101297855,0.0020359866321086884
1772562884611019000,7.34601904296875,-0.002621615771204233,-0.0039017973467707634,0.005255215801298618
1772562884621087000,7.3560869140625,-0.002642122097313404,-0.004874117206782103,0.0035776905715465546
1772562884631154200,7.366154296875,-0.003117762738838792,-0.004878112114965916,-0.0007137271459214389
1772562884641221000,7.37622119140625,-0.004284759983420372,-0.006272010505199432,0.0034413367975503206
1772562884651288000,7.3862880859375,-0.001975799212232232,-0.005064533557742834,0.004735366906970739
1772562884661356000,7.39635595703125,-0.0026024410035461187,-0.004566255956888199,0.0012186624808236957
1772562884671423000,7.406423095703125,-0.003293264890089631,-0.005434180144220591,0.0012871057260781527
1772562884681490000,7.416489990234375,-0.002799781272187829,-0.006028864067047834,0.00040719733806326985
1772562884691556900,7.426556884765625,-0.004063983913511038,-0.004997687879949808,0.0006639260682277381
1772562884701623800,7.436623779296875,-0.0023971113841980696,-0.006674414500594139,0.007026750594377518
1772562884711692000,7.446692138671875,-0.0024623586796224117,-0.005587311927229166,0.0033401367254555225
1772562884721759000,7.456759033203125,-0.002728408435359597,-0.003938548732548952,0.005547364708036184
1772562884731826200,7.466826171875,-0.0037910097744315863,-0.0057007623836398125,0.0041617220267653465
1772562884741893000,7.47689306640625,-0.0030131004750728607,-0.0057404437102377415,0.001166198286227882
1772562884751961000,7.486961181640625,-0.0011528824688866735,-0.005195294506847858,0.00313560594804585
1772562884762028000,7.497028076171875,-0.0033593112602829933,-0.006834203843027353,0.004736698232591152
1772562884772095000,7.507094970703125,-0.0015994944842532277,-0.0038274950347840786,0.003689010627567768
1772562884782162000,7.517161865234375,-0.003108707955107093,-0.0030120352748781443,0.004350007511675358
1772562884792230000,7.52722998046875,-0.0017363809747621417,-0.004671184346079826,0.005092230159789324
1772562884802296800,7.537296875,-0.00293320557102561,-0.005917810369282961,0.0017893778858706355
1772562884812363800,7.54736376953125,-0.0046325684525072575,-0.005857356358319521,0.002910036128014326
1772562884822431000,7.557430908203125,-0.004226702731102705,-0.005092762876302004,0.004471980035305023
1772562884832498200,7.567498291015625,-0.004433364141732454,-0.0070424629375338554,0.0033891387283802032
1772562884842566000,7.57756591796875,-0.002013349672779441,-0.004487160127609968,0.003290601773187518
1772562884852633000,7.587633056640625,-0.0017496967921033502,-0.005477589555084705,0.0016429040115326643
1772562884862700000,7.597699951171875,-0.0027774106711149216,-0.004600610584020615,0.004317250568419695
1772562884872767000,7.60776708984375,-0.0008149272762238979,-0.004026167094707489,0.003522030543535948
1772562884882835000,7.6178349609375,-0.0019409117521718144,-0.005833654198795557,0.003418966196477413
1772562884892902000,7.62790185546875,-0.000871652620844543,-0.0041097900830209255,0.0036906085442751646
1772562884902968800,7.63796875,-0.0036040558479726315,-0.005798500496894121,0.003896470880135894
1772562884913035800,7.648035888671875,-0.0022024342324584723,-0.0031292142812162638,0.0016269250772893429
1772562884923103000,7.65810302734375,-0.0009376989910379052,-0.004002464935183525,0.0028844696935266256
1772562884933171000,7.6681708984375,-0.003975300583988428,-0.006705040577799082,0.002153698354959488
1772562884943238100,7.678238037109375,-0.0002103897277265787,-0.0025571673177182674,0.0012562130577862263
1772562884953305000,7.68830517578125,-0.0015454323729500175,-0.005589708685874939,0.004560130648314953
1772562884963372000,7.6983720703125,-0.0031611721497029066,-0.0017507621087133884,0.00279125920496881
1772562884973440000,7.70843994140625,-0.003310841741040349,-0.005909820552915335,0.005249623209238052
1772562884983507000,7.7185068359375,-0.0013640711549669504,-0.0033603766933083534,0.0027177559677511454
1772562884993574000,7.728573974609375,-0.0014285196084529161,-0.005200620740652084,0.002454369328916073
1772562885003640800,7.738640869140625,-0.00384453940205276,-0.006705306936055422,0.0037675739731639624
1772562885013707800,7.748707763671875,-0.0033489251509308815,-0.007382815238088369,0.0035547874867916107
1772562885023776000,7.75877587890625,-0.003784085623919964,-0.006728476379066706,0.0007443535141646862
1772562885033843000,7.768843017578125,-0.0036282907240092754,-0.0060919807292521,0.00315984059125185
1772562885043910100,7.77891015625,-0.0049500176683068275,-0.004787564743310213,0.003834685543552041
1772562885053977000,7.78897705078125,-0.005071723833680153,-0.0029116340447217226,0.005745503585785627
1772562885064045000,7.799045166015625,-0.0028240159153938293,-0.005013667047023773,-0.0005853627808392048
1772562885074112000,7.809112060546875,-0.003965979442000389,-0.004185690078884363,0.0021646174136549234
1772562885084179000,7.819178955078125,-0.002671150490641594,-0.004814994987100363,0.003709516953676939
1772562885094246000,7.829245849609375,-0.0054429685696959496,-0.007990015670657158,0.005254683084785938
1772562885104314000,7.839314208984375,-0.005620601586997509,-0.005297826137393713,0.0011534150689840317
1772562885114381000,7.849381103515625,-0.0018421085551381111,-0.004573446698486805,0.0019076223252341151
1772562885124448000,7.859447998046875,-0.0008847020799294114,-0.006789728999137878,0.0011310444679111242
1772562885134515000,7.869514892578125,-0.0023667511995881796,-0.004462392535060644,0.0031108383554965258
1772562885144582100,7.87958203125,-0.0036823528353124857,-0.004381166305392981,0.002409894485026598
1772562885154649900,7.88964990234375,-0.0043896883726119995,-0.0046781087294220924,0.005291967187076807
1772562885164717000,7.899717041015625,-0.0029760824982076883,-0.004992361646145582,0.004307130351662636
1772562885174784000,7.909783935546875,-0.0037436054553836584,-0.0056980992667376995,0.00544456671923399
1772562885184851000,7.919850830078125,-0.003308444982394576,-0.005375324282795191,0.002698048483580351
1772562885194919000,7.9299189453125,-0.0054906392470002174,-0.004878378473222256,0.0023158849216997623
1772562885204986000,7.939986083984375,-0.003308178624138236,-0.005888781975954771,0.0031619712244719267
1772562885215053000,7.950052978515625,-0.0008684568456374109,-0.004983306862413883,0.003838680451735854
1772562885225120000,7.9601201171875,-0.0035353463608771563,-0.0067636300809681416,0.0018722022650763392
1772562885235187000,7.97018701171875,-0.004762264434248209,-0.003451456781476736,0.0024700819049030542
1772562885245255000,7.9802548828125,-0.0021731394808739424,-0.006652043666690588,0.003596865339204669
1772562885255321900,7.99032177734375,-0.005044825840741396,-0.005212604999542236,0.004505536053329706
1772562885265389000,8.00038916015625,-0.0033718282356858253,-0.006707437336444855,0.004728442523628473
1772562885275456000,8.0104560546875,-0.0028453213162720203,-0.0035350800026208162,0.0019345202017575502
1772562885285524000,8.02052392578125,-0.004327903036028147,-0.003754258155822754,0.0020985708106309175
1772562885295591000,8.0305908203125,-0.0029116340447217226,-0.00461632339283824,0.0037356161046773195
1772562885305657900,8.040657958984376,-0.004688494838774204,-0.004265052266418934,0.003388339886441827
1772562885315725000,8.05072509765625,-0.003918575122952461,-0.0038543930277228355,0.0034112429711967707
1772562885325792000,8.0607919921875,-0.0033843449782580137,-0.004245078656822443,0.004397411365061998
1772562885335860000,8.07085986328125,-0.0037172401789575815,-0.00455826660618186,0.004416053649038076
1772562885345927000,8.080927001953125,-0.0028791434597223997,-0.003126817522570491,0.0007701861904934049
1772562885355994000,8.090994140625,-0.0024141555186361074,-0.004129763692617416,0.0028607675340026617
1772562885366061000,8.10106103515625,-0.004870655480772257,-0.004564924165606499,0.003924966789782047
1772562885376129000,8.11112890625,-0.005679191090166569,-0.006981743033975363,0.0018381137633696198
1772562885386196000,8.121196044921875,-0.005103681702166796,-0.005485845264047384,0.00526640098541975
1772562885396263000,8.131262939453125,-0.0030453247018158436,-0.005789978429675102,0.0014362427173182368
1772562885406329900,8.141329833984376,-0.0025331987999379635,-0.004537493921816349,-0.000371777277905494
1772562885416397000,8.15139697265625,-0.001788046327419579,-0.004728176165372133,0.004500475712120533
1772562885426465000,8.161465087890624,-0.0038607846945524216,-0.003382480936124921,0.006524478085339069
1772562885436532000,8.171531982421875,-0.0033486587926745415,-0.005052549298852682,0.0018884475575760007
1772562885446599000,8.181598876953124,-0.002487126039341092,-0.005108475685119629,0.00007217166421469301
1772562885456666000,8.191666015625,-0.004265052266418934,-0.003984355367720127,0.00580915343016386
1772562885466733800,8.20173388671875,-0.004227235447615385,-0.003994208760559559,0.0022053637076169252
1772562885476801000,8.211801025390624,-0.004436027258634567,-0.004835235420614481,0.003796602366492152
1772562885486868000,8.221867919921875,-0.004455734975636005,-0.007620102725923061,0.005501025356352329
1772562885496935000,8.231934814453124,-0.0006410228670574725,-0.0037382792215794325,0.003055711043998599
1772562885507001900,8.242001953125,-0.0051747881807386875,-0.004771851934492588,0.002784334821626544
1772562885517070000,8.252070068359375,-0.004357730504125357,-0.007182279136031866,0.003099919529631734
1772562885527137000,8.262136962890626,-0.0036671727430075407,-0.005026982631534338,0.002237854292616248
1772562885537204000,8.272203857421875,-0.00054142065346241,-0.004791559185832739,0.004220045171678066
1772562885547271000,8.28227099609375,-0.0037004624027758837,-0.002852778183296323,0.0007214503129944205
1772562885557339000,8.2923388671875,-0.004760666750371456,-0.003232811111956835,0.0047116647474467754
1772562885567405800,8.30240576171875,-0.0027478495612740517,-0.003817108692601323,0.00552126532420516
1772562885577473000,8.31247314453125,-0.00526799913495779,-0.006052299868315458,0.0012460930738598108
1772562885587540000,8.3225400390625,-0.0015398397808894515,-0.003293797606602311,0.0015970977256074548
1772562885597608200,8.332608154296874,-0.004608334042131901,-0.0037824877072125673,0.0022913836874067783
1772562885607675100,8.342675048828125,-0.0035779569298028946,-0.004967061802744865,0.005495965480804443
1772562885617742000,8.3527421875,-0.0028719529509544373,-0.00407383730635047,0.002826412906870246
1772562885627809000,8.36280908203125,-0.004495149478316307,-0.006518619135022163,0.0027228158432990313
1772562885637876000,8.3728759765625,-0.0031561122741550207,-0.00401711231097579,0.005096491426229477
1772562885647944000,8.38294384765625,-0.002886600326746702,-0.006053897552192211,0.001999501371756196
1772562885658011000,8.393010986328125,-0.0014761901693418622,-0.00538517814129591,0.0029878003988415003
1772562885668077800,8.403077880859374,-0.0027595674619078636,-0.0031377363484352827,0.0028045750223100185
1772562885678145000,8.41314501953125,-0.00205249828286469,-0.004578772932291031,0.002216815249994397
1772562885688213000,8.423212890625,-0.0016900419723242521,-0.00583871454000473,0.002698048483580351
1772562885698280000,8.433280029296874,-0.0024767396971583366,-0.006329002324491739,0.0038368161767721176
1772562885708347100,8.44334716796875,-0.00077631144085899,-0.0037955371662974358,0.004195277579128742
1772562885718414000,8.4534140625,-0.0017526262672618032,-0.004368915688246489,0.003183542750775814
1772562885728481000,8.46348095703125,-0.0029699571896344423,-0.005774798337370157,0.0026639599818736315
1772562885738549000,8.473549072265625,-0.0037880802992731333,-0.005726595409214497,0.002956641372293234
1772562885748616000,8.483615966796876,-0.002079662401229143,-0.0062637547962367535,0.005599296186119318
1772562885758683000,8.493682861328125,-0.0008404936525039375,-0.0029939257074147463,0.00207726564258337
1772562885768750000,8.50375,-0.003997670952230692,-0.002865294925868511,0.002570749493315816
1772562885778817800,8.51381787109375,-0.0031398669816553593,-0.004762797150760889,0.0021587584633380175
1772562885788885000,8.523885009765625,-0.003754524514079094,-0.005543636158108711,0.0018274611793458462
1772562885798952000,8.533951904296876,-0.003183010034263134,-0.0057444386184215546,0.0040855552069842815
1772562885809019100,8.54401904296875,-0.003596865339204669,-0.0065345983020961285,0.002061819192022085
1772562885819086000,8.554086181640624,-0.0036658411845564842,-0.004591023549437523,0.00478277076035738
1772562885829154000,8.564154052734375,-0.0004828310920856893,-0.005263737868517637,0.0018735338235273957
1772562885839221000,8.574220947265625,-0.000943025341257453,-0.0036187032237648964,0.002496447181329131
1772562885849288000,8.584287841796876,-0.0030605047941207886,-0.006883206311613321,0.0055034225806593895
1772562885859355000,8.59435498046875,-0.004960137419402599,-0.004996622912585735,0.0018431737553328276
1772562885869422800,8.6044228515625,-0.0039087217301130295,-0.00481206551194191,0.0024580976460129023
1772562885879489800,8.61448974609375,-0.004092213232070208,-0.0041132522746920586,0.0014271880500018597
1772562885889557000,8.624556884765624,-0.0035806200467050076,-0.004947886802256107,0.002769687445834279
1772562885899624000,8.6346240234375,-0.002508697798475623,-0.003952663857489824,0.003867442486807704
1772562885909691100,8.644691162109375,-0.0031675638165324926,-0.0038954056799411774,0.006913832388818264
1772562885919759000,8.654759033203124,-0.003320429241284728,-0.0049287122674286366,0.0018247979460284114
1772562885929826000,8.664825927734375,-0.0027869981713593006,-0.004506068304181099,0.0007179882377386093
1772562885939893000,8.67489306640625,-0.004073305055499077,-0.0042719766497612,0.0008980178972706199
1772562885949960000,8.6849599609375,-0.002258626976981759,-0.00506906071677804,0.0032842103391885757
1772562885960028000,8.69502783203125,-0.0027270768769085407,-0.005676527973264456,0.003469033632427454
1772562885970094800,8.7050947265625,-0.0007768440991640091,-0.005137504078447819,0.0040978058241307735
1772562885980161800,8.715161865234375,-0.0035510589368641376,-0.005001682788133621,0.0032202943693846464
1772562885990229000,8.72522900390625,-0.0046482812613248825,-0.0054299188777804375,-0.0012753878254443407
1772562886000296200,8.735296142578125,-0.004808603785932064,-0.006893592420965433,0.004730306565761566
1772562886010364200,8.7453642578125,-0.0018045579781755805,-0.003287938656285405,0.004591822158545256
1772562886020431000,8.75543115234375,-0.0031521173659712076,-0.006951649207621813,0.0043444144539535046
1772562886030498000,8.765498046875,-0.003442401997745037,-0.005197691265493631,0.005408880300819874
1772562886040565000,8.77556494140625,0.000075101139373146,-0.003707652911543846,0.000556334329303354
1772562886050633000,8.785633056640625,-0.004181162919849157,-0.005345230456441641,0.003201119601726532
1772562886060700200,8.7957001953125,-0.0037923413328826427,-0.0035175031516700983,0.004347610287368298
1772562886070767000,8.80576708984375,-0.003260774305090308,-0.004971322603523731,0.004521248396486044
1772562886080834000,8.815833984375,-0.0011230550007894635,-0.003468234557658434,0.007713579572737217
1772562886090901200,8.8259013671875,-0.003165965899825096,-0.0017329188995063305,0.0043910201638937
1772562886100969000,8.835968994140625,-0.0030562435276806355,-0.003997138235718012,-0.0002721750643104315
1772562886111036200,8.8460361328125,-0.002112152986228466,-0.0033595776185393333,0.0025896579027175903
1772562886121103000,8.85610302734375,-0.003596332622691989,-0.004165982827544212,0.0028932581190019846
1772562886131170000,8.866170166015625,-0.0038280277512967587,-0.005783320404589176,0.0010165285784751177
1772562886141238000,8.876238037109376,-0.00501073757186532,-0.005035505164414644,0.00558145297691226
1772562886151305000,8.886304931640625,-0.005312207154929638,-0.004743089899420738,0.0017102820565924048
1772562886161372000,8.896371826171874,-0.001731320982798934,-0.006314621306955814,0.0016221314435824752
1772562886171439000,8.906439208984375,-0.003293531248345971,-0.006685333326458931,0.004434163216501474
1772562886181506000,8.916506103515625,-0.0038099181838333607,-0.004251736681908369,0.0057646785862743855
1772562886191574000,8.926573974609376,-0.004071706905961037,-0.006338589824736118,0.002415487077087164
1772562886201641000,8.936640869140625,-0.003879959462210536,-0.0025867284275591373,0.0055028898641467094
1772562886211708200,8.946708251953124,-0.0038061898667365313,-0.00561021501198411,0.0046576024033129215
1772562886221775000,8.956775146484375,-0.002217081608250737,-0.00700864102691412,0.004772651009261608
1772562886231843000,8.966843017578125,-0.0017566210590302944,-0.002787264296784997,0.000713993504177779
1772562886241910000,8.976909912109376,-0.004072239622473717,-0.005346828605979681,0.003608316881582141
1772562886251977000,8.98697705078125,-0.0036136433482170105,-0.0036613137926906347,0.004992361646145582
1772562886262044000,8.9970439453125,-0.0030514500103890896,-0.0052964948117733,0.0028043086640536785
1772562886272111000,9.007111083984375,-0.004436559975147247,-0.0059716058894991875,0.002114816103130579
1772562886282179000,9.017178955078125,-0.003519101068377495,-0.00755086075514555,0.004714594222605228
1772562886292246000,9.02724609375,-0.00395825644955039,-0.0028011128306388855,0.0031641016248613596
1772562886302313200,9.037313232421875,-0.0022024342324584723,-0.00643686018884182,0.004562793765217066
1772562886312380200,9.047380126953126,-0.0015598133904859424,-0.005665875039994717,0.003114566905423999
1772562886322446000,9.057446044921875,-0.004581702407449484,-0.004650145769119263,0.0022421153262257576
1772562886332514000,9.06751416015625,-0.0020325244404375553,-0.0038868836127221584,0.002171008847653866
1772562886342581000,9.0775810546875,-0.004065315239131451,-0.005652825813740492,0.0036730316933244467
1772562886352648000,9.08764794921875,-0.004334827419370413,-0.0028075044974684715,-0.0005067995516583323
1772562886362715000,9.09771484375,-0.004220843780785799,-0.004492486361414194,0.005636313930153847
1772562886372782000,9.107781982421875,-0.003453587181866169,-0.0032642364967614412,0.0013454289874061942
1772562886382850000,9.11785009765625,-0.00205276464112103,-0.0037888791412115097,0.004763329867273569
1772562886392917200,9.127917236328125,-0.002433596644550562,-0.005108742043375969,0.0033420007675886154
1772562886402984200,9.137984130859374,-0.007531685754656792,-0.0038280277512967587,0.0017297230660915375
1772562886413051100,9.148051025390625,-0.0022277343086898327,-0.005479720421135426,0.0033571808598935604
1772562886423119000,9.158119140625,-0.004704740364104509,-0.0062853265553712845,0.0057279267348349094
1772562886433186000,9.16818603515625,-0.001695900922641158,-0.0060147494077682495,0.004247209057211876
1772562886443253000,9.1782529296875,-0.0041436124593019485,-0.0036125779151916504,0.0027712853625416756
1772562886453320000,9.18831982421875,-0.004693022463470697,-0.005072256550192833,0.004055195488035679
1772562886463387100,9.19838720703125,-0.0028125643730163574,-0.0054845139384269714,0.0017829863354563713
1772562886473454800,9.208454833984375,-0.0041457428596913815,-0.004634965676814318,0.0025073662400245667
1772562886483522300,9.218522216796876,-0.005264536943286657,-0.005706089083105326,0.0036165728233754635
1772562886493589200,9.22858935546875,-0.00472551304847002,-0.003165699541568756,0.004039749037474394
1772562886503656200,9.23865625,-0.0007906925166025758,-0.003081277245655656,0.0027470507193356752
1772562886513724200,9.24872412109375,-0.003372893435880542,-0.0057044909335672855,0.0016530241118744016
1772562886523791000,9.258791015625,-0.004881840664893389,-0.005370264407247305,0.004197674337774515
1772562886533858000,9.268858154296876,-0.0030714236199855804,-0.004211789462715387,0.002225870033726096
1772562886543925000,9.278925048828125,-0.0007294398383237422,-0.005167065188288689,0.0011606055777519941
1772562886553993000,9.288992919921874,-0.002055161399766803,-0.006905576679855585,0.0004316983977332711
1772562886564060000,9.299059814453125,-0.0046509443782269955,-0.005320463329553604,0.0016724651213735342
1772562886574126800,9.309126953125,-0.002766757970675826,-0.005396096967160702,0.0032626385800540447
1772562886584194000,9.319194091796875,-0.0021856562234461308,-0.003953462466597557,0.002175003755837679
1772562886594261200,9.32926123046875,-0.0008410262526012957,-0.005694637540727854,0.0024700819049030542
1772562886604329200,9.3393291015625,-0.0033427998423576355,-0.005513009615242481,0.0023313311394304037
1772562886614396200,9.349396240234375,-0.002838130807504058,-0.0034439999144524336,0.004362790379673243
1772562886624463000,9.359463134765624,-0.003582750679925084,-0.004603007808327675,0.0026205505710095167
1772562886634530000,9.369530029296875,-0.0032527849543839693,-0.0060080913826823235,0.003725229762494564
1772562886644597000,9.379596923828124,-0.002415487077087164,-0.0062427157536149025,0.002454369328916073
1772562886654665000,9.3896650390625,-0.0016793893883004785,-0.004862132947891951,-0.00044661210267804563
1772562886664732000,9.39973193359375,-0.003611779073253274,-0.004561196081340313,0.004706870764493942
1772562886674798800,9.409798828125,-0.0035902075469493866,-0.003825897118076682,0.00014514227223116904
1772562886684866000,9.419865966796875,-0.00336144189350307,-0.004689826630055904,0.002439721953123808
1772562886694934000,9.42993408203125,-0.002755040070042014,-0.005001682788133621,0.0026589001063257456
1772562886705001200,9.440001220703126,-0.004472779110074043,-0.006138053722679615,0.0030597057193517685
1772562886715068200,9.450068115234375,-0.0039023298304528,-0.004135889001190662,0.005693305749446154
1772562886725135000,9.460135009765626,-0.0027531760279089212,-0.00424241553992033,0.005600893869996071
1772562886735203000,9.470203125,-0.001961151836439967,-0.00293267285451293,0.002928145695477724
1772562886745270000,9.48027001953125,-0.004000067710876465,-0.0037025928031653166,0.0017515610670670867
1772562886755337000,9.4903369140625,-0.0054328483529388905,-0.005563077051192522,0.0008250473183579743
1772562886765404000,9.50040380859375,-0.0016559535870328546,-0.0051534827798604965,0.0038661109283566475
1772562886775470800,9.510470947265626,-0.0025840650778263807,-0.005337507463991642,0.0026695525739341974
1772562886785539000,9.5205390625,-0.003061836352571845,-0.006305832881480455,0.004191549029201269
1772562886795606000,9.53060595703125,-0.0028517129831016064,-0.0016796556301414967,0.00013369068619795144
1772562886805673200,9.540673095703125,-0.004035221878439188,-0.0032783513888716698,0.002828809665516019
1772562886815740200,9.550740234375,-0.0018887137994170189,-0.005331914871931076,0.0036155073903501034
1772562886825808100,9.56080810546875,-0.005539108533412218,-0.0057737333700060844,-0.00025539714260958135
1772562886835875000,9.570875,-0.00321922916918993,-0.003780623432248831,0.0022591594606637955
1772562886845942000,9.58094189453125,-0.0035212314687669277,-0.0029699571896344423,0.0026642263401299715
1772562886856009000,9.591009033203125,-0.001094559207558632,-0.0024791366886347532,0.0016261261189356446
1772562886866076000,9.601075927734374,-0.005118861794471741,-0.005676794331520796,0.003885818412527442
1772562886876144000,9.61114404296875,-0.0020564929582178593,-0.004350806120783091,-0.0008759136544540524
1772562886886211000,9.621211181640625,-0.0058067562058568,-0.0044440170750021935,0.005864813458174467
1772562886896278000,9.631278076171874,-0.002436526119709015,-0.006418218370527029,0.0021116205025464296
1772562886906345200,9.64134521484375,-0.0022687469609081745,-0.0052168662659823895,0.001752360025420785
1772562886916413200,9.6514130859375,-0.0027590349782258272,-0.0073684342205524445,0.0025483788922429085
1772562886926480100,9.661480224609376,-0.003582750679925084,-0.007694138679653406,0.0015992282424122095
1772562886936547000,9.671547119140625,-0.001270061475224793,-0.0041398839093744755,0.0026407905388623476
1772562886946614000,9.681614013671876,-0.0028855351265519857,-0.006563093978911638,0.003823766717687249
1772562886956681000,9.691680908203125,-0.0032895365729928017,-0.004311125259846449,0.0017358483746647835
1772562886966749000,9.7017490234375,-0.004063983913511038,-0.006156695540994406,0.0034583809319883585
1772562886976816000,9.711816162109375,-0.002609365154057741,-0.0037374801468104124,0.0022796657867729664
1772562886986883000,9.721883056640625,-0.0024056334514170885,-0.004511128645390272,0.0017443705582991242
1772562886996950300,9.7319501953125,-0.003561178920790553,-0.006542054936289787,0.005851231049746275
1772562887007018000,9.74201806640625,-0.0024373249616473913,-0.006339122075587511,0.0019952403381466866
1772562887017085200,9.752085205078124,-0.0037824877072125673,-0.003064233111217618,0.0029734193813055754
1772562887027152100,9.762152099609375,-0.0010641991393640637,-0.0056986319832503796,0.0033103092573583126
1772562887037219000,9.772218994140625,-0.004151601810008287,-0.0054759918712079525,0.001847701147198677
1772562887047286000,9.7822861328125,-0.003239735495299101,-0.00532552320510149,0.0044197821989655495
1772562887057354000,9.79235400390625,-0.002365153282880783,-0.004496214911341667,0.0018319884547963738
1772562887067421000,9.8024208984375,-0.004222441930323839,-0.0059721386060118675,0.0003832288784906268
1772562887077487900,9.81248779296875,-0.005297559779137373,-0.004063184838742018,0.003457582090049982
1772562887087555000,9.82255517578125,-0.0035475967451930046,-0.003275954397395253,0.004574511665850878
1772562887097623000,9.832623046875,-0.0025686188600957394,-0.004700479097664356,0.0019238675013184547
1772562887107690000,9.84268994140625,-0.0030975225381553173,-0.006159359123557806,0.0049129994586110115
1772562887117757200,9.852757080078124,-0.0015931029338389635,-0.00561181316152215,0.004849616438150406
1772562887127824100,9.86282421875,-0.0025965820532292128,-0.004162254277616739,0.0029443909879773855
1772562887137891000,9.87289111328125,-0.0014703312190249562,-0.003127083647996187,0.002859169617295265
1772562887147959000,9.882958984375,-0.00529622845351696,-0.004028563853353262,0.005403287708759308
1772562887158026000,9.89302587890625,-0.004237888380885124,-0.007102916948497295,0.0011936287628486753
1772562887168093000,9.903093017578126,-0.005115399602800608,-0.005253884010016918,0.004490622319281101
1772562887178159900,9.913159912109375,-0.0022450448013842106,-0.002935868687927723,0.002862099092453718
1772562887188228000,9.92322802734375,-0.002525741932913661,-0.004548412747681141,0.005034706089645624
1772562887198295000,9.933294921875,-0.0017270599491894245,-0.006473878398537636,0.0005731122801080346
1772562887208362000,9.943362060546875,-0.003655987558886409,-0.0019286612514406443,0.002442385070025921
1772562887218429200,9.95342919921875,-0.006387858185917139,-0.0051747881807386875,0.0017188041238114238
1772562887228496100,9.96349609375,-0.0035057852510362864,-0.006215285509824753,0.006450176239013672
1772562887238564000,9.973564208984374,-0.0029502499382942915,-0.005834719631820917,0.0036549223586916924
1772562887248631000,9.983631103515625,-0.003290868131443858,-0.004063184838742018,0.007785485126078129
1772562887258698000,9.993697998046875,-0.0028873991686850786,-0.0052325790748000145,0.0038924762047827244
1772562887268765000,10.003764892578126,-0.003936951048672199,-0.004880508873611689,0.0043899547308683395
1772562887278833200,10.013833251953125,-0.0015997608425095677,-0.006780141964554787,0.004704207647591829
1772562887288900000,10.023900146484374,-0.0016666061710566282,-0.004938299767673016,0.0034107104875147343
1772562887298967000,10.033967041015625,-0.0023156185634434223,-0.0032051142770797014,0.005843241699039936
1772562887309034000,10.044033935546874,-0.002612827345728874,-0.005873868241906166,0.003894074121490121
1772562887319101200,10.05410107421875,-0.00350418733432889,-0.007290669716894627,0.0036903421860188246
1772562887329169200,10.064169189453125,-0.0036669063847512007,-0.006743656471371651,0.005499427672475576
1772562887339236000,10.074236083984376,-0.004305532667785883,-0.004118045791983604,0.0028061727061867714
1772562887349303000,10.084302978515625,-0.0015068164793774486,-0.004593953024595976,0.0024437166284769773
1772562887359370000,10.094369873046874,-0.0026261431630700827,-0.005293831694871187,0.0007861651247367263
1772562887369438200,10.104438232421876,-0.0034208304714411497,-0.004846686962991953,0.0065170214511454105
1772562887379505200,10.114505126953125,-0.004761732183396816,-0.005787048954516649,0.0019105518003925681
1772562887389572000,10.124572021484376,-0.0017739315517246723,-0.006870156619697809,0.0014865765115246177
1772562887399639000,10.13463916015625,-0.0011145329335704446,-0.00344533147290349,0.0033047166652977467
1772562887409706200,10.144706298828124,-0.005632585845887661,-0.003742273896932602,0.004729241598397493
1772562887419774000,10.15477392578125,-0.004465055651962757,-0.0059660132974386215,-0.00010679275874281302
1772562887429841200,10.164841064453125,-0.004633633885532618,-0.005539907608181238,0.0013622068800032139
1772562887439908000,10.174908203125,-0.00318913534283638,-0.003768639173358679,0.004431500099599361
1772562887449975000,10.18497509765625,-0.004829376470297575,-0.005938849411904812,0.0016261261189356446
1772562887460043000,10.19504296875,-0.002454102970659733,-0.005131378769874573,0.006933273747563362
1772562887470110200,10.205110107421875,-0.005483714863657951,-0.006444317288696766,0.002269545802846551
1772562887480177200,10.21517724609375,-0.005676261615008116,-0.004145476501435041,0.004773450084030628
1772562887490244000,10.225244140625,-0.002956641372293234,-0.004887166898697615,0.004335360135883093
1772562887500311000,10.23531103515625,-0.001716939965263009,-0.005417668726295233,0.0034091125708073378
1772562887510379000,10.24537890625,-0.00247567449696362,-0.004447745159268379,0.004337224178016186
1772562887520446000,10.255446044921875,-0.0034115093294531107,-0.007183876819908619,0.002463690238073468
1772562887530513200,10.26551318359375,-0.0022767363116145134,-0.003233876544982195,0.003145193215459585
1772562887540580000,10.275580078125,-0.003736681304872036,-0.003918042406439781,0.0062456452287733555
1772562887550648000,10.28564794921875,-0.0036187032237648964,-0.004352404270321131,0.002246909076347947
1772562887560715000,10.295715087890626,-0.003944940399378538,-0.005095425993204117,0.004763063509017229
1772562887570782000,10.305781982421875,-0.00532472413033247,-0.004356931429356337,0.0037880802992731333
1772562887580849200,10.31584912109375,-0.003367300843819976,-0.004514058120548725,0.0025936525780707598
1772562887590916000,10.325916015625,-0.004841360729187727,-0.005417935084551573,0.002785133896395564
1772562887600984000,10.335984130859375,-0.005035771057009697,-0.005568669643253088,0.005681587848812342
1772562887611051000,10.346051025390626,-0.004220311529934406,-0.006551376078277826,0.0049223206005990505
1772562887621118000,10.356117919921875,-0.0014644722687080503,-0.004084756597876549,0.0022186795249581337
1772562887631185200,10.36618505859375,-0.002855441300198436,-0.00586721021682024,0.004194212146103382
1772562887641253000,10.376253173828125,-0.00005326322207110934,-0.0070366039872169495,0.004764661658555269
1772562887651320000,10.386320068359375,-0.004717257339507341,-0.004033890087157488,0.0023435817565768957
1772562887661387000,10.396386962890626,-0.003949201665818691,-0.00589677132666111,0.0035888757556676865
1772562887671454000,10.406453857421875,-0.00410526292398572,-0.004752144683152437,0.003213103860616684
1772562887681521200,10.416521240234376,-0.0020777983590960503,-0.007368167862296104,0.00304718897677958
1772562887691589000,10.426589111328125,-0.002802178030833602,-0.005034439731389284,-0.000565122754778713
1772562887701656000,10.436656005859374,-0.003742273896932602,-0.004700745455920696,0.0035947347059845924
1772562887711723000,10.446722900390625,-0.00418515782803297,-0.008045942522585392,0.005407282151281834
1772562887721790000,10.4567900390625,-0.003070624778047204,-0.0058669438585639,0.003949201665818691
1772562887731858000,10.46685791015625,-0.003079413203522563,-0.004687163513153791,0.0014974954538047314
1772562887741925000,10.476925048828125,-0.003359045134857297,-0.004763329867273569,0.005572664551436901
1772562887751992000,10.486991943359374,-0.003552923211827874,-0.0021526331547647715,0.0036874127108603716
1772562887762059000,10.49705908203125,-0.0044136568903923035,-0.004532434046268463,0.003754524514079094
1772562887772126000,10.5071259765625,-0.002243713242933154,-0.004543086513876915,0.0010921623324975371
1772562887782194200,10.517194091796876,-0.003707386553287506,-0.005108742043375969,0.000013848437447450124
1772562887792261000,10.52726123046875,-0.0034354778472334146,-0.005441637244075537,0.0011182613670825958
1772562887802328000,10.537328125,-0.00458676228299737,-0.00691942498087883,0.0023329290561378
1772562887812395000,10.54739501953125,-0.005407015793025494,-0.005884787067770958,0.004775047767907381
1772562887822463000,10.557462890625,-0.001981391804292798,-0.0023909860756248236,0.001919340225867927
1772562887832530000,10.567530029296876,-0.002680205274373293,-0.00598572101444006,0.004448011517524719
1772562887842597000,10.57759716796875,-0.0020303940400481224,-0.00609357887879014,0.0005174521938897669
1772562887852664000,10.5876640625,-0.003442668356001377,-0.0042733084410429,0.0012037487467750907
1772562887862731000,10.59773095703125,-0.004233360756188631,-0.006225405260920525,-0.00040426786290481687
1772562887872799200,10.60779931640625,-0.0027425233274698257,-0.003875964554026723,0.0013369068037718534
1772562887882866200,10.6178662109375,-0.0026610305067151785,-0.00458729499951005,0.0025009745731949806
1772562887892933000,10.62793310546875,-0.0017339842161163688,-0.005017129238694906,0.0036602485924959183
1772562887903000000,10.638,-0.0032149681355804205,-0.005726329050958157,0.0024311996530741453
1772562887913068000,10.648068115234375,-0.0035260252188891172,-0.005050951149314642,0.001966211711987853
1772562887923135000,10.658135009765624,-0.0018218684708699584,-0.005572131834924221,0.0038602519780397415
1772562887933202000,10.668201904296875,-0.0035430695861577988,-0.0049617355689406395,0.0021252024453133345
1772562887943269000,10.67826904296875,-0.0033569145016372204,-0.003725229762494564,0.0038956720381975174
1772562887953336000,10.688336181640626,-0.004808071069419384,-0.006360427476465702,0.004749215207993984
1772562887963404300,10.698404296875,-0.0016580841038376093,-0.004737763665616512,0.0032408006954938173
1772562887973471200,10.70847119140625,-0.001942243310622871,-0.006424077320843935,-0.0009707222343422472
1772562887983538200,10.7185380859375,-0.0021579593885689974,-0.0054339137859642506,0.001838912721723318
1772562887993605000,10.728605224609375,-0.0043473439291119576,-0.005592371802777052,0.006343916058540344
1772562888003673000,10.738673095703126,-0.002728142309933901,-0.0054429685696959496,0.002418416552245617
1772562888013739800,10.74873974609375,-0.0028240159153938293,-0.0055034225806593895,0.0016801883466541767
1772562888023806700,10.758806640625,-0.003492469433695078,-0.00387330143712461,0.0012663330417126417
1772562888033874000,10.7688740234375,-0.0024716798216104507,-0.008053931407630444,0.005319131538271904
1772562888043940900,10.77894091796875,-0.003963049966841936,-0.00538357999175787,-0.00026258768048137426
1772562888054008800,10.7890087890625,-0.004626443609595299,-0.005030977539718151,0.0020929782185703516
1772562888064075800,10.79907568359375,-0.0017840516520664096,-0.003840544493868947,0.0015022892039269209
1772562888074142700,10.809142822265626,-0.003028546692803502,-0.005141764879226685,0.00018455706594977528
1772562888084210000,10.8192099609375,-0.0014168017078191042,-0.004821386653929949,0.00571833923459053
1772562888094278000,10.82927783203125,-0.0035246936604380608,-0.0057798586785793304,0.003150519449263811
1772562888104344800,10.8393447265625,-0.004236023873090744,-0.003952397499233484,0.003751861397176981
1772562888114411800,10.849411865234375,-0.0020823257509618998,-0.004055728204548359,0.0018247979460284114
1772562888124478700,10.859478759765626,-0.004542553797364235,-0.0059931776486337185,0.003640541108325124
1772562888134546700,10.869546630859375,-0.0033004553988575935,-0.00692128948867321,0.0031435952987521887
1772562888144613600,10.879613525390624,-0.003628823207691312,-0.004416053649038076,0.005865079816430807
1772562888154680800,10.889680908203125,-0.003665042342618108,-0.005951898638159037,0.004765460267663002
1772562888164747800,10.899747802734375,-0.0022474415600299835,-0.004077033139765263,0.0016612798208370805
1772562888174814700,10.909814697265626,-0.0029699571896344423,-0.0055180699564516544,0.0030154972337186337
1772562888184883000,10.919883056640625,-0.0019153454340994358,-0.0020330571569502354,0.004221642855554819
1772562888194950000,10.929949951171874,-0.003565173828974366,-0.007554056588560343,0.0037558560725301504
1772562888205016800,10.940016845703125,-0.0046578687615692616,-0.0057074204087257385,0.0010215885704383254
1772562888215083800,10.950083740234374,-0.006003297865390778,-0.007458981592208147,0.0021608888637274504
1772562888225150700,10.960150634765625,-0.0025782061275094748,-0.0026399914640933275,0.003706853836774826
1772562888235218700,10.97021875,-0.002776079112663865,-0.005138835404068232,0.0030011162161827087
1772562888245285600,10.98028564453125,-0.0035198999103158712,-0.006750847212970257,0.005403021350502968
1772562888255352800,10.990352783203125,-0.0024564997293055058,-0.00441019469872117,0.0041617220267653465
1772562888265419800,11.000419677734374,-0.0019244002178311348,-0.005584915168583393,0.0021763353142887354
1772562888275488000,11.010488037109376,-0.002427737694233656,-0.003973436541855335,0.0011057445080950856
1772562888285555000,11.020554931640625,-0.0030743530951440334,-0.0041071269661188126,0.005886384751647711
1772562888295622000,11.030621826171876,-0.0035832831636071205,-0.0017915084026753902,0.006460828706622124
1772562888305688800,11.040688720703125,-0.004712996073067188,-0.005048288032412529,0.0018903117161244154
1772562888315756800,11.0507568359375,-0.0038485340774059296,-0.0054762582294642925,0.004400340840220451
1772562888325823700,11.06082373046875,-0.004576642066240311,-0.006253368686884642,0.0016764599131420255
1772562888335890700,11.070890625,-0.004388090688735247,-0.00310524576343596,0.0035715652629733086
1772562888345957600,11.08095751953125,-0.0005946838646195829,-0.006087986286729574,0.0005640574963763356
1772562888356024800,11.09102490234375,-0.005082110408693552,-0.005242698825895786,0.0031241541728377342
1772562888366092800,11.1010927734375,-0.0036096484400331974,-0.004298075567930937,0.0038951393216848373
1772562888376160000,11.111159912109375,-0.0017776599852368236,-0.0020935109350830317,0.0018511632224544883
1772562888386227000,11.12122705078125,-0.0023936491925269365,-0.00430180411785841,0.0009155947482213378
1772562888396294000,11.1312939453125,-0.002151301596313715,-0.00692128948867321,0.003543335711583495
1772562888406361900,11.14136181640625,-0.0005214469274505973,-0.003869839245453477,0.0020610203500837088
1772562888416428800,11.1514287109375,-0.00256355875171721,-0.005072522908449173,0.0010705908061936498
1772562888426495700,11.161495849609375,-0.0043899547308683395,-0.0041374871507287025,0.005479986313730478
1772562888436562700,11.171562744140624,-0.0034021881874650717,-0.004297542851418257,0.004525776021182537
1772562888446630000,11.1816298828125,-0.002886333968490362,-0.00532658863812685,0.00088976213010028
1772562888456697600,11.191697509765625,-0.003870105603709817,-0.004799815360456705,0.0032051142770797014
1772562888466764800,11.201764892578124,-0.002162220422178507,-0.0032027175184339285,0.002098038326948881
1772562888476832000,11.21183203125,-0.004962267819792032,-0.005680788774043322,0.0041129859164357185
1772562888486899000,11.22189892578125,-0.004441353492438793,-0.006847786251455545,0.00446825148537755
1772562888496967000,11.231966796875,-0.002650910522788763,-0.006828344892710447,0.004668521229177713
1772562888507033900,11.242033935546875,-0.0034056503791362047,-0.001975266495719552,0.0010125337867066264
1772562888517100800,11.252100830078126,-0.004202468320727348,-0.004205664154142141,0.006955910474061966
1772562888527167700,11.262167724609375,-0.004559864290058613,-0.005782521795481443,0.003454119898378849
1772562888537234700,11.272234619140624,-0.003442401997745037,-0.005702893249690533,0.0039880839176476
1772562888547302700,11.282302734375,-0.003966245800256729,-0.0047119311057031155,0.003123621689155698
1772562888557369600,11.29236962890625,-0.002282329136505723,-0.005577724426984787,-0.0001358212175546214
1772562888567436800,11.302436767578126,-0.005154281854629517,-0.004786232952028513,0.0025899240281432867
1772562888577504000,11.31250390625,-0.004189684987068176,-0.004947886802256107,0.0015033544041216373
1772562888587572000,11.322572021484374,-0.0017944378778338432,-0.006770021747797728,0.004764395300298929
1772562888597639000,11.332638916015625,-0.0031015174463391304,-0.006657103542238474,0.003073820611461997
1772562888607705900,11.342705810546875,-0.0018932411912828684,-0.00301656243391335,0.0009534116834402084
1772562888617772800,11.352772705078126,-0.005088502075523138,-0.005359611473977566,0.0006141249323263764
1772562888627839700,11.36283984375,-0.0016586167039349675,-0.005930593237280846,0.0041792988777160645
1772562888637907700,11.37290771484375,-0.003611512714996934,-0.004914597608149052,0.0016476977616548538
1772562888647974700,11.382974609375,-0.0035289546940475702,-0.005809685681015253,0.0024746092967689037
1772562888658041600,11.39304150390625,-0.004234426189213991,-0.0054216631688177586,0.0033872744534164667
1772562888668108800,11.40310888671875,-0.0010772485984489322,-0.006523679476231337,-0.000592287047766149
1772562888678176800,11.4131767578125,-0.0025806031189858913,-0.002692189533263445,0.0005539375124499202
1772562888688244000,11.423243896484376,-0.0020301276817917824,-0.004257861990481615,0.0033334787003695965
1772562888698311000,11.433310791015625,-0.004375040996819735,-0.006137521006166935,0.0006117281154729426
1772562888708377900,11.4433779296875,-0.0016162724932655692,-0.002834135899320245,0.0046304380521178246
1772562888718444800,11.45344482421875,-0.002582467393949628,-0.005573197267949581,0.0020546286832541227
1772562888728512800,11.4635126953125,-0.000702009245287627,-0.003952663857489824,0.004080761689692736
1772562888738579700,11.473579833984376,-0.004781439434736967,-0.004192081745713949,0.002554770326241851
1772562888748646700,11.483646728515625,-0.004189418628811836,-0.004224039614200592,0.0020732709672302008
1772562888758713600,11.493713623046874,-0.003855990944430232,-0.0060416474007070065,0.005420065484941006
1772562888768781800,11.50378173828125,-0.00224903947673738,-0.005754025653004646,0.003313771216198802
1772562888778848800,11.513848876953125,-0.0012977584265172482,-0.004602475091814995,0.0017811221769079566
1772562888788916000,11.523916015625,-0.0040978058241307735,-0.004677576012909412,0.0014378406340256333
1772562888798983000,11.53398291015625,-0.002238120650872588,-0.004111920483410358,0.0017984326696023345
1772562888809049900,11.5440498046875,-0.0020722055342048407,-0.003943342715501785,0.0005432848702184856
1772562888819117800,11.554117919921875,-0.002514024032279849,-0.0036104475148022175,0.003549727378413081
1772562888829184800,11.564184814453125,-0.003614442190155387,-0.007696801796555519,-0.00016058860637713224
1772562888839251700,11.574251708984375,-0.0030216225422918797,-0.005664010997861624,0.0005707154050469398
1772562888849318700,11.584318603515625,-0.004606469534337521,-0.005937251262366772,0.003850398352369666
1772562888859387000,11.594386962890624,-0.004192348103970289,-0.005949768237769604,0.004061054438352585
1772562888869453800,11.604453857421875,-0.004014182835817337,-0.004304733593016863,0.0036631780676543713
1772562888879520800,11.614520751953124,-0.003972637467086315,-0.0046629286371171474,0.003913515247404575
1772562888889588000,11.624587890625,-0.0028490496333688498,-0.004328435752540827,0.0019038938917219639
1772562888899655000,11.634655029296875,-0.0017217335989698768,-0.005874666851013899,0.0032503881957381964
1772562888909723000,11.644722900390626,-0.001731587341055274,-0.004511395003646612,0.0012522183824330568
1772562888919789800,11.654789794921875,-0.0018074874533340335,-0.0033896714448928833,0.0025995115283876657
1772562888929856800,11.664856689453124,-0.0030658310279250145,-0.0044349622912704945,0.0017694041598588228
1772562888939923700,11.674923828125,-0.0029768813401460648,-0.0059806606732308865,0.005147357936948538
1772562888949991700,11.68499169921875,-0.0021321268286556005,-0.006385994143784046,0.003620833856984973
1772562888960059000,11.695058837890626,-0.004327103961259127,-0.0033182986080646515,0.0037505298387259245
1772562888970125800,11.705125732421875,-0.003004844533279538,-0.005891711451113224,0.0017779263434931636
1772562888980193000,11.715193115234374,-0.0031989889685064554,-0.005878928117454052,0.00210709311068058
1772562888990260000,11.725260009765625,-0.003942543640732765,-0.006036320701241493,0.0041340249590575695
1772562889000328000,11.735327880859375,-0.0032599754631519318,-0.00740332156419754,0.003145193215459585
1772562889010394400,11.745394287109375,-0.0022269352339208126,-0.0052384380251169205,0.0035534559283405542
1772562889020461300,11.75546142578125,-0.0026642263401299715,-0.007281614933162928,0.004501274786889553
