time,seconds_elapsed,z,y,x
1772562822204954000,0.0639541015625,-0.0012646985705941916,0.04358934238553047,0.00021466240286827087
1772562822215021000,0.07402099609375,0.0014989974442869425,-0.0185839906334877,-0.0006094889249652624
1772562822225088000,0.084087890625,0.0021450803615152836,-0.05767546966671944,-0.006908663548529148
1772562822235155200,0.0941552734375,0.0022464983630925417,-0.04258723556995392,-0.006776526570320129
1772562822245222100,0.10422216796875,0.0008962757419794798,0.0024404292926192284,0.0013080316130071878
1772562822255290400,0.114290283203125,-0.0021104132756590843,0.042544469237327576,0.007529249414801598
1772562822265357300,0.124357421875,-0.0006456745322793722,0.04057879000902176,0.0033504837192595005
1772562822275424300,0.13442431640625,-0.0018225274980068207,0.005651244893670082,0.001754071330651641
1772562822285491200,0.1444912109375,0.00013622757978737354,-0.03612176701426506,-0.005420218221843243
1772562822295558100,0.15455810546875,-0.000049585942178964615,-0.038742996752262115,-0.003031487111002207
1772562822305625000,0.164625,0.0003839766141027212,-0.009083371609449387,-0.0011592849623411894
1772562822315693000,0.174693115234375,-0.000571452546864748,0.027957040816545486,0.00004832795821130276
1772562822325760000,0.184760009765625,-0.00009048567153513432,0.0341813787817955,0.004767981357872486
1772562822335827200,0.1948271484375,0.00001762760803103447,0.00995422899723053,0.002583430614322424
1772562822345894100,0.20489404296875,-0.0000630661379545927,-0.01874159649014473,-0.001729558571241796
1772562822355961000,0.214961181640625,0.0023761156480759382,-0.02637067623436451,-0.0055228122510015965
1772562822366028000,0.225028076171875,0.0003217533230781555,-0.01006813533604145,-0.002210106234997511
1772562822376096300,0.23509619140625,-0.0011452140752226114,0.01177237555384636,0.002601630985736847
1772562822386163200,0.2451630859375,-0.00037476164288818836,0.02416619472205639,0.0019369060173630714
1772562822396230100,0.255230224609375,0.0012157028540968895,0.011237484402954578,0.0018306795973330736
1772562822406297000,0.265297119140625,-0.0004538327921181917,-0.007707178592681885,0.00014409981667995453
1772562822416364300,0.2753642578125,0.001007690792903304,-0.021426748484373093,-0.001646683202125132
1772562822426432300,0.285432373046875,-0.0008424073457717896,-0.011464395560324192,-0.0008690401446074247
1772562822436499200,0.295499267578125,-0.0016465827357023954,0.007619012147188187,0.001063791336491704
1772562822446566100,0.305566162109375,0.0004985933192074299,0.01684553362429142,0.0022251957561820745
1772562822456633000,0.315633056640625,-0.001007691491395235,0.011595377698540688,0.0007034656591713428
1772562822466700000,0.325699951171875,-0.0007815894205123186,-0.004809960722923279,-0.00013862596824765205
1772562822476767000,0.33576708984375,0.002804079093039036,-0.014272546395659447,0.0006049685180187225
1772562822486835200,0.345835205078125,0.0021398866083472967,-0.0138725396245718,-0.0008858691435307264
1772562822496902100,0.355902099609375,-0.00016045779921114445,-0.0012453561648726463,0.0018894732929766178
1772562822506969000,0.365968994140625,0.0005524703301489353,0.010474683716893196,-0.0021513409446924925
1772562822517036300,0.376036376953125,-0.0022673034109175205,0.012846464291214943,0.0015362643171101809
1772562822527103200,0.386103271484375,-0.0012806020677089691,0.0004904628731310368,-0.0004336757119745016
1772562822537171200,0.396171142578125,-0.0004923844244331121,-0.008480250835418701,-0.0033174881245940924
1772562822547238100,0.406238037109375,0.0021742386743426323,-0.00913565419614315,-0.0014681890606880188
1772562822557305000,0.41630517578125,0.0005669191014021635,-0.003375575877726078,0.0005703982897102833
1772562822567372000,0.4263720703125,-0.00025626388378441334,0.00512763112783432,-0.00239023775793612
1772562822577439000,0.43643896484375,-0.0008117153774946928,0.009914015419781208,0.0003330598119646311
1772562822587506200,0.446506103515625,-0.000539274187758565,0.005710748489946127,0.00045130401849746704
1772562822597574100,0.45657421875,-0.0009744369890540838,-0.002321424428373575,-0.001236494048498571
1772562822607641300,0.466641357421875,-0.0013576659839600325,-0.010727958753705025,0.0006788512691855431
1772562822617708300,0.476708251953125,0.001301929005421698,-0.004677062854170799,-0.0014402882661670446
1772562822627775200,0.486775146484375,0.0008103095460683107,0.0028045554645359516,-0.002884520450606942
1772562822637842200,0.49684228515625,0.000009471084922552109,0.005369416903704405,-0.0007572609465569258
1772562822647910100,0.50691015625,-0.0015892244409769773,0.005579274147748947,-0.003669693833217025
1772562822657977000,0.51697705078125,0.0017605049069970846,0.00021010404452681541,0.00025694421492516994
1772562822668044000,0.5270439453125,0.0007461067289113998,-0.007311727851629257,-0.000929760280996561
1772562822678111000,0.537111083984375,-0.0003398573026061058,-0.006846509408205748,0.0010815609712153673
1772562822688178200,0.54717822265625,0.0014074428472667933,-0.00037902314215898514,-0.0020780134946107864
1772562822698245000,0.5572451171875,-0.0020567181054502726,0.00223741726949811,-0.0007837680168449879
1772562822708313300,0.567313232421875,-0.0008793345186859369,0.00374343479052186,-0.0003310306929051876
1772562822718380300,0.57738037109375,0.0002904823049902916,0.00045595644041895866,-0.000770248007029295
1772562822728447200,0.587447265625,-0.00017157616093754768,-0.003569144755601883,-0.0008083311840891838
1772562822738514200,0.59751416015625,0.0020717624574899673,-0.005142928566783667,-0.00019594631157815456
1772562822748581000,0.6075810546875,0.00029916223138570786,-0.001287736464291811,-0.0006098016165196896
1772562822758649000,0.617649169921875,0.0023887832649052143,0.0027993156109005213,-0.0014091518241912127
1772562822768716000,0.627716064453125,0.0016574792098253965,0.002491720486432314,0.0017064805142581463
1772562822778783000,0.637782958984375,-0.0009757035877555609,0.0020997682586312294,0.002063315361738205
1772562822788850200,0.64785009765625,0.0006160680204629898,-0.0016622128896415234,-0.00044644763693213463
1772562822798917000,0.657917236328125,-0.00022058794274926186,-0.0011792671866714954,-0.002042695414274931
1772562822808984300,0.667984375,-0.0012544270139187574,0.12283509224653244,0.02297637052834034
1772562822819052300,0.67805224609375,-0.00025980756618082523,0.12457569688558578,-0.01655859500169754
1772562822829119200,0.688119140625,-0.0005628752987831831,0.011980980634689331,0.005922745913267136
1772562822839186200,0.698186279296875,0.0025680111721158028,-0.10329554975032806,0.01582828164100647
1772562822849253000,0.708253173828125,0.0047656516544520855,-0.13167552649974823,-0.023481039330363274
1772562822859320000,0.718320068359375,0.0032821744680404663,-0.10408282279968262,-0.012744229286909103
1772562822869388000,0.728387939453125,-0.000019346363842487335,-0.016867229714989662,0.007483544759452343
1772562822879455000,0.738455078125,-0.0013449236284941435,0.07409977912902832,-0.00625066552311182
1772562822889522200,0.748522216796875,-0.00041761109605431557,0.08709654211997986,0.018604883924126625
1772562822899589000,0.758589111328125,-0.001936847111210227,0.034439634531736374,0.004507196135818958
1772562822909656000,0.768656005859375,0.004021709319204092,-0.04358299449086189,-0.01873793825507164
1772562822919723300,0.77872314453125,0.0037083185743540525,-0.0839318186044693,-0.0012995315482839942
1772562822929791200,0.788791259765625,0.0017301226034760475,-0.04702386632561684,-0.0012739651137962937
1772562822939858200,0.798858154296875,-0.0003648789133876562,0.031764257699251175,-0.003898374503478408
1772562822949925000,0.808925048828125,-0.001991004915907979,0.069216288626194,0.012259289622306824
1772562822959992300,0.818992431640625,0.0004803899209946394,0.04597645252943039,0.002936022123321891
1772562822970059500,0.8290595703125,-0.0013156458735466003,-0.015226714313030243,-0.0022928284015506506
1772562822980127200,0.839127197265625,0.0029562381096184254,-0.05466002598404884,-0.004121037200093269
1772562822990194400,0.8491943359375,0.00018255598843097687,-0.045220717787742615,-0.0070281438529491425
1772562823000261400,0.859261474609375,0.00033667031675577164,-0.00128153245896101,0.001840459881350398
1772562823010328300,0.869328369140625,0.00023653567768633366,0.041680581867694855,0.00564957968890667
1772562823020395300,0.879395263671875,-0.0003789965994656086,0.047215573489665985,0.0013646779116243124
1772562823030462200,0.889462158203125,0.003053285414353013,0.009732646867632866,0.0005449566524475813
1772562823040530200,0.8995302734375,0.004576602019369602,-0.029113661497831345,-0.005414891988039017
1772562823050597000,0.90959716796875,0.002710791304707527,-0.04356876388192177,-0.0018193580908700824
1772562823060664000,0.9196640625,-0.0013258550316095352,-0.017502695322036743,-0.0006403257139027119
1772562823070731500,0.9297314453125,-0.0019221366383135319,0.022733142599463463,-0.0013745591277256608
1772562823080798500,0.939798583984375,-0.0008613958489149809,0.03907501697540283,0.00429915264248848
1772562823090866400,0.949866455078125,-0.002531997160986066,0.017122847959399223,0.005450436845421791
1772562823100933400,0.959933349609375,0.0025556355249136686,-0.01511092483997345,-0.00041041034273803234
1772562823111000300,0.970000244140625,-0.000819121953099966,-0.030674969777464867,-0.006455785594880581
1772562823121067300,0.9800673828125,0.0010665589943528175,-0.019754936918616295,-0.002459887880831957
1772562823131134200,0.99013427734375,-0.0010423983912914991,0.00693126767873764,-0.0020811865106225014
1772562823141201200,1.000201171875,-0.0004409891553223133,0.023154381662607193,0.0034230633173137903
1772562823151269000,1.01026904296875,0.0001323893666267395,0.018636327236890793,0.00166191509924829
1772562823161336000,1.020336181640625,-0.0008216346614062786,-0.00035658013075590134,0.0010235665831714869
1772562823171403500,1.030403564453125,0.00212488672696054,-0.01579039730131626,-0.0026468022260814905
1772562823181470500,1.040470458984375,0.00015999935567378998,-0.014377512037754059,0.000026099151000380516
1772562823191537400,1.050537353515625,-0.0025074228178709745,-0.000788466539233923,0.0025582327507436275
1772562823201604400,1.060604248046875,0.0010357408318668604,0.011412080377340317,-0.000033227261155843735
1772562823211672300,1.07067236328125,-0.0012886659242212772,0.01095135323703289,0.0006799674592912197
1772562823221739300,1.0807392578125,0.0013132357271388173,0.003767821006476879,0.0011176781263202429
1772562823231806200,1.09080615234375,0.0012850062921643257,-0.004183046519756317,-0.00018407520838081837
1772562823241873200,1.100873046875,0.0005367372650653124,-0.008846730925142765,0.0003362954594194889
1772562823251940400,1.1109404296875,0.0024496859405189753,-0.004292991943657398,-0.0000618472695350647
1772562823262008000,1.121008056640625,-0.001082985894754529,0.004610330332070589,-0.0015732309548184276
1772562823272075300,1.1310751953125,0.0016856362344697118,0.006566422060132027,-0.0013734939275309443
1772562823282142500,1.141142578125,-0.0009371447376906872,0.0030092441011220217,0.0000599101185798645
1772562823292209400,1.15120947265625,0.00036700512282550335,-0.0031623649410903454,-0.0005491545889526606
1772562823302276400,1.1612763671875,0.0017716657603159547,-0.008569732308387756,0.0025776850525289774
1772562823312343300,1.17134326171875,-0.001553290756419301,-0.0024769529700279236,0.0003275803755968809
1772562823322411300,1.181411376953125,-0.0006817467510700226,0.0019256833475083113,-0.0010597959626466036
1772562823332478200,1.191478271484375,0.0002192007377743721,0.00395740894600749,-0.00217326357960701
1772562823342545200,1.201545166015625,-0.000023643020540475845,0.0038855618331581354,-0.00020211120136082172
1772562823352612400,1.2116123046875,0.0008538684342056513,-0.0018543493933975697,0.0026421446818858385
1772562823362679300,1.22167919921875,0.0022124203387647867,-0.004885091912001371,-0.0031960082706063986
1772562823372747300,1.231747314453125,0.0008038745727390051,-0.004390542861074209,0.0019145978149026632
1772562823382814500,1.241814453125,0.00046825711615383625,0.00036851176992058754,0.000513060949742794
1772562823392881400,1.25188134765625,-0.00043721776455640793,0.008289817720651627,-0.0018350481986999512
1772562823402948400,1.2619482421875,0.0010720856953412294,0.003247885499149561,-0.00015768734738230705
1772562823413015300,1.272015380859375,0.0008294717408716679,-0.0014374135062098503,-0.0022922109346836805
1772562823423082200,1.282082275390625,-0.0013240857515484095,-0.0063614621758461,-0.0009725573472678661
1772562823433150200,1.292150146484375,-0.00002393033355474472,-0.004279669374227524,-0.0006955887656658888
1772562823443217200,1.302217041015625,0.0021913873497396708,0.0029889680445194244,-0.0010835491120815277
1772562823453284400,1.312284423828125,0.0006139972247183323,0.006506737787276506,-0.000736539252102375
1772562823463351300,1.322351318359375,0.0006081664469093084,0.003170279785990715,-0.001992032863199711
1772562823473418200,1.332418212890625,0.001936551183462143,-0.0009126123040914536,-0.0004215668886899948
1772562823483486200,1.342486328125,0.0003307682927697897,-0.005103556904941797,-0.0008079290855675936
1772562823493553400,1.352553466796875,0.000674049835652113,-0.0038468115963041782,-0.001755481818690896
1772562823503620400,1.362620361328125,0.001490565249696374,-0.00014664465561509132,-0.0015496931737288833
1772562823513687300,1.372687255859375,-0.000970462104305625,0.0028219809755682945,-0.001198155921883881
1772562823523754200,1.382754150390625,-0.001048139063641429,0.002028747694566846,0.0018766054417937994
1772562823533822200,1.392822265625,-0.002155215246602893,-0.000008304137736558914,-0.0022374459076672792
1772562823543889400,1.402889404296875,0.0003436366096138954,-0.001536613330245018,-0.0006615002639591694
1772562823553956400,1.412956298828125,0.0007867866661399603,-0.0024791057221591473,-0.0012716304045170546
1772562823564023300,1.423023193359375,0.001319659291766584,-0.0018150564283132553,-0.0012814829824492335
1772562823574090200,1.43309033203125,0.0015119394520297647,-0.00009971437975764275,0.0005678161978721619
1772562823584157200,1.4431572265625,-0.000356914009898901,0.0021397157106548548,-0.0006225856486707926
1772562823594225400,1.453225341796875,-0.0016461503691971302,0.0007162559777498245,-0.00147213414311409
1772562823604292400,1.463292236328125,-0.002027600770816207,-0.00031081028282642365,-0.0008317085448652506
1772562823614359300,1.473359375,0.0010012122802436352,0.0018812376074492931,-0.003415241139009595
1772562823624426200,1.48342626953125,0.0017305465880781412,-0.0029892236925661564,0.00048301229253411293
1772562823634493400,1.493493408203125,-0.0006740216631442308,-0.00409203814342618,-0.0017039754893630743
1772562823644560400,1.503560302734375,-0.0007104279939085245,-0.00036460626870393753,0.0029144457075744867
1772562823654628400,1.51362841796875,-0.0033648007083684206,0.0018340996466577053,-0.001303735189139843
1772562823664695300,1.5236953125,-0.00019643246196210384,0.002522023394703865,-0.0021214387379586697
1772562823674762200,1.53376220703125,-0.0012723496183753014,-0.00034646736457943916,0.0001177468802779913
1772562823684829200,1.5438291015625,-0.00024224631488323212,-0.0022619706578552723,-0.0013175355270504951
1772562823694896000,1.553896240234375,0.0003140880726277828,-0.0038020764477550983,-0.0011289836838841438
1772562823704964400,1.56396435546875,-0.0037726613227277994,0.0004877997562289238,0.0021403515711426735
1772562823715031300,1.57403125,-0.0026312305126339197,-0.0007324609905481339,-0.001442132517695427
1772562823725098500,1.584098388671875,0.003117738524451852,0.0007838639430701733,-0.0022457479499280453
1772562823735165400,1.59416552734375,0.00030064675956964493,0.0014440615195780993,-0.00031122774817049503
1772562823745232400,1.604232421875,0.00017923908308148384,-0.00042883073911070824,-0.0022357769776135683
1772562823755300400,1.61430029296875,-0.0005214386619627476,-0.000024030450731515884,-0.0008506670128554106
1772562823765367300,1.6243671875,-0.0013410768005996943,-0.0012253033928573132,0.000258920481428504
1772562823775434200,1.634434326171875,-0.0012832863721996546,-0.00013793446123600006,-0.0011725286021828651
1772562823785501200,1.644501220703125,-0.0004252332728356123,-0.0015017101541161537,0.0003846571780741215
1772562823795568000,1.654568115234375,-0.0012553404085338116,-0.0020998562686145306,0.0014864068944007158
1772562823805635300,1.66463525390625,-0.0017216929700225592,0.0008862807881087065,-0.0002385633997619152
1772562823815703300,1.674703369140625,-0.001190924784168601,-0.0018900646828114986,-0.001785061089321971
1772562823825770500,1.6847705078125,0.0008363837841898203,-0.0009336583316326141,-0.0007660244591534138
1772562823835837400,1.69483740234375,-0.0011098545510321856,-0.0008793296292424202,0.0017448037397116423
1772562823845904400,1.704904296875,-0.00022384151816368103,-0.00045249657705426216,0.0011698142625391483
1772562823855971300,1.714971435546875,0.0009716516360640526,-0.0030149901285767555,-0.00282838917337358
1772562823866039300,1.725039306640625,0.0004610368050634861,-0.002908500377088785,-0.0015079978620633483
1772562823876106200,1.735106201171875,0.0014261662727221847,0.0005392283201217651,0.0016566365957260132
1772562823886173200,1.745173095703125,0.0009175911545753479,0.0004970780573785305,-0.0025956362951546907
1772562823896240000,1.755240234375,0.0015048180939629674,0.0002528661862015724,-0.001530904439277947
1772562823906307300,1.765307373046875,-0.00005974504165351391,-0.0017009866423904896,-0.0003023901954293251
1772562823916374300,1.775374267578125,0.0002891290932893753,-0.0019041858613491058,-0.0008920140098780394
1772562823926442500,1.7854423828125,0.0004511193837970495,0.000528424046933651,-0.0007954803295433521
1772562823936509000,1.795509033203125,-0.0004679374396800995,0.000556387472897768,0.0013198687229305506
1772562823946576000,1.805575927734375,-0.0008041183464229107,-0.0018731853924691677,0.0008677169680595398
1772562823956642800,1.815642822265625,0.001445986214093864,0.0016381924506276846,0.001727651571854949
1772562823966709800,1.825709716796875,0.00040004285983741283,0.0006920937448740005,0.0000756322406232357
1772562823976777700,1.83577783203125,-0.0004204772412776947,0.001296364702284336,0.00030466425232589245
1772562823986844700,1.8458447265625,0.0006645626854151487,-0.0006334413774311543,0.0004538025241345167
1772562823996911900,1.855911865234375,0.0010890704579651356,-0.0005175936967134476,-0.0027923244051635265
1772562824006978800,1.865978759765625,0.002954794093966484,0.0010224590077996254,-0.0008300920017063618
1772562824017045800,1.876045654296875,0.00008097710087895393,0.001803564140573144,-0.0016330350190401077
1772562824027112700,1.88611279296875,-0.0005614643450826406,0.0017916045617312193,0.0013101245276629925
1772562824037181000,1.896180908203125,0.0014510864857584238,-0.0007567740976810455,-0.0012401186395436525
1772562824047248000,1.906247802734375,0.0008080981206148863,-0.0004026493988931179,-0.0011230026138946414
1772562824057314800,1.916314697265625,0.0006128884851932526,0.0009885861072689295,-0.0005474935751408339
1772562824067381800,1.9263818359375,0.0013465177034959197,-0.0014933543279767036,-0.0022639078088104725
1772562824077449000,1.936448974609375,-0.0005504519212990999,0.0007820506580173969,0.001610725186765194
1772562824087516700,1.9465166015625,0.001497051096521318,0.0006811628118157387,-0.000017221784219145775
1772562824097583900,1.956583984375,0.0007250006310641766,0.0026258029974997044,-0.00006755557842552662
1772562824107650800,1.96665087890625,0.0012427654583007097,-0.0006996034644544125,-0.0013274835655465722
1772562824117717800,1.9767177734375,0.0036028586328029633,0.00027165142819285393,0.0006376630626618862
1772562824127784700,1.98678466796875,-0.0011854420881718397,-0.0010838345624506474,0.0012809594627469778
1772562824137851600,1.9968515625,-0.0020230060908943415,-0.003289997112005949,0.0000636284239590168
1772562824147920000,2.006919921875,-0.0010042442008852959,-0.0001791222020983696,-0.003052490996196866
1772562824157986800,2.01698681640625,-0.00040742987766861916,0.0006235544569790363,-0.0012793582864105701
1772562824168053800,2.0270537109375,0.00026827165856957436,-0.00021270522847771645,0.0007655452936887741
1772562824178121000,2.037120849609375,0.0017918661469593644,0.0026917383074760437,0.0017985855229198933
1772562824188188000,2.04718798828125,0.0006107157096266747,0.00026301993057131767,0.000037140678614377975
1772562824198255900,2.057255859375,0.0018269814318045974,-0.0019468707032501698,0.0012968159280717373
1772562824208322800,2.06732275390625,-0.0009179334156215191,-0.0017376807518303394,-0.0008977069519460201
1772562824218389800,2.0773896484375,0.002377195982262492,-0.00011927774176001549,0.001227229367941618
1772562824228456700,2.087456787109375,0.0006620041094720364,0.0008002815302461386,-0.0009320909157395363
1772562824238523600,2.097523681640625,-0.0015404301229864359,-0.00043569179251790047,-0.0019568754360079765
1772562824248592000,2.107591796875,0.0024238075129687786,0.0008656035643070936,0.001202648039907217
1772562824258658800,2.117658935546875,0.0021814596839249134,-0.0013498803600668907,-0.0010178956435993314
1772562824268725800,2.127725830078125,0.0000023778993636369705,0.0008182968012988567,0.000923521351069212
1772562824278793000,2.13779296875,-0.0010860562324523926,-0.0028848289512097836,0.003979232162237167
1772562824288860000,2.14785986328125,-0.0009961375035345554,0.00059503223747015,-0.0006049382500350475
1772562824298926800,2.1579267578125,0.00003690272569656372,0.00041739968582987785,0.0025607612915337086
1772562824308994800,2.167994873046875,-0.0003224827814847231,0.0008798374328762293,-0.0006517965812236071
1772562824319061800,2.178061767578125,0.001810975605621934,-0.00029221968725323677,0.0016675505321472883
1772562824329128700,2.188128662109375,0.0012193244183436036,0.0005014026537537575,-0.005468987859785557
1772562824339195600,2.198195556640625,0.0009607314132153988,0.0011440233793109655,-0.0003658388741314411
1772562824349262600,2.2082626953125,0.00042153382673859596,-0.000008784234523773193,-0.0009342404082417488
1772562824359330800,2.218330810546875,0.0007533635944128036,0.0006021452136337757,-0.0002676511649042368
1772562824369397800,2.228397705078125,0.0007172457408159971,0.00022370042279362679,-0.0003465884365141392
1772562824379465000,2.23846484375,0.000642677303403616,0.0016152020543813705,0.00048804632388055325
1772562824389532000,2.248531982421875,0.0002646413631737232,0.0008468094747513533,0.0016087517142295837
1772562824399598800,2.258598876953125,0.0010960802901536226,0.0015970219392329454,0.0008846379350870848
1772562824409665800,2.268665771484375,0.00001650420017540455,0.0009183452930301428,0.0011622908059507608
1772562824419733800,2.278733642578125,0.0015542134642601013,-0.0007064491510391235,-0.0016713128425180912
1772562824429800700,2.28880078125,-0.0010931531433016062,-0.0026017078198492527,0.002322126878425479
1772562824439867600,2.29886767578125,-0.000729365274310112,-0.0018000961281359196,-0.0010718053672462702
1772562824449934800,2.308934814453125,0.0013954777969047427,-0.00030670175328850746,-0.001988147385418415
1772562824460002000,2.319001953125,0.002094557508826256,0.0010483148507773876,-0.0009473841637372971
1772562824470069800,2.32906982421875,0.0010094100143760443,0.0002954099327325821,-0.002309482777491212
1772562824480137000,2.339136962890625,-0.0002422756515443325,-0.0021810634061694145,-0.0010311654768884182
1772562824490204000,2.349203857421875,0.0010549810249358416,0.0007980777882039547,0.0012737775687128305
1772562824500270800,2.359270751953125,0.0003455148544162512,0.0008018063381314278,0.0005435387138277292
1772562824510337800,2.369337890625,-0.00023593008518218994,-0.0009629628621041775,-0.00013572769239544868
1772562824520404700,2.37940478515625,-0.0010932018049061298,0.00038113445043563843,0.0005878531374037266
1772562824530472700,2.38947265625,0.0006806971505284309,0.0005824151448905468,0.0011715181171894073
1772562824540539600,2.39953955078125,0.0009560680482536554,0.0014063972048461437,-0.0013486313400790095
1772562824550606800,2.40960693359375,0.00015947245992720127,-0.0003536297008395195,0.002311933320015669
1772562824560673800,2.419673828125,-0.0018035436514765024,0.0003702174872159958,-0.001545655308291316
1772562824570741000,2.429740966796875,-0.0002848783042281866,0.0028414048720151186,0.0006718693766742945
1772562824580809000,2.43980908203125,-0.0008289620745927095,-0.000563446432352066,-0.0015625227242708206
1772562824590876000,2.4498759765625,0.0012632544385269284,-0.0009740749374032021,-0.0011994157684966922
1772562824600942800,2.45994287109375,0.0012283669784665108,0.000335135031491518,-0.0023661465384066105
1772562824611009800,2.470009765625,0.0008811862207949162,-0.0007988638244569302,0.002761170733720064
1772562824621076700,2.48007666015625,0.0009216663893312216,0.0001241876743733883,0.0010223928838968277
1772562824631144700,2.490144775390625,0.0010853505227714777,0.0018857107497751713,-0.0037606400437653065
1772562824641211600,2.500211669921875,0.0021380982361733913,-0.0019622906111180782,-0.0018309135921299458
1772562824651278800,2.51027880859375,0.0006986320950090885,0.000018627382814884186,0.001759309321641922
1772562824661345800,2.520345703125,-0.00020071747712790966,-0.0021614362485706806,0.004449634812772274
1772562824671413000,2.5304130859375,0.0001888931728899479,0.001833250978961587,0.00018939655274152756
1772562824681480000,2.54047998046875,0.0003918260335922241,-0.0008136648684740067,-0.0020628387574106455
1772562824691548000,2.5505478515625,-0.0015124082565307617,0.000907096778973937,0.0023350624833256006
1772562824701614800,2.56061474609375,-0.0015161363407969475,-0.0011035897769033909,-0.0011150625068694353
1772562824711681800,2.570681884765625,0.00018847035244107246,-0.0010224347934126854,-0.0006265582051128149
1772562824721748700,2.580748779296875,-0.0007204664871096611,-0.00018886523321270943,0.0027958701830357313
1772562824731816000,2.59081591796875,-0.0008301436901092529,-0.00047632399946451187,-0.0011952646309509873
1772562824741883600,2.600883544921875,-0.00007353979162871838,0.00035245204344391823,-0.0013055194867774844
1772562824751950800,2.610950927734375,-0.0009936378337442875,-0.001963977236300707,-0.0016663640271872282
1772562824762017800,2.621017822265625,0.00004020123742520809,-0.00241884496062994,-0.0020378748886287212
1772562824772085000,2.6310849609375,-0.0004387104418128729,-0.000830688513815403,-0.0020082341507077217
1772562824782152000,2.64115185546875,-0.0002821164671331644,0.001841793768107891,0.0004615813959389925
1772562824792219000,2.651218994140625,-0.0006074565462768078,0.0006206920370459557,0.0032974572386592627
1772562824802286800,2.661286865234375,-0.0003366130404174328,0.0002076360397040844,-0.0011928987223654985
1772562824812353800,2.671353759765625,0.00275214109569788,0.0014311023987829685,-0.0009678974747657776
1772562824822420700,2.681420654296875,0.0016221619443967938,0.00008913548663258553,-0.002843828173354268
1772562824832488000,2.691488037109375,-0.0003149290569126606,-0.0003676475025713444,-0.0007325769402086735
1772562824842555000,2.701554931640625,0.001537033123895526,-0.0005380897782742977,0.0001595818903297186
1772562824852622800,2.711622802734375,-0.00013134838081896305,0.0008595404215157032,0.004680603742599487
1772562824862689800,2.721689697265625,0.0003592059947550297,0.003020163159817457,-0.0007927252445369959
1772562824872756700,2.7317568359375,0.00021918746642768383,-0.00029240502044558525,0.001709847478196025
1772562824882824000,2.741823974609375,0.0011813875753432512,0.00024502119049429893,-0.0016238976968452334
1772562824892891000,2.751890869140625,-0.0014186929911375046,0.0008540856651961803,0.00023809424601495266
1772562824902958800,2.761958740234375,0.00009851017966866493,0.0003829724155366421,-0.0024695415049791336
1772562824913025800,2.77202587890625,0.00008446979336440563,0.00011949893087148666,-0.0017738394672051072
1772562824923092700,2.7820927734375,0.0012376185040920973,-0.0009444341994822025,0.00008131866343319416
1772562824933160000,2.792159912109375,-0.0019072734285145998,-0.0017980248667299747,0.00192901655100286
1772562824943227000,2.802226806640625,0.0001739871222525835,0.00024169031530618668,-0.0009687691926956177
1772562824953293800,2.8122939453125,0.0008885250426828861,0.0007202099077403545,0.0014457609504461288
1772562824963361800,2.82236181640625,0.0010216832160949707,0.0018890714272856712,-0.001237107440829277
1772562824973428700,2.8324287109375,-0.0004830658435821533,-0.00004308577626943588,-0.0023589651100337505
1772562824983495700,2.84249560546875,-0.0010332749225199223,-0.0004625334404408932,-0.00030779861845076084
1772562824993562600,2.852562744140625,-0.0007976023480296135,-0.001974100712686777,0.0006864226888865232
1772562825003629600,2.862629638671875,-0.0005440693348646164,-0.0006752773188054562,-0.00033090473152697086
1772562825013697800,2.87269775390625,-0.0015873243100941181,-0.0015818574465811253,0.0064921267330646515
1772562825023764700,2.8827646484375,0.001006860751658678,0.0005071260966360569,-0.0012017452390864491
1772562825033832000,2.89283203125,0.0014847076963633299,0.0009990131948143244,0.0023594843223690987
1772562825043899000,2.90289892578125,-0.001633055042475462,-0.00048223696649074554,0.0036748195998370647
1772562825053965800,2.9129658203125,-0.001170394942164421,-0.0031120157800614834,-0.00063935830257833
1772562825064032800,2.92303271484375,-0.0006031414959579706,0.0004659411497414112,0.0007920907810330391
1772562825074100700,2.933100830078125,0.0012720869854092598,0.00035439198836684227,0.0000539200846105814
1772562825084167700,2.943167724609375,-0.0005716194864362478,0.0009781045373529196,0.00015698443166911602
1772562825094234600,2.953234619140625,-0.0008786972612142563,0.0000997418537735939,-0.0003984055947512388
1772562825104301600,2.963301513671875,-0.0006411431822925806,-0.00014526909217238426,-0.0006503406912088394
1772562825114368800,2.97336865234375,-0.000415668822824955,0.0007441234774887562,-0.003045931225642562
1772562825124436700,2.983436767578125,0.001348941819742322,0.0008336054161190987,-0.0002070015762001276
1772562825134504000,2.99350390625,-0.0007251189090311527,0.000842350535094738,0.0020805334206670523
1772562825144571000,3.00357080078125,0.0008456134237349033,0.0005398155190050602,0.0012296533677726984
1772562825154637800,3.013637939453125,0.0005165967158973217,0.00094459461979568,0.001968925818800926
1772562825164704800,3.023704833984375,-0.0026333900168538094,-0.0013209562748670578,0.000716174952685833
1772562825174772700,3.033772705078125,0.00019925297237932682,-0.000537993386387825,0.0003999436739832163
1772562825184839700,3.043839599609375,-0.0002881055697798729,-0.0006216163747012615,-0.000597942853346467
1772562825194906600,3.05390673828125,-0.0011831196025013924,-0.00010568974539637566,0.0009012534283101559
1772562825204973800,3.063973876953125,-0.00036126794293522835,-0.0019611138850450516,-0.00023591634817421436
1772562825215040800,3.074040771484375,-0.0010183020494878292,0.0025084877852350473,-0.0004915411118417978
1772562825225108000,3.08410791015625,-0.0007288167253136635,-0.0009658723138272762,-0.0022606789134442806
1772562825235176000,3.094176025390625,0.0009364457800984383,-0.0000010775402188301086,0.0020735966973006725
1772562825245243000,3.104242919921875,-0.00012855231761932373,0.0008098548278212547,-0.002068151254206896
1772562825255309800,3.114309814453125,-0.0013307093176990747,-0.0009545325301587582,-0.0004384862259030342
1772562825265376800,3.124376708984375,-0.0005312282592058182,0.0006609405390918255,0.0027940585277974606
1772562825275443700,3.134443603515625,0.0003282157704234123,-0.002367038279771805,0.0009113848209381104
1772562825285511700,3.14451171875,-0.0000012172386050224304,0.0018330328166484833,0.0005324170924723148
1772562825295578600,3.15457861328125,0.001233473652973771,-0.0030176551081240177,-0.0012489462969824672
1772562825305645800,3.164645751953125,0.0011266808724030852,-0.0015329429879784584,0.0005950264167040586
1772562825315712800,3.174712646484375,-0.0005728872492909431,-0.0011144517920911312,0.0009485660120844841
1772562825325779700,3.18477978515625,-0.0014607852790504694,-0.0008460055105388165,0.0029203705489635468
1772562825335848000,3.194847900390625,-0.00017481832765042782,-0.00021617067977786064,0.0009849716443568468
1772562825345915000,3.204914794921875,0.0007612828630954027,0.003102927003055811,-0.0009945558849722147
1772562825355981800,3.21498193359375,0.00041451980359852314,-0.0016928520053625107,-0.0007084195967763662
1772562825366048800,3.225048828125,0.00003901403397321701,0.0019703260622918606,0.002746232785284519
1772562825376115700,3.23511572265625,-0.00012143724597990513,0.0016037831082940102,0.0015272342134267092
1772562825386183000,3.245182861328125,-0.00022902898490428925,0.0009864622261375189,0.0013583896216005087
1772562825396250600,3.255250732421875,-0.0005488672759383917,-0.0007038083858788013,-0.0002557961270213127
1772562825406317800,3.26531787109375,0.0012610169360414147,-0.0004763742908835411,0.003992478363215923
1772562825416384800,3.275384765625,-0.0018205498345196247,-0.0006507863290607929,-0.003421722212806344
1772562825426451700,3.28545166015625,-0.0002783134113997221,-0.00033520162105560303,0.00003346288576722145
1772562825436519000,3.295518798828125,0.0020719971507787704,0.0005401121452450752,-0.00014641555026173592
1772562825446587000,3.3055869140625,-0.0013480340130627155,-0.0007669669575989246,0.0007830276153981686
1772562825456653800,3.31565380859375,-0.0004345707129687071,-0.001265182625502348,0.0010532531887292862
1772562825466720800,3.325720703125,-0.00037464965134859085,0.0008301921188831329,-0.0000418385025113821
1772562825476787700,3.33578759765625,-0.000030275434255599976,-0.0003318740054965019,-0.0005328182596713305
1772562825486855000,3.34585498046875,0.0009495015256106853,0.00033178552985191345,0.00011326465755701065
1772562825496922600,3.355922607421875,-0.0001547874417155981,-0.002112280111759901,0.000488038407638669
1772562825506989800,3.36598974609375,-0.0005840889643877745,0.0003932220861315727,-0.0042880745604634285
1772562825517056800,3.376056884765625,-0.0004654107615351677,0.00045130448415875435,-0.0009729149751365185
1772562825527123700,3.386123779296875,-0.0010814000852406025,0.0010792780667543411,-0.0003686437848955393
1772562825537190700,3.396190673828125,0.0000018635764718055725,0.0013283605221658945,-0.0006676584016531706
1772562825547257900,3.4062578125,0.0012591418344527483,-0.0005611521191895008,-0.00045993179082870483
1772562825557325800,3.416325927734375,-0.0003095129504799843,-0.000717326533049345,-0.0011846049455925822
1772562825567392800,3.426392822265625,0.0008710664696991444,-0.0007104021497070789,0.000026334542781114578
1772562825577459700,3.436459716796875,-0.001609275583177805,-0.0012824186123907566,-0.004152229987084866
1772562825587527000,3.44652685546875,0.0006112679839134216,0.0009029717184603214,0.0015368147287517786
1772562825597593900,3.45659375,-0.001945133088156581,-0.0007401742041110992,-0.0022974887397140265
1772562825607661800,3.466661865234375,0.0004650277551263571,0.0012816977687180042,0.0010346584022045135
1772562825617728800,3.476728759765625,0.00005548051558434963,-0.0012632072903215885,-0.0010365162743255496
1772562825627795700,3.486795654296875,-0.0006382728461176157,-0.00011325441300868988,0.0013398223090916872
1772562825637862700,3.496862548828125,0.0007360281888395548,0.0009769434109330177,0.0011774757876992226
1772562825647929900,3.506929931640625,-0.000006194692105054855,-0.0035637463442981243,0.0011947862803936005
1772562825657996800,3.516996826171875,0.000552197452634573,0.0010314988903701305,-0.0026578987017273903
1772562825668064800,3.527064697265625,0.00007389369420707226,0.0009718439541757107,0.0014526902232319117
1772562825678131700,3.537131591796875,0.001272857072763145,0.0007395674474537373,-0.001525358879007399
1772562825688199000,3.547198974609375,-0.0018265298567712307,0.0005326401442289352,0.0015157049056142569
1772562825698265900,3.557265869140625,0.0024985591880977154,-0.0017823493108153343,-0.0009086467325687408
1772562825708332800,3.567332763671875,0.0007477973122149706,-0.0005415827035903931,-0.0012215680908411741
1772562825718400800,3.57740087890625,0.0019521695794537663,-0.00045894132927060127,-0.000999349169433117
1772562825728467700,3.5874677734375,-0.000301397405564785,-0.00021872436627745628,0.003678759792819619
1772562825738534700,3.59753466796875,-0.0005136604886502028,-0.0005926145240664482,-0.0008375376928597689
1772562825748601600,3.6076015625,-0.0005927563179284334,-0.001470126211643219,-0.0006638995837420225
1772562825758668800,3.617668701171875,0.0008285138756036758,0.00035266485065221786,0.0002803616225719452
1772562825768736800,3.62773681640625,0.001052752137184143,-0.0020380550995469093,-0.00032950215972959995
1772562825778803700,3.6378037109375,-0.0004875019658356905,0.001994421472772956,-0.0009278503712266684
1772562825788871000,3.647870849609375,0.0013149253791198134,-0.0009837914258241653,0.0006055978592485189
1772562825798937900,3.657937744140625,0.0009279088117182255,-0.002987767569720745,-0.00003024563193321228
1772562825809004800,3.6680048828125,0.0013942283112555742,0.0021484047174453735,0.00021982518956065178
1772562825819071700,3.67807177734375,-0.00018235482275485992,0.0025156051851809025,-0.0004874172154814005
1772562825829139700,3.6881396484375,-0.00021884008310735226,-0.0009209378622472286,-0.0012642611982300878
1772562825839206700,3.69820654296875,0.0013465674128383398,0.002103338949382305,0.0007884171791374683
1772562825849273600,3.708273681640625,-0.00008328375406563282,-0.000810425728559494,-0.0027511902153491974
1772562825859340800,3.7183408203125,-0.00021845498122274876,-0.0020598405972123146,-0.00041574076749384403
1772562825869408000,3.728407958984375,-0.0008437652140855789,0.0002627023495733738,-0.0015782105037942529
1772562825879475700,3.738475830078125,0.00009043002501130104,-0.000035081058740615845,-0.001798584358766675
1772562825889543000,3.74854296875,-0.0006049212533980608,-0.002400767058134079,-0.00017032772302627563
1772562825899609900,3.75860986328125,0.0001228128094226122,0.0006043557077646255,-0.0006494973786175251
1772562825909676800,3.7686767578125,0.0003254793118685484,0.0005758595652878284,-0.0002827802672982216
1772562825919743700,3.77874365234375,-0.0003438177518546581,-0.00044422736391425133,-0.0005096604581922293
1772562825929811700,3.788811767578125,0.00145328335929662,-0.00108338613063097,0.00027064583264291286
1772562825939879200,3.798879150390625,-0.0007017739117145538,-0.002015786711126566,0.0006508668884634972
1772562825949946400,3.8089462890625,-0.0005771380383521318,-0.000936141237616539,-0.00007910560816526413
1772562825960013300,3.819013427734375,-0.002173684537410736,-0.0015937890857458115,0.001815048512071371
1772562825970080300,3.829080322265625,0.0011632564710453153,-0.0004142750985920429,0.002649417147040367
1772562825980147500,3.8391474609375,-0.0019275129307061434,0.0025258769746869802,0.0010048539843410254
1772562825990215400,3.84921533203125,0.0009678755886852741,-0.0011836402118206024,0.0014488028828054667
1772562826000282400,3.859282470703125,-0.000226613599807024,-0.0006224936805665493,0.002954856026917696
1772562826010349300,3.869349365234375,0.0004130778834223747,-0.0006355433724820614,0.002741270698606968
1772562826020416300,3.879416259765625,-0.0011990247294306755,-0.001602990087121725,0.0023407931439578533
1772562826030483200,3.889483154296875,0.002307293238118291,-0.00024131545796990395,-0.000029952963814139366
1772562826040551200,3.89955126953125,0.0001363605260848999,0.00012505799531936646,0.0008342026267200708
1772562826050618000,3.9096181640625,0.0002127932384610176,0.00004463084042072296,0.00008079432882368565
1772562826060685300,3.919685302734375,0.0014608725905418396,0.0004599788226187229,0.0007410293910652399
1772562826070752300,3.929752197265625,-0.00147712673060596,0.0001779496669769287,-0.0008579324930906296
1772562826080819500,3.9398193359375,0.00043808785267174244,-0.0007204972207546234,-0.0016159673687070608
1772562826090887400,3.949887451171875,-0.00022850139066576958,-0.001666185911744833,0.0004069698043167591
1772562826100954400,3.959954345703125,0.000055188313126564026,-0.0013336949050426483,-0.0006605784874409437
1772562826111021300,3.970021240234375,0.0012112664990127087,0.0015654221642762423,0.00032718805596232414
1772562826121088300,3.980088134765625,-0.0006993133574724197,-0.000031554605811834335,-0.0005381621886044741
1772562826131155200,3.9901552734375,-0.00046628667041659355,-0.0003639170899987221,-0.0021014378871768713
1772562826141222100,4.00022216796875,-0.0015292845200747252,-0.0007217074744403362,0.0015132687985897064
1772562826151290000,4.0102900390625,0.0007128305733203888,0.0018309324514120817,0.0018275217153131962
1772562826161357300,4.020357421875,-0.00022200332023203373,0.0016105808317661285,0.0000613632146269083
1772562826171424500,4.030424560546875,-0.0016116409096866846,-0.00012340350076556206,-0.00245612277649343
1772562826181491500,4.040491455078125,0.001310301828198135,0.0006272820755839348,-0.0017564466688781977
1772562826191558400,4.050558349609375,-0.00039838231168687344,-0.0015727551653981209,0.0014116496313363314
1772562826201626400,4.06062646484375,-0.0008633753750473261,0.001308239297941327,-0.002519087865948677
1772562826211693300,4.070693359375,-0.0008756259921938181,-0.0006044432520866394,-0.002218949608504772
1772562826221760300,4.08076025390625,-0.0009512815158814192,-0.0007418496534228325,0.00019465363584458828
1772562826231827200,4.0908271484375,0.0014663360780104995,-0.00030269427224993706,-0.0005118828266859055
1772562826241894100,4.10089404296875,-0.0013499269261956215,0.00011701369658112526,0.0017390856519341469
1772562826251962000,4.110962158203125,-0.0013041207566857338,-0.0010321405716240406,0.0008059137035161257
1772562826262029300,4.121029296875,0.0013300947612151504,-0.0031645423732697964,0.0011190809309482574
1772562826272096500,4.131096435546875,0.0010981333907693624,0.0008088937029242516,-0.002014394383877516
1772562826282163500,4.14116357421875,-0.0012501180171966553,-0.0027130180969834328,0.0007267666514962912
1772562826292230400,4.15123046875,0.0021893547382205725,0.0015831934288144112,-0.0025422635953873396
1772562826302297300,4.16129736328125,0.00044699222780764103,-0.004139095079153776,0.0008202337194234133
1772562826312365300,4.171365234375,0.0024326450657099485,0.001723320921882987,-0.0007896472234278917
1772562826322432300,4.181432373046875,-0.001722361659631133,-0.002035103738307953,-0.0009712856262922287
1772562826332499200,4.191499267578125,0.0007455893792212009,0.0012400520499795675,-0.0004221417475491762
1772562826342566100,4.201566162109375,0.0012006021570414305,0.001795740332454443,0.00262771500274539
1772562826352633300,4.21163330078125,0.0012003357987850904,0.002266054740175605,-0.0008152197115123272
1772562826362701000,4.221701171875,0.00009838561527431011,0.0008448963053524494,-0.0012088790535926819
1772562826372768500,4.2317685546875,-0.0009911134839057922,0.00034848321229219437,0.00018821517005562782
1772562826382835500,4.24183544921875,0.00017251516692340374,-0.000815272331237793,-0.00017138151451945305
1772562826392902400,4.25190234375,0.0005112690851092339,-0.0007452312856912613,-0.0021210818085819483
1772562826402969300,4.26196923828125,0.002074288669973612,0.0006229677237570286,-0.00126658717636019
1772562826413037300,4.272037353515625,0.0010327263735234737,0.0021132726687937975,-0.0016237171366810799
1772562826423104300,4.282104248046875,0.0007503044325858355,-0.0005542435683310032,0.0017734544817358255
1772562826433171200,4.292171142578125,0.00021154689602553844,-0.004655245691537857,-0.00026892381720244884
1772562826443238100,4.302238037109375,-0.00014880788512527943,0.0005882037803530693,-0.00008299434557557106
1772562826453305300,4.312305419921875,0.00034174625761806965,-0.0011670859530568123,0.0019987986888736486
1772562826463372300,4.322372314453125,0.00043152389116585255,0.0005238126032054424,0.001357352128252387
1772562826473440500,4.3324404296875,-0.0008159007411450148,-0.001765707042068243,0.0008691945113241673
1772562826483507500,4.342507568359375,-0.0013182612601667643,0.000014171469956636429,-0.001839132746681571
1772562826493574400,4.352574462890625,-0.000308390473946929,-0.0015501691959798336,0.000960648525506258
1772562826503641300,4.362641357421875,0.0018435545498505235,-0.0007640756666660309,-0.00036737951450049877
1772562826513708300,4.372708251953125,0.0007516585756093264,-0.0017023072578012943,0.0008608703501522541
1772562826523776300,4.3827763671875,-0.0007931669242680073,0.0010184564162045717,-0.001607270329259336
1772562826533843200,4.39284326171875,0.0006630495190620422,0.0023686790373176336,-0.0031889216043055058
1772562826543910100,4.40291015625,0.0008077241946011782,-0.0011797337792813778,-0.0009769103489816189
1772562826553977300,4.412977294921875,0.0009845581371337175,0.0006274874322116375,-0.0007374922279268503
1772562826564044300,4.423044189453125,-0.0004374787677079439,-0.0004207827150821686,-0.0023015430197119713
1772562826574112300,4.4331123046875,0.002054440788924694,-0.003089803270995617,-0.0019542668014764786
1772562826584179500,4.443179443359375,0.0004634659271687269,-0.00042182207107543945,0.0006350644398480654
1772562826594246400,4.453246337890625,0.0005103375297039747,-0.0012668427079916,0.00022733444347977638
1772562826604313300,4.463313232421875,0.0009278850629925728,-0.0007302006706595421,-0.004008682910352945
1772562826614380300,4.47338037109375,0.0008884703274816275,0.0011715625878423452,0.0004435896407812834
1772562826624447200,4.483447265625,0.001019106013700366,0.0006877752020955086,-0.000008276663720607758
1772562826634515200,4.49351513671875,0.0004265527240931988,-0.00013913633301854134,0.0008183685131371021
1772562826644582100,4.50358203125,-0.0002494382206350565,-0.0013265479356050491,-0.0010531165171414614
1772562826654649300,4.5136494140625,0.0007788082584738731,0.0016652473714202642,-0.0010334091493859887
1772562826664716300,4.52371630859375,0.00045379321090877056,-0.0000994652509689331,-0.0009967545047402382
1772562826674783200,4.533783203125,-0.0006399671547114849,0.0009285151027143002,-0.0015946341445669532
1772562826684851500,4.5438515625,0.00047686067409813404,-0.0027363914996385574,-0.0007974104955792427
1772562826694918400,4.55391845703125,-0.0017540694680064917,0.00010813074186444283,0.0003344330471009016
1772562826704985300,4.5639853515625,-0.00036714249290525913,0.0018170105759054422,0.0010607682634145021
1772562826715052300,4.57405224609375,0.0006350050680339336,-0.0004778355360031128,-0.0009302110411226749
1772562826725119200,4.584119140625,-0.00011034170165657997,-0.000992689747363329,0.00018346915021538734
1772562826735187200,4.594187255859375,-0.0009220731444656849,0.001861420227214694,0.0017129224725067616
1772562826745254400,4.60425439453125,-0.0010013666469603777,-0.0030006603337824345,0.0009419757407158613
1772562826755321300,4.6143212890625,-0.0017332031857222319,0.002090238267555833,-0.0002521858550608158
1772562826765388300,4.62438818359375,-0.0010583612602204084,-0.000710735097527504,-0.004064455162733793
1772562826775455200,4.634455322265625,0.0008601800072938204,-0.000695288646966219,0.00391464214771986
1772562826785522200,4.644522216796875,0.002495123539119959,0.0005411421880125999,0.00034851557575166225
1772562826795590400,4.65459033203125,0.0027358734514564276,0.0016524791717529297,0.0009160353802144527
1772562826805657300,4.6646572265625,0.001373144332319498,0.0003198576159775257,-0.0010896121384575963
1772562826815724300,4.674724365234375,0.0010234713554382324,0.000495892483741045,0.00005022087134420872
1772562826825791200,4.684791259765625,0.00017493241466581821,-0.00016070110723376274,-0.0019842800684273243
1772562826835858400,4.6948583984375,-0.0007268139161169529,-0.0021072053350508213,-0.0007163491100072861
1772562826845926400,4.704926513671875,0.0025723744183778763,-0.00025422312319278717,0.0011167493648827076
1772562826855993300,4.714993408203125,0.0003992349375039339,-0.001883544959127903,-0.0007519908249378204
1772562826866060300,4.725060302734375,0.0009376569651067257,-0.0030307648703455925,0.0005814561154693365
1772562826876126200,4.735126220703125,0.001132334116846323,0.0009943365585058928,-0.0014843579847365618
1772562826886193200,4.745193115234375,0.0003139751497656107,-0.001908041536808014,0.002384253777563572
1772562826896260400,4.75526025390625,-0.0004112035967409611,0.0009103817865252495,0.00047343596816062927
1772562826906327300,4.765327392578125,0.0003143949434161186,0.0013370495289564133,-0.0006883104797452688
1772562826916395300,4.775395263671875,-0.0011865627020597458,0.0007876395247876644,0.00151678710244596
1772562826926462200,4.785462158203125,0.00026410259306430817,-0.002083908300846815,0.00004262779839336872
1772562826936529400,4.795529296875,0.0011248362716287374,-0.0007054563611745834,0.0018724859692156315
1772562826946595600,4.805595703125,0.0007470124401152134,-0.0003730147145688534,0.0012673295568674803
1772562826956662500,4.81566259765625,0.0005725754890590906,0.0008456474170088768,0.0014140696730464697
1772562826966730500,4.82573046875,0.0014588374178856611,-0.00010928325355052948,-0.0008637295104563236
1772562826976797700,4.835797607421875,-0.0001049707643687725,0.00026302644982934,0.0005956827662885189
1772562826986864600,4.84586474609375,0.0017795154126361012,0.00019739195704460144,-0.000665291678160429
1772562826996931600,4.855931640625,0.0006793634966015816,0.00029406510293483734,-0.0005513082724064589
1772562827006998500,4.86599853515625,0.0007135733030736446,0.0011033632326871157,-0.0004272067453712225
1772562827017066500,4.87606640625,0.0009362134151160717,-0.0019113351590931416,-0.0010109718423336744
1772562827027133400,4.886133544921875,-0.001310835126787424,-0.0018567396327853203,0.0007309035863727331
1772562827037200600,4.89620068359375,-0.00026368023827672005,0.001492451410740614,-0.0021011019125580788
1772562827047267600,4.906267578125,0.0010384416673332453,-0.00011978857219219208,-0.0006777164526283741
1772562827057334800,4.916334716796875,0.0015300611266866326,-0.00035068485885858536,-0.0015504343900829554
1772562827067401700,4.926401611328125,-0.0007173677440732718,-0.002804471179842949,0.0007360202725976706
1772562827077469700,4.9364697265625,-0.00041110417805612087,-0.0011631650850176811,0.0017381678335368633
1772562827087536600,4.94653662109375,0.0024162011686712503,0.0006647012196481228,-0.002616040175780654
1772562827097603600,4.956603515625,0.000492333434522152,-0.0027209753170609474,-0.00276357913389802
1772562827107670500,4.96667041015625,0.0014197612181305885,-0.0008154120296239853,0.0005418197251856327
1772562827117737500,4.976737548828125,-0.0006721518002450466,-0.000040698330849409103,0.00038043223321437836
1772562827127805400,4.986805419921875,-0.002455089008435607,0.0005394029431045055,-0.0011254469864070415
1772562827137872600,4.99687255859375,-0.001901950454339385,-0.00023637572303414345,-0.00003088777884840965
1772562827147939600,5.006939697265625,-0.0008415256161242723,0.00023495731875300407,0.0006586788222193718
1772562827158006800,5.0170068359375,0.0003872569650411606,-0.001910751685500145,0.00028770044445991516
1772562827168073700,5.02707373046875,-0.00012657511979341507,0.0007658284157514572,-0.00015810341574251652
1772562827178141700,5.0371416015625,-0.0010429690591990948,-0.0022422121837735176,-0.0003969890531152487
1772562827188208600,5.047208740234375,0.00027253152802586555,0.00037215230986475945,-0.00020926166325807571
1772562827198275600,5.057275634765625,0.000004883855581283569,0.0010720309801399708,0.00041844556108117104
1772562827208342500,5.067342529296875,0.0003201989457011223,-0.0006459532305598259,-0.0025066337548196316
1772562827218409500,5.077409423828125,-0.001489152666181326,-0.0005056043155491352,-0.00014494243077933788
1772562827228476400,5.087476318359375,-0.00005659833550453186,-0.0015577622689306736,0.0010077047627419233
1772562827238544400,5.09754443359375,0.000605729641392827,0.0009059279691427946,0.000874280696734786
1772562827248611600,5.107611572265625,0.0006495136767625809,0.0019554293248802423,0.001303199678659439
1772562827258678800,5.1176787109375,0.001257247058674693,-0.0007921541109681129,-0.0000880358275026083
1772562827268746500,5.12774658203125,0.0010859791655093431,0.00015211058780550957,-0.0016626465367153287
1772562827278814500,5.137814453125,0.0009695990011096001,-0.002091868780553341,0.0006497760768979788
1772562827288881700,5.147881591796875,-0.0013752023223787546,-0.00026853475719690323,0.003907122183591127
1772562827298948600,5.157948486328125,0.0010807649232447147,0.0008875431958585978,0.000376302981749177
1772562827309015600,5.168015625,-0.00046424404717981815,0.0007784003391861916,-0.000836183549836278
1772562827319082500,5.17808251953125,0.00010087876580655575,0.0014750831760466099,0.0005497254896908998
1772562827329150700,5.188150634765625,0.0012681647203862667,-0.000005671288818120956,-0.002105965744704008
1772562827339217700,5.1982177734375,0.0011722908820956945,0.0008156471885740757,0.000941223232075572
1772562827349284600,5.20828466796875,0.0012350025353953242,-0.0002692239359021187,0.0007166799623519182
1772562827359351600,5.2183515625,0.0014477891381829977,-0.000728352926671505,0.0002002932596951723
1772562827369418500,5.22841845703125,-0.00017959950491786003,0.000132701825350523,-0.0026369707193225622
1772562827379485700,5.238485595703125,0.0002177441492676735,-0.0006212391890585423,-0.003236980875954032
1772562827389553700,5.2485537109375,0.0003914274275302887,0.0006714239716529846,-0.0022256160154938698
1772562827399620600,5.25862060546875,-0.0006559938192367554,0.0002109636552631855,0.003973424434661865
1772562827409687600,5.2686875,0.00018916605040431023,0.00025408295914530754,-0.002374307718127966
1772562827419754500,5.27875439453125,-0.001899817492812872,-0.0011773663572967052,0.00001534656621515751
1772562827429821400,5.288821533203125,0.00008792895823717117,-0.0004069404676556587,0.00037193926982581615
1772562827439889700,5.2988896484375,-7.543712854385376e-7,-0.0008074799552559853,0.0016720944549888372
1772562827449956600,5.30895654296875,0.0029156545642763376,-0.002083602361381054,-0.0016359785804525018
1772562827460023600,5.3190234375,0.0005691433325409889,0.00036277761682868004,0.0005153228994458914
1772562827470090800,5.3290908203125,-0.0005363642703741789,-0.0005645407363772392,-0.002371902810409665
1772562827480157700,5.33915771484375,-0.0025257456582039595,0.0009537276346236467,0.0002425224520266056
1772562827490224600,5.349224609375,0.0006704300176352262,0.0029322290793061256,-0.0010115152690559626
1772562827500292600,5.359292724609375,-0.0014012432657182217,-0.0014635846018791199,-0.002330845221877098
1772562827510359600,5.369359619140625,0.0016563785029575229,-0.0016691521741449833,0.002789496909826994
1772562827520426500,5.379426513671875,-0.001495738746598363,0.0014616597909480333,0.0008690916001796722
1772562827530493400,5.389493408203125,-0.0015082510653883219,-0.00016513559967279434,0.0004966526757925749
1772562827540560400,5.399560302734375,-0.0005513771902769804,-0.000806691125035286,0.002814668230712414
1772562827550628600,5.409628662109375,-0.0005085354205220938,0.002285999245941639,-0.001205555279739201
1772562827560695600,5.419695556640625,0.000620911130681634,-0.0010733120143413544,0.0016205913852900267
1772562827570762800,5.4297626953125,-0.0013992064632475376,-0.0010969280265271664,-0.00029104575514793396
1772562827580829700,5.43982958984375,0.001341718714684248,-0.0015768297016620636,-0.0006590946577489376
1772562827590896600,5.449896728515625,0.0012237878981977701,0.0014388025738298893,0.0007342840544879436
1772562827600964600,5.459964599609375,0.001310074352659285,0.0016033858992159367,-0.0009245991241186857
1772562827611031600,5.470031494140625,-0.0007795854471623898,0.0005326829850673676,-0.002485767938196659
1772562827621098500,5.480098388671875,0.0002428020816296339,-0.0016119605861604214,-0.0008255534339696169
1772562827631165400,5.49016552734375,-0.0002860845997929573,0.0009066928178071976,-0.002154580783098936
1772562827641232400,5.500232421875,0.00012244423851370811,0.0006763292476534843,-0.0019002490444108844
1772562827651299600,5.510299560546875,0.0001576573122292757,-0.001085024792701006,0.0026732650585472584
1772562827661367600,5.520367431640625,0.0005344946403056383,-0.0007428089156746864,-0.0008924412541091442
1772562827671434800,5.530434814453125,-0.0010000811889767647,-0.0014830832369625568,-0.0011787372641265392
1772562827681501700,5.540501708984375,-0.00019420869648456573,-0.00021621771156787872,-0.000720140989869833
1772562827691568600,5.550568603515625,0.0001376909203827381,-0.0007337001152336597,0.0035928969737142324
1772562827701635600,5.560635498046875,0.0018011012580245733,0.0017387785483151674,-0.002411732217296958
1772562827711703600,5.57070361328125,-0.0010145946871489286,0.002776605077087879,-0.0007861973717808723
1772562827721770500,5.5807705078125,0.003119430271908641,0.0015323760453611612,0.002770720748230815
1772562827731837400,5.59083740234375,0.0002624590415507555,0.00023273099213838577,-0.0013131441082805395
1772562827741904400,5.600904296875,0.00028962339274585247,-0.001131606288254261,-0.0003488135989755392
1772562827751971600,5.6109716796875,-0.0001879124902188778,0.0007488527335226536,-0.00050963438116014
1772562827762039600,5.62103955078125,-0.0005951097700744867,0.0036876508966088295,0.00026294845156371593
1772562827772106800,5.631106689453125,-0.001225769054144621,-0.0017957622185349464,-0.0005561308935284615
1772562827782173700,5.641173583984375,0.0013700139243155718,0.0010655377991497517,-0.0015092763351276517
1772562827792240600,5.65124072265625,0.001434178906492889,0.0015494630206376314,-0.0023230849765241146
1772562827802307600,5.6613076171875,0.0008046077564358711,-0.0009701536037027836,-0.0019345298642292619
1772562827812374500,5.67137451171875,0.0021343198604881763,-0.00007630093023180962,-0.00247662840411067
1772562827822442500,5.6814423828125,-0.0023445843253284693,0.000044872984290122986,0.0017308997921645641
1772562827832509400,5.691509521484375,0.002951363567262888,-0.001272548921406269,-0.0005422255489975214
1772562827842576400,5.701576416015625,0.00020511168986558914,0.0006004520691931248,0.0003747008740901947
1772562827852643600,5.7116435546875,0.001897631911560893,0.00021227262914180756,0.0006650558207184076
1772562827862710500,5.72171044921875,0.000001194886863231659,-0.0007986635901033878,0.0024938483256846666
1772562827872778800,5.73177880859375,0.0003477577120065689,0.00019019609317183495,0.0007245973683893681
1772562827882845700,5.741845703125,0.0006636085454374552,0.0018330998718738556,-0.0030621513724327087
1772562827892912600,5.75191259765625,0.00005477643571794033,0.0008494330104440451,0.0023537310771644115
1772562827902979600,5.7619794921875,-0.0003606765531003475,0.0002954956144094467,-0.00011794897727668285
1772562827913046500,5.772046630859375,-0.00007360638119280338,0.00011841394007205963,0.00009833532385528088
1772562827923114500,5.782114501953125,-0.0007348691578954458,-0.00048532476648688316,0.0008200521115213633
1772562827933181400,5.792181396484375,-0.0001143026165664196,0.0007617888040840626,-0.0002470363397151232
1772562827943249400,5.80224951171875,-0.00008980161510407925,0.0007577938959002495,0.0004890614654868841
1772562827953316400,5.81231640625,-0.0021007026080042124,0.003016773145645857,-0.00019503501243889332
1772562827963383600,5.822383544921875,0.000148336635902524,0.0019509759731590748,0.0011967327445745468
1772562827973450500,5.832450439453125,0.000573495402932167,0.00009376741945743561,-0.00339230103418231
1772562827983518500,5.8425185546875,0.0008134462404996157,0.0002588829956948757,-0.002154463669285178
1772562827993585400,5.85258544921875,-0.0012784460559487343,0.0016329842619597912,-0.002395009156316519
1772562828003652600,5.862652587890625,0.0011157356202602386,0.002913964679464698,0.00042740884236991405
1772562828013719600,5.872719482421875,-0.0025424149353057146,-0.0029661902226507664,-0.0017179005080834031
1772562828023786500,5.882786376953125,-0.000154091976583004,-0.0007709464989602566,0.0005660264287143946
1772562828033854500,5.8928544921875,0.001057163579389453,0.00032168952748179436,-0.00224360846914351
1772562828043921400,5.90292138671875,-0.001206523273140192,0.001495877280831337,-0.000035581644624471664
1772562828053988400,5.91298828125,-0.00029631960205733776,0.0005301232449710369,-0.002152755856513977
1772562828064055600,5.9230556640625,-0.00037035555578768253,0.000893378397449851,0.0006174643058329821
1772562828074122500,5.93312255859375,0.0016563875833526254,0.0008846358396112919,0.002748182276263833
1772562828084190500,5.9431904296875,-0.0014078454114496708,0.0017059547826647758,-0.0001669139601290226
1772562828094257400,5.95325732421875,-0.001121370354667306,0.00041685067117214203,0.002680407138541341
1772562828104324400,5.963324462890625,-0.00008060713298618793,-0.000977314542979002,-0.0035404707305133343
1772562828114391600,5.9733916015625,-0.0012718939688056707,0.00010269880294799805,-0.003320144023746252
1772562828124458500,5.98345849609375,0.0017470655729994178,0.0002449112944304943,-0.002958486555144191
1772562828134526500,5.9935263671875,0.0030168434605002403,-0.0004049651324748993,-0.0009187990799546242
1772562828144593400,6.003593505859375,-0.00035418570041656494,0.0005974490195512772,0.00039067724719643593
1772562828154660400,6.013660400390625,0.0007015741430222988,0.0006680116057395935,-0.0027611926198005676
1772562828164727600,6.0237275390625,0.0008475154172629118,0.0014784117229282856,0.0001467128749936819
1772562828174794500,6.03379443359375,-0.00007718196138739586,0.0002583353780210018,0.0013255637604743242
1772562828184861400,6.043861328125,-0.0009714714251458645,-0.0009741755202412605,-0.0009264051914215088
1772562828194929400,6.053929443359375,-0.00005479622632265091,0.0001310119405388832,0.0027569453231990337
1772562828204996400,6.063996337890625,0.00014840299263596535,-0.000021853484213352203,-0.0007965106051415205
1772562828215063600,6.0740634765625,0.0010441795457154512,0.0013514396268874407,0.0013544519897550344
1772562828225130500,6.084130615234375,-0.0013500021304935217,-0.001494147814810276,0.0009248841088265181
1772562828235197400,6.094197509765625,0.00043930881656706333,0.0006075175479054451,0.00026107928715646267
1772562828245265400,6.104265380859375,-0.0013585910201072693,0.00036996323615312576,0.00023524672724306583
1772562828255332400,6.114332275390625,0.0015403018333017826,0.0003690812736749649,-0.0009761350229382515
1772562828265399600,6.124399658203125,0.0011525456793606281,-0.002281829249113798,0.00021882541477680206
1772562828275466500,6.134466552734375,0.00018956861458718777,-0.0017770742997527122,0.0013696185778826475
1772562828285533400,6.144533447265625,0.00045268889516592026,0.001975585939362645,0.0027379507664591074
1772562828295600400,6.154600341796875,0.00020684651099145412,-0.0027958122082054615,0.0015358207747340202
1772562828305668400,6.16466845703125,-0.00005361041985452175,-0.00012279720976948738,-0.0012242795201018453
1772562828315735300,6.1747353515625,-0.00014025275595486164,-0.00026809051632881165,0.001861064461991191
1772562828325802500,6.184802490234375,-0.0015661090146750212,0.0016826747450977564,-0.0004742615856230259
1772562828335869400,6.194869384765625,-0.0002058860845863819,-0.0009213569574058056,0.0017639496363699436
1772562828345936600,6.2049365234375,0.0015323591651394963,-0.0007858020253479481,0.0015109493397176266
1772562828356004400,6.21500439453125,0.0005494523793458939,0.001683277077972889,-0.0035003172233700752
1772562828366071600,6.225071533203125,0.0009659708011895418,0.0006515686400234699,-0.0007143844850361347
1772562828376138500,6.235138427734375,0.0015735484194010496,-0.0015519512817263603,-0.00013251742348074913
1772562828386205400,6.245205322265625,-0.003582331584766507,-0.0005356892943382263,0.0025535470340400934
1772562828396272400,6.2552724609375,-0.0023504288401454687,-0.0002527632750570774,0.0026254828553646803
1772562828406340400,6.26534033203125,-0.00001696706749498844,-0.0018282895907759666,0.0013402414042502642
1772562828416407300,6.2754072265625,0.0018666815012693405,0.0016927295364439487,-0.002154880203306675
1772562828426474500,6.285474609375,0.0013838504673913121,-0.0036088256165385246,0.002334410324692726
1772562828436541400,6.29554150390625,0.000808018958196044,-0.00031992513686418533,-0.0020396318286657333
1772562828446608600,6.305608642578125,-0.00010517914779484272,0.0011972778011113405,-0.002140033058822155
1772562828456676600,6.315676513671875,-0.0008973588701337576,-0.003909432329237461,-0.0024498226121068
1772562828466743600,6.32574365234375,-0.00031892023980617523,0.0017742856871336699,-0.0021560760214924812
1772562828476810500,6.335810546875,-0.001098444452509284,-0.000020289793610572815,0.000722524244338274
1772562828486877400,6.34587744140625,-0.0005034941714257002,0.0008939732797443867,-0.0015169279649853706
1772562828496944400,6.3559443359375,0.0005130856297910213,0.0013250086922198534,0.0013561886735260487
1772562828507011300,6.36601123046875,-0.001645406475290656,-0.001596212387084961,-0.00029683555476367474
1772562828517079300,6.376079345703125,-0.0014343773946166039,0.0007850788533687592,-0.0021724821999669075
1772562828527146200,6.386146240234375,0.0012636712053790689,-0.0009590252302587032,-0.0002960190176963806
1772562828537213400,6.39621337890625,0.001308668521232903,0.0022553959861397743,0.002377287717536092
1772562828547280600,6.40628076171875,-0.000038358382880687714,-0.0017870161682367325,0.0012992399279028177
1772562828557347600,6.41634765625,0.0015825630398467183,0.00006468687206506729,0.0006186503451317549
1772562828567415600,6.42641552734375,-0.0006347848102450371,-0.0010013766586780548,-0.0014375762548297644
1772562828577482500,6.436482421875,-0.0020402653608471155,-0.00047140754759311676,-0.0002896313089877367
1772562828587549400,6.446549560546875,-0.00009242957457900047,-0.001003773882985115,0.0004890768323093653
1772562828597616400,6.456616455078125,-0.0006426030304282904,0.0003422624431550503,-0.0009208149276673794
1772562828607683300,6.466683349609375,-0.00046470388770103455,0.00002108560875058174,-0.0011607656488195062
1772562828617751300,6.476751220703125,0.0006933382246643305,-0.000938038807362318,0.001555033726617694
1772562828627818200,6.486818359375,-0.001170874573290348,0.0006524007767438889,-0.0037720873951911926
1772562828637885700,6.4968857421875,0.0005314380396157503,-0.0026505091227591038,-0.001706227078102529
1772562828647952600,6.50695263671875,-0.0013024145737290382,-0.0011080065742135048,-0.0014271277468651533
1772562828658019600,6.51701953125,-0.0010921943467110395,-0.0014359811320900917,0.00029590982012450695
1772562828668086500,6.52708642578125,0.00181571114808321,0.0006969445385038853,-0.0023278365842998028
1772562828678154500,6.537154541015625,-0.0008953383658081293,0.000177829060703516,-0.0007584062404930592
1772562828688221400,6.547221435546875,0.00016140379011631012,0.0003416133113205433,0.0011822395026683807
1772562828698288400,6.557288330078125,-0.0010646423324942589,0.001291927881538868,-0.001701738452538848
1772562828708355300,6.567355224609375,0.002339144004508853,0.0012205550447106361,-0.0021819062530994415
1772562828718422500,6.577422607421875,0.00008413102477788925,0.0006068246439099312,-0.0009414928499609232
1772562828728490200,6.587490234375,0.0003557733725756407,-0.0004547117277979851,-0.0001199075486510992
1772562828738557400,6.597557373046875,0.001384352333843708,-0.0007475893944501877,-0.00040628830902278423
1772562828748624600,6.607624755859375,0.0008226917125284672,0.0020026571583002806,-0.003653746796771884
1772562828758691600,6.617691650390625,-0.00006264145486056805,0.002109613036736846,-0.0012426306493580341
1772562828768758500,6.627758544921875,0.0006265845149755478,0.00024167168885469437,0.0016269255429506302
1772562828778826500,6.637826416015625,0.0003443090245127678,-0.0015713917091488838,0.0006525442004203796
1772562828788893400,6.6478935546875,-0.001060242298990488,-0.0002914764918386936,-0.0007474797312170267
1772562828798960400,6.65796044921875,-0.00015771319158375263,0.000555030070245266,0.0015268109273165464
1772562828809027300,6.66802734375,-0.0013124598190188408,0.0010351981036365032,-0.0022343716118484735
1772562828819094500,6.678094482421875,0.002216189168393612,0.0010313824750483036,-0.00041409488767385483
1772562828829162200,6.688162353515625,0.0008238884620368481,-0.0010528075508773327,0.00016114790923893452
1772562828839229400,6.6982294921875,-0.00042552268132567406,-0.0015074415132403374,0.00008806935511529446
1772562828849296600,6.708296630859375,0.0010575917549431324,-0.00041155051440000534,-0.0003257857169955969
1772562828859363600,6.718363525390625,-0.0005559537094086409,-0.0004551992751657963,0.0002145194448530674
1772562828869430500,6.728430419921875,0.0010267628822475672,-0.0003015347756445408,0.00036791758611798286
1772562828879497500,6.73849755859375,0.0005137927364557981,-0.0007927152328193188,-0.0027253609150648117
1772562828889565400,6.7485654296875,-0.000025497516617178917,0.00037854304537177086,0.0003718954976648092
1772562828899632400,6.75863232421875,-0.001451992429792881,0.0004939227364957333,-0.0019958852790296078
1772562828909699300,6.76869921875,0.0011706887744367123,0.0010249572806060314,-0.0006922679021954536
1772562828919766500,6.7787666015625,0.0011633893009275198,-0.0007022442296147346,0.0009206519462168217
1772562828929833500,6.78883349609375,-0.0003234534524381161,0.0009443883318454027,0.0008905581198632717
1772562828939901700,6.798901611328125,-0.00030033732764422894,0.00044731423258781433,-0.00002989848144352436
1772562828949969000,6.808968994140625,0.00047038146294653416,-0.0001271297223865986,0.001604217104613781
1772562828960035800,6.819035888671875,0.0031344371382147074,0.00011840974912047386,-0.000646625179797411
1772562828970102800,6.829102783203125,-0.00012101093307137489,0.0007839337922632694,-0.00015873415395617485
1772562828980169700,6.839169677734375,-0.0012746977154165506,-0.00028461264446377754,-0.0028765026945620775
1772562828990236700,6.849236572265625,-0.0006062444299459457,0.0010432396084070206,-0.0007513000164180994
1772562829000304600,6.8593046875,-0.0010156845673918724,0.0006924215704202652,0.0002513991203159094
1772562829010371600,6.86937158203125,-0.0012031709775328636,-0.0006002769805490971,-0.001290571060962975
1772562829020438800,6.879438720703125,0.001191706396639347,-0.0011308048851788044,0.003721126588061452
1772562829030505700,6.889505615234375,0.0005179266445338726,-0.001252777874469757,-0.0010310178622603416
1772562829040572700,6.89957275390625,0.0012173471041023731,0.001319232163950801,-0.000540958484634757
1772562829050641000,6.909640869140625,-0.00046177604235708714,-0.0027420883998274803,0.001750425435602665
1772562829060707800,6.919707763671875,0.000901462510228157,0.0008025462739169598,0.00003611133433878422
1772562829070774800,6.92977490234375,0.0011949428590014577,-0.00020226463675498962,-0.002305872505530715
1772562829080841700,6.939841796875,-0.000002971617504954338,-0.0009447764605283737,0.0005200633313506842
1772562829090908700,6.94990869140625,0.0025877514854073524,0.0037964489310979843,-0.002233645413070917
1772562829100976600,6.9599765625,0.0015146177029237151,-0.0004314351826906204,-0.0002655019052326679
1772562829111043600,6.970043701171875,0.00003603077493607998,-0.0014980314299464226,-0.00015657860785722733
1772562829121110800,6.98011083984375,-0.0003335552755743265,-0.00028801895678043365,0.00006767199374735355
1772562829131177700,6.990177734375,-0.0015628705732524395,-0.0005452800542116165,0.002314847195520997
1772562829141244700,7.00024462890625,-0.0005774972960352898,0.0014432263560593128,-0.0006446219049394131
1772562829151312600,7.010312744140625,0.0011213331017643213,-0.0010428344830870628,0.0014097404200583696
1772562829161379800,7.0203798828125,0.0013717286055907607,-0.0006447494961321354,0.0018083935137838125
1772562829171446800,7.03044677734375,0.00042337691411376,-0.0010543433018028736,-0.0033139302395284176
1772562829181513700,7.040513671875,0.0017091426998376846,-0.000182347372174263,-0.00048677530139684677
1772562829191580700,7.05058056640625,0.0008928838651627302,-0.0005751634016633034,-0.0014777375617995858
1772562829201647900,7.06064794921875,0.0006303789559751749,0.001077759312465787,-0.001072233309969306
1772562829211715600,7.070715576171875,-0.0003046568017452955,0.000007967464625835419,0.0022564518731087446
1772562829221782800,7.08078271484375,0.0005747193936258554,0.00023299269378185272,0.0002859903033822775
1772562829231849700,7.090849609375,0.00038403691723942757,0.0014090447220951319,-0.0024362928234040737
1772562829241916700,7.100916748046875,0.0009765555150806904,0.0010430780239403248,0.0017224522307515144
1772562829251983600,7.110983642578125,0.0012753623304888606,0.001424709102138877,-0.001318078488111496
1772562829262051800,7.1210517578125,0.0000919317826628685,0.001447433140128851,-0.0014995376113802195
1772562829272118800,7.131118896484375,-0.0012588235549628735,-0.0001933407038450241,-0.0007796850986778736
1772562829282185700,7.141185791015625,0.0019376305863261223,-0.00017305929213762283,0.0018874343950301409
1772562829292252700,7.151252685546875,-0.00052073341794312,0.0008666389621794224,-0.001548309694044292
1772562829302319900,7.16131982421875,-0.00018124724738299847,0.00018493970856070518,0.0009230808354914188
1772562829312387600,7.1713876953125,0.0022960251662880182,-0.0005543539300560951,-0.0018743035616353154
1772562829322454800,7.181454833984375,0.001103322021663189,0.0017957247328013182,0.0015594824217259884
1772562829332521700,7.191521728515625,0.0002343324013054371,0.0006929095834493637,-0.0024608252570033073
1772562829342588700,7.201588623046875,-0.0008954470977187157,0.0009645137470215559,-0.0008744723163545132
1772562829352655600,7.211655517578125,0.0029650710057467222,0.0003439970314502716,0.0014368852134793997
1772562829362723600,7.2217236328125,0.0005240954924374819,0.0004780823364853859,-0.00043300329707562923
1772562829372790800,7.231790771484375,-0.0018573030829429626,-0.00006786594167351723,-0.0017126521561294794
1772562829382857700,7.241857666015625,-0.0003195276949554682,-0.001124559435993433,0.0008776884060353041
1772562829392924700,7.251924560546875,-0.0003525509964674711,-0.0006387988105416298,0.0014926122967153788
1772562829402991900,7.261991943359375,0.00036715948954224586,-0.00004148157313466072,0.0007499810308218002
1772562829413058800,7.272058837890625,0.000614833552390337,0.00022510113194584846,-0.0022503361105918884
1772562829423126800,7.282126708984375,-0.00023918505758047104,-0.0011650128290057182,-0.0013383692130446434
1772562829433193700,7.29219384765625,0.0030261166393756866,0.0002384730614721775,-0.002458760980516672
1772562829443260700,7.3022607421875,-0.00028161914087831974,0.0017027261201292276,-0.0007814967539161444
1772562829453327600,7.31232763671875,-0.0009695137850940228,0.00047740573063492775,0.0014875167980790138
1772562829463394600,7.32239453125,0.0000026742927730083466,0.0003569456748664379,0.002116628922522068
1772562829473462800,7.332462890625,-0.00001756567507982254,-0.002583184279501438,0.0009315223433077335
1772562829483529700,7.34252978515625,-0.000817739637568593,0.0005765319801867008,0.0007730857469141483
1772562829493596700,7.3525966796875,-0.0012845920864492655,-0.0010458659380674362,-0.0018181700725108385
1772562829503663900,7.362663818359375,0.0002519912086427212,0.0007404307834804058,-0.0021057166159152985
1772562829513730800,7.372730712890625,-0.0013512317091226578,-0.0007259054109454155,0.0007888732943683863
1772562829523798800,7.382798828125,-0.000919718760997057,0.00035310210660099983,-0.0002860340755432844
1772562829533865700,7.39286572265625,-0.00022143777459859848,-0.00015449663624167442,0.0007624523714184761
1772562829543932700,7.4029326171875,-0.002765099983662367,-0.001624138094484806,0.003959964029490948
1772562829553999600,7.41299951171875,-0.001192237250506878,0.0008371556177735329,0.00025976821780204773
1772562829564066600,7.423066650390625,0.0011446739081293344,-0.00017143087461590767,-0.0009881008882075548
1772562829574133800,7.4331337890625,0.0013976740883663297,0.00015054503455758095,-0.0038581895641982555
1772562829584201700,7.44320166015625,0.002244186820462346,0.002070976886898279,-0.002284697024151683
1772562829594268700,7.4532685546875,0.0015903806779533625,-0.0018369457684457302,0.001407776027917862
1772562829604335900,7.4633359375,-0.0008686438668519258,-0.0007463172078132629,-0.00022118701599538326
1772562829614402800,7.47340283203125,0.0012853207299485803,0.001306713791564107,-0.00017191865481436253
1772562829624469800,7.4834697265625,0.0010498338378965855,-0.0006727552972733974,-0.001074424246326089
1772562829634537700,7.493537841796875,0.0012261351803317666,-0.00030444003641605377,0.00035489420406520367
1772562829644604700,7.503604736328125,-0.0014420310035347939,-0.0013826536014676094,-0.001512901159003377
1772562829654671600,7.513671630859375,-0.00021484633907675743,-0.0005930266343057156,-0.002488683443516493
1772562829664738600,7.523738525390625,0.00004531349986791611,-0.0018473942764103413,0.002560616238042712
1772562829674805800,7.5338056640625,0.0003260106313973665,-0.00007958803325891495,0.0011946808081120253
1772562829684873700,7.543873779296875,0.000037419144064188004,0.0010094842873513699,-0.0008506134618073702
1772562829694941000,7.55394091796875,-0.00036072335205972195,0.00040654465556144714,-0.0019664778374135494
1772562829705007900,7.5640078125,-0.0030324612744152546,-0.00039338041096925735,0.0015623781364411116
1772562829715074800,7.57407470703125,0.0004373714327812195,-0.0013001863844692707,-0.002466984558850527
1772562829725141800,7.584141845703125,-0.0014393944293260574,-0.002017464954406023,-0.0015276194317266345
1772562829735208700,7.594208740234375,-0.0013717496767640114,-0.0006501981988549232,0.0004636261146515608
1772562829745276700,7.604276611328125,0.0015064686303958297,0.0008564908057451248,0.0003020192962139845
1772562829755343600,7.614343505859375,0.0013450810220092535,-0.0015808343887329102,-0.000020755687728524208
1772562829765410600,7.62441064453125,0.0012179240584373474,-0.0002604592591524124,-0.0025569007266312838
1772562829775477800,7.634477783203125,0.000152127118781209,-0.0020841918885707855,-0.0006024069152772427
1772562829785544700,7.644544677734375,0.0025106791872531176,0.0010900774504989386,-0.00010691303759813309
1772562829795613000,7.654613037109375,0.00018760375678539276,-0.0004455014131963253,-0.002944244770333171
1772562829805679900,7.664679931640625,-0.0016413279809057713,-0.0002880748361349106,-0.0021641948260366917
1772562829815746800,7.674746826171875,-0.0009012357331812382,0.0006546839140355587,-0.004980487748980522
1772562829825813800,7.684813720703125,0.002509524580091238,-0.00019108830019831657,-0.0034511154517531395
1772562829835880700,7.694880615234375,-0.00011741742491722107,-0.0004866989329457283,-0.000522437272593379
1772562829845948700,7.70494873046875,0.0006520680617541075,-0.001903841271996498,-0.0008885003626346588
1772562829856015600,7.715015625,-0.003651333972811699,0.0018586725927889347,0.0008966163732111454
1772562829866082600,7.72508251953125,-0.0004096631892025471,-0.0004217829555273056,-0.0004008228424936533
1772562829876149800,7.735149658203125,-0.0012935660779476166,-0.0006713210605084896,0.00014219572767615318
1772562829886216700,7.745216796875,0.002542614471167326,-0.0026711025275290012,-0.001905524404719472
1772562829896285000,7.755284912109375,-0.000023341039195656776,0.0008719665929675102,0.0000803947914391756
1772562829906351900,7.765351806640625,0.0006336430087685585,0.0008966405875980854,-0.0012585977092385292
1772562829916418800,7.775418701171875,0.0010381771717220545,0.000716078095138073,-0.0016157276695594192
1772562829926485800,7.78548583984375,0.0013913415605202317,0.0018777786754071712,0.0007355532143265009
1772562829936552700,7.795552734375,-0.0014768829569220543,0.0006055864505469799,-0.0007291852962225676
1772562829946619400,7.805619384765625,-0.0016305004246532917,0.00047436822205781937,0.0007012393325567245
1772562829956687000,7.81568701171875,-0.0016608601436018944,-0.0008984915912151337,0.001514835050329566
1772562829966754300,7.82575439453125,0.00198117783293128,-0.001630854792892933,0.0004160038661211729
1772562829976821200,7.8358212890625,0.0007787605281919241,0.0005215122364461422,-0.004812314175069332
1772562829986888400,7.845888427734375,0.0014541797572746873,-0.000755170825868845,-0.002938101999461651
1772562829996955400,7.855955322265625,-0.000525347888469696,-0.00009976699948310852,-0.0010818785522133112
1772562830007023400,7.8660234375,0.0008474744390696287,0.0018156254664063454,0.0012081749737262726
1772562830017090300,7.87609033203125,0.000533487880602479,0.0009596855379641056,0.000396176939830184
1772562830027157200,7.8861572265625,-0.0008127281907945871,-0.00017871428281068802,0.00000325753353536129
1772562830037224200,7.89622412109375,0.0000876865815371275,0.0004484602250158787,-0.0015288590220734477
1772562830047291400,7.90629150390625,0.0013834242708981037,0.0013529134448617697,0.0032386500388383865
1772562830057359000,7.916359130859375,0.00012108590453863144,-0.0016652471385896206,-0.0021289510186761618
1772562830067426300,7.92642626953125,-0.000574061181396246,-0.0008985814638435841,-0.0033957038540393114
1772562830077493200,7.9364931640625,-0.0014691497199237347,0.0008146301843225956,-0.0015120499301701784
1772562830087560200,7.946560302734375,-0.001372234895825386,-0.001887364313006401,0.0012243869714438915
1772562830097627400,7.95662744140625,-0.001095798797905445,0.00032013002783060074,-0.001168995862826705
1772562830107694300,7.9666943359375,0.00253714295104146,-0.0007082894444465637,-0.000620563980191946
1772562830117762300,7.97676220703125,-0.0005039204843342304,-0.0017277472652494907,-0.003399838926270604
1772562830127829200,7.986829345703125,0.0011668894439935684,0.00038659851998090744,-0.0020480130333453417
1772562830137896200,7.996896240234375,0.0035626692697405815,-0.0015625692903995514,0.001452179392799735
1772562830147963400,8.00696337890625,-0.0015778036322444677,-0.00003084726631641388,-0.0007274572271853685
1772562830158030300,8.0170302734375,0.0007202380802482367,0.0008309516124427319,0.0004936021286994219
1772562830168098300,8.027098388671876,0.0014439786318689585,0.00007769186049699783,-0.0015630541602149606
1772562830178165200,8.037165283203125,-0.0007725702598690987,0.0009464151225984097,0.0002345796674489975
1772562830188232200,8.047232177734376,-0.001150193391367793,-0.00048501649871468544,0.0013801176100969315
1772562830198299400,8.05729931640625,0.0011561042629182339,-0.0007579904049634933,0.0005835662595927715
1772562830208366300,8.067366455078124,0.00028491648845374584,-0.0010733790695667267,0.0009093757253140211
1772562830218434300,8.077434326171876,0.0011155563406646252,0.00296876672655344,0.0001980452798306942
1772562830228501200,8.087501220703125,0.0012928708456456661,-0.0003498098812997341,0.0032963785342872143
1772562830238568200,8.097568115234376,0.0015906122280284762,0.0002408791333436966,-0.0028075864538550377
1772562830248635400,8.107635498046875,0.0013075072783976793,0.0005790749564766884,0.0019521319773048162
1772562830258702300,8.117702392578124,-0.00045923376455903053,-0.002750675193965435,-0.000825545284897089
1772562830268769300,8.127769287109375,0.0011309357360005379,-0.0009945030324161053,-0.00119559105951339
1772562830278837200,8.137837158203125,-0.0013071880675852299,-0.00009328965097665787,0.00045982981100678444
1772562830288904200,8.147904296875,-0.00028609600849449635,-0.0011026193387806416,-0.002346065128222108
1772562830298971100,8.15797119140625,-0.0016323239542543888,-0.0003345636650919914,-0.00040222378447651863
1772562830309038300,8.168038330078126,0.00042718835175037384,0.001426504459232092,0.0022285454906523228
1772562830319105300,8.178105224609375,-0.0013222424313426018,-0.0006393096409738064,-0.0018191930139437318
1772562830329173200,8.18817333984375,0.0006842541042715311,-0.0020140581764280796,0.00033557135611772537
1772562830339240200,8.198240234375,0.00009622820653021336,0.0006509670056402683,0.003361987881362438
1772562830349307400,8.208307373046875,0.0009660450741648674,0.0013026525266468525,-0.0013483515940606594
1772562830359374300,8.218374267578126,0.0010065250098705292,-0.0008601006120443344,-0.000127292238175869
1772562830369441300,8.228441162109375,-0.0005694604478776455,-0.0013589388690888882,0.00011229258961975574
1772562830379509200,8.23850927734375,0.00035465648397803307,-0.0020217997953295708,0.0023818383924663067
1772562830389576200,8.248576171875,0.0012524621561169624,0.00034084590151906013,-0.0009186691604554653
1772562830399643100,8.25864306640625,0.001268707332201302,0.0010982486419379711,-0.0001740492880344391
1772562830409710300,8.26871044921875,0.0014562307624146342,-0.004164253361523151,-0.00008502858690917492
1772562830419777300,8.27877734375,0.0012453084345906973,-0.0007913601584732533,0.0018548178486526012
1772562830429844500,8.288844482421876,0.0004749523941427469,0.00037437351420521736,-0.001027274876832962
1772562830439912200,8.298912109375,-0.0025432079564779997,-0.0007422897033393383,-0.0027543348260223866
1772562830449979400,8.3089794921875,0.00028402917087078094,-0.000053273048251867294,0.0010599480010569096
1772562830460046300,8.31904638671875,0.0016654107021167874,-0.0010463655926287174,-0.00030598719604313374
1772562830470113300,8.32911328125,-0.00039369123987853527,-0.0004031495191156864,0.0027482204604893923
1772562830480180200,8.33918017578125,0.001722190179862082,-0.0009941048920154572,0.0014808222185820341
1772562830490248200,8.349248291015625,0.00018346472643315792,0.0008216165006160736,-0.0007303270976990461
1772562830500315100,8.359315185546874,0.0025851032696664333,-0.0010061110369861126,0.00026596151292324066
1772562830510382000,8.369382080078125,0.0021544410847127438,-0.0009499974548816681,0.0014464682899415493
1772562830520449300,8.37944921875,-0.0016757172998040915,-0.0018354984931647778,-0.0001471671275794506
1772562830530516500,8.3895166015625,0.0007242450956255198,-0.00201790826395154,-0.0011257254518568516
1772562830540584400,8.39958447265625,-0.0002542003057897091,0.0007445886731147766,0.00023142131976783276
1772562830550651400,8.4096513671875,-0.0008507429156452417,-0.0018474780954420567,0.0012394296936690807
1772562830560718300,8.41971826171875,0.00029148696921765804,-0.0013816910795867443,-0.00032650912180542946
1772562830570785300,8.429785400390625,-0.00020987261086702347,-0.00016158493235707283,-0.0004476546309888363
1772562830580852200,8.439852294921875,0.0031329269986599684,-0.0006233770400285721,-0.0005358052439987659
1772562830590919200,8.449919189453125,-0.00009496137499809265,-0.0011384650133550167,0.003713102312758565
1772562830600987100,8.459987060546876,0.001186818117275834,0.0006269440054893494,-0.0014140151906758547
1772562830611054000,8.47005419921875,0.0007185232825577259,-0.0011607585474848747,0.002365084830671549
1772562830621121300,8.480121337890624,0.0022676840890198946,0.00032874708995223045,0.0009019440039992332
1772562830631188500,8.4901884765625,-0.00007923110388219357,0.002458808245137334,0.00044849468395113945
1772562830641255400,8.50025537109375,0.0006033370736986399,-0.00026454031467437744,-0.0019049406982958317
1772562830651323400,8.510323486328126,-0.000051141250878572464,-0.0010722307488322258,0.0014974810183048248
1772562830661390300,8.520390380859375,0.0020250591915100813,-0.0004490511491894722,0.001188021618872881
1772562830671457300,8.530457275390624,0.000028819777071475983,-0.00167548144236207,-0.0019404888153076172
1772562830681524200,8.540524169921875,0.00007036514580249786,0.000808182405307889,-0.0004930607974529266
1772562830691591200,8.550591064453124,-0.0005962641444057226,0.00046543264761567116,0.0014082386624068022
1772562830701659100,8.5606591796875,0.000188569538295269,0.002149083185940981,-0.002151342574506998
1772562830711726000,8.57072607421875,-0.0019814306870102882,-0.0031681451946496964,0.0008415519259870052
1772562830721793300,8.580793212890624,-0.00128634599968791,-0.00006849225610494614,0.0013004145585000515
1772562830731860500,8.590860595703125,0.003179393010213971,0.00020372122526168823,-0.0010881666094064713
1772562830741927400,8.600927490234374,-0.0013152239844202995,-0.0005203923210501671,-0.0013422322226688266
1772562830751994400,8.610994384765625,-0.00012961635366082191,-0.0013697496615350246,0.0024694809690117836
1772562830762062300,8.621062255859375,0.00013243872672319412,-0.0027447398751974106,-0.0014325825031846762
1772562830772129300,8.63112939453125,-0.0001807832159101963,0.0009055540431290865,-0.0017708028899505734
1772562830782196200,8.6411962890625,-0.002446866827085614,-0.0007911459542810917,0.003020223928615451
1772562830792263200,8.65126318359375,-0.0008559608832001686,0.002163903322070837,-0.0014191633090376854
1772562830802330400,8.661330322265625,0.0003432605881243944,-0.0008979327976703644,0.0008533119689673185
1772562830812398000,8.671398193359375,-0.0022542986553162336,-0.0015786751173436642,0.002239832654595375
1772562830822465300,8.68146533203125,0.00012177345342934132,0.001312985084950924,-0.0021732915192842484
1772562830832532500,8.691532470703125,0.000622882042080164,-0.0011124457232654095,0.0003866623155772686
1772562830842599400,8.701599365234374,-0.0031175275798887014,-0.0018030032515525818,0.0030034843366593122
1772562830852666400,8.711666259765625,0.0011488613672554493,-0.0013218708336353302,-0.0037164785899221897
1772562830862734300,8.721734375,-0.00006793695501983166,-0.00021239789202809334,-0.0014807549305260181
1772562830872801300,8.73180126953125,-0.003799398196861148,0.000563502311706543,0.00042539043352007866
1772562830882867500,8.741867431640625,0.0011737887980416417,0.0017579302657395601,-0.0002800810616463423
1772562830892934400,8.751934326171876,0.000050286296755075455,-0.0009182794019579887,-0.0008569585625082254
1772562830903001300,8.76200146484375,-0.0015824977308511734,-0.003216054290533066,-0.00006573344580829144
1772562830913068300,8.772068359375,0.0012818184914067388,-0.00029374612495303154,-0.00002650497481226921
1772562830923136300,8.78213623046875,-0.001953922212123871,-0.0013374388217926025,0.0026449118740856647
1772562830933203200,8.792203125,-0.0033065401948988438,-0.0026150932535529137,0.0019861392211169004
1772562830943269400,8.802269287109375,-0.0022615157067775726,0.0019032256677746773,0.0011283352505415678
1772562830953336600,8.812336669921875,-0.0013530021533370018,-0.00003762310370802879,-0.0006469246000051498
1772562830963403800,8.82240380859375,0.0003426324110478163,-0.0006328397430479527,0.000906231114640832
1772562830973470700,8.832470703125,-0.0010588529985398054,0.002194730332121253,0.0023802132345736027
1772562830983538700,8.84253857421875,-0.0001935921609401703,-0.002250085584819317,0.000042224302887916565
1772562830993605600,8.852605712890625,-0.0014671836979687214,-0.0016962499357759953,0.00011684559285640717
1772562831003672600,8.862672607421874,0.00030994368717074394,-0.0010011647827923298,0.0032809474505484104
1772562831013739500,8.872739501953125,0.0019243813585489988,0.0002816664054989815,0.0013059373013675213
1772562831023806500,8.882806396484375,-0.0008948410395532846,-0.00090077705681324,-0.0006930313538759947
1772562831033874400,8.89287451171875,0.00013212300837039948,0.0017990923952311277,0.0002630294766277075
1772562831043941400,8.90294140625,-0.0015440704300999641,0.0006667166016995907,-0.0025093210861086845
1772562831054008600,8.913008544921874,-0.0005377563647925854,0.0005209222435951233,0.0015167917590588331
1772562831064075500,8.923075439453125,0.00014241505414247513,0.0005102693103253841,-0.0024174959398806095
1772562831074142700,8.933142822265625,0.0002565584145486355,-0.0001727989874780178,-0.0005064359866082668
1772562831084209700,8.943209716796876,0.00010262778960168362,-0.0007331278175115585,-0.001470766612328589
1772562831094277600,8.953277587890625,-0.001394486054778099,0.0018941236194223166,0.0017839742358773947
1772562831104344600,8.963344482421874,-0.0005196374841034412,0.0016592328902333975,0.0017770498525351286
1772562831114411500,8.97341162109375,-0.000054897740483283997,0.00048174289986491203,-0.001292081200517714
1772562831124478500,8.983478515625,0.00025243102572858334,0.00038533657789230347,-0.002204480115324259
1772562831134545700,8.993545654296875,0.0008874903433024883,-0.0009648674167692661,-0.0010668830946087837
1772562831144613600,9.003613525390625,-0.000600151252001524,0.00003541586920619011,-0.0001824472565203905
1772562831154680600,9.0136806640625,0.0019635208882391453,-0.0003618248738348484,0.0009582587517797947
1772562831164747500,9.02374755859375,-0.00026554474607110023,0.0007838672026991844,0.00045572011731565
1772562831174814700,9.033814697265624,-0.00038085971027612686,0.0002991720102727413,0.0015425560995936394
1772562831184881700,9.043881591796875,-0.00097824283875525,0.00009850459173321724,-0.00021654576994478703
1772562831194949600,9.05394970703125,0.0005102101713418961,0.0014041825197637081,-0.0002844266127794981
1772562831205016600,9.0640166015625,0.0015216786414384842,0.0012119023595005274,0.00004740338772535324
1772562831215083500,9.07408349609375,0.0023499964736402035,0.0006743082776665688,-0.0017566956812515855
1772562831225150500,9.084150390625,-0.0022649953607469797,-0.0013060183264315128,-0.002198247704654932
1772562831235217700,9.0942177734375,0.0008895127102732658,0.00005691172555088997,-0.0014372692676261067
1772562831245285600,9.10428564453125,0.0005254587158560753,-0.002001178916543722,0.0007912639994174242
1772562831255352600,9.1143525390625,0.00019510439597070217,-0.0021451544016599655,0.0009049116633832455
1772562831265420800,9.1244208984375,0.000489117344841361,-0.0008196989074349403,-0.00017313589341938496
1772562831275487700,9.13448779296875,-0.0004844886716455221,0.0002212817780673504,-0.000088502187281847
1772562831285554700,9.1445546875,-0.0003193726297467947,-0.0008514397777616978,0.0003668982535600662
1772562831295622700,9.15462255859375,0.00023666047491133213,0.004381502978503704,-0.0031102090142667294
1772562831305689600,9.164689697265626,-0.0006789343897253275,0.00008555781096220016,0.00013991259038448334
1772562831315756500,9.174756591796875,-0.00016482057981193066,-0.000447089783847332,-0.0014084159629419446
1772562831325823500,9.184823486328124,0.000875676516443491,-0.0010255281813442707,-0.0014877781504765153
1772562831335890400,9.194890380859375,-0.0012367363087832928,-0.0012329872697591782,-0.0002943289000540972
1772562831345958400,9.20495849609375,-0.00039784074760973454,0.0002378765493631363,0.0007349830120801926
1772562831356025600,9.215025634765626,-0.0005058078095316887,0.0010233225766569376,0.0019977500196546316
1772562831366092800,9.2250927734375,0.0013983524404466152,-0.0008214493282139301,-0.0034369626082479954
1772562831376159700,9.23515966796875,-0.0007217111997306347,0.0013616872020065784,-0.0021406630985438824
1772562831386226700,9.245226806640625,0.0018192108254879713,-0.002759554423391819,0.002102817641571164
1772562831396294700,9.255294677734375,-0.002638828242197633,-0.0010502003133296967,0.0001907444093376398
1772562831406361600,9.265361572265626,0.001151915406808257,-0.0013540666550397873,-0.0006992840208113194
1772562831416428500,9.275428466796875,-0.0003567389212548733,0.0013060732744634151,0.002491209888830781
1772562831426495500,9.28549560546875,0.00008348166011273861,-0.002874823287129402,0.0014613654930144548
1772562831436562400,9.2955625,-0.00044284737668931484,-0.00029862532392144203,-0.0011004195548593998
1772562831446629600,9.305629638671874,0.0024687866680324078,-0.0009002336300909519,-0.0013302502920851111
1772562831456697300,9.315697265625,0.0002097690012305975,-0.000455289613455534,0.0015555773861706257
1772562831466764800,9.325764892578125,0.00084147066809237,0.0016701791901141405,-0.001609056955203414
1772562831476831700,9.335831787109376,-0.0005016166251152754,0.0005630240775644779,-0.0012045517796650529
1772562831486898700,9.345898681640625,0.0006475374102592468,-0.00009584194049239159,0.000765122240409255
1772562831496965600,9.355965576171876,0.0009431384969502687,-0.0030279657803475857,0.0023768823593854904
1772562831507033600,9.36603369140625,-0.0013370602391660213,0.00017501786351203918,0.000021316343918442726
1772562831517100500,9.3761005859375,0.0006418197881430387,-0.0007552783936262131,-0.0010026860982179642
1772562831527167500,9.38616748046875,-0.0012881727889180183,-0.0025835386477410793,-0.00033742841333150864
1772562831537234400,9.396234375,-0.0003028803039342165,-0.00021373433992266655,0.0018471037037670612
1772562831547301600,9.406301513671876,0.001010857056826353,0.00007042521610856056,-0.0011404305696487427
1772562831557369300,9.416369384765625,0.002204973716288805,0.0007366063073277473,-0.0024293633177876472
1772562831567436800,9.426436767578124,0.0002608660142868757,-0.00007086433470249176,0.0009395354427397251
1772562831577503700,9.436503662109375,-0.0018298861104995012,-0.000665517058223486,0.0011807407718151808
1772562831587570700,9.44657080078125,-0.0007270709611475468,0.0008117384277284145,0.0006148193497210741
1772562831597637600,9.4566376953125,0.0026088932063430548,0.000607597641646862,-0.0007708203047513962
1772562831607704600,9.46670458984375,-0.0006955571006983519,-0.0009317095391452312,-0.0031279840040951967
1772562831617772500,9.4767724609375,0.00039172754622995853,0.0013271188363432884,0.0006260648369789124
1772562831627839500,9.486839599609375,0.0012721687089651823,-0.00008009560406208038,0.00006680097430944443
1772562831637906400,9.496906494140624,0.0006245514377951622,0.0010164238046854734,0.001281156437471509
1772562831647973600,9.5069736328125,0.000960109755396843,-0.00012766988947987556,0.0001277413684874773
1772562831658040600,9.51704052734375,0.001586462021805346,0.00021325331181287766,-0.0016428084345534444
1772562831668108800,9.52710888671875,-0.0015824332367628813,-0.0007513435557484627,-0.0006433241069316864
1772562831678175700,9.53717578125,0.0018381411209702492,0.0004724999889731407,-0.0009531592950224876
1772562831688242700,9.54724267578125,-0.001456721918657422,-0.001914490945637226,-0.0002266489900648594
1772562831698309600,9.5573095703125,-9.690411388874054e-7,0.0019523047376424074,-0.0029937245417386293
1772562831708376600,9.56737646484375,-0.0004598319064825773,-0.00029513705521821976,-0.00016198540106415749
1772562831718444500,9.577444580078126,0.0020403899252414703,-0.00010844040662050247,0.00003904826007783413
1772562831728511500,9.587511474609375,0.0010851139668375254,-0.000996071845293045,-0.00013858452439308167
1772562831738578400,9.597578369140624,-0.004528147634118795,-0.0018736068159341812,-0.0011887716827914119
1772562831748645600,9.607645751953125,-0.0014157113619148731,-0.00014947634190320969,0.0021167437080293894
1772562831758712600,9.617712646484375,-0.00020469585433602333,0.0019427770748734474,0.0020846808329224586
1772562831768779500,9.627779541015625,-0.0004457118920981884,-0.000565387774258852,0.0013419254682958126
1772562831778847700,9.63784765625,0.001157047925516963,-0.0017745387740433216,0.00045767263509333134
1772562831788914700,9.647914794921874,-0.001119155902415514,-0.0010903729125857353,0.0020736786536872387
1772562831798981600,9.657981689453125,-0.0024034867528826,0.0007948684506118298,0.000019937288016080856
1772562831809048600,9.668048583984374,-0.0006633773446083069,-0.0009862538427114487,0.0015176988672465086
1772562831819115500,9.678115478515625,0.0014614835381507874,0.00001854216679930687,-0.003037832211703062
1772562831829183500,9.68818359375,0.0022830688394606113,0.0011929962784051895,-0.001570963067933917
1772562831839250700,9.698250732421876,0.002367845270782709,0.0009412097278982401,0.0026176993269473314
1772562831849317600,9.708317626953125,0.0009720826055854559,0.0008964687585830688,-0.002056148136034608
1772562831859384600,9.718384521484374,0.0005138122942298651,0.00003248918801546097,-0.0003033839166164398
1772562831869451500,9.728451416015625,-0.001394076505675912,-0.001799499150365591,-0.000426688464358449
1772562831879519700,9.738519775390625,-0.0020713750272989273,0.00040416233241558075,-0.0004169102758169174
1772562831889586700,9.748586669921876,0.0005915197543799877,0.000123465433716774,0.0007522173691540956
1772562831899653600,9.758653564453125,-0.0013730342034250498,0.000352631788700819,-0.0008969670161604881
1772562831909720600,9.768720458984374,-0.0001682201400399208,0.0003680777736008167,0.0002657689619809389
1772562831919787500,9.77878759765625,0.0005286876112222672,-0.000555193517357111,0.00026215845718979836
1772562831929855500,9.78885546875,-0.00010194885544478893,-0.0006334907375276089,0.0014914735220372677
1772562831939923500,9.79892333984375,-0.0001619651447981596,-0.0008996310643851757,0.00136543158441782
1772562831949990400,9.808990478515625,0.0002228615339845419,-0.0017252112738788128,-0.00023539457470178604
1772562831960057600,9.8190576171875,0.00076077482663095,-0.0008735540322959423,-0.0013093510642647743
1772562831970124500,9.82912451171875,0.0010822184849530458,0.0005813306197524071,0.0011311694979667664
1772562831980191500,9.83919140625,-0.001525592990219593,0.0012386254966259003,0.0005758118350058794
1772562831990259700,9.849259765625,-0.0006566033698618412,0.00005458388477563858,-0.0007555023767054081
1772562832000326700,9.85932666015625,0.0005356625188142061,0.0016296736430376768,-0.0018846726743504405
1772562832010393600,9.8693935546875,0.0005455161444842815,-0.0015789028257131577,-0.001219681347720325
1772562832020460500,9.87946044921875,-0.0010962393134832382,-0.00009511550888419151,0.0033409656025469303
1772562832030527500,9.889527587890624,0.00033441069535911083,0.0009871930815279484,0.0028626620769500732
1772562832040595500,9.899595458984376,0.0010284939780831337,0.0030663872603327036,-0.002071330789476633
1772562832050662400,9.909662353515625,-0.00021413713693618774,-0.00015603750944137573,-0.0011978141264989972
1772562832060729600,9.9197294921875,0.0016464634099975228,0.000811159610748291,-0.0004761582240462303
1772562832070796500,9.929796630859375,-0.001524828840047121,-0.00046422844752669334,0.00017951219342648983
1772562832080863500,9.939863525390624,-0.0009197033941745758,-0.0006099836900830269,-0.0021266588009893894
1772562832090931700,9.949931640625,0.0005812542513012886,-0.00006297044456005096,-0.003060363233089447
1772562832100998700,9.95999853515625,0.0004129956942051649,0.002313298871740699,-0.0011363193625584245
1772562832111065600,9.970065673828126,-0.0011337681207805872,-0.0008574607782065868,0.001198474084958434
1772562832121132500,9.980132568359375,-0.0005785641260445118,-0.000035810284316539764,-0.0011420950759202242
1772562832131199500,9.990199462890626,-0.0021002942230552435,0.0006155986338853836,-0.002673679031431675
1772562832141266700,10.0002666015625,0.0009018629789352417,-0.000010499265044927597,0.0005651076789945364
1772562832151334400,10.01033447265625,0.0005564508028328419,-0.001276299823075533,0.001589625608175993
1772562832161401600,10.020401611328126,0.0005211150273680687,0.0007329145446419716,-0.0015210327692329884
1772562832171468500,10.030468505859375,0.0006699857767671347,0.0016168176662176847,-0.0021021345164626837
1772562832181535500,10.040535400390626,0.00046699331142008305,-0.0028964998200535774,0.0016892028506845236
1772562832191602400,10.0506025390625,0.002451580949127674,0.0003315177746117115,0.001905718119814992
1772562832201670700,10.060670654296874,-0.0010949531570076942,-0.0011409721337258816,0.0002823001705110073
1772562832211737600,10.070737548828125,-0.000191875034943223,-0.002364428248256445,-0.001176046789623797
1772562832221804500,10.080804443359375,-0.0001272174995392561,-0.001544144470244646,-0.0009773317724466324
1772562832231871500,10.09087158203125,0.0015915867406874895,0.0006167441606521606,-0.001392784877680242
1772562832241938700,10.100938720703125,0.0027349719312042,-0.0010347459465265274,-0.0067244628444314
1772562832252006700,10.111006591796874,-0.0017133059445768595,0.000037176068872213364,-0.00030597811564803123
1772562832262073600,10.121073486328125,0.0014828231651335955,-0.00086582126095891,-0.0013140822993591428
1772562832272140500,10.131140625,0.001338746165856719,-0.0010791406966745853,-0.0011708042584359646
1772562832282207500,10.14120751953125,-0.0009934036061167717,0.0013567362911999226,0.001123758964240551
1772562832292274400,10.1512744140625,-0.0014634518884122372,-0.000686973799020052,0.0004992478061467409
1772562832302342700,10.1613427734375,0.001635371008887887,-0.0016358327120542526,-0.0010413199197500944
1772562832312409600,10.17140966796875,0.0019019533647224307,0.00034848833456635475,-0.004357754252851009
1772562832322476500,10.1814765625,0.0007389264646917582,0.0006859251298010349,0.0012236859183758497
1772562832332543500,10.19154345703125,0.00045130494982004166,0.0016657020896673203,0.00011128350161015987
1772562832342610700,10.201610595703125,0.0006741501856595278,0.0005399687215685844,-0.003418802749365568
1772562832352677600,10.211677734375,0.0014022585237398744,-0.00019932445138692856,-0.001359380315989256
1772562832362745600,10.22174560546875,0.0007590418681502342,-0.0006118593737483025,0.001002016244456172
1772562832372812500,10.2318125,-0.0005762670189142227,-0.0005700481124222279,-0.0008582018781453371
1772562832382879500,10.24187939453125,0.00031062960624694824,-0.0013280590064823627,0.00008216174319386482
1772562832392946400,10.251946533203125,-0.0004776660352945328,0.0008618580177426338,-0.00009227544069290161
1772562832403013400,10.262013427734376,0.0007233025971800089,0.004126816522330046,0.0020995570812374353
1772562832413081600,10.27208154296875,0.0015872321091592312,-0.00024209916591644287,0.0002292189747095108
1772562832423148500,10.2821484375,0.0000419465359300375,-0.0008769501000642776,0.001275231596082449
1772562832433215700,10.2922158203125,0.00198925007134676,0.00041601434350013733,-0.0028438796289265156
1772562832443282700,10.30228271484375,-0.0005073389038443565,0.0010003449860960245,0.00021002674475312233
1772562832453349600,10.312349609375,0.00044394214637577534,-0.0007213884964585304,0.0005562377627938986
1772562832463416600,10.32241650390625,0.000701721990481019,-0.0004713679663836956,0.0026291937101632357
1772562832473484500,10.332484619140626,0.0013403480406850576,0.00038350652903318405,-0.002998065436258912
1772562832483551500,10.342551513671875,-0.0004080715589225292,-0.001135009340941906,-0.0005058858077973127
1772562832493618400,10.352618408203124,-0.0014975708909332752,0.00036408426240086555,-0.000803893432021141
1772562832503685400,10.362685302734375,0.0006925370544195175,0.0001751324161887169,-0.003351692110300064
1772562832513752600,10.372752685546875,-0.0004899066407233477,0.0006643552333116531,-0.00026136008091270924
1772562832523820500,10.382820556640626,0.002257566899061203,0.0020663547329604626,-0.0015627876855432987
1772562832533887700,10.3928876953125,0.002549715805798769,-0.000979769043624401,-0.00004904693923890591
1772562832543954700,10.40295458984375,-0.0013215707149356604,-0.001469380222260952,0.0021424712613224983
1772562832554021600,10.413021728515625,-0.0011002619285136461,-0.0007391413673758507,-0.0006338742095977068
1772562832564088600,10.423088623046874,-0.0009942397009581327,-0.001701361034065485,-0.00018801516853272915
1772562832574156500,10.433156494140626,-0.0010182082187384367,0.00035406695678830147,0.002629342954605818
1772562832584223500,10.443223388671875,0.0021789041347801685,0.0009211120195686817,-0.001708726747892797
1772562832594290400,10.45329052734375,0.001416441285982728,-0.003484022803604603,-0.0011771598365157843
1772562832604357400,10.463357421875,0.00013055582530796528,-0.0015313350595533848,0.0010151455644518137
1772562832614424600,10.473424560546874,0.0008743768557906151,-0.0019134986214339733,0.000926462234929204
1772562832624492500,10.483492431640625,-0.0003159567713737488,0.00007583992555737495,-0.0025440959725528955
1772562832634559700,10.493559814453125,-0.0009002541191875935,-0.0024650818668305874,-0.0011291585396975279
1772562832644626700,10.503626708984376,-0.0010845945216715336,-0.0029623107984662056,0.0007262523286044598
1772562832654693600,10.513693603515625,0.0010762943420559168,0.0009858254343271255,0.0010277223773300648
1772562832664760600,10.523760498046874,0.0025897750165313482,0.0020789082627743483,-0.0023803943768143654
1772562832674828500,10.53382861328125,0.0017900277161970735,0.002440032782033086,-0.0016158008947968483
1772562832684895500,10.5438955078125,0.00004143640398979187,0.0011145002208650112,0.001882665092125535
1772562832694962400,10.55396240234375,0.0005080222617834806,-0.0013252217322587967,0.0011660081800073385
1772562832705029400,10.564029296875,0.001767618814483285,0.0015888868365436792,0.0015708028804510832
1772562832715096600,10.5740966796875,-0.0005823546089231968,-0.00018903939053416252,0.0035692390520125628
1772562832725163500,10.58416357421875,0.0020081226248294115,-0.000846638809889555,0.000367236090824008
1772562832735231700,10.594231689453125,0.002556733787059784,-0.0009896503761410713,0.00021224003285169601
1772562832745298700,10.604298583984376,-0.0034351274371147156,0.0008468865416944027,-0.00020183250308036804
1772562832755365600,10.61436572265625,-0.0005080471746623516,0.0006237137131392956,0.0012767547741532326
1772562832765432600,10.6244326171875,0.00009703775867819786,0.00022169575095176697,-0.0006192317232489586
1772562832775499500,10.63449951171875,-0.00009790551848709583,-0.0005705947987735271,-0.0016565329860895872
1772562832785567500,10.6445673828125,0.000573350116610527,-0.003021236974745989,-0.0011546728201210499
1772562832795634400,10.654634521484375,-0.000601103762164712,-0.0004456941969692707,-0.00040073180571198463
1772562832805701400,10.664701416015625,0.0022872285917401314,0.0013979002833366394,0.0013836091384291649
1772562832815768600,10.6747685546875,0.0035229353234171867,0.001921211602166295,-0.0018928777426481247
1772562832825835500,10.68483544921875,0.001603839104063809,0.001060905633494258,-0.0018948104698210955
1772562832835903700,10.69490380859375,-0.0016947523690760136,-0.0021495353430509567,0.0016626399010419846
1772562832845970700,10.704970703125,-0.0023211140651255846,0.0005615269765257835,-0.0003680218942463398
1772562832856037600,10.71503759765625,0.00013112463057041168,-0.0009357021190226078,-0.0016460728365927935
1772562832866104600,10.7251044921875,0.001412436948157847,0.002090803813189268,-0.0005407135467976332
1772562832876171500,10.735171630859375,0.002438286552205682,-0.000021349173039197922,-0.000038973987102508545
1772562832886238500,10.745238525390626,-0.000658128410577774,0.0012464995961636305,-0.000624566338956356
1772562832896306400,10.755306396484375,0.0010204620193690062,-0.0010792389512062073,-0.00007222662679851055
1772562832906373400,10.765373291015624,-0.0006992197595536709,0.002670685760676861,0.0002855057828128338
1772562832916440600,10.775440673828125,-0.0008619390428066254,-0.001930723898112774,-0.0013757740380242467
1772562832926507500,10.785507568359375,-0.0024655060842633247,-0.002082688268274069,0.0009567381348460913
1772562832936574500,10.795574462890626,0.0023212595842778683,-0.0010922583751380444,-0.0014813859015703201
1772562832946642400,10.805642333984375,0.0016216007061302662,0.0003910795785486698,0.002283252775669098
1772562832956709400,10.81570947265625,0.0015278573846444488,0.0014914979692548513,-0.0024385317228734493
1772562832966776300,10.8257763671875,-0.00040850345976650715,0.0006622876971960068,0.0003250583540648222
1772562832976843300,10.83584326171875,0.000344372121617198,0.0003650789149105549,0.0027378820814192295
1772562832986910500,10.845910400390625,0.0007490378338843584,-0.0018492969684302807,-0.0023657851852476597
1772562832996978400,10.855978515625,-0.001553265145048499,-0.001992308534681797,0.0004395886790007353
1772562833007045600,10.866045654296874,-0.0012718692887574434,-0.0025580348446965218,0.00010069785639643669
1772562833017112600,10.876112548828125,0.0009417501278221607,-0.0009825089946389198,0.00023039383813738823
1772562833027179500,10.886179443359374,-0.0012439866550266743,-0.0020161261782050133,0.0016158528160303831
1772562833037246500,10.89624658203125,0.00010410533286631107,-0.00019026314839720726,0.0015412841457873583
1772562833047314400,10.906314453125,-0.0003016069531440735,0.0026412562001496553,-0.0018777998629957438
1772562833057381400,10.91638134765625,-0.0020752723794430494,0.0003930157981812954,-0.000321981031447649
1772562833067448300,10.9264482421875,0.0006539709866046906,-0.0001285136677324772,0.002808434423059225
1772562833077515300,10.936515380859374,-0.0018949401564896107,-0.0017977827228605747,0.0005426167044788599
1772562833087582500,10.94658251953125,0.0022189386654645205,-0.0008879280649125576,-0.002477997448295355
1772562833097649400,10.9566494140625,0.0006306294817477465,0.0015552560798823833,-0.0018598777242004871
1772562833107717600,10.966717529296876,-0.00015859701670706272,0.0014538972172886133,0.0012648282572627068
1772562833117784600,10.97678466796875,0.002613487420603633,-0.000014569610357284546,-0.0017179121496155858
1772562833127851500,10.9868515625,-0.002903599990531802,-0.0013228957541286945,0.002250275108963251
1772562833137918500,10.99691845703125,0.0015033991076052189,0.0006129560060799122,-0.0003724058624356985
1772562833147985400,11.0069853515625,-0.00030114036053419113,-0.0010087317787110806,-0.0010450403206050396
1772562833158053400,11.017053466796876,-0.0007631990592926741,0.001982796937227249,-0.0010482361540198326
1772562833168120300,11.027120361328125,0.0001290340442210436,-0.0012765559367835522,0.0032620620913803577
1772562833178187300,11.037187255859376,0.0012539532035589218,-0.000489325262606144,-0.0014687771908938885
1772562833188254500,11.04725439453125,0.0025747816544026136,0.0016752437222748995,0.00007365667261183262
1772562833198321400,11.0573212890625,0.000350775895640254,0.0005223611369729042,0.0019642349798232317
1772562833208389600,11.0673896484375,0.0005398187786340714,-0.0009923530742526054,0.0011158222332596779
1772562833218456600,11.07745654296875,-0.0019851243123412132,-0.002200096845626831,-0.001305790152400732
1772562833228523500,11.0875234375,-0.0026074473280459642,-0.00025316793471574783,-0.0013714652741327882
1772562833238590500,11.097590576171875,0.00048288446851074696,-0.0016758288256824017,0.0018421709537506104
1772562833248657400,11.107657470703124,-0.00007408391684293747,0.000824088929221034,-0.00044841435737907887
1772562833258725400,11.117725341796875,0.0017493824707344174,-0.00042466726154088974,0.000004323199391365051
1772562833268792300,11.127792236328125,0.0008498416282236576,-0.0008394215255975723,0.00028866040520370007
1772562833278859300,11.137859375,0.0010985808912664652,0.0007914984598755836,-0.002017637249082327
1772562833288926500,11.147926513671875,-0.0012642915826290846,-0.0013705519959330559,0.0004647006280720234
1772562833298993400,11.157993408203126,0.001442545559257269,0.0002784775570034981,0.0014146498870104551
1772562833309060400,11.168060302734375,-0.0017899349331855774,-0.0006101662293076515,0.001918427413329482
1772562833319128600,11.178128662109375,-0.001826153602451086,-0.00041282642632722855,0.0010166813153773546
1772562833329195500,11.188195556640625,-0.0012319141533225775,0.00023712730035185814,-0.0013139817165210843
1772562833339262500,11.198262451171875,-0.001105147646740079,0.0007308772765100002,0.0002916380763053894
1772562833349329400,11.208329345703126,-0.00037873792462050915,0.00046048127114772797,-0.00006014644168317318
1772562833359396400,11.218396240234375,-0.0024770426098257303,-0.0018729805015027523,-0.0008961127605289221
1772562833369464300,11.22846435546875,0.0003569279797375202,0.0010001780465245247,-0.0031202868558466434
1772562833379531300,11.23853125,-0.0008646638598293066,-0.0008930633775889874,-0.002201496157795191
1772562833389598500,11.248598388671875,0.0011340996716171503,0.0005933619104325771,0.0016661949921399355
1772562833399665400,11.25866552734375,0.00011171214282512665,-0.0024224016815423965,-0.0002952232025563717
1772562833409732400,11.268732421875,-0.00047970283776521683,0.0006575994193553925,0.0008555599488317966
1772562833419800600,11.278800537109374,0.0015229943674057722,0.0012355055660009384,-0.003949315287172794
1772562833429867500,11.288867431640625,-0.0008223664481192827,0.001906863646581769,-0.0012324462877586484
1772562833439934500,11.2989345703125,0.0005073498468846083,-0.0017248890362679958,0.002556166611611843
1772562833450001400,11.30900146484375,0.0012324556009843946,0.0005599968135356903,0.0011487193405628204
1772562833460068400,11.319068359375,0.0007363087497651577,0.0007123295217752457,-0.0008502490818500519
1772562833470136300,11.32913623046875,-0.0010649703908711672,-0.0011236034333705902,-0.0004888954572379589
1772562833480203300,11.339203369140625,-0.0008212912362068892,-0.0020780800841748714,-0.0024124966003000736
1772562833490270500,11.3492705078125,0.0003860592842102051,0.002851624507457018,0.0009576715528964996
1772562833500337400,11.35933740234375,-0.0026251766830682755,-0.0014975839294493198,-0.001323059550486505
1772562833510404400,11.369404296875,0.000022340798750519753,-0.0022087600082159042,0.0017512477934360504
1772562833520471300,11.37947119140625,0.0004372613038867712,-0.0010375017300248146,-0.002674926072359085
1772562833530539500,11.38953955078125,-0.002137335715815425,0.002894878853112459,0.0006959035526961088
1772562833540606500,11.3996064453125,0.000801462447270751,-0.003102026879787445,-0.000002111075446009636
1772562833550673400,11.40967333984375,-0.0014075844082981348,-0.0015094829723238945,-0.0023080268874764442
1772562833560740400,11.419740234375,-0.00015376834198832512,-0.0012935004197061062,-0.0010510149877518415
1772562833570807600,11.4298076171875,0.0006720232777297497,-0.0003055981360375881,-0.0019400560995563865
1772562833580875500,11.43987548828125,0.0011764259543269873,-0.00024993764236569405,0.00045385933481156826
1772562833590942500,11.4499423828125,0.0002722952049225569,0.0002731070853769779,-0.00234887539409101
1772562833601009400,11.460009521484375,-0.00027418555691838264,-0.001932256855070591,-0.002464989200234413
1772562833611076400,11.470076416015624,0.00228295149281621,0.0007622879929840565,-0.0037795344833284616
1772562833621143300,11.480143310546875,-0.000052907271310687065,-0.0009602447971701622,-0.00039598834700882435
1772562833631211500,11.49021142578125,-0.00045746704563498497,0.00048289960250258446,-0.0012681608786806464
1772562833641278500,11.500278564453126,0.0022355213295668364,-0.00044068461284041405,-0.0007571002934128046
1772562833651345400,11.510345458984375,0.0010298618581146002,0.00033366959542036057,-0.0007634104695171118
1772562833661412400,11.520412353515624,0.002383546670898795,-0.00040988484397530556,0.000756455585360527
1772562833671479600,11.5304794921875,-0.0011088333558291197,-0.0010562976822257042,0.000524967210367322
1772562833681547500,11.540547607421875,-0.0008845950942486525,-0.0020014536567032337,-0.0003149937838315964
1772562833691614500,11.550614501953126,-0.0000978345051407814,-0.0009463205933570862,-0.0007109297439455986
1772562833701681400,11.560681396484375,-0.0002696083392947912,-0.0019085207022726536,-0.00018175970762968063
1772562833711748400,11.570748291015626,0.0010847693774849176,-0.002893263939768076,0.00057037896476686
1772562833721815300,11.580815185546875,-0.000753078144043684,-0.0010026856325566769,0.003825560910627246
1772562833731882200,11.59088232421875,0.0009207706898450851,0.001869887113571167,0.0006793944630771875
1772562833741950500,11.600950439453126,-0.0003157351166009903,0.00017212191596627235,-0.0025422314647585154
1772562833752017400,11.611017333984375,0.0023468725848942995,-0.00025182217359542847,-0.0009930210653692484
