time,seconds_elapsed,z,y,x
1772562822199920000,0.058920166015625,-0.003934021573513746,0.06157867610454559,0.007681888062506914
1772562822209987000,0.068987060546875,-0.001615473534911871,0.007318366784602404,0.004789162427186966
1772562822220054300,0.07905419921875,0.0003352919884491712,-0.049555834382772446,-0.0008111988427117467
1772562822230122000,0.0891220703125,-0.00037923414492979646,-0.06228627637028694,-0.0038434739690274
1772562822240189200,0.099189208984375,-0.002570483135059476,-0.02821432799100876,-0.002270344877615571
1772562822250256100,0.109256103515625,-0.0030660973861813545,0.023637153208255768,0.00791491474956274
1772562822260323000,0.119322998046875,-0.005564142484217882,0.043948281556367874,0.007677893154323101
1772562822270390300,0.129390380859375,-0.0032431974541395903,0.02154950052499771,0.0017571536591276526
1772562822280457200,0.139457275390625,-0.0018876485992223024,-0.023666979745030403,-0.000059921123465755954
1772562822290525200,0.149525146484375,0.00009906959166983142,-0.04622528702020645,-0.004855209030210972
1772562822300592000,0.159592041015625,-0.002403502818197012,-0.031001592054963112,-0.0014255901332944632
1772562822310659000,0.1696591796875,-0.003748399205505848,0.008470982313156128,0.001184307737275958
1772562822320726300,0.179726318359375,-0.003581951605156064,0.030165625736117363,0.0049470881931483746
1772562822330793200,0.189793212890625,-0.0020295949652791023,0.0200464129447937,0.003846936160698533
1772562822340861200,0.199861083984375,-0.0033816818613559008,-0.00999404489994049,0.0008474178612232208
1772562822350928100,0.20992822265625,0.0002537992550060153,-0.03086869977414608,0.000180029688635841
1772562822360995000,0.2199951171875,-0.0012365056900307536,-0.027939222753047943,-0.002977147698402405
1772562822371062300,0.230062255859375,-0.003565173828974366,-0.004493285436183214,0.0035065840929746628
1772562822381129200,0.240129150390625,-0.004551874939352274,0.016516659408807755,0.005800365004688501
1772562822391196200,0.250196044921875,-0.003070092061534524,0.013967214152216911,0.006359894759953022
1772562822401264000,0.26026416015625,-0.0046821036376059055,-0.00395692465826869,0.001984054921194911
1772562822411331000,0.2703310546875,-0.002499376656487584,-0.02105068974196911,0.0031302794814109802
1772562822421398300,0.280398193359375,-0.0032916669733822346,-0.023194268345832825,0.002496180823072791
1772562822431465200,0.29046533203125,-0.003704190719872713,-0.006342317909002304,0.0001960086519829929
1772562822441532200,0.3005322265625,-0.004351072479039431,0.007961519993841648,0.005529255140572786
1772562822451600100,0.31060009765625,-0.003667971817776561,0.011729360558092594,0.0022210762836039066
1772562822461667000,0.3206669921875,-0.0010788465151563287,0.0015068164793774486,0.0025305356830358505
1772562822471734000,0.330734130859375,-0.0019979034550487995,-0.013821539469063282,0.0023015039041638374
1772562822481801200,0.34080126953125,-0.003959854133427143,-0.019104186445474625,0.0003909520455636084
1772562822491868200,0.3508681640625,-0.002579005202278495,-0.014637798070907593,0.001885784324258566
1772562822501935400,0.360935302734375,-0.0026812704745680094,0.0005161206354387105,0.0027150926180183887
1772562822512003000,0.371003173828125,-0.004032558295875788,0.007574296556413174,0.001933454885147512
1772562822522070300,0.3810703125,-0.00523604080080986,0.003233610186725855,0.0029617014806717634
1772562822532137200,0.39113720703125,-0.0023824640084058046,-0.008081096224486828,0.0018242653459310532
1772562822542204200,0.4012041015625,-0.0023635553661733866,-0.016498815268278122,0.0046386937610805035
1772562822552271000,0.41127099609375,0.00002609897819638718,-0.013931527733802795,0.003531085327267647
1772562822562339000,0.421339111328125,-0.003638410707935691,-0.0027917916886508465,0.000838895735796541
1772562822572406000,0.431406005859375,-0.003481017891317606,0.006542854011058807,0.004898352082818747
1772562822582473200,0.44147314453125,-0.004659732803702354,0.004200337454676628,0.002800047630444169
1772562822592540200,0.4515400390625,-0.005331382155418396,-0.003683684393763542,0.0035683694295585155
1772562822602607400,0.461607421875,-0.0033910030033439398,-0.014269483275711536,0.003938016481697559
1772562822612674300,0.47167431640625,-0.001710814656689763,-0.01465564128011465,0.000830107310321182
1772562822622742300,0.4817421875,-0.0030924626626074314,-0.006750580854713917,0.0032951291650533676
1772562822632809200,0.491809326171875,-0.003573163179680705,-0.0002926813904196024,0.005327120888978243
1772562822642876200,0.501876220703125,-0.0031968585681170225,0.0020013656467199326,0.003955593332648277
1772562822652943000,0.511943115234375,-0.0017092167399823666,-0.0019941749051213264,0.0016817862633615732
1772562822663010000,0.522010009765625,-0.0016405072528868914,-0.006374276243150234,0.005273059010505676
1772562822673077000,0.532076904296875,-0.0015443670563399792,-0.012838033959269524,0.001193096162751317
1772562822683145200,0.542145263671875,-0.0032650355715304613,-0.008561263792216778,0.0016626114957034588
1772562822693212200,0.552212158203125,-0.0020671456586569548,-0.002170742489397526,0.0032085764687508345
1772562822703279400,0.562279296875,-0.0043295007199049,0.0009361011325381696,0.0016386429779231548
1772562822713346300,0.57234619140625,-0.0016322514275088906,-0.0012966931099072099,0.004170776344835758
1772562822723413200,0.582413330078125,-0.003602191573008895,-0.00282055395655334,0.003034672001376748
1772562822733481200,0.592481201171875,-0.0012154667638242245,-0.00780492601916194,0.0015954998089000583
1772562822743548200,0.602548095703125,-0.0031188279390335083,-0.009105614386498928,0.005193963181227446
1772562822753615000,0.612614990234375,-0.002966228872537613,-0.005527390632778406,0.0019885823130607605
1772562822763682000,0.62268212890625,-0.002389654517173767,-0.004597947467118502,0.0009238505735993385
1772562822773749000,0.6327490234375,-0.0029254823457449675,-0.0017116136150434613,0.0026288062799721956
1772562822783817000,0.64281689453125,-0.0030035129748284817,-0.0041252365335822105,0.003058374160900712
1772562822793884200,0.65288427734375,-0.0019387812353670597,-0.003894340479746461,0.0019622170366346836
1772562822803951400,0.662951416015625,-0.006704774219542742,0.03946032375097275,0.014495319686830044
1772562822814018300,0.673018310546875,-0.006455236114561558,0.13748063147068024,0.006384662352502346
1772562822824085200,0.683085205078125,-0.005007275380194187,0.071344755589962,-0.011737349443137646
1772562822834152200,0.693152099609375,-0.0027233485598117113,-0.06076641008257866,0.023563383147120476
1772562822844220200,0.70322021484375,-0.0008143946761265397,-0.1296948790550232,-0.004983839578926563
1772562822854287000,0.713287109375,0.00034168356796726584,-0.12632066011428833,-0.018664231523871422
1772562822864354000,0.72335400390625,0.0014556838432326913,-0.07161426544189453,0.009035306982696056
1772562822874421000,0.7334208984375,-0.004733236040920019,0.029704365879297256,-0.0023102923296391964
1772562822884488200,0.74348828125,-0.005285575985908508,0.08503632992506027,0.010282465256750584
1772562822894556200,0.75355615234375,-0.006302370689809322,0.057612430304288864,0.026988208293914795
1772562822904623400,0.763623291015625,-0.004043743945658207,-0.010640926659107208,-0.006828078534454107
1772562822914690300,0.773690185546875,-0.0029284118209034204,-0.07586760073900223,-0.008128234185278416
1772562822924757200,0.78375732421875,-0.001085770782083273,-0.07929668575525284,0.00640676636248827
1772562822934824200,0.79382421875,-0.004555070772767067,-0.013735786080360413,-0.0021933794487267733
1772562822944891100,0.80389111328125,-0.006582535337656736,0.05193057656288147,0.006695186719298363
1772562822954959400,0.81395947265625,-0.005094893276691437,0.05889660492539406,0.011180216446518898
1772562822965026300,0.8240263671875,-0.0027419906109571457,0.015398130752146244,0.0001054611784638837
1772562822975093200,0.83409326171875,-0.004085022956132889,-0.04739893972873688,0.0036578518338501453
1772562822985160400,0.844160400390625,0.0011092065833508968,-0.05879673734307289,-0.003602191573008895
1772562822995227400,0.854227294921875,0.00009614011651137844,-0.02834109403192997,-0.0026871294248849154
1772562823005294300,0.86429443359375,-0.004337224178016186,0.01739257201552391,0.003719104453921318
1772562823015362300,0.8743623046875,-0.006798783782869577,0.04376319423317909,0.0052142031490802765
1772562823025429200,0.88442919921875,-0.004481833893805742,0.02761325240135193,0.003962250892072916
1772562823035496200,0.89449609375,-0.0021654162555933,-0.014646054245531559,-0.000023169501218944788
1772562823045563100,0.904563232421875,-0.0014961638953536749,-0.0481499508023262,-0.0021856562234461308
1772562823055630000,0.914630126953125,-0.0016349145444110036,-0.03852129355072975,0.00010652644414221868
1772562823065698300,0.9246982421875,-0.0034852789249271154,-0.000809068325906992,0.00005193164179218002
1772562823075765200,0.93476513671875,-0.003641073824837804,0.03001995012164116,0.006543120369315147
1772562823085832400,0.94483251953125,-0.0030804784037172794,0.026309633627533913,0.008361793123185635
1772562823095899400,0.9548994140625,-0.0031649006996303797,-0.0046663908287882805,0.0022325278259813786
1772562823105966300,0.96496630859375,-0.00213638786226511,-0.03015523962676525,-0.0011432950850576162
1772562823116033300,0.975033203125,-0.0029318740125745535,-0.031199730932712555,0.0012397015234455466
1772562823126101200,0.985101318359375,-0.0030775489285588264,-0.01188036147505045,0.004049336537718773
1772562823136168200,0.995168212890625,-0.0036389431916177273,0.009925867430865765,0.0060296631418168545
1772562823146235100,1.005235107421875,-0.0026437200140208006,0.01992017775774002,0.006071740761399269
1772562823156302300,1.01530224609375,-0.0016170714516192675,0.0038693067617714405,0.0003350256592966616
1772562823166369300,1.025369384765625,-0.0033992587123066187,-0.015960324555635452,0.0020458402577787638
1772562823176437500,1.0354375,-0.0008205199264921248,-0.022974025458097458,-0.0010815097484737635
1772562823186504400,1.04550439453125,-0.002642654813826084,-0.014225541613996029,0.0011201255256310105
1772562823196571400,1.0555712890625,-0.005339371506124735,0.0011853729374706745,0.001975532853975892
1772562823206638300,1.065638427734375,-0.0034557178150862455,0.008584699593484402,0.003949734382331371
1772562823216705300,1.075705322265625,-0.004187554586678743,0.0020032296888530254,0.006539125461131334
1772562823226772200,1.085772216796875,-0.001418665866367519,-0.005540440324693918,0.0004876247840002179
1772562823236840200,1.095840087890625,-0.003465837799012661,-0.015271631069481373,-0.0001382180635118857
1772562823246907100,1.1059072265625,-0.0036732980515807867,-0.01366201601922512,0.0035180358681827784
1772562823256974300,1.115974365234375,-0.005392368417233229,-0.003634682158008218,0.0033957967534661293
1772562823267041300,1.126041259765625,-0.0023843280505388975,0.0031827439088374376,0.005212604999542236
1772562823277108200,1.136108154296875,-0.005233377683907747,0.001383512164466083,0.0035228293854743242
1772562823287176400,1.146176513671875,-0.0032469260040670633,-0.006718356627970934,0.0028186896815896034
1772562823297243400,1.156243408203125,-0.0031936627347022295,-0.009272061288356781,0.003222158644348383
1772562823307310300,1.166310302734375,-0.0020157466642558575,-0.010494452901184559,0.004470914602279663
1772562823317377300,1.176377197265625,-0.003748931922018528,-0.006951382849365473,0.00652687530964613
1772562823327444200,1.1864443359375,-0.002522546099498868,0.0009776464430615306,0.0028788771014660597
1772562823337511400,1.196511474609375,-0.0037358824629336596,-0.00010093380114994943,0.0033928672783076763
1772562823347579100,1.2065791015625,-0.0028479844331741333,-0.002822950715199113,0.005751362536102533
1772562823357646300,1.216646240234375,-0.0025483788922429085,-0.00987287051975727,0.003069825703278184
1772562823367713300,1.22671337890625,-0.0025739450938999653,-0.00965502392500639,0.00304612354375422
1772562823377780200,1.2367802734375,-0.002413090318441391,-0.006423011887818575,0.0035899411886930466
1772562823387847200,1.24684716796875,-0.004583832807838917,0.002225870033726096,0.0036218990571796894
1772562823397915400,1.256915283203125,-0.0023646207991987467,0.0002556634717620909,0.0026136261876672506
1772562823407982300,1.266982421875,-0.004323375876992941,-0.005832056514918804,0.0037739656399935484
1772562823418049300,1.27704931640625,-0.0033276197500526905,-0.011346131563186646,0.00367170013487339
1772562823428116200,1.2871162109375,-0.001555818715132773,-0.007989749312400818,0.0007137271459214389
1772562823438183400,1.297183349609375,-0.003610979998484254,-0.006451241206377745,0.004343349486589432
1772562823448250400,1.30725048828125,-0.0028991170693188906,-0.002603772561997175,0.0035180358681827784
1772562823458318300,1.317318359375,-0.0019971043802797794,-0.00013795174891129136,0.0016943031223490834
1772562823468385300,1.32738525390625,-0.0002846919232979417,-0.0036639769095927477,0.002353701740503311
1772562823478452200,1.3374521484375,-0.0043681166134774685,-0.006070942152291536,0.00042051312630064785
1772562823488519200,1.347519287109375,-0.0017393104499205947,-0.008390022441744804,0.003695935010910034
1772562823498586000,1.357586181640625,-0.002097239252179861,-0.0062970444560050964,0.0034916705917567015
1772562823508654300,1.367654296875,-0.002802710747346282,-0.0017667410429567099,0.002373675350099802
1772562823518721300,1.37772119140625,-0.003111371072009206,0.0004679173871409148,0.004132426809519529
1772562823528788200,1.387788330078125,-0.0026458504144102335,-0.0008580705034546554,0.004436293616890907
1772562823538855400,1.39785546875,-0.0034855452831834555,-0.004859469830989838,0.0010162622202187777
1772562823548922400,1.40792236328125,-0.0028881982434540987,-0.006431267596781254,0.0032381375785917044
1772562823558989300,1.4179892578125,-0.002766491612419486,-0.008905078284442425,0.0033808830194175243
1772562823569057300,1.428057373046875,-0.003186472225934267,-0.006993194576352835,0.0001323590986430645
1772562823579124200,1.438124267578125,-0.0013193299528211355,-0.003370763035491109,0.001781921018846333
1772562823589191200,1.448191162109375,-0.0014817827614024282,-0.00293267285451293,0.003147856332361698
1772562823599258000,1.458258056640625,-0.0010098706698045135,-0.003063966752961278,0.005459214095026255
1772562823609325300,1.4683251953125,-0.002989398315548897,-0.004759867675602436,0.003811782458797097
1772562823619393300,1.478393310546875,-0.0023616913240402937,-0.007812649011611938,0.0025385250337421894
1772562823629460200,1.488460205078125,-0.004177434369921684,-0.008199607022106647,0.005188902840018272
1772562823639527400,1.49852734375,-0.0027422569692134857,-0.0044349622912704945,0.0035175031516700983
1772562823649594400,1.508594482421875,-0.003206978552043438,-0.004189951345324516,0.005086371209472418
1772562823659661300,1.518661376953125,-0.00296303303912282,-0.0025811356026679277,0.0022591594606637955
1772562823669728300,1.528728271484375,-0.002002164488658309,-0.0029702235478907824,0.003162503708153963
1772562823679796200,1.538796142578125,-0.0028248149901628494,-0.006856308318674564,0.001130778226070106
1772562823689863200,1.54886328125,-0.002689260058104992,-0.006750580854713917,0.003513508476316929
1772562823699930000,1.55893017578125,-0.004841360729187727,-0.005705822724848986,0.0016495619202032685
1772562823709997000,1.5689970703125,-0.0032682311721146107,-0.0049510826356709,0.0016410398529842496
1772562823720064500,1.579064453125,-0.0030298782512545586,-0.0030333404429256916,0.0007382282637991011
1772562823730132200,1.58913232421875,-0.005527390632778406,-0.005309810396283865,-0.000054328484111465514
1772562823740199400,1.599199462890625,-0.004701278172433376,-0.006444850005209446,0.0006122607155703008
1772562823750266400,1.609266357421875,-0.0029116340447217226,-0.003912982530891895,0.004634432960301638
1772562823760333300,1.619333251953125,-0.004296744242310524,-0.006374009884893894,0.00070493872044608
1772562823770400300,1.629400146484375,-0.0031792817171663046,-0.0046333675272762775,-0.0011563445441424847
1772562823780467200,1.63946728515625,-0.0020453077740967274,-0.0039041941054165363,0.0025475798174738884
1772562823790535200,1.64953515625,-0.00415373221039772,-0.006626477465033531,0.004294879734516144
1772562823800602000,1.65960205078125,-0.0024807346053421497,-0.0037675739731639624,0.004590757191181183
1772562823810669000,1.6696689453125,-0.003433347214013338,-0.0040975394658744335,0.0012948289513587952
1772562823820736500,1.679736572265625,-0.0036192359402775764,-0.002892192918807268,0.00012144014181103557
1772562823830803500,1.689803466796875,-0.0038725025951862335,-0.005049353465437889,0.0031047132797539234
1772562823840871400,1.699871337890625,-0.00210629403591156,-0.00800093449652195,0.0024644893128424883
1772562823850938400,1.7099384765625,-0.004452272783964872,-0.005117264110594988,0.0008607336785644293
1772562823861005300,1.72000537109375,-0.003029612125828862,-0.004742024466395378,0.002031991956755519
1772562823871072300,1.730072265625,-0.0027329358272254467,-0.002919090911746025,0.00018189390539191663
1772562823881139200,1.74013916015625,-0.0008325041271746159,-0.00452764006331563,0.004254932515323162
1772562823891206100,1.7502060546875,-0.000711064029019326,-0.0038429414853453636,0.003644536016508937
1772562823901274000,1.760274169921875,-0.004686364438384771,-0.005750829819589853,0.0006876281695440412
1772562823911341300,1.77034130859375,-0.004593953024595976,-0.008258994668722153,0.0032141690608114004
1772562823921408300,1.780408203125,-0.0030117689166218042,-0.003634948516264558,0.0007326356135308743
1772562823931475000,1.790474853515625,-0.003373958868905902,-0.00455693481490016,0.002587793627753854
1772562823941542000,1.8005419921875,-0.0039867521263659,-0.0038365498185157776,0.0007712514488957822
1772562823951609900,1.81060986328125,-0.003691940102726221,-0.005852296482771635,0.0026642263401299715
1772562823961676800,1.8206767578125,-0.0030154972337186337,-0.003805390791967511,-0.00046152580762282014
1772562823971743700,1.83074365234375,-0.0018876485992223024,-0.004033091012388468,0.002898584585636854
1772562823981810700,1.840810791015625,-0.004869057331234217,-0.00660437298938632,0.0007302387384697795
1772562823991878000,1.8508779296875,-0.003379285102710128,-0.006478139199316502,0.0029435919132083654
1772562824001944800,1.86094482421875,-0.002811499172821641,-0.0052139367908239365,0.0025963156949728727
1772562824012012800,1.8710126953125,-0.0028852687682956457,-0.004867193289101124,0.0014359764754772186
1772562824022080000,1.881080078125,-0.003920705523341894,-0.002915628720074892,0.0013262542197480798
1772562824032147000,1.89114697265625,-0.003859186777845025,-0.0027233485598117113,0.004023503512144089
1772562824042214000,1.9012138671875,-0.00256435782648623,-0.004593686666339636,0.004086087923496962
1772562824052280800,1.91128076171875,-0.002772883279249072,-0.0065713501535356045,0.003454386256635189
1772562824062348800,1.921348876953125,-0.002147306688129902,-0.008109591901302338,0.004752943757921457
1772562824072415700,1.931415771484375,-0.0011350392596796155,-0.005050152540206909,0.004484497010707855
1772562824082482700,1.941482666015625,-0.003462375607341528,-0.004114849958568811,0.0014452975010499358
1772562824092550000,1.9515498046875,-0.0041646515019237995,-0.0038272286765277386,0.0037713022902607918
1772562824102616800,1.961616943359375,-0.002153964713215828,-0.004716990981251001,0.0023060310631990433
1772562824112684800,1.971684814453125,-0.002540922025218606,-0.004280232358723879,0.001886317040771246
1772562824122752000,1.981751953125,-0.003312173532322049,-0.004356665071099997,0.004484763368964195
1772562824132819000,1.99181884765625,-0.002552906284108758,-0.005882923025637865,0.004379302263259888
1772562824142886000,2.001885986328125,-0.002270611235871911,-0.00532658863812685,0.002517752582207322
1772562824152952800,2.011952880859375,-0.0015038870042189956,-0.003905525663867593,0.0012482235906645656
1772562824163019800,2.022019775390625,-0.003293797606602311,-0.003686613868921995,0.004511395003646612
1772562824173087700,2.032087646484375,-0.004744155332446098,-0.0037151097785681486,0.0035001926589757204
1772562824183155000,2.042155029296875,-0.003055178327485919,-0.005254683084785938,0.001606152392923832
1772562824193222000,2.052221923828125,-0.003228283952921629,-0.004436293616890907,0.0036855486687272787
1772562824203288800,2.062288818359375,-0.0027779433876276016,-0.005993976723402739,0.0041183121502399445
1772562824213355800,2.072355712890625,-0.0051715923473238945,-0.00646642129868269,0.001264202524907887
1772562824223423700,2.082423828125,-0.0029792783316224813,-0.004126301966607571,0.0023813985753804445
1772562824233491000,2.092490966796875,-0.0022205437999218702,-0.0023883229587227106,0.0015590144321322441
1772562824243558000,2.102557861328125,-0.004452805500477552,-0.004031759686768055,0.0026072347536683083
1772562824253624800,2.112624755859375,-0.003457315731793642,-0.006798517424613237,0.00029587719473056495
1772562824263691800,2.12269189453125,-0.002700977958738804,-0.006335127633064985,0.0029321403708308935
1772562824273759000,2.132759033203125,-0.0026706180069595575,-0.004524444229900837,0.0009382316493429244
1772562824283827000,2.142826904296875,-0.0051476238295435905,-0.005434712860733271,0.0033007217571139336
1772562824293894000,2.152893798828125,0.0005044027348048985,-0.004505003336817026,0.0017827199772000313
1772562824303960800,2.1629609375,-0.0033952640369534492,-0.004719920456409454,0.0006636597099713981
1772562824314027800,2.17302783203125,-0.0030573089607059956,-0.004221110139042139,0.0036280243657529354
1772562824324094700,2.1830947265625,-0.002801911672577262,-0.004750014282763004,-0.0014831144362688065
1772562824334163000,2.193162841796875,-0.003912716172635555,-0.006396646611392498,0.0041460092179477215
1772562824344230000,2.20322998046875,-0.003515905234962702,-0.0027957865968346596,0.000070307454734575
1772562824354296800,2.213296875,-0.002808303339406848,-0.0065074339509010315,0.0030807447619736195
1772562824364364000,2.223364013671875,-0.004642955027520657,-0.005281314719468355,0.004326305352151394
1772562824374431000,2.233430908203125,-0.0046781087294220924,-0.004536162130534649,0.0009390306076966226
1772562824384498000,2.243497802734375,-0.0017784589435905218,-0.00455773388966918,0.0019560917280614376
1772562824394566000,2.25356591796875,-0.0036570527590811253,-0.0019688750617206097,0.003061037277802825
1772562824404632800,2.2636328125,-0.0041334922425448895,-0.004188087303191423,0.002445580903440714
1772562824414699800,2.27369970703125,-0.0036045885644853115,-0.005315669346600771,-0.00037816885742358863
1772562824424766700,2.2837666015625,-0.000922519015148282,-0.007430219557136297,0.0013542174128815532
1772562824434833700,2.293833740234375,-0.0018069547368213534,-0.005773467011749744,0.004588626325130463
1772562824444902000,2.30390185546875,-0.004229366313666105,-0.0049526807852089405,0.006661631166934967
1772562824454968800,2.31396875,-0.004326571244746447,-0.005392634775489569,0.0012245214311406016
1772562824465036000,2.3240361328125,-0.0031904669012874365,-0.005884787067770958,0.005092762876302004
1772562824475103000,2.33410302734375,-0.001900964416563511,-0.005263471510261297,0.0015592807903885841
1772562824485170000,2.344169921875,-0.004021905828267336,-0.0064773401245474815,0.002603506203740835
1772562824495236900,2.35423681640625,-0.001748897833749652,-0.00564084155485034,0.0025867284275591373
1772562824505304800,2.364304931640625,-0.0007451524725183845,-0.004610730800777674,0.005513009615242481
1772562824515371800,2.374371826171875,-0.00347489258274436,-0.0035537220537662506,0.004299673717468977
1772562824525438700,2.384438720703125,-0.004287689458578825,-0.004787032026797533,0.0016911072889342904
1772562824535505700,2.394505615234375,-0.002371544949710369,-0.005166798830032349,0.0027273432351648808
1772562824545572900,2.40457275390625,-0.0016202671686187387,-0.005826197564601898,0.0004753742541652173
1772562824555640800,2.414640869140625,-0.0021084246691316366,-0.004102866165339947,0.005546032916754484
1772562824565708000,2.4247080078125,-0.0027891285717487335,-0.006269347388297319,0.005208876915276051
1772562824575775000,2.43477490234375,-0.003955060616135597,-0.006135656964033842,0.003486610483378172
1772562824585842000,2.444842041015625,-0.004142014309763908,-0.008815595880150795,0.0034708979073911905
1772562824595908900,2.454908935546875,-0.0018849853659048676,-0.002749447477981448,0.0022359900176525116
1772562824605976800,2.464976806640625,-0.0037713022902607918,-0.005874134600162506,0.0031883365008980036
1772562824616043800,2.475043701171875,-0.003284476464614272,-0.0035233621019870043,0.003996073268353939
1772562824626110700,2.48511083984375,-0.003674097126349807,-0.005657619331032038,0.0026341325137764215
1772562824636177700,2.495177734375,-0.004668787587434053,-0.0043987431563436985,0.004221909213811159
1772562824646244900,2.505244873046875,-0.0026349315885454416,-0.003819771809503436,0.0008245146600529552
1772562824656311800,2.515311767578125,-0.0009100021561607718,-0.005833654198795557,0.003035471076145768
1772562824666380000,2.525380126953125,-0.002758502261713147,-0.003165166825056076,0.006036054342985153
1772562824676447000,2.535447021484375,-0.00028336033574305475,-0.0032690302468836308,0.0017177389236167073
1772562824686514000,2.545513916015625,-0.0016535567119717598,-0.0030895331874489784,0.0011552792275324464
1772562824696580900,2.555580810546875,-0.0030218889005482197,-0.002168079372495413,0.0005552690709009767
1772562824706647800,2.565647705078125,-0.00242134602740407,-0.005119660869240761,0.0008932242053560913
1772562824716715800,2.5757158203125,-0.003254915354773402,-0.005562012083828449,0.00009161273919744417
1772562824726782700,2.58578271484375,-0.0027451864443719387,-0.0059724049642682076,0.004506334662437439
1772562824736849700,2.595849609375,-0.00301736150868237,-0.0041284323669970036,0.005042429082095623
1772562824746916900,2.605916748046875,-0.003442401997745037,-0.008352738805115223,0.006178267300128937
1772562824756983800,2.61598388671875,-0.003099386813119054,-0.002939863596111536,0.003623230615630746
1772562824767052000,2.626052001953125,-0.003144926857203245,-0.0054424358531832695,0.0028613002505153418
1772562824777119000,2.636118896484375,-0.0028455876745283604,-0.006354035809636116,0.0010961571242660284
1772562824787186000,2.64618603515625,-0.0033095101825892925,-0.004511661361902952,0.003948402591049671
1772562824797252900,2.6562529296875,-0.0018290589796379209,-0.0039049931801855564,0.0009129316313192248
1772562824807319800,2.66631982421875,-0.002817624481394887,-0.004066647030413151,0.003665042342618108
1772562824817386800,2.67638671875,-0.0020540961995720863,-0.004053330980241299,-0.00018216021999251097
1772562824827454700,2.686454833984375,-0.0036754286848008633,-0.005103415343910456,0.0038778288289904594
1772562824837521700,2.696521728515625,-0.002508431440219283,-0.005886384751647711,0.003918575122952461
1772562824847588900,2.7065888671875,-0.00140987744089216,-0.004604605492204428,0.0011747203534469008
1772562824857655800,2.71665576171875,-0.0030069751664996147,-0.004866926930844784,0.0023909860756248236
1772562824867722800,2.72672265625,-0.0020519655663520098,-0.005702094174921513,0.0014333132421597838
1772562824877791000,2.736791015625,-0.0026671558152884245,-0.0030602384358644485,0.0006583334179595113
1772562824887858000,2.74685791015625,-0.0019659455865621567,-0.003920971881598234,0.005043494515120983
1772562824897924900,2.7569248046875,-0.002888997085392475,-0.006658435333520174,0.002775812754407525
1772562824907991800,2.76699169921875,-0.004510329570621252,-0.003929760307073593,0.00256435782648623
1772562824918058800,2.777058837890625,-0.0019944412633776665,-0.003816842334344983,0.0017475662752985954
1772562824928126700,2.787126708984375,-0.0036791570018976927,-0.00694871973246336,0.004520716145634651
1772562824938194000,2.79719384765625,-0.004751345608383417,-0.007434213999658823,0.0017624800093472004
1772562824948260900,2.8072607421875,-0.0011073424248024821,-0.004599545616656542,0.003355050226673484
1772562824958327800,2.817327880859375,-0.005702360533177853,-0.0038211036007851362,0.003465305082499981
1772562824968394800,2.827394775390625,-0.004060788080096245,-0.004010454285889864,0.0022029669489711523
1772562824978461700,2.837461669921875,-0.003245594445616007,-0.0035326832439750433,0.0021142836194485426
1772562824988529700,2.84752978515625,-0.003572896821424365,-0.006360693834722042,0.0024836640805006027
1772562824998596900,2.857596923828125,-0.003582484321668744,-0.003919107839465141,0.0014780544443055987
1772562825008663800,2.867663818359375,-0.0021992383990436792,-0.005094626918435097,0.004716458264738321
1772562825018730800,2.877730712890625,-0.006691192276775837,-0.007759386207908392,0.006409962195903063
1772562825028798000,2.8877978515625,-0.0017012272728607059,-0.00270710326731205,0.0032594427466392517
1772562825038866000,2.897865966796875,-0.0018897791160270572,-0.003578755771741271,0.00666482700034976
1772562825048932900,2.907932861328125,-0.005073588341474533,-0.004997421521693468,0.0018010957865044475
1772562825058999800,2.917999755859375,-0.0033300165086984634,-0.004483964294195175,0.0037641117814928293
1772562825069066800,2.928066650390625,-0.001710814656689763,-0.003099386813119054,0.0036096484400331974
1772562825079133700,2.9381337890625,-0.0007360977469943464,-0.00544456671923399,0.0016801883466541767
1772562825089200600,2.94820068359375,-0.002805107505992055,-0.006371879018843174,0.000046871635277057067
1772562825099268600,2.9582685546875,-0.0021550299134105444,-0.003596865339204669,0.002409095410257578
1772562825109335800,2.968335693359375,-0.0024586303625255823,-0.0069503178820014,0.005528189707547426
1772562825119403000,2.978403076171875,-0.0009302421822212636,-0.0028357338160276413,0.0026442527305334806
1772562825129470000,2.988469970703125,-0.0035891421139240265,-0.0024612934794276953,0.005275722127407789
1772562825139537000,2.998536865234375,-0.0036373452749103308,-0.004110322799533606,0.0008407599525526166
1772562825149604900,3.00860498046875,-0.004415787290781736,-0.007354585453867912,0.005368399899452925
1772562825159671800,3.018671875,-0.0032597091048955917,-0.005144162103533745,0.0008921589469537139
1772562825169738800,3.02873876953125,-0.0016223976854234934,-0.0070523167960345745,0.003951598424464464
1772562825179805700,3.0388056640625,-0.0029885992407798767,-0.0054482948035001755,0.00484189298003912
1772562825189872600,3.04887255859375,-0.0013134710025042295,-0.002796851797029376,0.004821120295673609
1772562825199939800,3.05893994140625,-0.004340686369687319,-0.004838697146624327,0.0035001926589757204
1772562825210007800,3.0690078125,-0.005035771057009697,-0.004322576802223921,0.001434112200513482
1772562825220075000,3.079074951171875,-0.0009755159262567759,-0.003117496380582452,0.004613127559423447
1772562825230142000,3.089141845703125,-0.0033715618774294853,-0.004351605195552111,0.0012663330417126417
1772562825240209000,3.099208984375,-0.0035683694295585155,-0.004026699345558882,0.004062385763972998
1772562825250275800,3.10927587890625,-0.004601676017045975,-0.0028035095892846584,-0.000015180017726379447
1772562825260343800,3.11934375,-0.0036812876351177692,-0.005194229539483786,0.0009922938188537955
1772562825270410800,3.12941064453125,-0.0007368966471403837,-0.004170776344835758,-0.00011478224041638896
1772562825280477700,3.139477783203125,-0.003187004942446947,-0.005396096967160702,0.004465055651962757
1772562825290544600,3.149544677734375,-0.0033926009200513363,-0.00344533147290349,0.003335342975333333
1772562825300611800,3.15961181640625,-0.0020730046089738607,-0.006583068054169416,0.0032293491531163454
1772562825310679600,3.169679443359375,-0.005542837083339691,-0.004179564770311117,0.003668504301458597
1772562825320747000,3.1797470703125,-0.0036218990571796894,-0.0041643851436674595,0.004620584659278393
1772562825330814000,3.18981396484375,-0.0011169298086315393,-0.004181162919849157,0.004437625408172607
1772562825340881000,3.199880859375,-0.0038096518255770206,-0.004758003633469343,0.004181961994618177
1772562825350947800,3.20994775390625,-0.0019092201255261898,-0.004584631882607937,0.0032466596458107233
1772562825361015800,3.220015869140625,-0.0026815368328243494,-0.005675196181982756,0.0020812603179365396
1772562825371082800,3.230082763671875,-0.004199805203825235,-0.004799549002200365,0.0008490157779306173
1772562825381149700,3.240149658203125,-0.0038035267498344183,-0.005626726895570755,0.0030479878187179565
1772562825391216600,3.250216552734375,-0.004471180960536003,-0.0041276332922279835,0.00253532943315804
1772562825401283800,3.260283935546875,-0.0029079054947942495,-0.003165166825056076,0.0010029464028775692
1772562825411350800,3.270350830078125,-0.004807271994650364,-0.005135640036314726,0.0034264230635017157
1772562825421419000,3.2804189453125,-0.004968393128365278,-0.004801146686077118,0.0024407871533185244
1772562825431486000,3.29048583984375,-0.0036788906436413527,-0.0044440170750021935,0.003879959462210536
1772562825441553000,3.300552978515625,-0.004535629414021969,-0.003659449517726898,0.0027478495612740517
1772562825451619800,3.310619873046875,-0.001056209672242403,-0.00561101408675313,0.0020149475894868374
1772562825461686800,3.320686767578125,-0.004008057527244091,-0.007963384501636028,0.0023102923296391964
1772562825471754800,3.330754638671875,-0.003963049966841936,-0.005790511146187782,0.00487118773162365
1772562825481821700,3.34082177734375,-0.003369963960722089,-0.004225904121994972,0.00691915862262249
1772562825491888600,3.350888671875,-0.0034527883399277925,-0.004811533261090517,0.0016479641199111938
1772562825501955800,3.360955810546875,-0.0022514364682137966,-0.005329251755028963,0.002304699504747987
1772562825512022800,3.371022705078125,-0.0030594393610954285,-0.004700479097664356,0.0031273500062525272
1772562825522090800,3.3810908203125,-0.0034019220620393753,-0.004027498420327902,0.004048271104693413
1772562825532158000,3.391157958984375,-0.004204598721116781,-0.003941478207707405,0.0009376989910379052
1772562825542225000,3.401224853515625,-0.0031366711482405663,-0.005124188028275967,0.005651760380715132
1772562825552291800,3.411291748046875,-0.003968642558902502,-0.005932990461587906,0.004699414130300283
1772562825562358800,3.42135888671875,-0.0019323896849527955,-0.002990197157487273,0.001986984396353364
1772562825572425700,3.43142578125,-0.001925199176184833,-0.005002748221158981,0.005907690152525902
1772562825582493700,3.44149365234375,-0.0035167040769010782,-0.005508482456207275,0.0005994775565341115
1772562825592561000,3.451560791015625,-0.0033486587926745415,-0.004917260725051165,-0.00007909588020993397
1772562825602627800,3.4616279296875,-0.0036999296862632036,-0.0037800907157361507,0.0025443839840590954
1772562825612694800,3.47169482421875,-0.0008559399866499007,-0.005681587848812342,0.001139033935032785
1772562825622761700,3.48176171875,-0.0029262814205139875,-0.0049095372669398785,0.002301770029589534
1772562825632830000,3.491829833984375,-0.0016263924771919847,-0.0036067189648747444,0.0028192223981022835
1772562825642897000,3.50189697265625,-0.0010548781137913465,-0.003964648116379976,0.0007819040911272168
1772562825652963800,3.5119638671875,-0.0034232272300869226,-0.004896488040685654,0.0035388083197176456
1772562825663030800,3.52203076171875,-0.002013882389292121,-0.004912200383841991,0.002085521351546049
1772562825673097700,3.53209765625,-0.005062669049948454,-0.005074386950582266,0.0027134947013109922
1772562825683165000,3.5421650390625,-0.0017720673931762576,-0.0022272015921771526,0.00079735042527318
1772562825693233000,3.55223291015625,-0.0021899172570556402,-0.00691942498087883,0.003585413796827197
1772562825703299800,3.5622998046875,-0.002507898723706603,-0.004890629090368748,0.001642371411435306
1772562825713366800,3.57236669921875,-0.0017659420846030116,-0.004461327567696571,0.0027840686962008476
1772562825723433700,3.582433837890625,-0.002448244020342827,-0.006160956807434559,0.003748931922018528
1772562825733500700,3.592500732421875,-0.0023457121569663286,-0.0029638318810611963,0.0016857809387147427
1772562825743569000,3.60256884765625,-0.002915895078331232,-0.006380667444318533,0.002740392694249749
1772562825753635800,3.6126357421875,-0.005124454386532307,-0.004071174189448357,0.005428853910416365
1772562825763702800,3.622702880859375,-0.0008127967594191432,-0.0020298613235354424,-0.00013022858183830976
1772562825773769700,3.632769775390625,-0.004563326481729746,-0.004506068304181099,0.004562261048704386
1772562825783837000,3.6428369140625,-0.004640558268874884,-0.004445614758878946,0.0038725025951862335
1772562825793905000,3.65290478515625,-0.004515389446169138,-0.0064373929053545,0.003787281457334757
1772562825803971800,3.662971923828125,-0.0028724854346364737,-0.004741225857287645,0.003641073824837804
1772562825814038800,3.673038818359375,-0.003367567202076316,-0.00558012118563056,0.002633067313581705
1772562825824105700,3.683105712890625,-0.002972354181110859,-0.00678307143971324,0.0027020431589335203
1772562825834172700,3.693172607421875,-0.00529676117002964,-0.005769738461822271,0.005401955917477608
1772562825844239600,3.703239501953125,-0.004346811678260565,-0.005793440621346235,0.004452805500477552
1772562825854307800,3.713307861328125,-0.00355931487865746,-0.003993942867964506,0.007451524492353201
1772562825864374800,3.723374755859375,-0.0031995216850191355,-0.00375958438962698,0.0012548814993351698
1772562825874442000,3.73344189453125,-0.002329733222723007,-0.0032208270858973265,0.0010546117555350065
1772562825884509000,3.743509033203125,-0.0036932716611772776,-0.0028189560398459435,0.0013552826130762696
1772562825894575900,3.753575927734375,-0.0030248183757066727,-0.0034946000669151545,0.002888730727136135
1772562825904643800,3.763643798828125,-0.0027377295773476362,-0.0032466596458107233,0.004495149478316307
1772562825914710800,3.773710693359375,-0.003859186777845025,-0.005835785064846277,0.0017036241479218006
1772562825924777700,3.78377783203125,-0.0012218583142384887,-0.003575559938326478,0.002769687445834279
1772562825934845200,3.79384521484375,-0.00580755528062582,-0.003623496973887086,-0.0004982774262316525
1772562825944912100,3.803912109375,-0.002942526713013649,-0.005404086317867041,0.0008958873804658651
1772562825954980400,3.81398046875,-0.0043910201638937,-0.002016811864450574,0.0009896307019516826
1772562825965047300,3.82404736328125,-0.003388606244698167,-0.00729386555030942,-0.00024048343766480684
1772562825975114200,3.8341142578125,-0.002722283359616995,-0.007340470794588327,0.003026416292414069
1772562825985181400,3.844181396484375,-0.003683950752019882,-0.005556685384362936,0.002692722249776125
1772562825995248400,3.854248291015625,-0.0031073763966560364,-0.006207562051713467,0.001439971150830388
1772562826005315300,3.8643154296875,-0.003421895671635866,-0.004086087923496962,0.0034501252230256796
1772562826015383300,3.87438330078125,-0.0028391960076987743,-0.004524710588157177,0.0020245350897312164
1772562826025450200,3.8844501953125,-0.003082076320424676,-0.0056861150078475475,-0.00035606464371085167
1772562826035517200,3.89451708984375,-0.003997670952230692,-0.0057737333700060844,0.004637628793716431
1772562826045584100,3.904584228515625,-0.0020354539155960083,-0.0032988577149808407,0.004403536673635244
1772562826055651000,3.914651123046875,-0.00316010694950819,-0.0035601137205958366,0.0011739213950932026
1772562826065719300,3.92471923828125,-0.0023220102302730083,-0.0057473680935800076,0.002409095410257578
1772562826075786200,3.9347861328125,-0.004350806120783091,-0.006597981322556734,0.004270112607628107
1772562826085853400,3.944853515625,-0.0033302828669548035,-0.002956907730549574,0.003492203075438738
1772562826095920400,3.95492041015625,-0.0020754013676196337,-0.004429901950061321,0.005016063805669546
1772562826105987300,3.9649873046875,-0.00313560594804585,-0.00427117757499218,0.0031553131993860006
1772562826116055300,3.97505517578125,-0.0025209481827914715,-0.006536728702485561,0.004007524810731411
1772562826126122200,3.985122314453125,-0.0046333675272762775,-0.0041247038170695305,0.007376956287771463
1772562826136189200,3.995189208984375,-0.0019520970527082682,-0.005770004820078611,0.004092213232070208
1772562826146256100,4.005256103515625,-0.00276169809512794,-0.003624029690399766,0.004484230652451515
1772562826156323000,4.015322998046875,-0.0032202943693846464,-0.005711681675165892,0.0018703379901126027
1772562826166390300,4.025390380859375,-0.004338289611041546,-0.0041430797427892685,0.004427238833159208
1772562826176458200,4.035458251953125,-0.001767273643054068,-0.006199839059263468,0.0014908375451341271
1772562826186525400,4.045525390625,-0.004640025552362204,-0.0038123151753097773,0.0007643272401764989
1772562826196592400,4.05559228515625,-0.0022056300658732653,-0.0032415995374321938,0.0010729875648394227
1772562826206659300,4.065659423828125,-0.00421418622136116,-0.0033577135764062405,0.0020759340841323137
1772562826216726300,4.075726318359375,-0.003560912562534213,-0.005846970248967409,0.007783886976540089
1772562826226794200,4.085794189453125,-0.002284992253407836,-0.00624058535322547,0.003279150230810046
1772562826236861200,4.095861083984375,-0.00472551304847002,-0.005407548509538174,0.0027864654548466206
1772562826246928100,4.10592822265625,-0.002918291836977005,-0.0065077003091573715,0.002843457041308284
1772562826256995300,4.115995361328125,-0.0035665053874254227,-0.0030091057997196913,0.0015837819082662463
1772562826267062300,4.126062255859375,-0.005251487251371145,-0.0046272422187030315,0.0010093380697071552
1772562826277129200,4.136129150390625,-0.0011835087789222598,-0.005478388629853725,0.0037345506716519594
1772562826287197400,4.146197509765625,-0.003391801845282316,-0.003436809405684471,-0.001341700553894043
1772562826297264400,4.156264404296875,-0.004295412451028824,-0.00506852800026536,0.0015502260066568851
1772562826307331300,4.166331298828125,-0.00558092026039958,-0.006322344299405813,0.0031526500824838877
1772562826317398300,4.176398193359375,-0.0025779400020837784,-0.006697850301861763,0.0025920546613633633
1772562826327465200,4.18646533203125,-0.0024924525059759617,-0.0037502634804695845,0.0030240193009376526
1772562826337533200,4.196533203125,-0.004344947170466185,-0.005909554194658995,0.004351072479039431
1772562826347600100,4.20660009765625,-0.003245594445616007,-0.004668521229177713,0.0020722055342048407
1772562826357667300,4.216667236328125,-0.0027885958552360535,-0.004988633096218109,0.004720719531178474
1772562826367734300,4.226734375,-0.004652808886021376,-0.005792641546577215,0.0022479742765426636
1772562826377801200,4.23680126953125,-0.0036464000586420298,-0.003769171889871359,0.002663427498191595
1772562826387869400,4.246869384765625,-0.0009203884401358664,-0.004252003040164709,0.003489539958536625
1772562826397936400,4.256936279296875,-0.004343615844845772,-0.0044381581246852875,0.00330231967382133
1772562826408003300,4.26700341796875,-0.0019502328941598535,-0.005239769350737333,0.001957423286512494
1772562826418070300,4.2770703125,-0.003185939509421587,-0.004324973560869694,0.0031582426745444536
1772562826428137200,4.28713720703125,-0.0030210898257791996,-0.004599279258400202,0.0044983453117311
1772562826438204400,4.297204345703125,-0.0034530546981841326,-0.005018726922571659,0.004501274786889553
1772562826448272100,4.307272216796875,-0.002205097349360585,-0.004426706116646528,0.004629373084753752
1772562826458339300,4.31733935546875,-0.003058107802644372,-0.005327120888978243,0.003591006388887763
1772562826468406300,4.32740625,-0.003434146288782358,-0.0051833102479577065,0.006856308318674564
1772562826478473200,4.33747314453125,-0.0015784555580466986,-0.00387410051189363,0.0013915016315877438
1772562826488540200,4.3475400390625,-0.0009483516332693398,-0.0027417242527008057,0.0029342707712203264
1772562826498608400,4.3576083984375,-0.0027534421533346176,-0.004994758404791355,0.002913231961429119
1772562826508675300,4.36767529296875,-0.0035888757556676865,-0.003835750976577401,0.0011134676169604063
1772562826518742300,4.3777421875,-0.003727360162883997,-0.002734533743932843,0.005880792159587145
1772562826528809200,4.387809326171875,-0.00185063062235713,-0.0035020567011088133,0.0018897791160270572
1772562826538876400,4.39787646484375,-0.004574778024107218,-0.0034384073223918676,0.0034466630313545465
1772562826548944100,4.407944091796875,-0.0025363946333527565,-0.005315136630088091,0.0029089709278196096
1772562826559011300,4.41801123046875,-0.003136138431727886,-0.003375822911038995,0.00039867521263659
1772562826569078300,4.428078369140625,-0.002129463478922844,-0.004719920456409454,0.0030192257836461067
1772562826579145200,4.438145263671875,-0.003829892026260495,-0.004381699021905661,0.0033159018494188786
1772562826589212200,4.448212158203125,-0.0033009881153702736,-0.005564941558986902,0.004132959526032209
1772562826599279400,4.458279296875,-0.0041614556685090065,-0.007463775109499693,0.006705040577799082
1772562826609347300,4.468347412109375,-0.002663427498191595,-0.0054184673354029655,0.0025132251903414726
1772562826619414300,4.478414306640625,-0.002624811604619026,-0.0024434502702206373,0.004307663068175316
1772562826629481200,4.488481201171875,-0.003510579001158476,-0.005124454386532307,0.0030567762441933155
1772562826639548400,4.49854833984375,-0.0035380094777792692,-0.005757221486419439,0.0031017838045954704
1772562826649615400,4.508615478515625,-0.005092230159789324,-0.002910036128014326,0.004521781112998724
1772562826659683300,4.518683349609375,-0.004671717062592506,-0.003153715282678604,0.003174487967044115
1772562826669750300,4.528750244140625,-0.0035260252188891172,-0.004204332362860441,0.003655987558886409
1772562826679817200,4.538817138671875,-0.0020961740519851446,-0.003855191869661212,0.0035356127191334963
1772562826689884200,4.54888427734375,-0.001927862293086946,-0.005084240809082985,0.001091629732400179
1772562826699951000,4.558951171875,-0.002025866648182273,-0.00484402384608984,0.005116731394082308
1772562826710019300,4.569019287109375,-0.004494350403547287,-0.00657614367082715,0.003070358419790864
1772562826720086300,4.579086181640625,-0.004114317707717419,-0.005420864559710026,0.001273257308639586
1772562826730153200,4.5891533203125,-0.001749164192005992,-0.007936486043035984,-0.00011771172285079956
1772562826740220400,4.599220458984375,-0.003090864745900035,-0.003992611076682806,0.0015712650492787361
1772562826750287400,4.609287353515625,-0.0035771578550338745,-0.00646562222391367,0.0011321097845211625
1772562826760355300,4.619355224609375,-0.004256530199199915,-0.00327275856398046,0.0036842171102762222
1772562826770422300,4.62942236328125,-0.00264851376414299,-0.004594751633703709,0.003344397759065032
1772562826780489200,4.6394892578125,-0.0024407871533185244,-0.0029822078067809343,0.002475142013281584
1772562826790556200,4.64955615234375,-0.0028719529509544373,-0.00392842898145318,0.003477555699646473
1772562826800623000,4.659623046875,0.00011930961773032323,-0.0021976404823362827,0.00270683690905571
1772562826810690300,4.669690185546875,-0.003912982530891895,-0.002356631215661764,0.0003201119543518871
1772562826820758300,4.67975830078125,-0.0025843314360827208,-0.006143912672996521,0.0008466189028695226
1772562826830825200,4.6898251953125,-0.0029979203827679157,-0.0035334820859134197,0.0015158712631091475
1772562826840892400,4.699892333984375,-0.002674612682312727,-0.005754558369517326,0.0052964948117733
1772562826850959400,4.70995947265625,-0.0025997778866440058,-0.004177168011665344,0.004918325692415237
1772562826861026300,4.7200263671875,-0.004441619850695133,-0.0042131207883358,0.003608849598094821
1772562826871094300,4.73009423828125,-0.004095142707228661,-0.0034133736044168472,0.0029433255549520254
1772562826881159400,4.740159423828125,-0.004879443906247616,-0.005585980135947466,0.0011925635626539588
1772562826891227100,4.75022705078125,-0.0007147924043238163,-0.004452539142221212,0.0025771409273147583
1772562826901294300,4.76029443359375,-0.0037675739731639624,-0.00490154791623354,0.008444883860647678
1772562826911361300,4.770361328125,-0.0029462550301104784,-0.006893592420965433,0.001088700257241726
1772562826921428200,4.78042822265625,-0.003515905234962702,-0.004911135416477919,0.004969724919646978
1772562826931495200,4.7904951171875,-0.002862365450710058,-0.005117264110594988,0.001773398951627314
1772562826941562600,4.800562744140625,-0.004589159041643143,-0.005566006526350975,0.0017707358347252011
1772562826951629600,4.810629638671875,-0.0012719257501885295,-0.005344165489077568,0.0032618397381156683
1772562826961696500,4.820696533203125,-0.002835201332345605,-0.004235225263983011,0.0027366643771529198
1772562826971763700,4.830763671875,-0.0007992146420292556,-0.00640703272074461,0.0023992417845875025
1772562826981830700,4.84083056640625,-0.003151318524032831,-0.005941246170550585,0.001865544356405735
1772562826991898600,4.850898681640625,-0.0030045784078538418,-0.006163087207823992,0.003690076060593128
1772562827001965600,4.860965576171875,-0.0030099046416580677,-0.006291984114795923,0.0010197244118899107
1772562827012032500,4.871032470703125,-0.0006743124104104936,-0.004954278469085693,0.0008695221040397882
1772562827022099500,4.881099365234375,-0.0033012544736266136,-0.0040975394658744335,0.0031127026304602623
1772562827032166400,4.89116650390625,-0.002843989757820964,-0.005567871034145355,0.004086354281753302
1772562827042233300,4.9012333984375,-0.002442118711769581,-0.006910370197147131,0.0033318807836622
1772562827052301600,4.911301513671875,-0.0020791299175471067,-0.0039012646302580833,0.004689293913543224
1772562827062368500,4.921368408203125,-0.003933222498744726,-0.004077832214534283,0.0055063520558178425
1772562827072435700,4.931435791015625,-0.0010399643797427416,-0.004473311826586723,0.0035113778430968523
1772562827082502700,4.941502685546875,-0.0008367652189917862,-0.004733768757432699,0.005854959599673748
1772562827092569600,4.951569580078125,-0.0027803401462733746,-0.004939098376780748,0.0009068063227459788
1772562827102637600,4.961637451171875,-0.0026844663079828024,-0.0025004418566823006,0.0010865697404369712
1772562827112704500,4.97170458984375,-0.004084223881363869,-0.005260009318590164,0.004471180960536003
1772562827122771500,4.981771484375,-0.0015755260828882456,-0.004056260455399752,0.004589958116412163
1772562827132838400,4.99183837890625,-0.0046211169101297855,-0.003308711340650916,0.001136637176387012
1772562827142905600,5.001905517578125,-0.001243962557055056,-0.003483681008219719,0.0009773800848051906
1772562827152973600,5.0119736328125,-0.004348675720393658,-0.003308444982394576,0.0006154565489850938
1772562827163040500,5.02204052734375,-0.00112465291749686,-0.005691175349056721,0.0011672634864225984
1772562827173107700,5.032107666015625,-0.0035952674224972725,-0.007034739945083857,0.0005845638806931674
1772562827183174700,5.042174560546875,-0.003385144053027034,-0.0016876452136784792,0.001085770782083273
1772562827193241600,5.05224169921875,-0.0014689996605738997,-0.004165183752775192,0.0027806065045297146
1772562827203308500,5.06230859375,-0.0031425300985574722,-0.0037918086163699627,0.004057858604937792
1772562827213376500,5.07237646484375,-0.0018261295044794679,-0.002180063631385565,0.0025600967928767204
1772562827223443500,5.082443359375,-0.0022242721170186996,-0.0029944581910967827,0.003466104157269001
1772562827233510400,5.092510498046875,-0.0017595505341887474,-0.0032264196779578924,0.0005246427026577294
1772562827243577600,5.10257763671875,-0.0005728459218516946,-0.006154565140604973,0.003978762775659561
1772562827253644500,5.11264453125,-0.0035665053874254227,-0.00532605592161417,0.0024232103023678064
1772562827263713500,5.122713623046875,-0.0027662254869937897,-0.004171042703092098,0.0034916705917567015
1772562827273780500,5.132780517578125,-0.001272990950383246,-0.005828327964991331,0.00020825919636990875
1772562827283847700,5.14284765625,0.0015150723047554493,-0.002811232814565301,0.003635214874520898
1772562827293914600,5.15291455078125,-0.0011150655336678028,-0.000788561999797821,0.005185707006603479
1772562827303982600,5.162982666015625,-0.003058107802644372,-0.0067849354818463326,0.004341751337051392
1772562827314049500,5.173049560546875,-0.001936917076818645,-0.002703641075640917,0.0020277309231460094
1772562827324116500,5.183116455078125,-0.002320678671821952,-0.005327120888978243,0.004733768757432699
1772562827334183700,5.19318359375,-0.0029318740125745535,-0.005487443413585424,0.0005848301807418466
1772562827344250600,5.203250732421875,-0.0032597091048955917,-0.004699147772043943,0.0005733785801567137
1772562827354318600,5.213318603515625,-0.0046506780199706554,-0.004884237423539162,0.004083957523107529
1772562827364385500,5.223385498046875,-0.003867176128551364,-0.004284759983420372,0.0009454221581108868
1772562827374452500,5.233452392578125,-0.0019435749854892492,-0.0051715923473238945,-0.0007819040911272168
1772562827384519700,5.243519775390625,-0.003709516953676939,-0.006500776391476393,0.002873817225918174
1772562827394586600,5.253586669921875,-0.004111920483410358,-0.003930293023586273,0.004771585576236248
1772562827404653600,5.263653564453125,-0.00321816373616457,-0.004406998865306377,0.003203782718628645
1772562827414721500,5.273721435546875,-0.002354234457015991,-0.004238154739141464,0.00407383730635047
1772562827424788500,5.28378857421875,-0.0021931130904704332,-0.005134840961545706,0.002388855442404747
1772562827434855700,5.293855712890625,-0.0030562435276806355,-0.006724481470882893,0.003025617217645049
1772562827444922600,5.303922607421875,-0.0006910903030075133,-0.0043595945462584496,0.003560912562534213
1772562827454989600,5.313989501953125,-0.001189900329336524,-0.005801696330308914,0.004235491156578064
1772562827465057500,5.3240576171875,-0.0045585329644382,-0.0025947177782654762,0.0027145601343363523
1772562827475124500,5.33412451171875,-0.003959854133427143,-0.004978779703378677,0.004698615055531263
1772562827485191700,5.344191650390625,-0.003638144349679351,-0.004808870144188404,0.004194744862616062
1772562827495258600,5.354258544921875,-0.0018780612153932452,-0.005410744342952967,0.004023769870400429
1772562827505325600,5.36432568359375,-0.004065315239131451,-0.0054640076123178005,0.005813147872686386
1772562827515392500,5.374392578125,-0.00464668357744813,-0.004514324478805065,0.0037944719661027193
1772562827525460500,5.38446044921875,-0.001802960061468184,-0.003085272153839469,0.0002695118892006576
1772562827535527400,5.39452734375,-0.004078098572790623,-0.004227768164128065,0.004317782819271088
1772562827545594600,5.4045947265625,-0.004514856729656458,-0.004338555503636599,0.004083957523107529
1772562827555661600,5.41466162109375,-0.0017006946727633476,-0.006882939953356981,0.002484995638951659
1772562827565728800,5.424728759765625,-0.0030985879711806774,-0.004850947763770819,0.0037121803034096956
1772562827575796500,5.43479638671875,-0.0036392095498740673,-0.004831240512430668,0.0011435613268986344
1772562827585863700,5.44486376953125,-0.004013650119304657,-0.003050118451938033,0.0019153454340994358
1772562827595930600,5.4549306640625,-0.000770452490542084,-0.005379052832722664,0.0035214978270232677
1772562827605997600,5.46499755859375,-0.002296443795785308,-0.0068022459745407104,0.002344646956771612
1772562827616064500,5.475064453125,-0.003982224967330694,-0.0046845003962516785,0.0051955608651041985
1772562827626132500,5.485132568359375,-0.003644003299996257,-0.004739094991236925,0.005289037711918354
1772562827636199400,5.495199462890625,-0.0021587584633380175,-0.0032266860362142324,0.0025630262680351734
1772562827646266600,5.5052666015625,-0.004073305055499077,-0.006013950332999229,0.0015954998089000583
1772562827656333600,5.51533349609375,-0.0038192393258213997,-0.003802194958552718,0.004166249185800552
1772562827666400800,5.52540087890625,-0.0030360035598278046,-0.004187554586678743,-0.0010921623324975371
1772562827676467700,5.5354677734375,-0.004466653801500797,-0.0027409254107624292,0.0026615632232278585
1772562827686535700,5.54553564453125,-0.0025363946333527565,-0.00558145297691226,0.003108974313363433
1772562827696602600,5.5556025390625,-0.005259210709482431,-0.006178800016641617,0.003066896228119731
1772562827706669600,5.565669677734375,-0.004723116289824247,-0.00660437298938632,0.0048855687491595745
1772562827716736500,5.575736572265625,-0.003412308171391487,-0.006588927004486322,0.0011438276851549745
1772562827726803500,5.585803466796875,-0.0027595674619078636,-0.00586721021682024,0.002719353651627898
1772562827736871400,5.595871337890625,-0.0026559706311672926,-0.0027300063520669937,0.003225354477763176
1772562827746938400,5.6059384765625,-0.004168113227933645,-0.0056392434053123,0.004772917367517948
1772562827757005600,5.616005615234375,-0.0035233621019870043,-0.0054482948035001755,0.0009627327090129256
1772562827767072800,5.62607275390625,-0.00361790438182652,-0.004571848548948765,0.0024557008873671293
1772562827777139700,5.6361396484375,-0.0030514500103890896,-0.0023784691002219915,0.003237072378396988
1772562827787206700,5.64620654296875,-0.005478122271597385,-0.005342567339539528,0.0038743666373193264
1772562827797274600,5.656274658203125,-0.00407516909763217,-0.00583658367395401,-0.0002612560929264873
1772562827807341600,5.666341552734375,-0.003975566942244768,-0.00475427508354187,0.0049582733772695065
1772562827817408500,5.676408447265625,-0.003070092061534524,-0.003802461316809058,0.0036693033762276173
1772562827827475500,5.686475341796875,-0.00387410051189363,-0.001970206620171666,0.003141997382044792
1772562827837542700,5.696542724609375,-0.0033009881153702736,-0.0052139367908239365,-0.001490304945036769
1772562827847610400,5.7066103515625,-0.003400324145331979,-0.006305033806711435,0.00195129809435457
1772562827857677800,5.716677734375,-0.0033598439767956734,-0.00680171325802803,0.0046181874349713326
1772562827867744800,5.726744873046875,-0.0018607506062835455,-0.0031997880432754755,0.0021369203459471464
1772562827877811700,5.736811767578125,-0.002915628720074892,-0.004244545940309763,0.0006607302348129451
1772562827887878700,5.746878662109375,-0.0029619678389281034,-0.003418966196477413,0.004908738657832146
1772562827897946600,5.756946533203125,-0.0006532734259963036,-0.003949201665818691,0.0018125474452972412
1772562827908013600,5.767013671875,-0.005224056541919708,-0.00432976707816124,0.005576126743108034
1772562827918080500,5.77708056640625,-0.0043534692376852036,-0.0029174929950386286,0.0038392129354178905
1772562827928147500,5.7871474609375,-0.0037729002069681883,-0.0065228804014623165,0.004810467828065157
1772562827938215400,5.79721533203125,-0.0021371867042034864,-0.004923918284475803,0.003239735495299101
1772562827948283400,5.807283447265625,-0.0035353463608771563,-0.0041641187854111195,0.0026703516487032175
1772562827958350300,5.817350341796875,-0.004733502399176359,-0.004744687583297491,0.0017675400013104081
1772562827968417300,5.827417236328125,-0.002005360322073102,-0.004150270018726587,0.001874332781881094
1772562827978484500,5.837484375,-0.00424241553992033,-0.004778509959578514,0.002969424705952406
1772562827988551400,5.847551513671875,-0.002799514913931489,-0.003979029133915901,0.005003280472010374
1772562827998618400,5.857618408203125,-0.003486610483378172,-0.00595509447157383,0.002770486520603299
1772562828008686600,5.8676865234375,-0.004447212442755699,-0.00629012007266283,0.004228034522384405
1772562828018753500,5.87775341796875,-0.004021639470010996,-0.0059777311980724335,0.0009177253232337534
1772562828028820500,5.887820556640625,-0.0034325483720749617,-0.0019747340120375156,0.003020557342097163
1772562828038887400,5.897887451171875,-0.004480502102524042,-0.003811249742284417,0.006042978726327419
1772562828048954400,5.907954345703125,-0.002668753731995821,-0.0046354979276657104,0.002403502818197012
1772562828059022300,5.918022216796875,-0.0019944412633776665,-0.004218180663883686,0.002121207769960165
1772562828069089500,5.928089599609375,-0.0032168321777135134,-0.0049249837175011635,0.0018040252616629004
1772562828079156500,5.938156494140625,-0.0037792918737977743,-0.00475347600877285,0.0012231898726895452
1772562828089223400,5.948223388671875,-0.0019353191601112485,-0.004967061802744865,0.0011030812747776508
1772562828099290400,5.958290283203125,-0.0031140341889113188,-0.0028628981672227383,0.004819788970053196
1772562828109358600,5.968358642578125,-0.0030538467690348625,-0.004351072479039431,0.003317233407869935
1772562828119425500,5.978425537109375,-0.0020546286832541227,-0.003989415243268013,0.0011867046123370528
1772562828129492500,5.988492431640625,-0.002665291540324688,-0.004549478180706501,0.0023790018167346716
1772562828139559400,5.998559326171875,-0.002239984693005681,-0.007115167565643787,0.005831790156662464
1772562828149626400,6.00862646484375,-0.004031759686768055,-0.005638444796204567,0.004516454879194498
1772562828159693600,6.018693603515625,-0.00227939966134727,-0.004326571244746447,0.0026021746452897787
1772562828169761500,6.028761474609375,-0.0027593011036515236,-0.005393433850258589,0.0024311996530741453
1772562828179828500,6.038828369140625,-0.0030953921377658844,-0.0032405343372374773,0.0010008158860728145
1772562828189895400,6.0488955078125,-0.0016088156262412667,-0.006705839652568102,0.004335892386734486
1772562828199962400,6.05896240234375,-0.0031286815647035837,-0.0037233654875308275,0.0035840822383761406
1772562828210029300,6.069029296875,-0.004869590047746897,-0.0051838429644703865,0.0018967032665386796
1772562828220097500,6.07909765625,0.0003587277897167951,-0.00628958735615015,0.004577174782752991
1772562828230164500,6.08916455078125,-0.003817108692601323,-0.0038751657120883465,0.0013403689954429865
1772562828240231400,6.0992314453125,-0.0005648564547300339,-0.004352936986833811,0.0005803027888759971
1772562828250298600,6.109298583984375,-0.0020178770646452904,-0.005632319487631321,0.0009949569357559085
1772562828260365600,6.119365478515625,-0.0016855146968737245,-0.0065103634260594845,0.002541188383474946
1772562828270433500,6.12943359375,-0.0024114924017339945,-0.0054578823037445545,0.003063966752961278
1772562828280500500,6.13950048828125,-0.003838414093479514,-0.006716492120176554,0.004667988512665033
1772562828290567400,6.1495673828125,-0.001976331928744912,-0.005368666257709265,0.002754773711785674
1772562828300634400,6.15963427734375,-0.0005158542771823704,-0.006592122372239828,0.004525243304669857
1772562828310701300,6.169701416015625,-0.002965429797768593,-0.005091963801532984,0.0070219566114246845
1772562828320768300,6.179768310546875,-0.0029699571896344423,-0.005258677992969751,0.0032802154310047626
1772562828330836500,6.18983642578125,-0.0017246630741283298,-0.0031971249263733625,0.0006402239087037742
1772562828340903400,6.1999033203125,-0.003329217666760087,-0.0029382656794041395,0.0036669063847512007
1772562828350970600,6.209970703125,-0.0054552191868424416,-0.005800098646432161,0.003065032185986638
1772562828361037600,6.22003759765625,-0.0043803672306239605,-0.005052282940596342,0.002326803747564554
1772562828371104500,6.2301044921875,-0.002275671111419797,-0.004459995776414871,0.003144660498946905
1772562828381172500,6.24017236328125,-0.0002580603177193552,-0.0031103058718144894,0.004333495628088713
1772562828391239400,6.250239501953125,-0.0037289580795913935,-0.00412390474230051,0.00669278996065259
1772562828401306400,6.260306396484375,-0.0016620787791907787,-0.004629106726497412,0.005279184319078922
1772562828411373300,6.270373291015625,-0.0008322378271259367,-0.00627094553783536,0.0027627632953226566
1772562828421440300,6.280440185546875,-0.003546265186741948,-0.0018037590198218822,0.004274107050150633
1772562828431508500,6.290508544921875,-0.0029917950741946697,-0.005141764879226685,0.003201652318239212
1772562828441575400,6.300575439453125,-0.004210191313177347,-0.007907724007964134,0.0012833772925660014
1772562828451642600,6.310642578125,-0.0016812535468488932,-0.004692489746958017,0.0023220102302730083
1772562828461709600,6.32070947265625,-0.003355582943186164,-0.003810983384028077,0.001924932817928493
1772562828471776500,6.330776611328125,-0.003709516953676939,-0.006179865449666977,0.008024903014302254
1772562828481843500,6.340843505859375,-0.0034133736044168472,-0.006286125164479017,0.0022804648615419865
1772562828491911400,6.350911376953125,-0.004107659682631493,-0.004073038697242737,0.0006998787284828722
1772562828501978400,6.360978271484375,-0.0031843415927141905,-0.0036075180396437645,0.0012412993237376213
1772562828512045300,6.37104541015625,-0.0031065773218870163,-0.005431250669062138,0.0028786107432097197
1772562828522112300,6.3811123046875,-0.004581702407449484,-0.005048021674156189,0.0027321369852870703
1772562828532179500,6.391179443359375,-0.0034408040810376406,-0.005274123977869749,0.004717257339507341
1772562828542247400,6.401247314453125,-0.004605404566973448,-0.004042145796120167,0.004441353492438793
1772562828552314600,6.411314697265625,-0.0017773937433958054,-0.002055427758023143,0.0019883159548044205
1772562828562381600,6.421381591796875,-0.004655738361179829,-0.005286108236759901,0.001984853995963931
1772562828572448500,6.431448486328125,-0.0008562062866985798,-0.005535114090889692,0.001086037140339613
1772562828582515500,6.441515380859375,-0.004505536053329706,-0.004352404270321131,0.0041550640016794205
1772562828592583400,6.45158349609375,-0.001999501371756196,-0.005878395400941372,0.0021696772892028093
1772562828602650400,6.461650390625,-0.0044205812737345695,-0.004677309654653072,0.0048922267742455006
1772562828612717300,6.47171728515625,-0.005299957003444433,-0.005929794628173113,0.005805424880236387
1772562828622784300,6.4817841796875,-0.0024564997293055058,-0.003460511565208435,0.0021909826900810003
1772562828632851500,6.4918515625,-0.003069825703278184,-0.004637362435460091,0.003490072675049305
1772562828642918400,6.50191845703125,-0.0016620787791907787,-0.005538043566048145,0.006066680885851383
1772562828652986600,6.511986572265625,-0.0031150993891060352,-0.007679224945604801,0.0017230651574209332
1772562828663053600,6.522053466796875,-0.004637895151972771,-0.0021723404061049223,0.0012183962389826775
1772562828673120500,6.53212060546875,-0.0031553131993860006,-0.002766491612419486,0.002133458387106657
1772562828683187500,6.5421875,-0.0037441381718963385,-0.0054850466549396515,0.0031457259319722652
1772562828693254400,6.55225439453125,-0.0014708638191223145,-0.003912716172635555,0.004150270018726587
1772562828703322400,6.562322265625,-0.002953711897134781,-0.00631941482424736,0.0037593182642012835
1772562828713389300,6.572389404296875,-0.004763329867273569,-0.0038075214251875877,0.0033688987605273724
1772562828723456300,6.582456298828125,-0.0028181569650769234,-0.005933522712439299,0.0019867182709276676
1772562828733523500,6.5925234375,-0.0015190670965239406,-0.005319131538271904,0.0017691379180178046
1772562828743590400,6.60259033203125,-0.002338788006454706,-0.003275954397395253,0.0034437335561960936
1772562828753658600,6.61265869140625,-0.005401423200964928,-0.00561021501198411,0.003980094101279974
1772562828763725600,6.6227255859375,-0.003626692807301879,-0.003835484618321061,0.0018554243724793196
1772562828773792500,6.63279248046875,-0.005754025653004646,-0.004936435259878635,0.0040975394658744335
1772562828783859500,6.642859375,-0.003626426449045539,-0.0036048549227416515,0.003257844829931855
1772562828793926400,6.652926513671875,-0.0027087011840194464,-0.0030839405953884125,0.002100435085594654
1772562828803993300,6.662993408203125,-0.003531884169206023,-0.004049336537718773,0.0028445222415030003
1772562828814061300,6.673061279296875,-0.0028655612841248512,-0.003975833300501108,0.004193946253508329
1772562828824128500,6.68312841796875,-0.00236222380772233,-0.002974484581500292,0.004260525107383728
1772562828834195500,6.693195556640625,-0.0037952708080410957,-0.006911701988428831,0.003946538548916578
1772562828844262400,6.703262451171875,-0.0030024477746337652,-0.005634449888020754,0.0038988678716123104
1772562828854330600,6.71333056640625,-0.0037982002831995487,-0.006997455842792988,0.004266650415956974
1772562828864397600,6.7233974609375,-0.003078880487009883,-0.0017148094484582543,0.004250671248883009
1772562828874464500,6.733464599609375,-0.004569718148559332,-0.004824582487344742,0.002922020386904478
1772562828884531500,6.743531494140625,-0.0052381716668605804,-0.004719654098153114,0.002287921728566289
1772562828894598400,6.753598388671875,-0.004535363521426916,-0.005349758081138134,0.002810966456308961
1772562828904665300,6.763665283203125,-0.0030341395176947117,-0.005474393721669912,0.002755572786554694
1772562828914733300,6.7737333984375,-0.0030740867368876934,-0.004496481269598007,0.004466121084988117
1772562828924800500,6.783800537109375,-0.0032551817130297422,-0.0054427022114396095,0.0020628846250474453
1772562828934867500,6.793867431640625,-0.0029790119733661413,-0.0033875408116728067,0.0056392434053123
1772562828944934700,6.8039345703125,-0.004065847955644131,-0.007774832658469677,0.0024551681708544493
1772562828955001600,6.814001708984375,-0.003335342975333333,-0.003777693957090378,-0.0004519384237937629
1772562828965069800,6.82406982421875,-0.0019896477460861206,-0.005616340320557356,0.004012584686279297
1772562828975136800,6.83413671875,-0.004000067710876465,-0.0041521345265209675,0.0038250982761383057
1772562828985203700,6.84420361328125,-0.004562261048704386,-0.0028565065003931522,0.0005547364708036184
1772562828995270700,6.854270751953125,-0.002415220718830824,-0.0028391960076987743,0.0010671286145225167
1772562829005337600,6.864337646484375,-0.001115864492021501,-0.007090932689607143,0.0019856528379023075
1772562829015404800,6.87440478515625,-0.003766242414712906,-0.0054730623960494995,0.0009422263829037547
1772562829025472800,6.88447265625,-0.0032679650466889143,-0.004518585279583931,0.0029619678389281034
1772562829035539700,6.894539794921875,-0.0031550468411296606,-0.0049132658168673515,0.005553489550948143
1772562829045606700,6.904606689453125,-0.005591839086264372,-0.0036312201991677284,0.004884503781795502
1772562829055673600,6.914673583984375,-0.002776611829176545,-0.004830441437661648,0.005308479070663452
1772562829065740800,6.92474072265625,-0.002560629276558757,-0.004002464935183525,0.0028796761762350798
1772562829075808800,6.934808837890625,-0.0022828616201877594,-0.004688494838774204,0.006134058814495802
1772562829085875700,6.944875732421875,-0.0036719664931297302,-0.004021639470010996,0.005615807604044676
1772562829095942700,6.954942626953125,-0.0038429414853453636,-0.004509796854108572,0.0039041941054165363
1772562829106009600,6.965009521484375,-0.0018924422329291701,-0.00504029868170619,0.005094361025840044
1772562829116076800,6.975076904296875,-0.0041191112250089645,-0.0041468082927167416,0.003909786697477102
1772562829126144800,6.985144775390625,-0.0029521139804273844,-0.004096474498510361,0.003778493031859398
1772562829136211700,6.995211669921875,0.00034914040588773787,-0.004276504274457693,0.0027622305788099766
1772562829146278700,7.005278564453125,-0.0010663296561688185,-0.005347361322492361,0.003338272450491786
1772562829156345600,7.015345703125,-0.003335076617076993,-0.00515827676281333,0.004238686989992857
1772562829166412500,7.02541259765625,-0.004192614462226629,-0.0018607506062835455,0.0034112429711967707
1772562829176480800,7.035480712890625,-0.002942526713013649,-0.004147074185311794,0.0017989652696996927
1772562829186547700,7.045547607421875,-0.0033622407354414463,-0.005864014383405447,0.004494616761803627
1772562829196614700,7.05561474609375,-0.004060521721839905,-0.0038301581516861916,0.005597432143986225
1772562829206681900,7.065681884765625,-0.0011656655697152019,-0.004023237619549036,0.0046482812613248825
1772562829216748800,7.075748779296875,-0.005592105444520712,-0.0038341530598700047,0.004777444526553154
1772562829226815700,7.085815673828125,-0.0036844832357019186,-0.005315935704857111,0.0032748891972005367
1772562829236883700,7.0958837890625,-0.0024591628462076187,-0.006030728109180927,0.00373055599629879
1772562829246950700,7.10595068359375,-0.0007531419396400452,-0.002114816103130579,0.0034442662727087736
1772562829257017600,7.116017578125,-0.0031190942972898483,-0.004266384057700634,0.003718571737408638
1772562829267084500,7.12608447265625,-0.0013467605458572507,-0.0012567456578835845,0.0019108180422335863
1772562829277151700,7.13615185546875,-0.004356931429356337,-0.00469621829688549,0.0032735576387494802
1772562829287219700,7.1462197265625,-0.0054299188777804375,-0.0028658276423811913,0.0014343785587698221
1772562829297286700,7.15628662109375,-0.0028490496333688498,-0.006231796927750111,0.0033190976828336716
1772562829307353900,7.166353759765625,-0.000716922979336232,-0.00424188282340765,0.00484189298003912
1772562829317420800,7.1764208984375,-0.0028908613603562117,-0.005846970248967409,0.003768639173358679
1772562829327487700,7.18648779296875,-0.004507932811975479,-0.003926298581063747,0.003608849598094821
1772562829337555700,7.1965556640625,-0.004086354281753302,-0.0067961206659674644,0.0004423510399647057
1772562829347622700,7.20662255859375,-0.0033047166652977467,-0.0039007319137454033,0.004939098376780748
1772562829357689600,7.216689697265625,-0.002469282830134034,-0.0030714236199855804,0.004489024169743061
1772562829367756500,7.226756591796875,-0.0027659591287374496,-0.004120975267142057,0.0019499665359035134
1772562829377823500,7.236823486328125,-0.002843723399564624,-0.00464641721919179,0.003099919529631734
1772562829387891700,7.2468916015625,-0.004584631882607937,-0.003650394966825843,-0.0013640711549669504
1772562829397958700,7.256958740234375,-0.0034621094819158316,-0.004297542851418257,0.0035750274546444416
1772562829408025900,7.26702587890625,-0.0026940538082271814,-0.0044107274152338505,0.0021755362395197153
1772562829418092800,7.2770927734375,-0.0006463492172770202,-0.0031033814884722233,0.0008524778531864285
1772562829428159700,7.28715966796875,-0.002772616920992732,-0.005450691562145948,0.005554821342229843
1772562829438226700,7.297226806640625,-0.003078880487009883,-0.0031158984638750553,0.004506867378950119
1772562829448294700,7.307294677734375,-0.0027603665366768837,-0.005538309924304485,0.003608316881582141
1772562829458361600,7.317361572265625,-0.0030953921377658844,-0.006105829495936632,0.0009568737586960196
1772562829468428500,7.327428466796875,-0.0018242653459310532,-0.0036362800747156143,0.003329484025016427
1772562829478495500,7.33749560546875,-0.0033507891930639744,-0.005230980925261974,0.0023180153220891953
1772562829488563000,7.34756298828125,-0.004680505488067865,-0.004512992687523365,0.0023339942563325167
1772562829498630700,7.357630615234375,-0.0035167040769010782,-0.00552233075723052,0.001377386855892837
1772562829508697900,7.36769775390625,-0.0014804512029513717,-0.003795803524553776,0.002810700098052621
1772562829518764800,7.377764892578125,-0.0011108045000582933,-0.004151335451751947,0.004277302883565426
1772562829528831700,7.387831787109375,-0.001041562296450138,-0.007273891940712929,-0.001588841900229454
1772562829538898700,7.397898681640625,-0.0012831110507249832,-0.006682936567813158,0.004930309951305389
1772562829548965600,7.407965576171875,-0.003745469730347395,-0.005095692351460457,0.0008759136544540524
1772562829559033600,7.41803369140625,-0.004351338837295771,-0.005928729195147753,0.004482632502913475
1772562829569100500,7.4281005859375,-0.0015694007743149996,-0.004565190523862839,0.0006058691651560366
1772562829579167500,7.43816748046875,-0.0008498146780766547,-0.0046938215382397175,0.002549976808950305
1772562829589234700,7.448234619140625,-0.004614725708961487,-0.004430168308317661,0.00430100504308939
1772562829599302000,7.458302001953125,-0.0016407734947279096,-0.004084756597876549,0.002901247702538967
1772562829609369900,7.468369873046875,-0.004092745948582888,-0.005663744639605284,0.003920705523341894
1772562829619436800,7.478436767578125,-0.002939330879598856,-0.00529676117002964,0.0019861855544149876
1772562829629503700,7.488503662109375,-0.0031220237724483013,-0.004054662771522999,0.003575559938326478
1772562829639570700,7.49857080078125,-0.003748132847249508,-0.0037907434161752462,0.004608334042131901
1772562829649637600,7.5086376953125,-0.00449914438650012,-0.0031241541728377342,0.005652825813740492
1772562829659705600,7.51870556640625,-0.0028663603588938713,-0.00478277076035738,0.002755040070042014
1772562829669772500,7.5287724609375,-0.004535363521426916,-0.0046448190696537495,0.0006918892613612115
1772562829679839500,7.538839599609375,-0.0019118833588436246,-0.003828826593235135,0.0027545075863599777
1772562829689906700,7.54890673828125,-0.0009976201690733433,-0.004079164005815983,0.006881874520331621
1772562829699974000,7.558973876953125,-0.0024024376180022955,-0.005560147576034069,0.0032554480712860823
1772562829710041900,7.569041748046875,-0.0019110844004899263,-0.004180363845080137,0.0006815029191784561
1772562829720108800,7.57910888671875,-0.002290052128955722,-0.001961418194696307,0.0024828650057315826
1772562829730175700,7.58917578125,-0.005065332166850567,-0.00478463526815176,0.004730572924017906
1772562829740242700,7.59924267578125,-0.002335326047614217,-0.006066414527595043,0.004563326481729746
1772562829750309600,7.6093095703125,-0.0035662390291690826,-0.0038245655596256256,0.0017193368403241038
1772562829760376600,7.61937646484375,-0.002868224401026964,-0.0038216360844671726,0.0013049489352852106
1772562829770444500,7.629444580078125,-0.0035057852510362864,-0.00461765518411994,0.0018359832465648651
1772562829780511700,7.63951171875,-0.0021547635551542044,-0.007611314300447702,0.004194478504359722
1772562829790578700,7.64957861328125,-0.0026815368328243494,-0.005124720744788647,0.0017840516520664096
1772562829800645600,7.659645751953125,-0.005530053749680519,-0.002855974016711116,0.0038575888611376286
1772562829810712800,7.669712890625,-0.001711081014946103,-0.005889580585062504,0.0031095067970454693
1772562829820780800,7.67978076171875,-0.0021347899455577135,-0.005547364708036184,0.004070641472935677
1772562829830847700,7.68984765625,-0.0013068130938336253,-0.00466532539576292,0.0028993834275752306
1772562829840914700,7.699914794921875,-0.003029345767572522,-0.006486129015684128,0.0025393241085112095
1772562829850981600,7.709981689453125,-0.005043760873377323,-0.0051593417301774025,0.004367318004369736
1772562829861048600,7.720048583984375,-0.003481017891317606,-0.004857605788856745,0.003825897118076682
1772562829871116500,7.730116455078125,-0.0017888452857732773,-0.0034405377227813005,0.004508199170231819
1772562829881183700,7.740183837890625,-0.0021997711155563593,-0.005647233221679926,0.003727626521140337
1772562829891250700,7.750250732421875,-0.0027622305788099766,-0.00458809407427907,0.0037406759802252054
1772562829901317600,7.760317626953125,-0.0021973741240799427,-0.005693039391189814,0.00350472005084157
1772562829911384800,7.770384765625,-0.003614442190155387,-0.006145510356873274,0.005939914379268885
1772562829921451800,7.78045166015625,-0.001044225413352251,-0.002802444389089942,0.0019025622168555856
1772562829931519700,7.790519775390625,-0.0013877731980755925,-0.005118595436215401,0.0013432984706014395
1772562829941586200,7.800586181640625,-0.004040548112243414,-0.005938316695392132,0.0019217369845137
1772562829951653000,7.810653076171875,-0.0028093685396015644,-0.004348409362137318,0.003777693957090378
1772562829961720300,7.82072021484375,-0.0024117587599903345,-0.0035108451265841722,0.004764661658555269
1772562829971787300,7.830787353515625,-0.002118278294801712,-0.005087170284241438,0.001487375469878316
1772562829981855500,7.84085546875,-0.004265318624675274,-0.004514856729656458,0.0017230651574209332
1772562829991922400,7.85092236328125,-0.003775297198444605,-0.005422195885330439,0.001791242160834372
1772562830001989400,7.8609892578125,-0.0027917916886508465,-0.003358512418344617,0.003615241264924407
1772562830012056300,7.871056396484375,-0.003242132253944874,-0.0048887645825743675,0.001606418751180172
1772562830022123300,7.881123291015625,-0.005565473809838295,-0.005456018261611462,0.0032410670537501574
1772562830032191200,7.891191162109375,-0.00387383415363729,-0.006448844447731972,0.0018953717080876231
1772562830042258200,7.901258056640625,-0.0024679512716829777,-0.003063700394704938,0.0013816480059176683
1772562830052325400,7.911325439453125,-0.002980876248329878,-0.00424188282340765,0.005160939879715443
1772562830062392300,7.921392333984375,-0.0036706349346786737,-0.00469595193862915,0.001698830397799611
1772562830072459300,7.931459228515625,-0.0019204054260626435,-0.004188353195786476,0.0034317492973059416
1772562830082526200,7.941526123046875,-0.0032226911280304193,-0.003932423423975706,0.004352404270321131
1772562830092594400,7.951594482421875,-0.0013102752855047584,-0.006660033017396927,0.0030860709957778454
1772562830102661400,7.961661376953125,-0.005665608681738377,-0.006392385344952345,0.00481206551194191
1772562830112728300,7.971728271484375,-0.0016607472207397223,-0.004479437135159969,0.000696150294970721
1772562830122795300,7.981795166015625,-0.003766242414712906,-0.0034796863328665495,0.0021526331547647715
1772562830132862200,7.9918623046875,-0.0041542649269104,-0.00478543434292078,0.001898301183246076
1772562830142930200,8.00193017578125,-0.002523078816011548,-0.004384362138807774,0.0014735270524397492
1772562830152997400,8.011997314453126,-0.003096457337960601,-0.003722566645592451,0.003649862250313163
1772562830163064300,8.022064208984375,-0.003329750383272767,-0.006600112188607454,0.004218713380396366
1772562830173131300,8.03213134765625,-0.004181162919849157,-0.005824333056807518,0.0012737899087369442
1772562830183198200,8.0421982421875,-0.003102049930021167,-0.0029790119733661413,0.0020034960471093655
1772562830193266400,8.052266357421875,-0.00526533555239439,-0.006963899824768305,0.004004861693829298
1772562830203333400,8.06233349609375,-0.004605138208717108,-0.003834951901808381,0.005546032916754484
1772562830213400300,8.072400390625,-0.001642637769691646,-0.0044016726315021515,0.001261805766262114
1772562830223467300,8.08246728515625,-0.002180596347898245,-0.004061587154865265,0.0024474449455738068
1772562830233534500,8.092534423828125,-0.003881557146087289,-0.004780374001711607,0.002891660202294588
1772562830243601400,8.102601318359374,-0.004248540848493576,-0.005563077051192522,0.0007659250986762345
1772562830253669400,8.11266943359375,-0.0020631509833037853,-0.0030280142091214657,0.006179332733154297
1772562830263736300,8.122736328125,-0.0027712853625416756,-0.0056893108412623405,-0.00021012341312598437
1772562830273803300,8.13280322265625,-0.0034946000669151545,-0.004779042676091194,0.003510579001158476
1772562830283870200,8.1428701171875,-0.001651159836910665,-0.0023459785152226686,0.0026764769572764635
1772562830293937200,8.152937255859374,-0.001936917076818645,-0.0028210864402353764,0.0023635553661733866
1772562830304005400,8.16300537109375,-0.0006671218434348702,-0.004972121678292751,0.004080228973180056
1772562830314072300,8.173072265625,-0.004261324182152748,-0.004510329570621252,0.003998203668743372
1772562830324139300,8.18313916015625,-0.005598763469606638,-0.005597432143986225,0.001663410454057157
1772562830334206500,8.19320654296875,-0.005026716738939285,-0.005256281234323978,0.0012652678415179253
1772562830344273400,8.2032734375,-0.0028567728586494923,-0.004799016285687685,0.005274923052638769
1772562830354341400,8.21334130859375,-0.0035510589368641376,-0.005863748025149107,0.003172357566654682
1772562830364408300,8.223408203125,-0.004751345608383417,-0.004344947170466185,0.004571049474179745
1772562830374475300,8.233475341796876,-0.003480485174804926,-0.005014466121792793,0.003459446132183075
1772562830384542200,8.243542236328125,-0.005290369503200054,-0.004670917987823486,0.002654372714459896
1772562830394609200,8.253609130859376,-0.003820570884272456,-0.005931925028562546,0.0014729943359270692
1772562830404677400,8.263677490234375,-0.0043444144539535046,-0.005021390039473772,0.002388589084148407
1772562830414744300,8.273744384765624,-0.0029635655228048563,-0.0035366779193282127,0.0032141690608114004
1772562830424811300,8.283811279296875,-0.00054142065346241,-0.0033800839446485043,0.0016647420125082135
1772562830434878500,8.29387841796875,-0.0036767602432519197,-0.004728975240141153,0.003934820648282766
1772562830444945400,8.3039453125,-0.0026168220210820436,-0.004674113821238279,0.00532445777207613
1772562830455012400,8.314012451171875,-0.0025686188600957394,-0.004526575095951557,0.0021947110071778297
1772562830465080300,8.324080322265624,-0.002638659905642271,-0.0029995182994753122,0.004520716145634651
1772562830475147300,8.334147216796875,-0.0024495755787938833,-0.0027712853625416756,0.0006428870838135481
1772562830485214200,8.344214111328125,-0.0016367788193747401,-0.0036250948905944824,0.0018330537714064121
1772562830495281200,8.35428125,-0.004491953644901514,-0.0054735951125621796,0.003835218260064721
1772562830505348000,8.36434814453125,-0.0032226911280304193,-0.006263222079724073,0.0035260252188891172
1772562830515416300,8.374416259765624,-0.0027949875220656395,-0.004376372788101435,0.005519134923815727
1772562830525483300,8.384483154296875,-0.0015843145083636045,-0.003058107802644372,0.0035422705113887787
1772562830535550500,8.394550537109374,-0.0027297399938106537,-0.005860285833477974,0.0018255969043821096
1772562830545617400,8.404617431640625,-0.002977680414915085,-0.004569451790302992,0.0031973912846297026
1772562830555684400,8.414684326171875,-0.0010490191634744406,-0.0044022053480148315,0.005369998048990965
1772562830565752300,8.42475244140625,-0.0025837989524006844,-0.004771851934492588,0.0028668928425759077
1772562830575819300,8.4348193359375,-0.0031872710678726435,-0.0027478495612740517,-0.001374457380734384
1772562830585886200,8.44488623046875,-0.0032890038564801216,-0.005810484755784273,0.0036938043776899576
1772562830595953200,8.454953125,-0.0010463559301570058,-0.004691957030445337,0.0011803129455074668
1772562830606020000,8.46502001953125,-0.0036274916492402554,-0.0020764668006449938,0.0021347899455577135
1772562830616087300,8.47508740234375,-0.005595301277935505,-0.004542021080851555,0.003608849598094821
1772562830626155300,8.4851552734375,-0.002302036387845874,-0.006716758478432894,0.005029912106692791
1772562830636222500,8.495222412109374,-0.0033129723742604256,-0.006669354159384966,0.004460794851183891
1772562830646289400,8.505289306640625,-0.0030181603506207466,-0.006867493502795696,0.004860535264015198
1772562830656356400,8.5153564453125,-0.0034000577870756388,-0.0043806335888803005,-0.00024580975878052413
1772562830666423300,8.52542333984375,-0.0051811798475682735,-0.007016630377620459,0.0036788906436413527
1772562830676491300,8.5354912109375,-0.004770254250615835,-0.005686647724360228,0.002043976215645671
1772562830686558200,8.54555810546875,-0.001445830101147294,-0.003838414093479514,0.0030008498579263687
1772562830696625200,8.555625244140625,-0.0028578380588442087,-0.00669305631890893,0.005109008401632309
1772562830706692000,8.565692138671874,-0.002177933230996132,-0.004922853317111731,0.0056919739581644535
1772562830716759300,8.57575927734375,-0.0018349179299548268,-0.005570267792791128,0.00768774701282382
1772562830726827300,8.5858271484375,-0.0038778288289904594,-0.0040826257318258286,0.002755572786554694
1772562830736894500,8.59589453125,-0.003367300843819976,-0.006309827324002981,0.000984836951829493
1772562830746961400,8.60596142578125,-0.0033220271579921246,-0.004391286056488752,0.0021313277538865805
1772562830757028400,8.6160283203125,-0.004239752423018217,-0.005302620120346546,0.0008868326549418271
1772562830767095300,8.62609521484375,-0.002695119008421898,-0.004163319710642099,0.004215783905237913
1772562830777163300,8.636163330078125,-0.0028365328907966614,-0.004308728501200676,0.002529204124584794
1772562830787230200,8.646230224609376,-0.003004844533279538,-0.00768801337108016,0.0001179780374513939
1772562830797297200,8.656297119140625,-0.003400590270757675,-0.005075718741863966,0.003349723992869258
1772562830807364400,8.6663642578125,-0.001546763931401074,-0.004728708881884813,0.0018522285390645266
1772562830817431300,8.676431396484375,-0.001752360025420785,-0.0054155378602445126,0.00202240445651114
1772562830827498200,8.686498291015624,-0.0018839201657101512,-0.005576126743108034,0.00233825552277267
1772562830837566500,8.69656640625,-0.002126800362020731,-0.004449609667062759,0.002083124592900276
1772562830847633400,8.70663330078125,-0.0038693067617714405,-0.005710882600396872,0.0018301242962479591
1772562830857700400,8.716700439453126,-0.002320678671821952,-0.0017803232185542583,0.0002540655550546944
1772562830867767300,8.726767333984375,-0.004266117699444294,-0.0070283482782542706,0.005025118589401245
1772562830877833500,8.73683349609375,-0.0016026903176680207,-0.0052168662659823895,0.0018748653819784522
1772562830887900400,8.746900390625,-0.004406998865306377,-0.002965163439512253,0.0025425199419260025
1772562830897968400,8.756968505859374,-0.0021228056866675615,-0.005293831694871187,0.0021020330023020506
1772562830908035300,8.767035400390625,-0.0037089844699949026,-0.006738596595823765,0.003746002446860075
1772562830918102300,8.777102294921875,-0.0043960800394415855,-0.004569451790302992,0.0033388049341738224
1772562830928169200,8.787169189453126,-0.001677525113336742,-0.0033984598703682423,0.004098072182387114
1772562830938236200,8.797236083984375,-0.0024114924017339945,-0.004530835896730423,0.0015028218040242791
1772562830948302600,8.807302490234376,-0.006424343679100275,-0.00512791657820344,0.002240517409518361
1772562830958370600,8.81737060546875,-0.0022008363157510757,-0.005786516238003969,0.004215783905237913
1772562830968437800,8.827437744140624,-0.004147606901824474,-0.005518868565559387,0.004531634971499443
1772562830978504700,8.837504638671875,-0.00432976707816124,-0.006816893350332975,0.00475400872528553
1772562830988571600,8.847571533203125,-0.003822701284661889,-0.005498894955962896,0.001130511867813766
1772562830998638600,8.857638671875,-0.0017390442080795765,-0.005864547099918127,0.0019182749092578888
1772562831008706600,8.86770654296875,-0.0017457021167501807,-0.0029582392890006304,0.0017808558186516166
1772562831018773500,8.8777734375,-0.0036282907240092754,-0.006928746122866869,0.0034168355632573366
1772562831028840400,8.88784033203125,-0.003023753175511956,-0.0027363980188965797,0.0027422569692134857
1772562831038907600,8.89790771484375,-0.002115082461386919,-0.003593935864046216,-0.00024314661277458072
1772562831048974600,8.907974609375,-0.005059473216533661,-0.004555869847536087,0.0021315941121429205
1772562831059042800,8.918042724609375,-0.0019417107105255127,-0.005395031534135342,0.0019299928098917007
1772562831069109800,8.92810986328125,-0.0016695356462150812,-0.007493336219340563,0.0025209481827914715
1772562831079176700,8.9381767578125,-0.0006846986943855882,-0.006582002621144056,0.000827177835162729
1772562831089243600,8.94824365234375,-0.0035867453552782536,-0.004024568945169449,0.0033816818613559008
1772562831099310600,8.958310546875,-0.002802710747346282,-0.0044983453117311,0.0034461303148418665
1772562831109377500,8.96837744140625,-0.004339887294918299,-0.007062170654535294,0.004752677399665117
1772562831119445500,8.978445556640626,-0.00318966805934906,-0.005630987696349621,0.0036932716611772776
1772562831129512400,8.988512451171875,-0.004530569538474083,-0.0043910201638937,0.0015068164793774486
1772562831139579600,8.99857958984375,-0.0011076086666435003,-0.004303401801735163,0.0008402272942475975
1772562831149646600,9.008646484375,0.00012969593808520585,-0.005846703890711069,0.003403786104172468
1772562831159713500,9.018713623046875,-0.0012900352012366056,-0.0037491980474442244,0.004347610287368298
1772562831169781800,9.02878173828125,-0.002877012826502323,-0.003985154442489147,0.00361790438182652
1772562831179848700,9.0388486328125,-0.003065032185986638,-0.005506884306669235,0.006007558666169643
1772562831189915600,9.04891552734375,-0.00370126124471426,-0.004491687286645174,0.003835218260064721
1772562831199982600,9.058982666015625,-0.0038189729675650597,-0.0036016590893268585,0.0018367822049185634
1772562831210049500,9.069049560546874,-0.004290885291993618,-0.0028250813484191895,0.005583849735558033
1772562831220117500,9.079117431640626,-0.0023427826818078756,-0.005022455472499132,0.003934287931770086
1772562831230184400,9.089184326171875,-0.003084206720814109,-0.00794607400894165,0.0014961638953536749
1772562831240251600,9.099251708984376,-0.003796336008235812,-0.0052051483653485775,0.004822452086955309
1772562831250318600,9.109318603515625,-0.004055994097143412,-0.007455519400537014,0.0021526331547647715
1772562831260385500,9.119385498046874,-0.004539091605693102,-0.00899882148951292,0.004948153160512447
1772562831270454500,9.12945458984375,-0.004047472029924393,-0.005905027035623789,0.003084739437326789
1772562831280521700,9.139521728515625,-0.0018066884949803352,-0.0049550775438547134,0.0011523497523739934
1772562831290588700,9.149588623046874,-0.005380650516599417,-0.0052259210497140884,0.004240817856043577
1772562831300655600,9.159655517578125,-0.002031459240242839,-0.003290868131443858,0.0022032330743968487
1772562831310722600,9.16972265625,-0.003492469433695078,-0.00569969741627574,0.004059722647070885
1772562831320790500,9.17979052734375,-0.005044027231633663,-0.00549197057262063,0.002877545543015003
1772562831330857500,9.189857421875,-0.0005211806274019182,-0.00475534051656723,0.0019065570086240768
1772562831340924400,9.19992431640625,-0.0038253646343946457,-0.005327120888978243,0.003111371072009206
1772562831350991400,9.209991455078125,-0.0026431872975081205,-0.006333529483526945,0.003849332919344306
1772562831361058600,9.22005859375,-0.002347842790186405,-0.007678159512579441,0.004583566449582577
1772562831371126500,9.23012646484375,-0.0026133600622415543,-0.0057218014262616634,0.002095108851790428
1772562831381193700,9.24019384765625,-0.0026581010315567255,-0.003029079409316182,0.0010873686987906694
1772562831391260700,9.2502607421875,-0.0041462755762040615,-0.005665875039994717,0.0023582291323691607
1772562831401327600,9.26032763671875,-0.004101534374058247,-0.005797435529530048,-0.000143544384627603
1772562831411394600,9.27039453125,-0.003284742822870612,-0.005303951445966959,0.0028450549580156803
1772562831421461500,9.28046142578125,-0.0036642432678490877,-0.005059739574790001,0.0028666264843195677
1772562831431529500,9.290529541015625,-0.0036610474344342947,-0.005012601613998413,0.002097505610436201
1772562831441596400,9.300596435546876,-0.003251187037676573,-0.003322559641674161,0.0014937670202925801
1772562831451663600,9.31066357421875,-0.0034442662727087736,-0.003908189013600349,0.0038543930277228355
1772562831461730600,9.32073046875,-0.003090864745900035,-0.004907673224806786,0.0027869981713593006
1772562831471797500,9.330797607421875,-0.0028687571175396442,-0.002115615177899599,0.0032288164366036654
1772562831481865700,9.34086572265625,-0.0037705034483224154,-0.006687730085104704,0.003838414093479514
1772562831491932700,9.3509326171875,-0.004341751337051392,-0.003817641409114003,0.003439738880842924
1772562831501999600,9.36099951171875,-0.004605138208717108,-0.0037119139451533556,0.004519384354352951
1772562831512066600,9.371066650390626,-0.004192880820482969,-0.004397411365061998,0.0032264196779578924
1772562831522133500,9.381133544921875,-0.004156395327299833,-0.005595833994448185,0.004956941585987806
1772562831532201500,9.391201416015624,-0.0046759783290326595,-0.004948153160512447,0.004422178957611322
1772562831542268400,9.401268310546875,-0.006570018362253904,-0.00896766223013401,0.0017512947088107467
1772562831552335600,9.411335693359375,-0.0023611586075276136,-0.0060150157660245895,0.003453853540122509
1772562831562402600,9.421402587890626,-0.004458131734281778,-0.004251470323652029,0.004084490239620209
1772562831572469500,9.431469482421875,-0.002092179376631975,-0.0034967304673045874,0.003254649229347706
1772562831582536700,9.44153662109375,-0.0019353191601112485,-0.003299123840406537,0.005391835700720549
1772562831592604700,9.451604736328125,-0.004346811678260565,-0.005664010997861624,0.002823217073455453
1772562831602671600,9.461671630859374,-0.0038658445701003075,-0.00692049041390419,-0.00025513084256090224
1772562831612738600,9.471738525390625,-0.002671949565410614,-0.004762264434248209,0.001918807509355247
1772562831622805500,9.481805419921875,-0.0023971113841980696,-0.005797169171273708,0.004225371405482292
1772562831632872700,9.491872802734376,-0.005048021674156189,-0.005315935704857111,0.004674646537750959
1772562831642940400,9.5019404296875,-0.0036509274505078793,-0.005035771057009697,0.0003259709046687931
1772562831653007600,9.512007568359374,-0.0047058057971298695,-0.004716724622994661,0.0014958975370973349
1772562831663074600,9.522074462890625,-0.004303668159991503,-0.0038924762047827244,0.005648031830787659
1772562831673141500,9.5321416015625,-0.0021140172611922026,-0.006907174363732338,0.0020069582387804985
1772562831683208400,9.54220849609375,-0.006179599091410637,-0.0049561429768800735,0.002122006844729185
1772562831693276700,9.552276611328125,-0.003509779926389456,-0.0041617220267653465,0.0020642161834985018
1772562831703343600,9.562343505859374,-0.003947603516280651,-0.003652791725471616,0.0034876756835728884
1772562831713410600,9.57241064453125,-0.001612011343240738,-0.005382515024393797,0.0041039311327040195
1772562831723477500,9.5824775390625,-0.0016982977977022529,-0.005411277059465647,0.003599262097850442
1772562831733544700,9.592544677734375,-0.003304982790723443,-0.005467736162245274,0.001651426195167005
1772562831743612400,9.6026123046875,-0.002380067016929388,-0.003765443339943886,0.0028796761762350798
1772562831753679600,9.6126796875,-0.003147589974105358,-0.004992628004401922,0.004055728204548359
1772562831763746600,9.62274658203125,-0.003162237349897623,-0.005844573490321636,0.003173955250531435
1772562831773813500,9.6328134765625,-0.0037324202712625265,-0.004054929129779339,0.0013073458103463054
1772562831783880400,9.64288037109375,-0.003242132253944874,-0.005495965480804443,0.0013134710025042295
1772562831793947600,9.65294775390625,-0.003183809109032154,-0.004829376470297575,0.002457298804074526
1772562831804015600,9.663015625,-0.0028884646017104387,-0.00660677021369338,0.0018959043081849813
1772562831814082600,9.67308251953125,-0.0028844696935266256,-0.004049070179462433,0.0032141690608114004
1772562831824149500,9.6831494140625,-0.0035441347863525152,-0.0029963224660605192,0.001987250754609704
1772562831834216700,9.693216796875,-0.0024314660113304853,-0.005893841851502657,0.0037297571543604136
1772562831844283600,9.70328369140625,-0.003138535423204303,-0.0035899411886930466,-0.00039654469583183527
1772562831854351600,9.7133515625,-0.004293548408895731,-0.006990531459450722,0.0009009473724290729
1772562831864418600,9.72341845703125,-0.001806155894882977,-0.003043726785108447,0.0016253271605819464
1772562831874485500,9.733485595703126,-0.0040914141573011875,-0.005636047571897507,0.003483148291707039
1772562831884552400,9.743552490234375,-0.002171008847653866,-0.004415787290781736,-0.00017417073831893504
1772562831894619400,9.753619384765624,-0.0035800873301923275,-0.0036599822342395782,0.003626426449045539
1772562831904687600,9.7636875,-0.001532116555608809,-0.005542304366827011,0.004035487771034241
1772562831914754600,9.773754638671875,-0.0019627497531473637,-0.005862416233867407,0.006548979319632053
1772562831924821500,9.783821533203126,-0.0016815199051052332,-0.005119927227497101,0.002697782125324011
1772562831934888700,9.793888671875,-0.004768656101077795,-0.0073716300539672375,0.004612861201167107
1772562831944956400,9.803956298828124,-0.003552923211827874,-0.003834951901808381,0.004351338837295771
1772562831955023600,9.814023681640625,-0.0036583843175321817,-0.0070520504377782345,0.0019244002178311348
1772562831965091600,9.824091552734375,-0.0032115059439092875,-0.005281048361212015,0.002400573343038559
1772562831975158500,9.834158447265626,-0.003540672594681382,-0.005583317019045353,0.005372128449380398
1772562831985225500,9.8442255859375,-0.004160390235483646,-0.004719121381640434,0.0012282498646527529
1772562831995292400,9.85429248046875,-0.002034655073657632,-0.0057558901607990265,0.0037942056078463793
1772562832005359600,9.864359619140625,-0.0015566176734864712,-0.0057652113027870655,0.0016647420125082135
1772562832015427600,9.874427490234375,-0.0031457259319722652,-0.0037494644057005644,0.0038895467296242714
1772562832025494500,9.88449462890625,-0.0034551850985735655,-0.0057279267348349094,0.001201884588226676
1772562832035561500,9.8945615234375,-0.0034874093253165483,-0.0029372002463787794,0.005708485841751099
1772562832045628700,9.904628662109374,-0.003312173532322049,-0.0029233519453555346,0.002691656816750765
1772562832055695600,9.914695556640625,-0.002998985582962632,-0.0028399948496371508,0.0028908613603562117
1772562832065763600,9.924763671875,-0.004424042999744415,-0.005381982307881117,0.006506102625280619
1772562832075830500,9.93483056640625,-0.0034136399626731873,-0.0038397456519305706,0.0042706448584795
1772562832085897500,9.9448974609375,-0.003236539661884308,-0.008860070258378983,0.00038962045800872147
1772562832095964400,9.95496435546875,-0.0019864519126713276,-0.003924434073269367,0.0012775183422490954
1772562832106031600,9.965031494140625,-0.003038134193047881,-0.00532552320510149,0.004264520015567541
1772562832116098600,9.9750986328125,-0.004895422607660294,-0.005817675497382879,0.0026434536557644606
1772562832126166500,9.98516650390625,-0.004126567859202623,-0.005922337528318167,0.004972654394805431
1772562832136233500,9.9952333984375,-0.0011763182701542974,-0.0054696002043783665,0.0024503744207322598
1772562832146300700,10.00530078125,-0.0019441075855866075,-0.004808337427675724,0.0012247877893969417
1772562832156367600,10.01536767578125,-0.0036855486687272787,-0.004327370319515467,0.003440005239099264
1772562832166434600,10.0254345703125,-0.0057497648522257805,-0.004444549325853586,0.000928111607208848
1772562832176502500,10.03550244140625,-0.0030538467690348625,-0.006934871431440115,0.005104747135192156
1772562832186569500,10.045569580078125,-0.0018793927738443017,-0.004157460760325193,0.00552179804071784
1772562832196636400,10.055636474609376,-0.0021766014397144318,-0.005490372888743877,0.00577959232032299
1772562832206703400,10.065703369140625,-0.005677326582372189,-0.006876814644783735,0.005857889074832201
1772562832216770600,10.0757705078125,-0.0027212179265916348,-0.005911951418966055,0.0019571571610867977
1772562832226838500,10.085838623046875,-0.0025893915444612503,-0.004779841285198927,-0.00023382554354611784
1772562832236905500,10.095905517578124,-0.0026578346733003855,-0.0031063109636306763,0.0015243934467434883
1772562832246972700,10.10597265625,-0.003910852130502462,-0.005973736755549908,0.0034615767654031515
1772562832257039600,10.11603955078125,-0.0027691549621522427,-0.005590241402387619,0.002153431996703148
1772562832267106600,10.1261064453125,-0.0020732709672302008,-0.005337773822247982,0.004129763692617416
1772562832277174500,10.136174560546875,-0.0018122810870409012,-0.00321896281093359,0.0037033918779343367
1772562832287241500,10.146241455078124,-0.001178182428702712,-0.003777693957090378,0.0013699301052838564
1772562832297308400,10.156308349609375,-0.0033401367254555225,-0.005259742960333824,0.004805141594260931
1772562832307375400,10.166375244140625,-0.0041529336012899876,-0.006086920853704214,0.006906109396368265
1772562832317442600,10.176442626953126,-0.004246410448104143,-0.003959055058658123,0.0018165421206504107
1772562832327509800,10.186509765625,-0.0041425470262765884,-0.005959089379757643,0.0026943201664835215
1772562832337577500,10.196577392578124,-0.0033241575583815575,-0.004461593925952911,0.0025627599097788334
1772562832347644700,10.206644775390625,-0.0008205199264921248,-0.006074137985706329,0.0019528960110619664
1772562832357711600,10.216711669921875,-0.0017752632265910506,-0.003775563556700945,0.004122839774936438
1772562832367778600,10.226778564453125,-0.0030951257795095444,-0.005311674904078245,0.0036661075428128242
1772562832377845500,10.236845458984375,-0.002892725635319948,-0.005499161314219236,0.0036719664931297302
1772562832387913500,10.24691357421875,-0.004406732507050037,-0.0035380094777792692,0.003082076320424676
1772562832397980400,10.25698046875,-0.0030487868934869766,-0.00634791050106287,0.005335110705345869
1772562832408047400,10.26704736328125,-0.0057098171673715115,-0.004211789462715387,0.0012876383261755109
1772562832418114300,10.2771142578125,-0.0041121868416666985,-0.004624845460057259,0.004472779110074043
1772562832428181800,10.287181640625,-0.003462908323854208,-0.005344431847333908,0.001517202821560204
1772562832438249500,10.29724951171875,-0.002995789982378483,-0.004346012603491545,0.001984587637707591
1772562832448316700,10.307316650390625,-0.0006231797160580754,-0.0026841999497264624,0.003784085623919964
1772562832458383600,10.317383544921874,-0.004205131437629461,-0.002567820018157363,0.005541771650314331
1772562832468450600,10.327450439453125,-0.000015446334145963192,-0.0044107274152338505,0.002621615771204233
1772562832478517500,10.337517578125,-0.004257329273968935,-0.0031667647417634726,0.005148156546056271
1772562832488584400,10.34758447265625,-0.0031198931392282248,-0.0051995557732880116,0.0054818508215248585
1772562832498652400,10.35765234375,-0.0037681066896766424,-0.0027230822015553713,0.002344380598515272
1772562832508719400,10.36771923828125,-0.002567553659901023,-0.0031252196058630943,0.006125270389020443
1772562832518786300,10.377786376953125,-0.00433029979467392,-0.005330316722393036,0.0024522386956959963
1772562832528853800,10.387853759765624,-0.0016421051695942879,-0.0035294874105602503,0.0029726203065365553
1772562832538920700,10.397920654296875,-0.0046845003962516785,-0.004035221878439188,0.0011877698125317693
1772562832548988700,10.40798876953125,-0.0017648768844082952,-0.004771851934492588,0.003972637467086315
1772562832559055600,10.4180556640625,-0.004415254574269056,-0.004984905011951923,0.0009068063227459788
1772562832569122600,10.42812255859375,-0.0027659591287374496,-0.005572398193180561,0.003748132847249508
1772562832579189500,10.438189453125,-0.0016666061710566282,-0.003531351685523987,0.0018961706664413214
1772562832589256400,10.44825634765625,-0.004554538056254387,-0.005346295889467001,0.001210406655445695
1772562832599324400,10.458324462890625,-0.0012085424968972802,-0.003763579297810793,0.001243696198798716
1772562832609391400,10.468391357421876,-0.003951598424464464,-0.0057652113027870655,0.004727909807115793
1772562832619458600,10.47845849609375,-0.0023363912478089333,-0.0046544065698981285,0.0035537220537662506
1772562832629525500,10.488525390625,-0.002832538215443492,-0.005292499903589487,0.002510828198865056
1772562832639592700,10.4985927734375,-0.0036567864008247852,-0.003905525663867593,0.0011339739430695772
1772562832649660700,10.50866064453125,-0.0033771544694900513,-0.00436145905405283,0.0009294432238675654
1772562832659727600,10.5187275390625,-0.002840261207893491,-0.0036762275267392397,-0.0010154632618650794
1772562832669794600,10.528794677734375,-0.004444282967597246,-0.005883188918232918,0.0023039006628096104
1772562832679861500,10.538861572265626,-0.003744937013834715,-0.005531651899218559,0.0023723437916487455
1772562832689928400,10.548928466796875,-0.00407383730635047,-0.0041366880759596825,0.004681038204580545
1772562832699995400,10.558995361328124,-0.0036786242853850126,-0.004216316621750593,0.002281796419993043
1772562832710063400,10.5690634765625,-0.0024833977222442627,-0.00503949960693717,0.004832305945456028
1772562832720130600,10.579130615234375,-0.003245061729103327,-0.004877313040196896,0.0019236012594774365
1772562832730197500,10.589197509765626,-0.0033217607997357845,-0.004860801622271538,0.0031380027066916227
1772562832740264700,10.5992646484375,-0.002159823663532734,-0.0031609057914465666,0.0005611280212178826
1772562832750331600,10.60933154296875,-0.002132659312337637,-0.005687180440872908,0.00458756135776639
1772562832760399600,10.619399658203125,-0.0030887341126799583,-0.006345780100673437,0.0025036376900970936
1772562832770466600,10.629466552734375,-0.004205131437629461,-0.004062385763972998,0.004267715383321047
1772562832780533500,10.639533447265626,-0.00321922916918993,-0.0054906392470002174,0.002625077962875366
1772562832790600400,10.649600341796875,-0.0028045750223100185,-0.004327103961259127,0.0012628709664568305
1772562832800667600,10.659667724609376,-0.004356665071099997,-0.005283178761601448,0.0021523667965084314
1772562832810735400,10.6697353515625,-0.003285009181126952,-0.004765460267663002,0.0025835325941443443
1772562832820802600,10.679802490234374,-0.0010229201288893819,-0.004166249185800552,0.0025920546613633633
1772562832830869500,10.689869384765625,-0.0031755531672388315,-0.0047090016305446625,0.002840527566149831
1772562832840936400,10.6999365234375,-0.0014682007022202015,-0.005215268116444349,0.005089034326374531
1772562832851003600,10.710003662109376,-0.002085521351546049,-0.0032764871139079332,0.002584864152595401
1772562832861071600,10.720071533203125,-0.004773450084030628,-0.00293267285451293,0.003930026665329933
1772562832871138600,10.730138671875,-0.003230680711567402,-0.004704740364104509,0.004628574009984732
1772562832881205500,10.74020556640625,-0.004547347314655781,-0.005360943265259266,0.004820853937417269
1772562832891272400,10.7502724609375,-0.0024796691723167896,-0.006347111891955137,0.003022687742486596
1772562832901339600,10.760339599609376,-0.003996605984866619,-0.004817125853151083,0.0049673281610012054
1772562832911406600,10.770406494140625,-0.0014588796766474843,-0.004186755511909723,0.0019941749051213264
1772562832921474600,10.780474609375,-0.0035425368696451187,-0.00487278588116169,0.000937166390940547
1772562832931541500,10.79054150390625,-0.005021656397730112,-0.006143113598227501,0.0046296389773488045
1772562832941608400,10.8006083984375,-0.003177151083946228,-0.0044320328161120415,0.0046477485448122025
1772562832951675400,10.81067529296875,0.0003062635369133204,-0.0014197311829775572,0.003251453395932913
1772562832961742300,10.820742431640625,-0.003032008884474635,-0.004750812891870737,0.003358246060088277
1772562832971810300,10.830810302734376,-0.0018050905782729387,-0.004123372491449118,0.0028807413764297962
1772562832981877200,10.840877197265625,-0.0018700717482715845,-0.003224022686481476,0.004589958116412163
1772562832991944200,10.850944091796874,-0.003519367426633835,-0.00381471193395555,0.001186970854178071
1772562833002011400,10.861011474609375,-0.004343882203102112,-0.004605404566973448,0.0023579627741128206
1772562833012078600,10.87107861328125,-0.0046546729281544685,-0.003894340479746461,0.003011502558365464
1772562833022146600,10.881146484375,-0.0014588796766474843,-0.004198473412543535,0.002558765234425664
1772562833032213500,10.891213623046875,-0.003634948516264558,-0.004459196701645851,0.00261868629604578
1772562833042280400,10.901280517578124,-0.0033989925868809223,-0.005707953125238419,0.0038432078436017036
1772562833052347400,10.911347412109375,-0.0025390577502548695,-0.00555056007578969,0.0016740630380809307
1772562833062414300,10.921414306640624,-0.0020868529099971056,-0.0035774242132902145,0.0034581145737320185
1772562833072481300,10.931481201171875,-0.000895621080417186,-0.003994475118815899,0.005191832315176725
1772562833082549200,10.94154931640625,-0.0026575683150440454,-0.00481446273624897,0.0028091021813452244
1772562833092616200,10.9516162109375,-0.0007094661123119295,-0.004018443636596203,-0.00022397184511646628
1772562833102683400,10.961683349609375,-0.0011552792275324464,-0.006462692748755217,0.005566272884607315
1772562833112750600,10.97175048828125,-0.004079164005815983,-0.006472546607255936,0.0024655545130372047
1772562833122817500,10.981817626953125,-0.0028394623659551144,-0.004789961501955986,0.000595216522924602
1772562833132885500,10.991885498046875,-0.0030682277865707874,-0.0032378712203353643,0.002294047037139535
1772562833142952400,11.001952392578126,-0.005373726598918438,-0.004191549029201269,0.0032509206794202328
1772562833153019400,11.012019287109375,-0.0013875069562345743,-0.003906590864062309,0.003305781865492463
1772562833163086300,11.02208642578125,-0.0032048479188233614,-0.0049345712177455425,0.0046823699958622456
1772562833173153300,11.0321533203125,-0.003867442486807704,-0.006585464812815189,0.00395745737478137
1772562833183221200,11.04222119140625,-0.0029736857395619154,-0.004579305648803711,0.005840578582137823
1772562833193288400,11.052288330078126,-0.00224903947673738,-0.005090898834168911,0.00475347600877285
1772562833203355400,11.06235546875,-0.0018825886072590947,-0.003944940399378538,0.0020572920329868793
1772562833213422300,11.07242236328125,-0.0012343751732259989,-0.004220577888190746,0.003251187037676573
1772562833223489500,11.082489501953125,-0.0046999468468129635,-0.006322077941149473,0.0040943436324596405
1772562833233557500,11.0925576171875,-0.003719637170433998,-0.004171309061348438,-0.0011771172285079956
1772562833243624400,11.10262451171875,-0.002138518262654543,-0.005788647104054689,0.0024495755787938833
1772562833253691400,11.11269140625,-0.0024410535115748644,-0.004820853937417269,0.00202293717302382
1772562833263758300,11.12275830078125,-0.0013339773286134005,-0.006000102031975985,0.0016636766958981752
1772562833273825300,11.1328251953125,-0.005539641249924898,-0.008641424588859081,0.005980394314974546
1772562833283893200,11.142893310546874,-0.003620301140472293,-0.005004079546779394,0.003522030543535948
1772562833293960400,11.15296044921875,-0.0035481294617056847,-0.0057100835256278515,0.0036844832357019186
1772562833304027400,11.16302734375,-0.0019859191961586475,-0.003967044875025749,0.0067452541552484035
1772562833314094300,11.17309423828125,-0.0035806200467050076,-0.0025308020412921906,0.0005544701125472784
1772562833324161500,11.18316162109375,-0.0030517163686454296,-0.0049313753843307495,0.0041822283528745174
1772562833334228500,11.193228515625,-0.0016844493802636862,-0.006006227340549231,0.003102316288277507
1772562833344296400,11.20329638671875,-0.002603506203740835,-0.003727360162883997,0.0006138586322776973
1772562833354363400,11.21336328125,-0.003294063964858651,-0.0025936525780707598,0.004737497307360172
1772562833364430300,11.223430419921876,-0.003704723436385393,-0.003908189013600349,0.0023901870008558035
1772562833374497500,11.23349755859375,-0.002510561840608716,-0.004567055031657219,-0.0004655205411836505
1772562833384564500,11.243564453125,-0.0022114890161901712,-0.0030397321097552776,0.006682670209556818
1772562833394632400,11.253632568359375,-0.002724946476519108,-0.005450691562145948,0.005695968866348267
1772562833404699400,11.263699462890624,-0.003171558491885662,-0.006758303847163916,0.0016887104138731956
1772562833414766300,11.273766357421875,-0.004789428785443306,-0.0048948898911476135,0.004463724326342344
1772562833424833300,11.283833251953125,-0.0034738273825496435,-0.0034269557800143957,0.005873069167137146
1772562833434900500,11.293900390625,-0.0010021475609391928,-0.004535629414021969,0.006428870838135481
1772562833444968400,11.303968505859375,-0.004002464935183525,-0.007769772317260504,0.005121791269630194
1772562833455035400,11.314035400390624,-0.0006237123161554337,-0.0018985675415024161,0.0017779263434931636
1772562833465102300,11.324102294921875,-0.0043683829717338085,-0.006036054342985153,0.0033017871901392937
1772562833475169500,11.33416943359375,-0.0036368127912282944,-0.0041734399273991585,0.004794222768396139
1772562833485236500,11.344236572265626,-0.0028040423057973385,-0.0022274679504334927,0.0001549959706608206
1772562833495303400,11.354303466796875,-0.003667971817776561,-0.0051739891059696674,0.007924768142402172
1772562833505371400,11.364371337890624,-0.0019254654180258512,-0.003364904085174203,0.0024857944808900356
1772562833515438300,11.374438232421875,-0.0012026835465803742,-0.0028988507110625505,0.0009523464250378311
1772562833525505300,11.38450537109375,-0.0036615801509469748,-0.006669620517641306,0.0024740765802562237
1772562833535572500,11.394572509765625,-0.007911984808743,-0.005629922728985548,0.004159058444201946
1772562833545639400,11.404639404296875,-0.002683134749531746,-0.006579872220754623,0.003941478207707405
1772562833555707400,11.414707275390626,-0.0029081718530505896,-0.0057383133098483086,0.005298891570419073
1772562833565774300,11.4247744140625,-0.0036216326989233494,-0.00461712246760726,0.00023302659974433482
1772562833575841500,11.434841552734374,-0.001543834456242621,-0.003299123840406537,-0.00017097493400797248
1772562833585908500,11.444908447265625,-0.0017326525412499905,-0.003832022426649928,0.0009784454014152288
1772562833595975400,11.454975341796874,-0.0033446638844907284,-0.00695005152374506,0.0000021305288555595325
1772562833606043400,11.46504345703125,-0.0026559706311672926,-0.003881557146087289,0.0014335796004161239
1772562833616110300,11.4751103515625,-0.0032147017773240805,-0.0060328589752316475,0.005620335228741169
1772562833626177300,11.48517724609375,-0.0021315941121429205,-0.005051750224083662,0.0028642297256737947
1772562833636244200,11.495244140625,-0.0020642161834985018,-0.002915895078331232,0.0057076867669820786
1772562833646311400,11.5053115234375,-0.0028599686920642853,-0.006699181627482176,0.0020117517560720444
1772562833656379400,11.51537939453125,-0.0018341189716011286,-0.0049103363417088985,0.0019944412633776665
1772562833666446300,11.5254462890625,-0.001487641828134656,-0.004686098080128431,0.005526858381927013
1772562833676513500,11.535513427734376,-0.0034850125666707754,-0.006654706783592701,0.002752110594883561
1772562833686580500,11.54558056640625,-0.0051564122550189495,-0.004927114117890596,0.004029895178973675
1772562833696647400,11.5556474609375,-0.0035449336282908916,-0.004530569538474083,-0.0021752698812633753
1772562833706714400,11.56571435546875,-0.005672533065080643,-0.007792675402015448,0.0059907808899879456
1772562833716782300,11.5757822265625,-0.004427505191415548,-0.005405950825661421,0.00364693277515471
1772562833726849300,11.585849365234376,-0.004308462142944336,-0.005234176758676767,0.0049103363417088985
1772562833736916200,11.595916259765625,-0.003825897118076682,-0.006314621306955814,0.0023465112317353487
1772562833746983400,11.6059833984375,-0.0028660940006375313,-0.0038693067617714405,0.005154814571142197
1772562833757050600,11.616050537109375,-0.0017337178578600287,-0.0035412053111940622,0.0006522081675939262
1772562833767118300,11.626118408203125,-0.004609399009495974,-0.0043990095146000385,0.0020237360149621964
1772562833777185500,11.636185546875,-0.0036764938849955797,-0.005672533065080643,0.0023995081428438425
1772562833787252500,11.64625244140625,-0.003090332029387355,-0.005360410548746586,0.005876265000551939
1772562833797319400,11.6563193359375,-0.002778209513053298,-0.005671467632055283,0.002171008847653866
1772562833807386400,11.666386474609375,-0.005780923645943403,-0.0065170214511454105,0.005189169198274612
1772562833817454300,11.676454345703124,-0.0033723609521985054,-0.005393433850258589,0.0017209346406161785
1772562833827521300,11.686521240234375,-0.0030684941448271275,-0.0047058057971298695,0.004324174486100674
1772562833837588200,11.696588134765625,-0.0019824570044875145,-0.00637773796916008,0.0018817896489053965
1772562833847655400,11.706655517578126,-0.003594202222302556,-0.006682403851300478,0.00418409239500761
1772562833857722600,11.71672265625,-0.0030418625101447105,-0.00666482700034976,0.004677309654653072
1772562833867790300,11.726790283203124,-0.0007725830073468387,-0.002755040070042014,0.00458836043253541
1772562833877857500,11.736857421875,-0.006897587329149246,-0.0038461373187601566,0.0035808864049613476
1772562833887924500,11.746924560546875,-0.004494084510952234,-0.004009388852864504,0.004767857491970062
