time,seconds_elapsed,z,y,x
1772562774617230800,0.05623095703125,-0.9816436767578125,-0.0148162841796875,0.0468902587890625
1772562774627297800,0.0662978515625,-0.969024658203125,-0.01666259765625,0.0570220947265625
1772562774637365000,0.076364990234375,-0.9749908447265625,-0.0144195556640625,0.0603179931640625
1772562774647432000,0.086431884765625,-0.982025146484375,-0.0146942138671875,0.0489044189453125
1772562774657499000,0.096498779296875,-0.9999542236328125,-0.0170440673828125,0.040008544921875
1772562774667567000,0.106567138671875,-1.018280029296875,-0.0145416259765625,0.0391845703125
1772562774677634000,0.116634033203125,-1.0085906982421875,-0.0147705078125,0.0442657470703125
1772562774687701000,0.126700927734375,-0.9814605712890625,-0.014495849609375,0.05133056640625
1772562774697768000,0.136767822265625,-0.971588134765625,-0.0144195556640625,0.055633544921875
1772562774707835000,0.1468349609375,-0.9803924560546875,-0.0153045654296875,0.0520782470703125
1772562774717901800,0.15690185546875,-0.9974365234375,-0.0145263671875,0.04766845703125
1772562774727969000,0.166968994140625,-1.006500244140625,-0.0155181884765625,0.041290283203125
1772562774738037000,0.177037109375,-1.003204345703125,-0.01629638671875,0.0422821044921875
1772562774748104000,0.18710400390625,-0.99444580078125,-0.0146331787109375,0.0470733642578125
1772562774758171000,0.1971708984375,-0.9853057861328125,-0.0145263671875,0.049713134765625
1772562774768237800,0.20723779296875,-0.979949951171875,-0.0159454345703125,0.0517730712890625
1772562774778304800,0.2173046875,-0.985809326171875,-0.015960693359375,0.0515899658203125
1772562774788371700,0.227371826171875,-0.9966278076171875,-0.015655517578125,0.0457305908203125
1772562774798440000,0.23743994140625,-1.0044097900390625,-0.0150146484375,0.04376220703125
1772562774808507000,0.2475068359375,-0.9967803955078125,-0.01422119140625,0.0464630126953125
1772562774818573800,0.25757373046875,-0.9866790771484375,-0.0152435302734375,0.0482940673828125
1772562774828641000,0.26764111328125,-0.9843597412109375,-0.013824462890625,0.04986572265625
1772562774838708000,0.2777080078125,-0.9855804443359375,-0.0147247314453125,0.0509490966796875
1772562774848775000,0.28777490234375,-0.9920196533203125,-0.0159454345703125,0.0468292236328125
1772562774858841900,0.297841796875,-0.99615478515625,-0.0137939453125,0.0442352294921875
1772562774868909800,0.307909912109375,-0.99859619140625,-0.0155487060546875,0.0472259521484375
1772562774878976800,0.317976806640625,-0.9929656982421875,-0.0168609619140625,0.048858642578125
1772562774889043700,0.328043701171875,-0.9866180419921875,-0.01568603515625,0.0485687255859375
1772562774899111000,0.33811083984375,-0.9868927001953125,-0.014312744140625,0.0491485595703125
1772562774909177900,0.348177734375,-0.9915313720703125,-0.012786865234375,0.049346923828125
1772562774919244800,0.358244873046875,-0.99456787109375,-0.0158843994140625,0.046600341796875
1772562774929311700,0.368311767578125,-0.9955902099609375,-0.0152130126953125,0.0466766357421875
1772562774939380000,0.3783798828125,-0.9933624267578125,-0.0160675048828125,0.0462493896484375
1772562774949447000,0.388447021484375,-0.989715576171875,-0.015625,0.0463104248046875
1772562774959513900,0.398513916015625,-0.9886474609375,-0.0147552490234375,0.0485992431640625
1772562774969580800,0.408580810546875,-0.98834228515625,-0.01361083984375,0.049102783203125
1772562774979648000,0.41864794921875,-0.9923858642578125,-0.01519775390625,0.0464324951171875
1772562774989715000,0.42871484375,-0.995208740234375,-0.0164337158203125,0.045379638671875
1772562774999783000,0.438782958984375,-0.9932403564453125,-0.0153656005859375,0.04620361328125
1772562775009849900,0.448849853515625,-0.991424560546875,-0.0163421630859375,0.047882080078125
1772562775019916800,0.458916748046875,-0.9895782470703125,-0.015045166015625,0.0476226806640625
1772562775029983700,0.468983642578125,-0.989044189453125,-0.015167236328125,0.0490264892578125
1772562775040050700,0.47905078125,-0.9910736083984375,-0.0142059326171875,0.0461883544921875
1772562775050117600,0.48911767578125,-0.993743896484375,-0.01531982421875,0.0445556640625
1772562775060184800,0.499184814453125,-0.9939117431640625,-0.0151214599609375,0.0462188720703125
1772562775070252800,0.509252685546875,-0.9933624267578125,-0.015625,0.047119140625
1772562775080320000,0.519320068359375,-0.989501953125,-0.014404296875,0.0487213134765625
1772562775090387000,0.529386962890625,-0.9893951416015625,-0.0147552490234375,0.049041748046875
1772562775100454000,0.539453857421875,-0.9905242919921875,-0.0146636962890625,0.0475311279296875
1772562775110520800,0.549520751953125,-0.9911346435546875,-0.0142974853515625,0.0465850830078125
1772562775120587800,0.559587890625,-0.9940643310546875,-0.014373779296875,0.046356201171875
1772562775130654700,0.56965478515625,-0.9921417236328125,-0.01580810546875,0.04632568359375
1772562775140722700,0.57972265625,-0.99163818359375,-0.0165863037109375,0.047454833984375
1772562775150789600,0.58978955078125,-0.98992919921875,-0.016693115234375,0.048309326171875
1772562775160856800,0.59985693359375,-0.9903106689453125,-0.0158233642578125,0.0482025146484375
1772562775170923800,0.609923828125,-0.9924774169921875,-0.016510009765625,0.04852294921875
1772562775180991000,0.619990966796875,-0.9920806884765625,-0.013885498046875,0.04669189453125
1772562775191058000,0.630057861328125,-0.99371337890625,-0.0136566162109375,0.0462646484375
1772562775201126000,0.6401259765625,-0.992218017578125,-0.016082763671875,0.0453643798828125
1772562775211192800,0.65019287109375,-0.99114990234375,-0.015380859375,0.047607421875
1772562775221259800,0.660259765625,-0.9908599853515625,-0.0162811279296875,0.0487213134765625
1772562775231326700,0.67032666015625,-0.9912109375,-0.014892578125,0.0487518310546875
1772562775241394000,0.680393798828125,-0.9907073974609375,-0.0157318115234375,0.04779052734375
1772562775251460900,0.6904609375,-0.99261474609375,-0.016082763671875,0.04754638671875
1772562775261527800,0.70052783203125,-0.993408203125,-0.0150299072265625,0.045928955078125
1772562775271595800,0.710595703125,-0.9918212890625,-0.0142974853515625,0.047271728515625
1772562775281663000,0.7206630859375,-0.99072265625,-0.0160675048828125,0.0486297607421875
1772562775291730000,0.73072998046875,-0.98876953125,-0.01470947265625,0.048858642578125
1772562775301796900,0.740796875,-0.9911651611328125,-0.014404296875,0.0469970703125
1772562775311863800,0.75086376953125,-0.9913177490234375,-0.0142822265625,0.0484466552734375
1772562775321931000,0.760930908203125,-0.9928436279296875,-0.014312744140625,0.0467681884765625
1772562775331998000,0.770998046875,-0.992218017578125,-0.0157470703125,0.0462799072265625
1772562775342066000,0.78106591796875,-0.9922943115234375,-0.0153961181640625,0.0469818115234375
1772562775352132900,0.7911328125,-0.9918365478515625,-0.015045166015625,0.0485992431640625
1772562775362199800,0.80119970703125,-0.9912567138671875,-0.0149078369140625,0.0478057861328125
1772562775372266800,0.811266845703125,-0.992523193359375,-0.015380859375,0.0485992431640625
1772562775382333700,0.821333740234375,-0.99249267578125,-0.014556884765625,0.047698974609375
1772562775392400600,0.831400634765625,-0.99224853515625,-0.0156402587890625,0.046783447265625
1772562775402467800,0.8414677734375,-0.9915924072265625,-0.0155792236328125,0.046661376953125
1772562775412535800,0.851535888671875,-0.990997314453125,-0.0146942138671875,0.0482330322265625
1772562775422603000,0.86160302734375,-0.9929656982421875,-0.0143890380859375,0.046173095703125
1772562775432670000,0.871669921875,-0.9922637939453125,-0.01519775390625,0.0491485595703125
1772562775442737000,0.88173681640625,-0.9927215576171875,-0.0136566162109375,0.048553466796875
1772562775452803800,0.891803955078125,-0.992645263671875,-0.0143890380859375,0.0480804443359375
1772562775462870800,0.901870849609375,-0.992523193359375,-0.0163116455078125,0.04742431640625
1772562775472938800,0.911938720703125,-0.9929962158203125,-0.0147552490234375,0.0489959716796875
1772562775483005700,0.922005615234375,-0.9911651611328125,-0.014068603515625,0.0474700927734375
1772562775493072600,0.93207275390625,-0.9923095703125,-0.01568603515625,0.047332763671875
1772562775503139800,0.942139892578125,-0.991790771484375,-0.0162506103515625,0.0459747314453125
1772562775513206800,0.952206787109375,-0.992584228515625,-0.01544189453125,0.0477447509765625
1772562775523273700,0.962273681640625,-0.991729736328125,-0.0153961181640625,0.0447845458984375
1772562775533341000,0.9723408203125,-0.992340087890625,-0.0153656005859375,0.0470428466796875
1772562775543409000,0.982408935546875,-0.9916229248046875,-0.0160675048828125,0.046630859375
1772562775553475800,0.992475830078125,-0.9928436279296875,-0.0145416259765625,0.04522705078125
1772562775563542800,1.002542724609375,-0.992156982421875,-0.0145263671875,0.0464019775390625
1772562775573609700,1.012609619140625,-0.9945068359375,-0.0149688720703125,0.04766845703125
1772562775583677000,1.022677001953125,-0.993316650390625,-0.01513671875,0.046966552734375
1772562775593744000,1.032743896484375,-0.99267578125,-0.0136260986328125,0.047882080078125
1772562775603810800,1.042810791015625,-0.9903411865234375,-0.0148773193359375,0.0482940673828125
1772562775613878800,1.052878662109375,-0.991851806640625,-0.0146331787109375,0.0480194091796875
1772562775623945700,1.06294580078125,-0.992767333984375,-0.0139007568359375,0.0464935302734375
1772562775634013000,1.073012939453125,-0.992401123046875,-0.0139007568359375,0.0476837158203125
1772562775644079900,1.083079833984375,-0.99267578125,-0.0139312744140625,0.0482940673828125
1772562775654146800,1.093146728515625,-0.9923553466796875,-0.0149078369140625,0.047027587890625
1772562775664214000,1.103214111328125,-0.9923553466796875,-0.015411376953125,0.046417236328125
1772562775674281700,1.11328173828125,-0.990875244140625,-0.0153045654296875,0.0466156005859375
1772562775684349000,1.123348876953125,-0.99224853515625,-0.0148468017578125,0.0472869873046875
1772562775694416000,1.133415771484375,-0.99163818359375,-0.0152130126953125,0.0471038818359375
1772562775704482800,1.14348291015625,-0.99127197265625,-0.0149078369140625,0.0482635498046875
1772562775714549800,1.1535498046875,-0.9915313720703125,-0.014739990234375,0.0459747314453125
1772562775724616700,1.16361669921875,-0.9926910400390625,-0.01507568359375,0.047027587890625
1772562775734683600,1.17368359375,-0.990478515625,-0.01483154296875,0.0462188720703125
1772562775744751900,1.183751953125,-0.9924774169921875,-0.0149078369140625,0.04791259765625
1772562775754818800,1.19381884765625,-0.9931488037109375,-0.0153350830078125,0.048736572265625
1772562775764886000,1.203885986328125,-0.99151611328125,-0.016998291015625,0.0486602783203125
1772562775774953000,1.213952880859375,-0.99078369140625,-0.0159454345703125,0.0480499267578125
1772562775785020000,1.22402001953125,-0.9925689697265625,-0.014923095703125,0.046600341796875
1772562775795086800,1.2340869140625,-0.9910430908203125,-0.0157318115234375,0.0482635498046875
1772562775805153800,1.24415380859375,-0.992218017578125,-0.0139312744140625,0.0474853515625
1772562775815221800,1.2542216796875,-0.9924774169921875,-0.014495849609375,0.0466766357421875
1772562775825288700,1.264288818359375,-0.99188232421875,-0.01422119140625,0.0476226806640625
1772562775835355600,1.274355712890625,-0.9903717041015625,-0.013763427734375,0.04632568359375
1772562775845422800,1.2844228515625,-0.992095947265625,-0.013702392578125,0.0475616455078125
1772562775855489800,1.29448974609375,-0.9909210205078125,-0.01434326171875,0.047454833984375
1772562775865556700,1.304556640625,-0.9932708740234375,-0.0153656005859375,0.0466766357421875
1772562775875624000,1.3146240234375,-0.9917449951171875,-0.0156097412109375,0.0472412109375
1772562775885692000,1.32469189453125,-0.99176025390625,-0.0153045654296875,0.048187255859375
1772562775895758800,1.3347587890625,-0.990692138671875,-0.0161285400390625,0.04669189453125
1772562775905825800,1.34482568359375,-0.993499755859375,-0.01617431640625,0.0485382080078125
1772562775915892700,1.354892822265625,-0.9914093017578125,-0.0145111083984375,0.0472564697265625
1772562775925960000,1.3649599609375,-0.99249267578125,-0.0166473388671875,0.046295166015625
1772562775936027000,1.37502685546875,-0.993499755859375,-0.01611328125,0.047271728515625
1772562775946094800,1.3850947265625,-0.9917449951171875,-0.015350341796875,0.04730224609375
1772562775956161800,1.395161865234375,-0.99200439453125,-0.0155792236328125,0.04705810546875
1772562775966228700,1.405228759765625,-0.9913330078125,-0.0139007568359375,0.0471649169921875
1772562775976295700,1.415295654296875,-0.990936279296875,-0.01495361328125,0.0471649169921875
1772562775986362600,1.425362548828125,-0.9918060302734375,-0.013824462890625,0.0467529296875
1772562775996429600,1.4354296875,-0.9931488037109375,-0.0129547119140625,0.046600341796875
1772562776006496800,1.445496826171875,-0.9924468994140625,-0.0152587890625,0.04766845703125
1772562776016564700,1.455564697265625,-0.993133544921875,-0.015106201171875,0.048004150390625
1772562776026632000,1.4656318359375,-0.991424560546875,-0.01397705078125,0.04803466796875
1772562776036699000,1.475698974609375,-0.9923553466796875,-0.0145263671875,0.048614501953125
1772562776046765800,1.485765869140625,-0.99310302734375,-0.016082763671875,0.0455780029296875
1772562776056832800,1.495832763671875,-0.9920806884765625,-0.014007568359375,0.0463104248046875
1772562776066899700,1.505899658203125,-0.991973876953125,-0.014801025390625,0.047821044921875
1772562776076967700,1.5159677734375,-0.992401123046875,-0.01422119140625,0.0464935302734375
1772562776087034600,1.52603466796875,-0.9925384521484375,-0.015411376953125,0.0478668212890625
1772562776097101600,1.5361015625,-0.9929046630859375,-0.015472412109375,0.048004150390625
1772562776107168800,1.546168701171875,-0.99249267578125,-0.014617919921875,0.0479736328125
1772562776117236000,1.556236083984375,-0.99224853515625,-0.0145416259765625,0.049041748046875
1772562776127303000,1.566302978515625,-0.9931640625,-0.014678955078125,0.04754638671875
1772562776137369900,1.576369873046875,-0.993133544921875,-0.014617919921875,0.047760009765625
1772562776147437800,1.586437744140625,-0.9940948486328125,-0.0137786865234375,0.0472869873046875
1772562776157504800,1.5965048828125,-0.9905853271484375,-0.0145263671875,0.04644775390625
1772562776167571700,1.60657177734375,-0.991973876953125,-0.015594482421875,0.048309326171875
1772562776177638700,1.616638671875,-0.9911956787109375,-0.01495361328125,0.0480499267578125
1772562776187705900,1.626705810546875,-0.9923553466796875,-0.0158843994140625,0.047210693359375
1772562776197772800,1.636772705078125,-0.993194580078125,-0.0155181884765625,0.0484619140625
1772562776207839700,1.64683984375,-0.9911956787109375,-0.0143280029296875,0.04742431640625
1772562776217907700,1.65690771484375,-0.992034912109375,-0.015167236328125,0.047149658203125
1772562776227975000,1.666974853515625,-0.9908294677734375,-0.0144500732421875,0.0457611083984375
1772562776238041900,1.677041748046875,-0.9926910400390625,-0.014373779296875,0.0482025146484375
1772562776248108800,1.68710888671875,-0.99151611328125,-0.0160369873046875,0.04791259765625
1772562776258175700,1.69717578125,-0.9930572509765625,-0.0145721435546875,0.0481719970703125
1772562776268243000,1.707242919921875,-0.9916229248046875,-0.0149993896484375,0.0471038818359375
1772562776278310000,1.717309814453125,-0.99285888671875,-0.0153656005859375,0.0480499267578125
1772562776288377900,1.7273779296875,-0.9918365478515625,-0.0146484375,0.0478515625
1772562776298444800,1.73744482421875,-0.9922027587890625,-0.0156402587890625,0.0497589111328125
1772562776308511700,1.74751171875,-0.9911651611328125,-0.016357421875,0.046661376953125
1772562776318578700,1.75757861328125,-0.9923248291015625,-0.0158538818359375,0.047698974609375
1772562776328645600,1.767645751953125,-0.9901580810546875,-0.0154571533203125,0.0467071533203125
1772562776338712600,1.777712646484375,-0.9912261962890625,-0.0168609619140625,0.048797607421875
1772562776348780800,1.78778076171875,-0.9911956787109375,-0.0151824951171875,0.047637939453125
1772562776358847700,1.79784765625,-0.991668701171875,-0.0144805908203125,0.047576904296875
1772562776368915000,1.8079150390625,-0.990997314453125,-0.0150604248046875,0.046783447265625
1772562776378982000,1.81798193359375,-0.9916534423828125,-0.015350341796875,0.0474853515625
1772562776389048800,1.828048828125,-0.992523193359375,-0.0144805908203125,0.04815673828125
1772562776399115800,1.83811572265625,-0.9920501708984375,-0.0138092041015625,0.046844482421875
1772562776409182700,1.8481826171875,-0.99176025390625,-0.015655517578125,0.0456695556640625
1772562776419250700,1.858250732421875,-0.9920806884765625,-0.01458740234375,0.047760009765625
1772562776429317600,1.868317626953125,-0.9920806884765625,-0.0143280029296875,0.046722412109375
1772562776439384600,1.878384521484375,-0.9915618896484375,-0.01507568359375,0.04718017578125
1772562776449451800,1.88845166015625,-0.9918975830078125,-0.0152130126953125,0.0466461181640625
1772562776459518700,1.898518798828125,-0.99334716796875,-0.0146484375,0.04705810546875
1772562776469586000,1.9085859375,-0.99261474609375,-0.016021728515625,0.0462493896484375
1772562776479652900,1.91865283203125,-0.9916534423828125,-0.0159912109375,0.0484466552734375
1772562776489720800,1.928720947265625,-0.9914093017578125,-0.0147247314453125,0.0482635498046875
1772562776499787800,1.938787841796875,-0.9915924072265625,-0.0157318115234375,0.0463714599609375
1772562776509854700,1.948854736328125,-0.9911041259765625,-0.014312744140625,0.0468902587890625
1772562776519921700,1.958921630859375,-0.9922943115234375,-0.0161285400390625,0.04638671875
1772562776529988900,1.96898876953125,-0.992645263671875,-0.0162353515625,0.0458221435546875
1772562776540055800,1.979055908203125,-0.9913482666015625,-0.0150604248046875,0.0470428466796875
1772562776550123800,1.989123779296875,-0.991455078125,-0.014556884765625,0.0467529296875
1772562776560190700,1.999190673828125,-0.990478515625,-0.0153961181640625,0.0473480224609375
1772562776570257700,2.009257568359375,-0.9915771484375,-0.0159759521484375,0.0472564697265625
1772562776580324900,2.019324951171875,-0.9918212890625,-0.0146484375,0.0460968017578125
1772562776590391800,2.029391845703125,-0.9907989501953125,-0.015167236328125,0.046478271484375
1772562776600458800,2.039458740234375,-0.9916229248046875,-0.01434326171875,0.0478973388671875
1772562776610526000,2.04952587890625,-0.9913177490234375,-0.0141143798828125,0.048980712890625
1772562776620593700,2.05959375,-0.9907379150390625,-0.01434326171875,0.04638671875
1772562776630660900,2.069660888671875,-0.992584228515625,-0.015167236328125,0.046722412109375
1772562776640727800,2.079727783203125,-0.9908599853515625,-0.01544189453125,0.0476531982421875
1772562776650794800,2.089794677734375,-0.99114990234375,-0.0150604248046875,0.0467376708984375
1772562776660861700,2.09986181640625,-0.9933929443359375,-0.0154266357421875,0.0474090576171875
1772562776670928600,2.1099287109375,-0.9927520751953125,-0.0150146484375,0.046234130859375
1772562776680996900,2.119996826171875,-0.9914398193359375,-0.0139923095703125,0.045318603515625
1772562776691063800,2.130063720703125,-0.9915924072265625,-0.0132293701171875,0.0461273193359375
1772562776701130800,2.140130859375,-0.9930572509765625,-0.0150299072265625,0.0462188720703125
1772562776711198000,2.150197998046875,-0.99163818359375,-0.015869140625,0.0467681884765625
1772562776721265000,2.160264892578125,-0.9906005859375,-0.01373291015625,0.0432891845703125
1772562776731331800,2.170331787109375,-0.997589111328125,-0.0157623291015625,0.0439910888671875
1772562776741398800,2.180398681640625,-1.0050506591796875,-0.0147705078125,0.050567626953125
1772562776751466800,2.190466796875,-0.987762451171875,-0.01483154296875,0.0552520751953125
1772562776761533700,2.20053369140625,-0.96405029296875,-0.0142974853515625,0.055450439453125
1772562776771600600,2.2106005859375,-0.97760009765625,-0.0153961181640625,0.05126953125
1772562776781667600,2.22066748046875,-1.0037078857421875,-0.01397705078125,0.04327392578125
1772562776791734800,2.23073486328125,-1.0091400146484375,-0.015960693359375,0.0411376953125
1772562776801801700,2.2408017578125,-1.0002288818359375,-0.016265869140625,0.03839111328125
1772562776811870000,2.250869873046875,-0.99591064453125,-0.0150604248046875,0.04498291015625
1772562776821937000,2.26093701171875,-0.99237060546875,-0.0138397216796875,0.05224609375
1772562776832003800,2.27100390625,-0.9772491455078125,-0.01373291015625,0.053680419921875
1772562776842070800,2.28107080078125,-0.970703125,-0.0157012939453125,0.052093505859375
1772562776852137700,2.2911376953125,-0.9936981201171875,-0.015350341796875,0.0438385009765625
1772562776862204700,2.30120458984375,-1.0141448974609375,-0.0148773193359375,0.040863037109375
1772562776872272000,2.31127197265625,-1.0066986083984375,-0.015716552734375,0.044097900390625
1772562776882339800,2.32133984375,-0.984893798828125,-0.0157928466796875,0.0463714599609375
1772562776892406800,2.33140673828125,-0.9796600341796875,-0.013641357421875,0.052276611328125
1772562776902473700,2.3414736328125,-0.9847259521484375,-0.015411376953125,0.0517425537109375
1772562776912540700,2.351540771484375,-0.9897918701171875,-0.014739990234375,0.047393798828125
1772562776922607900,2.36160791015625,-0.994903564453125,-0.0154876708984375,0.0442962646484375
1772562776932674800,2.3716748046875,-0.9996337890625,-0.0157470703125,0.04443359375
1772562776942741800,2.38174169921875,-0.9986114501953125,-0.0152740478515625,0.0455322265625
1772562776952809700,2.391809814453125,-0.9883880615234375,-0.0156402587890625,0.048431396484375
1772562776962876700,2.401876708984375,-0.981719970703125,-0.0152740478515625,0.049224853515625
1772562776972944000,2.41194384765625,-0.984954833984375,-0.01519775390625,0.0500030517578125
1772562776983010800,2.4220107421875,-0.995269775390625,-0.014617919921875,0.0466156005859375
1772562776993077800,2.432077880859375,-1.000091552734375,-0.015289306640625,0.04443359375
1772562777003144700,2.442144775390625,-0.995574951171875,-0.016815185546875,0.0458984375
1772562777013212700,2.452212646484375,-0.990692138671875,-0.0155487060546875,0.0474700927734375
1772562777023279600,2.462279541015625,-0.9862213134765625,-0.01507568359375,0.0490570068359375
1772562777033346800,2.472346923828125,-0.9868316650390625,-0.012481689453125,0.0482330322265625
1772562777043413800,2.482413818359375,-0.9895172119140625,-0.0133209228515625,0.0488433837890625
1772562777053481000,2.49248095703125,-0.99456787109375,-0.01458740234375,0.0462493896484375
1772562777063548000,2.5025478515625,-0.996337890625,-0.014068603515625,0.0459136962890625
1772562777073614800,2.51261474609375,-0.9934234619140625,-0.0151519775390625,0.047576904296875
1772562777083682800,2.522682861328125,-0.9890594482421875,-0.0150299072265625,0.048614501953125
1772562777093749800,2.532749755859375,-0.988494873046875,-0.01361083984375,0.0478973388671875
1772562777103816700,2.542816650390625,-0.99041748046875,-0.0149383544921875,0.0487060546875
1772562777113883600,2.552883544921875,-0.9951934814453125,-0.0156097412109375,0.048370361328125
1772562777123950600,2.56295068359375,-0.995880126953125,-0.015899658203125,0.0467376708984375
1772562777134017800,2.573017822265625,-0.9938507080078125,-0.01470947265625,0.045684814453125
1772562777144085800,2.583085693359375,-0.9912567138671875,-0.014923095703125,0.04833984375
1772562777154153000,2.593153076171875,-0.9892578125,-0.0159912109375,0.0474700927734375
1772562777164220000,2.603219970703125,-0.9891204833984375,-0.0157928466796875,0.0486602783203125
1772562777174286800,2.613286865234375,-0.9901885986328125,-0.015472412109375,0.0463409423828125
1772562777184353800,2.623353759765625,-0.9939727783203125,-0.0148162841796875,0.0476837158203125
1772562777194420700,2.633420654296875,-0.9951934814453125,-0.015228271484375,0.047607421875
1772562777204487700,2.64348779296875,-0.9922027587890625,-0.015777587890625,0.0479278564453125
1772562777214555600,2.6535556640625,-0.9898681640625,-0.01458740234375,0.049835205078125
1772562777224622800,2.663622802734375,-0.9890899658203125,-0.0143890380859375,0.0482635498046875
1772562777234689800,2.673689697265625,-0.991363525390625,-0.0137481689453125,0.04791259765625
1772562777244756700,2.6837568359375,-0.992401123046875,-0.0149078369140625,0.0491790771484375
1772562777254823700,2.69382373046875,-0.9935150146484375,-0.0169677734375,0.0454254150390625
1772562777264890600,2.703890625,-0.992950439453125,-0.0149993896484375,0.04705810546875
1772562777274957800,2.713957763671875,-0.9932861328125,-0.0151519775390625,0.0478057861328125
1772562777285025800,2.72402587890625,-0.9909210205078125,-0.0157470703125,0.0491790771484375
1772562777295092700,2.7340927734375,-0.98974609375,-0.015960693359375,0.0475921630859375
1772562777305159700,2.74415966796875,-0.991668701171875,-0.015106201171875,0.0463104248046875
1772562777315227000,2.754226806640625,-0.992950439453125,-0.0150909423828125,0.04656982421875
1772562777325293800,2.7642939453125,-0.9930877685546875,-0.01470947265625,0.0468292236328125
1772562777335360800,2.77436083984375,-0.9920196533203125,-0.0141448974609375,0.04730224609375
1772562777345428700,2.7844287109375,-0.9921417236328125,-0.0147552490234375,0.0473175048828125
1772562777355495700,2.79449560546875,-0.9902496337890625,-0.015167236328125,0.0473175048828125
1772562777365562600,2.804562744140625,-0.9905242919921875,-0.0142974853515625,0.0482635498046875
1772562777375629600,2.814629638671875,-0.9929962158203125,-0.014434814453125,0.0472564697265625
1772562777385696800,2.82469677734375,-0.993133544921875,-0.0146331787109375,0.0442352294921875
1772562777395764000,2.834763916015625,-0.9923858642578125,-0.013427734375,0.047119140625
1772562777405832000,2.84483203125,-0.991607666015625,-0.0137176513671875,0.046630859375
1772562777415899000,2.85489892578125,-0.9936065673828125,-0.0136566162109375,0.047332763671875
1772562777425965800,2.8649658203125,-0.9911041259765625,-0.015350341796875,0.0488128662109375
1772562777436032800,2.87503271484375,-0.99188232421875,-0.0154571533203125,0.0469818115234375
1772562777446099700,2.885099609375,-0.994232177734375,-0.015594482421875,0.046295166015625
1772562777456166700,2.895166748046875,-0.9935455322265625,-0.0159454345703125,0.049224853515625
1772562777466233900,2.90523388671875,-0.990509033203125,-0.014678955078125,0.04803466796875
1772562777476301600,2.915301513671875,-0.9926605224609375,-0.014190673828125,0.0477752685546875
1772562777486368800,2.92536865234375,-0.99176025390625,-0.01513671875,0.048065185546875
1772562777496436000,2.93543603515625,-0.992034912109375,-0.014678955078125,0.04840087890625
1772562777506503000,2.9455029296875,-0.9892120361328125,-0.01409912109375,0.0475921630859375
1772562777516569900,2.95556982421875,-0.9911956787109375,-0.0157623291015625,0.0476531982421875
1772562777526636800,2.96563671875,-0.99176025390625,-0.015472412109375,0.0470123291015625
1772562777536704800,2.975704833984375,-0.9911956787109375,-0.0151824951171875,0.048736572265625
1772562777546771700,2.985771728515625,-0.992431640625,-0.0164031982421875,0.04779052734375
1772562777556838700,2.995838623046875,-0.9913482666015625,-0.014862060546875,0.0469207763671875
1772562777566905900,3.00590576171875,-0.9915924072265625,-0.0156097412109375,0.0467376708984375
1772562777576972800,3.015972900390625,-0.992645263671875,-0.0151519775390625,0.0475616455078125
1772562777587039700,3.026039794921875,-0.991943359375,-0.01409912109375,0.04852294921875
1772562777597106700,3.036106689453125,-0.9918975830078125,-0.01422119140625,0.0460052490234375
1772562777607175000,3.0461748046875,-0.99066162109375,-0.014984130859375,0.047149658203125
1772562777617241900,3.056241943359375,-0.99053955078125,-0.0150909423828125,0.0467681884765625
1772562777627308800,3.066308837890625,-0.990447998046875,-0.016021728515625,0.0468902587890625
1772562777637375700,3.076375732421875,-0.991607666015625,-0.01446533203125,0.04803466796875
1772562777647443000,3.08644287109375,-0.9904632568359375,-0.0155792236328125,0.0460205078125
1772562777657510000,3.096510009765625,-0.99188232421875,-0.0154876708984375,0.0460357666015625
1772562777667576800,3.106576904296875,-0.9923553466796875,-0.0153045654296875,0.0478057861328125
1772562777677644800,3.116644775390625,-0.9910430908203125,-0.0135955810546875,0.048187255859375
1772562777687711700,3.126711669921875,-0.991302490234375,-0.016693115234375,0.04736328125
1772562777697778700,3.13677880859375,-0.99383544921875,-0.0144500732421875,0.048431396484375
1772562777707845600,3.146845703125,-0.9926605224609375,-0.014617919921875,0.0469970703125
1772562777717912600,3.15691259765625,-0.991119384765625,-0.014404296875,0.0466766357421875
1772562777727979800,3.166979736328125,-0.9916534423828125,-0.0147705078125,0.0489959716796875
1772562777738047700,3.1770478515625,-0.991180419921875,-0.0147857666015625,0.0485992431640625
1772562777748115000,3.187114990234375,-0.9914093017578125,-0.01422119140625,0.0467681884765625
1772562777758182000,3.197181884765625,-0.99261474609375,-0.0139923095703125,0.048126220703125
1772562777768248800,3.207248779296875,-0.991455078125,-0.0156707763671875,0.0480804443359375
1772562777778315800,3.217315673828125,-0.9906005859375,-0.0150604248046875,0.048858642578125
1772562777788382700,3.2273828125,-0.9943695068359375,-0.0142974853515625,0.047027587890625
1772562777798449700,3.23744970703125,-0.99249267578125,-0.0147705078125,0.047210693359375
1772562777808517600,3.247517578125,-0.9913787841796875,-0.01531982421875,0.045440673828125
1772562777818584600,3.25758447265625,-0.9929351806640625,-0.01580810546875,0.048980712890625
1772562777828651800,3.26765185546875,-0.9933624267578125,-0.0144805908203125,0.048431396484375
1772562777838719000,3.277718994140625,-0.9896240234375,-0.0137786865234375,0.046783447265625
1772562777848786000,3.287785888671875,-0.99078369140625,-0.0151519775390625,0.04888916015625
1772562777858852900,3.297852783203125,-0.9923553466796875,-0.0141448974609375,0.0453338623046875
1772562777868920800,3.3079208984375,-0.9922027587890625,-0.0145416259765625,0.04766845703125
1772562777878988500,3.317988525390625,-0.9930877685546875,-0.015167236328125,0.048248291015625
1772562777889055500,3.328055419921875,-0.990386962890625,-0.0148468017578125,0.04827880859375
1772562777899122400,3.338122314453125,-0.9929656982421875,-0.0164031982421875,0.0482025146484375
1772562777909189400,3.348189453125,-0.9921875,-0.01495361328125,0.0478057861328125
1772562777919256600,3.358256591796875,-0.9917755126953125,-0.014923095703125,0.04718017578125
1772562777929323500,3.368323486328125,-0.991729736328125,-0.0159454345703125,0.046966552734375
1772562777939391500,3.3783916015625,-0.9925537109375,-0.014678955078125,0.04791259765625
1772562777949458400,3.38845849609375,-0.9916229248046875,-0.014404296875,0.048309326171875
1772562777959525400,3.398525390625,-0.993011474609375,-0.0146484375,0.049163818359375
1772562777969592300,3.40859228515625,-0.992340087890625,-0.0153656005859375,0.0475921630859375
1772562777979659300,3.4186591796875,-0.991363525390625,-0.015167236328125,0.0474700927734375
1772562777989726200,3.428726318359375,-0.992462158203125,-0.014862060546875,0.0481414794921875
1772562777999794400,3.43879443359375,-0.992095947265625,-0.0164337158203125,0.0491943359375
1772562778009861400,3.448861328125,-0.9917449951171875,-0.0144195556640625,0.048095703125
1772562778019928600,3.458928466796875,-0.9913787841796875,-0.0137939453125,0.047149658203125
1772562778029995500,3.46899560546875,-0.9911956787109375,-0.0143585205078125,0.0467681884765625
1772562778040062500,3.4790625,-0.9930267333984375,-0.015869140625,0.047027587890625
1772562778050129400,3.48912939453125,-0.991058349609375,-0.01422119140625,0.046600341796875
1772562778060196400,3.4991962890625,-0.9925994873046875,-0.015045166015625,0.048065185546875
1772562778070264300,3.509264404296875,-0.9928131103515625,-0.015045166015625,0.0476226806640625
1772562778080331300,3.519331298828125,-0.991180419921875,-0.015899658203125,0.0475616455078125
1772562778090398200,3.529398193359375,-0.9920501708984375,-0.016265869140625,0.0481414794921875
1772562778100465400,3.53946533203125,-0.9912872314453125,-0.0135498046875,0.048583984375
1772562778110532600,3.54953271484375,-0.992706298828125,-0.013824462890625,0.048187255859375
1772562778120599600,3.559599609375,-0.992218017578125,-0.015380859375,0.0482025146484375
1772562778130667500,3.56966748046875,-0.991851806640625,-0.0153961181640625,0.04736328125
1772562778140734500,3.579734375,-0.992523193359375,-0.01513671875,0.0480499267578125
1772562778150801400,3.589801513671875,-0.9913330078125,-0.0149993896484375,0.04730224609375
1772562778160868400,3.599868408203125,-0.991485595703125,-0.01495361328125,0.047332763671875
1772562778170935300,3.609935302734375,-0.9917144775390625,-0.0150909423828125,0.0477752685546875
1772562778181002500,3.62000244140625,-0.9922943115234375,-0.016387939453125,0.0462188720703125
1772562778191069400,3.6300693359375,-0.9912567138671875,-0.0153350830078125,0.0465240478515625
1772562778201137400,3.640137451171875,-0.9914398193359375,-0.0150909423828125,0.045928955078125
1772562778211204400,3.650204345703125,-0.9905853271484375,-0.01458740234375,0.0482330322265625
1772562778221271600,3.660271484375,-0.9916839599609375,-0.014678955078125,0.0453338623046875
1772562778231338500,3.67033837890625,-0.991455078125,-0.0157318115234375,0.04742431640625
1772562778241405400,3.680405517578125,-0.99249267578125,-0.01519775390625,0.04815673828125
1772562778251472400,3.690472412109375,-0.99139404296875,-0.014312744140625,0.0473785400390625
1772562778261540400,3.700540283203125,-0.9925384521484375,-0.0154266357421875,0.04754638671875
1772562778271607300,3.710607177734375,-0.991363525390625,-0.0149383544921875,0.0471038818359375
1772562778281674500,3.720674560546875,-0.990936279296875,-0.014801025390625,0.0472259521484375
1772562778291741400,3.730741455078125,-0.99163818359375,-0.0157623291015625,0.046875
1772562778301808400,3.740808349609375,-0.991241455078125,-0.01422119140625,0.0477142333984375
1772562778311875300,3.750875244140625,-0.992523193359375,-0.0151824951171875,0.04827880859375
1772562778321943600,3.760943603515625,-0.9911956787109375,-0.0146331787109375,0.04840087890625
1772562778332010500,3.771010498046875,-0.9915008544921875,-0.015411376953125,0.0468597412109375
1772562778342077400,3.781077392578125,-0.9913330078125,-0.0168304443359375,0.046234130859375
1772562778352144400,3.791144287109375,-0.99176025390625,-0.0147705078125,0.045623779296875
1772562778362211600,3.801211669921875,-0.9917755126953125,-0.0136260986328125,0.0469818115234375
1772562778372278500,3.811278564453125,-0.9906158447265625,-0.01434326171875,0.0472564697265625
1772562778382345500,3.821345458984375,-0.9917755126953125,-0.0147857666015625,0.04766845703125
1772562778392413400,3.831413330078125,-0.9935455322265625,-0.014862060546875,0.04534912109375
1772562778402480400,3.84148046875,-0.9928741455078125,-0.014434814453125,0.0476531982421875
1772562778412547300,3.85154736328125,-0.99169921875,-0.0149993896484375,0.0464630126953125
1772562778422614300,3.8616142578125,-0.992584228515625,-0.0151824951171875,0.0481109619140625
1772562778432681200,3.87168115234375,-0.992889404296875,-0.015777587890625,0.0477752685546875
1772562778442748400,3.88174853515625,-0.9935760498046875,-0.0142059326171875,0.046661376953125
1772562778452815400,3.8918154296875,-0.99237060546875,-0.0150604248046875,0.047576904296875
1772562778462883600,3.901883544921875,-0.9923095703125,-0.01409912109375,0.0465850830078125
1772562778472950500,3.911950439453125,-0.9913330078125,-0.0134124755859375,0.0481414794921875
1772562778483017500,3.922017578125,-0.9924163818359375,-0.014678955078125,0.0478363037109375
1772562778493084400,3.93208447265625,-0.99261474609375,-0.0156707763671875,0.0482177734375
1772562778503151400,3.9421513671875,-0.992156982421875,-0.0149993896484375,0.0467987060546875
1772562778513218300,3.95221826171875,-0.990997314453125,-0.01513671875,0.046844482421875
1772562778523286300,3.962286376953125,-0.9916229248046875,-0.015869140625,0.046539306640625
1772562778533353200,3.972353271484375,-0.990936279296875,-0.0152130126953125,0.0466156005859375
1772562778543420400,3.98242041015625,-0.9935302734375,-0.016021728515625,0.0474395751953125
1772562778553487400,3.9924873046875,-0.992767333984375,-0.0152130126953125,0.0483245849609375
1772562778563554600,4.002554443359375,-0.9911346435546875,-0.017303466796875,0.047332763671875
1772562778573621500,4.01262158203125,-0.9918975830078125,-0.0163421630859375,0.045989990234375
1772562778583688400,4.0226884765625,-0.993194580078125,-0.016082763671875,0.049468994140625
1772562778593756400,4.03275634765625,-0.9898529052734375,-0.0147552490234375,0.04730224609375
1772562778603823400,4.0428232421875,-0.9924468994140625,-0.01348876953125,0.049591064453125
1772562778613890300,4.052890380859375,-0.99163818359375,-0.0144500732421875,0.047821044921875
1772562778623957500,4.06295751953125,-0.9912872314453125,-0.0148162841796875,0.0471649169921875
1772562778634024400,4.0730244140625,-0.9921722412109375,-0.0153961181640625,0.0474853515625
1772562778644091400,4.08309130859375,-0.9920806884765625,-0.0152587890625,0.0461883544921875
1772562778654159400,4.093159423828125,-0.9920501708984375,-0.0155029296875,0.048553466796875
1772562778664226300,4.103226318359375,-0.990936279296875,-0.0154571533203125,0.04803466796875
1772562778674293500,4.11329345703125,-0.9916229248046875,-0.01416015625,0.0493621826171875
1772562778684360400,4.1233603515625,-0.9915771484375,-0.0144805908203125,0.0476531982421875
1772562778694427400,4.133427490234375,-0.9913177490234375,-0.0133819580078125,0.0473175048828125
1772562778704494600,4.14349462890625,-0.9897918701171875,-0.013824462890625,0.047149658203125
1772562778714561500,4.1535615234375,-0.9924468994140625,-0.01434326171875,0.047821044921875
1772562778724629500,4.16362939453125,-0.98956298828125,-0.0163116455078125,0.0484619140625
1772562778734696400,4.173696533203125,-0.9920806884765625,-0.0148162841796875,0.047027587890625
1772562778744763400,4.183763427734375,-0.993560791015625,-0.01580810546875,0.0467071533203125
1772562778754830300,4.193830322265625,-0.9915618896484375,-0.01470947265625,0.048492431640625
1772562778764897300,4.203897216796875,-0.9927215576171875,-0.0152130126953125,0.0477294921875
1772562778774964200,4.213964111328125,-0.99188232421875,-0.015869140625,0.0473175048828125
1772562778785032400,4.224032470703125,-0.992095947265625,-0.014434814453125,0.04681396484375
1772562778795099400,4.234099365234375,-0.99176025390625,-0.01556396484375,0.047149658203125
1772562778805166600,4.24416650390625,-0.9922943115234375,-0.01531982421875,0.047576904296875
1772562778815233500,4.254233642578125,-0.9918670654296875,-0.0144500732421875,0.0480499267578125
1772562778825300500,4.264300537109375,-0.9914093017578125,-0.015777587890625,0.048065185546875
1772562778835367400,4.274367431640625,-0.9930267333984375,-0.0141754150390625,0.0472412109375
1772562778845435400,4.284435302734375,-0.9907989501953125,-0.0158233642578125,0.047698974609375
1772562778855502300,4.29450244140625,-0.9917449951171875,-0.0156097412109375,0.0484771728515625
1772562778865569300,4.3045693359375,-0.991729736328125,-0.0151214599609375,0.0479888916015625
1772562778875636200,4.31463623046875,-0.9927825927734375,-0.015899658203125,0.0469970703125
1772562778885702700,4.32470263671875,-0.9932403564453125,-0.0158538818359375,0.0466766357421875
1772562778895769600,4.33476953125,-0.991668701171875,-0.01324462890625,0.0478515625
1772562778905836500,4.34483642578125,-0.9915924072265625,-0.0154266357421875,0.0478668212890625
1772562778915904800,4.35490478515625,-0.9918975830078125,-0.01605224609375,0.0462493896484375
1772562778925971700,4.3649716796875,-0.9920196533203125,-0.0145721435546875,0.0496673583984375
1772562778936038700,4.37503857421875,-0.9919281005859375,-0.0137176513671875,0.0463409423828125
1772562778946105600,4.385105712890625,-0.9925384521484375,-0.01446533203125,0.048095703125
1772562778956172800,4.3951728515625,-0.992034912109375,-0.01568603515625,0.047149658203125
1772562778966239700,4.40523974609375,-0.991668701171875,-0.015228271484375,0.047576904296875
1772562778976307700,4.4153076171875,-0.9911346435546875,-0.015472412109375,0.047393798828125
1772562778986374700,4.425374755859375,-0.9923553466796875,-0.014739990234375,0.0475616455078125
1772562778996441600,4.435441650390625,-0.9927215576171875,-0.0150909423828125,0.0466461181640625
1772562779006508500,4.445508544921875,-0.99151611328125,-0.01495361328125,0.046783447265625
1772562779016575700,4.45557568359375,-0.991363525390625,-0.0148468017578125,0.047332763671875
1772562779026642700,4.465642578125,-0.992889404296875,-0.0144805908203125,0.047332763671875
1772562779036710000,4.4757099609375,-0.992156982421875,-0.014404296875,0.044769287109375
1772562779046777600,4.485777587890625,-0.9934844970703125,-0.015899658203125,0.047088623046875
1772562779056844800,4.4958447265625,-0.9917144775390625,-0.0157318115234375,0.0477294921875
1772562779066911700,4.505911865234375,-0.9911651611328125,-0.01373291015625,0.0472412109375
1772562779076978700,4.515978759765625,-0.9925384521484375,-0.01361083984375,0.046722412109375
1772562779087045600,4.526045654296875,-0.992095947265625,-0.0136566162109375,0.048126220703125
1772562779097112600,4.536112548828125,-0.9910736083984375,-0.0148773193359375,0.0475311279296875
1772562779107180500,4.5461806640625,-0.992401123046875,-0.013763427734375,0.047576904296875
1772562779117247500,4.55624755859375,-0.99237060546875,-0.014678955078125,0.0462188720703125
1772562779127314700,4.566314697265625,-0.992156982421875,-0.0162353515625,0.049224853515625
1772562779137382000,4.5763818359375,-0.9911041259765625,-0.015655517578125,0.0485992431640625
1772562779147448800,4.58644873046875,-0.9915008544921875,-0.014190673828125,0.04779052734375
1772562779157515800,4.596515869140625,-0.993194580078125,-0.0137176513671875,0.04632568359375
1772562779167582700,4.606582763671875,-0.9926605224609375,-0.0144805908203125,0.0484619140625
1772562779177650700,4.616650634765625,-0.9912872314453125,-0.012786865234375,0.04931640625
1772562779187717600,4.626717529296875,-0.9922637939453125,-0.0149993896484375,0.04742431640625
1772562779197784600,4.63678466796875,-0.9935150146484375,-0.01556396484375,0.0462646484375
1772562779207851800,4.646851806640625,-0.9915313720703125,-0.0150299072265625,0.0473480224609375
1772562779217918700,4.656918701171875,-0.9915771484375,-0.0146942138671875,0.0477142333984375
1772562779227985700,4.666985595703125,-0.9910888671875,-0.0148773193359375,0.04742431640625
1772562779238054000,4.677053955078125,-0.9911956787109375,-0.013641357421875,0.0476531982421875
1772562779248120800,4.687120849609375,-0.9923858642578125,-0.0147857666015625,0.0485382080078125
1772562779258187800,4.697187744140625,-0.9908294677734375,-0.015655517578125,0.04632568359375
1772562779268254700,4.707254638671875,-0.9911041259765625,-0.015045166015625,0.04608154296875
1772562779278321700,4.71732177734375,-0.992431640625,-0.0146331787109375,0.0492401123046875
1772562779288388600,4.727388671875,-0.9915008544921875,-0.014495849609375,0.048675537109375
1772562779298456600,4.73745654296875,-0.99169921875,-0.015167236328125,0.046295166015625
1772562779308523800,4.747523681640625,-0.9907379150390625,-0.0151214599609375,0.047149658203125
1772562779318590700,4.7575908203125,-0.9912567138671875,-0.0155029296875,0.0470428466796875
1772562779328657700,4.76765771484375,-0.9921875,-0.01434326171875,0.0460968017578125
1772562779338724600,4.777724609375,-0.991851806640625,-0.014312744140625,0.0472412109375
1772562779348791600,4.78779150390625,-0.993011474609375,-0.015960693359375,0.0463104248046875
1772562779358858500,4.7978583984375,-0.9915618896484375,-0.0146942138671875,0.0487060546875
1772562779368926700,4.8079267578125,-0.9926910400390625,-0.0156402587890625,0.0458831787109375
1772562779378993700,4.81799365234375,-0.992919921875,-0.015289306640625,0.047210693359375
1772562779389060600,4.828060546875,-0.99249267578125,-0.0160980224609375,0.048736572265625
1772562779399127800,4.8381279296875,-0.9918212890625,-0.0156402587890625,0.0468292236328125
1772562779409194800,4.84819482421875,-0.99267578125,-0.0159454345703125,0.0467681884765625
1772562779419261700,4.85826171875,-0.99163818359375,-0.0151214599609375,0.0470123291015625
1772562779429329700,4.86832958984375,-0.9925689697265625,-0.0149078369140625,0.0487823486328125
1772562779439396600,4.878396728515625,-0.990875244140625,-0.01483154296875,0.0475921630859375
1772562779449463600,4.888463623046875,-0.9915313720703125,-0.0155181884765625,0.0480194091796875
1772562779459530500,4.898530517578125,-0.9913787841796875,-0.015350341796875,0.0470428466796875
1772562779469597700,4.90859765625,-0.9927215576171875,-0.014495849609375,0.048309326171875
1772562779479665000,4.918664794921875,-0.9919281005859375,-0.014862060546875,0.0463714599609375
1772562779489731800,4.92873193359375,-0.99200439453125,-0.0142364501953125,0.0469970703125
1772562779499799800,4.9387998046875,-0.9911651611328125,-0.0153045654296875,0.0474700927734375
1772562779509866800,4.94886669921875,-0.99285888671875,-0.014251708984375,0.04669189453125
1772562779519933700,4.95893359375,-0.9928131103515625,-0.015380859375,0.047332763671875
1772562779530000600,4.969000732421875,-0.989593505859375,-0.0157928466796875,0.04681396484375
1772562779540067600,4.979067626953125,-0.99072265625,-0.0167083740234375,0.04638671875
1772562779550134800,4.989134765625,-0.99200439453125,-0.01458740234375,0.048797607421875
1772562779560202500,4.999202392578125,-0.991485595703125,-0.0148468017578125,0.0476531982421875
1772562779570269700,5.009269775390625,-0.9912567138671875,-0.015655517578125,0.046630859375
1772562779580337000,5.0193369140625,-0.992767333984375,-0.0152740478515625,0.047760009765625
1772562779590403800,5.02940380859375,-0.990325927734375,-0.01519775390625,0.0489349365234375
1772562779600470800,5.039470703125,-0.991180419921875,-0.0148468017578125,0.0479888916015625
1772562779610537700,5.049537841796875,-0.99310302734375,-0.0157318115234375,0.0485382080078125
1772562779620605700,5.059605712890625,-0.9898681640625,-0.015472412109375,0.0448150634765625
1772562779630672600,5.069672607421875,-0.9912872314453125,-0.01531982421875,0.0481719970703125
1772562779640739600,5.079739501953125,-0.991790771484375,-0.0152435302734375,0.047210693359375
1772562779650806800,5.089806884765625,-0.99169921875,-0.01544189453125,0.0471038818359375
1772562779660873700,5.099873779296875,-0.9920654296875,-0.015594482421875,0.04669189453125
1772562779670940700,5.109940673828125,-0.9917144775390625,-0.01605224609375,0.0461578369140625
1772562779681007600,5.120007568359375,-0.99090576171875,-0.0143585205078125,0.0462799072265625
1772562779691075800,5.130075927734375,-0.9917755126953125,-0.015350341796875,0.0467681884765625
1772562779701142800,5.140142822265625,-0.9918670654296875,-0.0151519775390625,0.047515869140625
1772562779711209700,5.150209716796875,-0.9904022216796875,-0.015289306640625,0.047454833984375
1772562779721276700,5.160276611328125,-0.992218017578125,-0.015777587890625,0.046295166015625
1772562779731344000,5.17034375,-0.9902191162109375,-0.0138092041015625,0.0464630126953125
1772562779741410800,5.180410888671875,-0.992584228515625,-0.0146484375,0.04718017578125
1772562779751478800,5.190478759765625,-0.9927825927734375,-0.014678955078125,0.0460357666015625
1772562779761545700,5.200545654296875,-0.9935150146484375,-0.0142669677734375,0.047698974609375
1772562779771612700,5.21061279296875,-0.9923553466796875,-0.013641357421875,0.0477142333984375
1772562779781679600,5.2206796875,-0.9912872314453125,-0.01629638671875,0.046905517578125
1772562779791746600,5.23074658203125,-0.9916229248046875,-0.014495849609375,0.0467681884765625
1772562779801813500,5.2408134765625,-0.9908599853515625,-0.0133819580078125,0.0477447509765625
1772562779811880700,5.250880615234375,-0.9919281005859375,-0.0143890380859375,0.0499420166015625
1772562779821948700,5.26094873046875,-0.9911956787109375,-0.015533447265625,0.0479583740234375
1772562779832016000,5.271015869140625,-0.991119384765625,-0.0144805908203125,0.047760009765625
1772562779842082800,5.281082763671875,-0.9910125732421875,-0.0158843994140625,0.0473480224609375
1772562779852149800,5.291149658203125,-0.990997314453125,-0.0145416259765625,0.0475616455078125
1772562779862216700,5.301216796875,-0.9922637939453125,-0.0150909423828125,0.0484466552734375
1772562779872283600,5.31128369140625,-0.992218017578125,-0.013824462890625,0.0471343994140625
1772562779882352000,5.32135205078125,-0.9916839599609375,-0.0147552490234375,0.04791259765625
1772562779892419000,5.331419189453125,-0.990936279296875,-0.01495361328125,0.0479583740234375
1772562779902486000,5.341486083984375,-0.9914093017578125,-0.0152130126953125,0.0466461181640625
1772562779912553000,5.351552978515625,-0.9923248291015625,-0.013275146484375,0.0473175048828125
1772562779922620200,5.3616201171875,-0.9913787841796875,-0.01531982421875,0.046173095703125
1772562779932687000,5.37168701171875,-0.9920501708984375,-0.01611328125,0.045989990234375
1772562779942754000,5.381754150390625,-0.9905548095703125,-0.0159759521484375,0.048248291015625
1772562779952822000,5.391822021484375,-0.9923248291015625,-0.0163726806640625,0.0488739013671875
1772562779962889000,5.401888916015625,-0.9911346435546875,-0.0164337158203125,0.0472564697265625
1772562779972956000,5.411955810546875,-0.9918060302734375,-0.0160369873046875,0.0471954345703125
1772562779983022800,5.42202294921875,-0.99163818359375,-0.0157928466796875,0.0474853515625
1772562779993089800,5.43208984375,-0.9915313720703125,-0.014801025390625,0.0468292236328125
1772562780003157200,5.4421572265625,-0.9903717041015625,-0.015045166015625,0.0489654541015625
1772562780013225000,5.452224853515625,-0.9906158447265625,-0.014739990234375,0.047210693359375
1772562780023292200,5.462292236328125,-0.99359130859375,-0.015472412109375,0.047882080078125
1772562780033359000,5.472359130859375,-0.99237060546875,-0.014007568359375,0.04718017578125
1772562780043426000,5.482426025390625,-0.992218017578125,-0.016021728515625,0.0486297607421875
1772562780053493000,5.492492919921875,-0.9923553466796875,-0.0159912109375,0.047119140625
1772562780063560000,5.502559814453125,-0.9899444580078125,-0.0142059326171875,0.0473480224609375
1772562780073627000,5.512626953125,-0.992523193359375,-0.015777587890625,0.047454833984375
1772562780083694800,5.52269482421875,-0.9920654296875,-0.0150909423828125,0.0479888916015625
1772562780093762000,5.532761962890625,-0.99224853515625,-0.0146942138671875,0.0491790771484375
1772562780103829200,5.542829345703125,-0.9915008544921875,-0.01556396484375,0.047119140625
1772562780113896200,5.552896240234375,-0.9913330078125,-0.0152587890625,0.0451507568359375
1772562780123963100,5.562963134765625,-0.991790771484375,-0.0162353515625,0.046844482421875
1772562780134030000,5.573030029296875,-0.9920654296875,-0.0152130126953125,0.0476531982421875
1772562780144098000,5.58309814453125,-0.9917755126953125,-0.016204833984375,0.0471343994140625
1772562780154165000,5.5931650390625,-0.9925537109375,-0.0152130126953125,0.0478973388671875
1772562780164232000,5.60323193359375,-0.9929962158203125,-0.0147247314453125,0.0474090576171875
1772562780174299000,5.613298828125,-0.99237060546875,-0.0150299072265625,0.0473175048828125
1772562780184366000,5.623365966796875,-0.9916229248046875,-0.0162506103515625,0.047027587890625
1772562780194433000,5.63343310546875,-0.9928131103515625,-0.0145721435546875,0.046539306640625
1772562780204501000,5.6435009765625,-0.99163818359375,-0.014862060546875,0.048553466796875
1772562780214568200,5.653568115234375,-0.9920196533203125,-0.0139617919921875,0.0476226806640625
1772562780224635100,5.66363525390625,-0.9909820556640625,-0.0147705078125,0.049774169921875
1772562780234702000,5.6737021484375,-0.9903564453125,-0.0140228271484375,0.0481719970703125
1772562780244769000,5.68376904296875,-0.9924163818359375,-0.0152740478515625,0.0470123291015625
1772562780254836000,5.6938359375,-0.99237060546875,-0.0147552490234375,0.0480499267578125
1772562780264903200,5.703903076171875,-0.9899139404296875,-0.015411376953125,0.0480194091796875
1772562780274971100,5.71397119140625,-0.990631103515625,-0.0142669677734375,0.049072265625
1772562780285038000,5.7240380859375,-0.991912841796875,-0.014892578125,0.045989990234375
1772562780295105000,5.73410498046875,-0.9923095703125,-0.0149078369140625,0.0478515625
1772562780305172000,5.744171875,-0.99151611328125,-0.015716552734375,0.0466156005859375
1772562780315239000,5.754239013671875,-0.99072265625,-0.0153656005859375,0.0469512939453125
1772562780325305900,5.764305908203125,-0.9914093017578125,-0.014739990234375,0.04693603515625
1772562780335374000,5.7743740234375,-0.991119384765625,-0.0148468017578125,0.0486297607421875
1772562780345441000,5.78444091796875,-0.992462158203125,-0.0144500732421875,0.0469970703125
1772562780355508000,5.794508056640625,-0.9920654296875,-0.0154266357421875,0.0465240478515625
1772562780365575200,5.8045751953125,-0.9922943115234375,-0.01416015625,0.04840087890625
1772562780375642000,5.81464208984375,-0.992279052734375,-0.0155181884765625,0.0496978759765625
1772562780385709000,5.824708984375,-0.9921875,-0.014312744140625,0.0482635498046875
1772562780395777000,5.834777099609375,-0.990142822265625,-0.0155487060546875,0.046783447265625
1772562780405844000,5.844843994140625,-0.9905548095703125,-0.0136566162109375,0.0467987060546875
1772562780415911000,5.854910888671875,-0.99102783203125,-0.0142974853515625,0.047271728515625
1772562780425977900,5.864977783203125,-0.9910736083984375,-0.013763427734375,0.048126220703125
1772562780436045000,5.875045166015625,-0.9921722412109375,-0.0158843994140625,0.04840087890625
1772562780446112000,5.885112060546875,-0.9937286376953125,-0.015167236328125,0.0470428466796875
1772562780456179200,5.89517919921875,-0.992919921875,-0.0157928466796875,0.0473785400390625
1772562780466247200,5.9052470703125,-0.9917449951171875,-0.0143585205078125,0.046173095703125
1772562780476314000,5.915314208984375,-0.991058349609375,-0.0156097412109375,0.047210693359375
1772562780486381000,5.925381103515625,-0.994049072265625,-0.0160980224609375,0.047637939453125
1772562780496448000,5.935447998046875,-0.9929351806640625,-0.0146636962890625,0.0481719970703125
1772562780506515000,5.945514892578125,-0.9909820556640625,-0.015045166015625,0.046630859375
1772562780516582000,5.955581787109375,-0.9894866943359375,-0.0152740478515625,0.0466156005859375
1772562780526649900,5.96564990234375,-0.9911346435546875,-0.0144500732421875,0.0487213134765625
1772562780536717000,5.975717041015625,-0.9912109375,-0.015594482421875,0.0461883544921875
1772562780546784000,5.985783935546875,-0.99212646484375,-0.015655517578125,0.0479888916015625
1772562780556851200,5.995851318359375,-0.9908447265625,-0.01568603515625,0.04608154296875
1772562780566918100,6.005918212890625,-0.9920806884765625,-0.015167236328125,0.04571533203125
1772562780576985000,6.015985107421875,-0.993133544921875,-0.016571044921875,0.0467987060546875
1772562780587052000,6.026052001953125,-0.9924774169921875,-0.014739990234375,0.048583984375
1772562780597120000,6.0361201171875,-0.991485595703125,-0.0152587890625,0.046295166015625
1772562780607187000,6.04618701171875,-0.9901275634765625,-0.0144195556640625,0.04644775390625
1772562780617254100,6.056254150390625,-0.9921875,-0.0141143798828125,0.047149658203125
1772562780627321000,6.066321044921875,-0.992279052734375,-0.0152130126953125,0.0476226806640625
1772562780637388000,6.076387939453125,-0.9915771484375,-0.0157012939453125,0.0474395751953125
1772562780647455000,6.086455078125,-0.9933013916015625,-0.0159759521484375,0.0482635498046875
1772562780657523000,6.09652294921875,-0.99273681640625,-0.015533447265625,0.0490264892578125
1772562780667590100,6.106590087890625,-0.99169921875,-0.01654052734375,0.049041748046875
1772562780677657000,6.116656982421875,-0.991485595703125,-0.014923095703125,0.0479278564453125
1772562780687724000,6.12672412109375,-0.9921875,-0.0145263671875,0.0486602783203125
1772562780697791000,6.136791015625,-0.992462158203125,-0.014068603515625,0.0486907958984375
1772562780707858200,6.146858154296875,-0.9916229248046875,-0.014434814453125,0.0473785400390625
1772562780717925000,6.156925048828125,-0.992156982421875,-0.0157928466796875,0.048553466796875
1772562780727993000,6.1669931640625,-0.9924774169921875,-0.01580810546875,0.047882080078125
1772562780738060000,6.17706005859375,-0.9915008544921875,-0.0171966552734375,0.047149658203125
1772562780748127000,6.187126953125,-0.991973876953125,-0.0144500732421875,0.047637939453125
1772562780758194000,6.19719384765625,-0.99212646484375,-0.0146942138671875,0.048553466796875
1772562780768260900,6.2072607421875,-0.991912841796875,-0.0158843994140625,0.0490570068359375
1772562780778328000,6.217328125,-0.9922332763671875,-0.0147247314453125,0.047454833984375
1772562780788396000,6.22739599609375,-0.9918212890625,-0.014923095703125,0.046234130859375
1772562780798463200,6.237463134765625,-0.9917755126953125,-0.0156097412109375,0.0482330322265625
1772562780808529200,6.247529052734375,-0.9931182861328125,-0.01568603515625,0.047882080078125
1772562780818596000,6.25759619140625,-0.9926910400390625,-0.014312744140625,0.047271728515625
1772562780828663000,6.2676630859375,-0.9918212890625,-0.0145721435546875,0.0462646484375
1772562780838730000,6.27772998046875,-0.9912567138671875,-0.0150299072265625,0.047271728515625
1772562780848797200,6.287797119140625,-0.9920501708984375,-0.0150299072265625,0.0451507568359375
1772562780858864000,6.297864013671875,-0.9925689697265625,-0.014862060546875,0.0436859130859375
1772562780868932000,6.30793212890625,-0.991851806640625,-0.01580810546875,0.0474090576171875
1772562780878999000,6.3179990234375,-0.9925384521484375,-0.0140838623046875,0.04754638671875
1772562780889066000,6.32806591796875,-0.990875244140625,-0.014129638671875,0.0479736328125
1772562780899133000,6.3381328125,-0.991424560546875,-0.014801025390625,0.0474700927734375
1772562780909200000,6.348199951171875,-0.9925689697265625,-0.015472412109375,0.04791259765625
1772562780919266800,6.358266845703125,-0.9927825927734375,-0.0154266357421875,0.0474853515625
1772562780929334800,6.368334716796875,-0.9914093017578125,-0.014434814453125,0.046875
1772562780939402000,6.378402099609375,-0.99212646484375,-0.0141143798828125,0.0468597412109375
1772562780949469000,6.388468994140625,-0.9936676025390625,-0.0126953125,0.0456085205078125
1772562780959535900,6.398535888671875,-0.9922027587890625,-0.0148773193359375,0.04736328125
1772562780969602800,6.408602783203125,-0.9910736083984375,-0.0150604248046875,0.0464935302734375
1772562780979669800,6.418669677734375,-0.9925689697265625,-0.015472412109375,0.046142578125
1772562780989738000,6.428738037109375,-0.9905242919921875,-0.0140228271484375,0.0475616455078125
1772562780999805000,6.438804931640625,-0.991180419921875,-0.0142822265625,0.0478363037109375
1772562781009872000,6.448871826171875,-0.990814208984375,-0.015106201171875,0.0473785400390625
1772562781019939000,6.45893896484375,-0.9912872314453125,-0.0162353515625,0.048065185546875
1772562781030006000,6.469006103515625,-0.9918670654296875,-0.0158843994140625,0.0466461181640625
1772562781040073000,6.479072998046875,-0.99298095703125,-0.0153045654296875,0.045745849609375
1772562781050140000,6.489139892578125,-0.992828369140625,-0.015838623046875,0.046630859375
1772562781060207900,6.499207763671875,-0.9926300048828125,-0.01593017578125,0.0479583740234375
1772562781070274800,6.50927490234375,-0.991912841796875,-0.015045166015625,0.04779052734375
1772562781080341800,6.519341796875,-0.9912872314453125,-0.0150604248046875,0.0493621826171875
1772562781090408700,6.52940869140625,-0.9927520751953125,-0.0154266357421875,0.04852294921875
1772562781100476000,6.539475830078125,-0.991302490234375,-0.0146331787109375,0.0464324951171875
1772562781110543000,6.549543212890625,-0.9932708740234375,-0.0157318115234375,0.0475311279296875
1772562781120611000,6.559611083984375,-0.993255615234375,-0.01458740234375,0.0479888916015625
1772562781130678000,6.569677978515625,-0.9915771484375,-0.0148773193359375,0.047393798828125
1772562781140745000,6.579744873046875,-0.991973876953125,-0.0156097412109375,0.0480194091796875
1772562781150812000,6.58981201171875,-0.990447998046875,-0.015411376953125,0.04705810546875
1772562781160878800,6.59987890625,-0.9915618896484375,-0.0146331787109375,0.04595947265625
1772562781170945800,6.60994580078125,-0.9918060302734375,-0.01617431640625,0.0473785400390625
1772562781181013000,6.620012939453125,-0.9920806884765625,-0.01507568359375,0.0468597412109375
1772562781191080700,6.630080810546875,-0.992218017578125,-0.015594482421875,0.047393798828125
1772562781201149000,6.64014892578125,-0.99212646484375,-0.0155792236328125,0.0468902587890625
1772562781211216000,6.6502158203125,-0.991424560546875,-0.0146942138671875,0.04693603515625
1772562781221283000,6.660282958984375,-0.99114990234375,-0.0142669677734375,0.0464019775390625
1772562781231350000,6.67035009765625,-0.9900360107421875,-0.0145263671875,0.048797607421875
1772562781241418000,6.68041796875,-0.9910888671875,-0.0156402587890625,0.047515869140625
1772562781251485000,6.69048486328125,-0.9922332763671875,-0.0138702392578125,0.047271728515625
1772562781261551900,6.7005517578125,-0.991455078125,-0.0155029296875,0.0454559326171875
1772562781271618800,6.710618896484375,-0.9928436279296875,-0.0153961181640625,0.0460357666015625
1772562781281685800,6.720685791015625,-0.9923553466796875,-0.0143585205078125,0.0474700927734375
1772562781291752700,6.730752685546875,-0.9917755126953125,-0.0157318115234375,0.0482177734375
1772562781301821000,6.740821044921875,-0.9916839599609375,-0.0156402587890625,0.0467376708984375
1772562781311888000,6.750887939453125,-0.991790771484375,-0.015869140625,0.0485076904296875
1772562781321955000,6.760955078125,-0.9915313720703125,-0.0154266357421875,0.046600341796875
1772562781332022000,6.77102197265625,-0.9915008544921875,-0.0153045654296875,0.0457000732421875
1772562781342089000,6.7810888671875,-0.9907684326171875,-0.0144195556640625,0.0464935302734375
1772562781352156000,6.791156005859375,-0.992706298828125,-0.0147857666015625,0.0467987060546875
1772562781362222800,6.801222900390625,-0.992034912109375,-0.01507568359375,0.0461883544921875
1772562781372290800,6.811290771484375,-0.9915313720703125,-0.01531982421875,0.04681396484375
1772562781382357800,6.821357666015625,-0.991668701171875,-0.0155487060546875,0.0459747314453125
1772562781392424700,6.8314248046875,-0.9917144775390625,-0.0148468017578125,0.046661376953125
1772562781402492000,6.841491943359375,-0.993255615234375,-0.014678955078125,0.0492706298828125
1772562781412558800,6.851558837890625,-0.990692138671875,-0.015960693359375,0.04791259765625
1772562781422626000,6.8616259765625,-0.990570068359375,-0.01654052734375,0.048919677734375
1772562781432694000,6.871694091796875,-0.9908905029296875,-0.0146484375,0.0479583740234375
1772562781442761000,6.881760986328125,-0.9902496337890625,-0.0139617919921875,0.0470733642578125
1772562781452828000,6.891827880859375,-0.990142822265625,-0.01513671875,0.0468597412109375
1772562781462894800,6.901894775390625,-0.99176025390625,-0.015045166015625,0.047271728515625
1772562781472961800,6.9119619140625,-0.99114990234375,-0.0149688720703125,0.0469818115234375
1772562781483029000,6.922029052734375,-0.9920196533203125,-0.015289306640625,0.0468292236328125
1772562781493096000,6.932095947265625,-0.99365234375,-0.01318359375,0.0468292236328125
1772562781503164000,6.942163818359375,-0.9925994873046875,-0.0145721435546875,0.0480804443359375
1772562781513230800,6.95223095703125,-0.9904022216796875,-0.0152740478515625,0.045379638671875
1772562781523298000,6.962298095703125,-0.991455078125,-0.015594482421875,0.0471954345703125
1772562781533365000,6.972364990234375,-0.9912109375,-0.0151214599609375,0.0469207763671875
1772562781543432000,6.982431884765625,-0.992584228515625,-0.015594482421875,0.0479583740234375
1772562781553499000,6.992498779296875,-0.990570068359375,-0.01458740234375,0.045135498046875
1772562781563566800,7.00256689453125,-0.9922332763671875,-0.015625,0.0478973388671875
1772562781573633800,7.0126337890625,-0.991424560546875,-0.0147705078125,0.047149658203125
1772562781583701000,7.022700927734375,-0.993072509765625,-0.0153656005859375,0.046600341796875
1772562781593768000,7.032767822265625,-0.9916229248046875,-0.0157623291015625,0.04644775390625
1772562781603835000,7.0428349609375,-0.99090576171875,-0.01531982421875,0.0463714599609375
1772562781613901800,7.05290185546875,-0.991607666015625,-0.0148162841796875,0.04583740234375
1772562781623968800,7.06296875,-0.991058349609375,-0.01336669921875,0.0472869873046875
1772562781634037000,7.073037109375,-0.9906005859375,-0.0139007568359375,0.047576904296875
1772562781644104000,7.08310400390625,-0.99127197265625,-0.015655517578125,0.0472412109375
1772562781654171000,7.0931708984375,-0.9906463623046875,-0.0148468017578125,0.047210693359375
1772562781664238000,7.103238037109375,-0.9925079345703125,-0.0143280029296875,0.0470123291015625
1772562781674305000,7.113304931640625,-0.9908447265625,-0.0148773193359375,0.0484466552734375
1772562781684372000,7.1233720703125,-0.9937744140625,-0.0141143798828125,0.0481719970703125
1772562781694440000,7.13343994140625,-0.991302490234375,-0.0135498046875,0.0465545654296875
1772562781704507000,7.1435068359375,-0.992401123046875,-0.014068603515625,0.0468902587890625
1772562781714573800,7.15357373046875,-0.9931793212890625,-0.014312744140625,0.0459136962890625
1772562781724640800,7.163640869140625,-0.9908905029296875,-0.015960693359375,0.0478515625
1772562781734707700,7.173707763671875,-0.9905548095703125,-0.0147247314453125,0.0478515625
1772562781744775000,7.18377490234375,-0.991302490234375,-0.0162811279296875,0.047760009765625
1772562781754843000,7.1938427734375,-0.9915924072265625,-0.0141143798828125,0.048187255859375
1772562781764910000,7.20391015625,-0.9905853271484375,-0.01422119140625,0.0454559326171875
1772562781774977000,7.21397705078125,-0.991241455078125,-0.01605224609375,0.047760009765625
1772562781785044000,7.2240439453125,-0.9913787841796875,-0.014129638671875,0.0475006103515625
1772562781795111000,7.23411083984375,-0.991851806640625,-0.0148468017578125,0.0479583740234375
1772562781805177900,7.244177734375,-0.9911346435546875,-0.0145416259765625,0.047149658203125
1772562781815244800,7.254244873046875,-0.9920654296875,-0.0160675048828125,0.047637939453125
1772562781825312800,7.264312744140625,-0.9926910400390625,-0.0163421630859375,0.0470733642578125
1772562781835379700,7.274379638671875,-0.9921722412109375,-0.0153045654296875,0.04583740234375
1772562781845447000,7.284447021484375,-0.9943084716796875,-0.0166168212890625,0.0464019775390625
1772562781855513900,7.294513916015625,-0.9941558837890625,-0.01611328125,0.0472259521484375
1772562781865580800,7.304580810546875,-0.992401123046875,-0.0142669677734375,0.04718017578125
1772562781875648000,7.31464794921875,-0.991790771484375,-0.015533447265625,0.0465850830078125
1772562781885716000,7.324716064453125,-0.99298095703125,-0.014678955078125,0.0483245849609375
1772562781895783000,7.334782958984375,-0.9908599853515625,-0.0141143798828125,0.048614501953125
1772562781905849900,7.344849853515625,-0.99212646484375,-0.0154876708984375,0.0482330322265625
1772562781915916800,7.354916748046875,-0.9925079345703125,-0.0146331787109375,0.0486602783203125
1772562781925984300,7.364984375,-0.99224853515625,-0.0157928466796875,0.0469970703125
1772562781936051200,7.37505126953125,-0.9916839599609375,-0.015594482421875,0.0463714599609375
1772562781946119200,7.385119140625,-0.9922637939453125,-0.0145111083984375,0.04583740234375
1772562781956186000,7.39518603515625,-0.9922637939453125,-0.0149383544921875,0.046142578125
1772562781966253000,7.405253173828125,-0.992706298828125,-0.01495361328125,0.0470428466796875
1772562781976320000,7.415320068359375,-0.9915313720703125,-0.014892578125,0.04693603515625
1772562781986387000,7.425386962890625,-0.9927215576171875,-0.0126953125,0.047515869140625
1772562781996454000,7.435453857421875,-0.992431640625,-0.01483154296875,0.0475616455078125
1772562782006521000,7.44552099609375,-0.9907073974609375,-0.0146331787109375,0.0467529296875
1772562782016588800,7.4555888671875,-0.9913787841796875,-0.014404296875,0.046844482421875
1772562782026656300,7.46565625,-0.99298095703125,-0.013885498046875,0.047607421875
1772562782036723200,7.47572314453125,-0.993072509765625,-0.0163116455078125,0.0473480224609375
1772562782046790100,7.4857900390625,-0.9919586181640625,-0.0153656005859375,0.0479278564453125
1772562782056857000,7.495857177734375,-0.9925537109375,-0.013671875,0.0449676513671875
1772562782066924000,7.505924072265625,-0.9923248291015625,-0.0151519775390625,0.045684814453125
1772562782076992000,7.515991943359375,-0.9921722412109375,-0.0143280029296875,0.0488739013671875
1772562782087059000,7.526058837890625,-0.9928131103515625,-0.0161285400390625,0.0480194091796875
1772562782097126000,7.5361259765625,-0.9935455322265625,-0.0161590576171875,0.047027587890625
1772562782107193000,7.546193115234375,-0.992889404296875,-0.014923095703125,0.0477752685546875
1772562782117260000,7.556260009765625,-0.992279052734375,-0.0148162841796875,0.0457763671875
1772562782127327000,7.566326904296875,-0.9913177490234375,-0.0159912109375,0.0469512939453125
1772562782137395200,7.576395263671875,-0.9920806884765625,-0.0153961181640625,0.0474853515625
1772562782147462100,7.586462158203125,-0.9896240234375,-0.0145263671875,0.0470428466796875
1772562782157529000,7.596529052734375,-0.98968505859375,-0.0148468017578125,0.047210693359375
1772562782167596000,7.606595947265625,-0.992919921875,-0.0140380859375,0.04681396484375
1772562782177663000,7.6166630859375,-0.9930267333984375,-0.0142364501953125,0.046661376953125
1772562782187730200,7.626730224609375,-0.9921112060546875,-0.014495849609375,0.0465545654296875
1772562782197797000,7.636797119140625,-0.99267578125,-0.0157928466796875,0.04840087890625
1772562782207865000,7.646864990234375,-0.9919586181640625,-0.01531982421875,0.0466156005859375
1772562782217932000,7.65693212890625,-0.9921417236328125,-0.0156707763671875,0.04888916015625
1772562782227999000,7.6669990234375,-0.993682861328125,-0.0147857666015625,0.04791259765625
1772562782238066000,7.67706591796875,-0.99273681640625,-0.0135498046875,0.048248291015625
1772562782248132900,7.6871328125,-0.9915313720703125,-0.0143280029296875,0.0480499267578125
1772562782258199800,7.69719970703125,-0.992095947265625,-0.0133819580078125,0.04779052734375
1772562782268268000,7.70726806640625,-0.9916229248046875,-0.01458740234375,0.04669189453125
1772562782278335000,7.7173349609375,-0.9906005859375,-0.013702392578125,0.0440826416015625
1772562782288402200,7.727402099609375,-0.990936279296875,-0.0146636962890625,0.047515869140625
1772562782298469000,7.73746923828125,-0.991455078125,-0.015167236328125,0.04638671875
1772562782308536000,7.7475361328125,-0.991943359375,-0.01519775390625,0.0493316650390625
1772562782318603000,7.75760302734375,-0.9919586181640625,-0.0162811279296875,0.048004150390625
1772562782328671000,7.7676708984375,-0.9928131103515625,-0.0143890380859375,0.04864501953125
1772562782338738000,7.777738037109375,-0.9919281005859375,-0.01434326171875,0.0474395751953125
1772562782348804900,7.787804931640625,-0.989898681640625,-0.0148773193359375,0.048492431640625
1772562782358872000,7.7978720703125,-0.9907379150390625,-0.0163726806640625,0.047454833984375
1772562782368939000,7.80793896484375,-0.9912567138671875,-0.01556396484375,0.0464630126953125
1772562782379006200,7.818006103515625,-0.990570068359375,-0.015106201171875,0.0474853515625
1772562782389073200,7.8280732421875,-0.991241455078125,-0.0146636962890625,0.0472564697265625
1772562782399141000,7.83814111328125,-0.991607666015625,-0.0156402587890625,0.0469207763671875
1772562782409208000,7.8482080078125,-0.9917144775390625,-0.0154266357421875,0.047821044921875
1772562782419275000,7.85827490234375,-0.9919586181640625,-0.01434326171875,0.046234130859375
1772562782429342000,7.868342041015625,-0.9920501708984375,-0.0156707763671875,0.04541015625
1772562782439409000,7.878408935546875,-0.99261474609375,-0.015716552734375,0.046661376953125
1772562782449476000,7.88847607421875,-0.99224853515625,-0.0154571533203125,0.046875
1772562782459544000,7.8985439453125,-0.9919891357421875,-0.014801025390625,0.045867919921875
1772562782469611000,7.908611083984375,-0.9913482666015625,-0.01495361328125,0.0472412109375
1772562782479678000,7.918677978515625,-0.991180419921875,-0.0145416259765625,0.048095703125
1772562782489745200,7.9287451171875,-0.9912872314453125,-0.014068603515625,0.048248291015625
1772562782499812000,7.93881201171875,-0.99114990234375,-0.0149078369140625,0.047119140625
1772562782509879000,7.948879150390625,-0.9915771484375,-0.0140838623046875,0.0469207763671875
1772562782519947000,7.958947021484375,-0.9915771484375,-0.0141448974609375,0.047454833984375
1772562782530014000,7.969013916015625,-0.9908447265625,-0.0154266357421875,0.0489044189453125
1772562782540081200,7.9790810546875,-0.9918060302734375,-0.0154266357421875,0.0471649169921875
1772562782550148000,7.989148193359375,-0.99176025390625,-0.014892578125,0.0484161376953125
1772562782560215000,7.999215087890625,-0.9913787841796875,-0.0153656005859375,0.046905517578125
1772562782570282000,8.009281982421875,-0.9926910400390625,-0.014678955078125,0.0471649169921875
1772562782580349000,8.019348876953124,-0.99249267578125,-0.0149993896484375,0.0467987060546875
1772562782590417200,8.029417236328126,-0.9925994873046875,-0.0145111083984375,0.0470428466796875
1772562782600484000,8.039484130859375,-0.99176025390625,-0.013671875,0.047698974609375
1772562782610551000,8.049551025390626,-0.9916839599609375,-0.015472412109375,0.046875
1772562782620618000,8.059617919921875,-0.992889404296875,-0.0156097412109375,0.048126220703125
1772562782630685200,8.069685302734374,-0.99200439453125,-0.014251708984375,0.04833984375
1772562782640752000,8.079752197265625,-0.9921722412109375,-0.0150299072265625,0.0465850830078125
1772562782650820000,8.089820068359375,-0.99139404296875,-0.0155487060546875,0.04840087890625
1772562782660887000,8.099886962890626,-0.991058349609375,-0.016082763671875,0.04766845703125
1772562782670954000,8.1099541015625,-0.992034912109375,-0.01434326171875,0.047332763671875
1772562782681021000,8.12002099609375,-0.9912261962890625,-0.0156707763671875,0.04840087890625
1772562782691088000,8.130087890625,-0.9921417236328125,-0.0149993896484375,0.0476531982421875
1772562782701155000,8.140155029296874,-0.9920501708984375,-0.014434814453125,0.04656982421875
1772562782711223000,8.15022314453125,-0.991851806640625,-0.0134124755859375,0.047271728515625
1772562782721290000,8.1602900390625,-0.990966796875,-0.0145111083984375,0.048095703125
1772562782731357200,8.170357177734376,-0.989715576171875,-0.0152740478515625,0.0469512939453125
1772562782741424000,8.180424072265625,-0.9925079345703125,-0.014984130859375,0.0477447509765625
1772562782751491000,8.190490966796874,-0.9918975830078125,-0.014923095703125,0.0467376708984375
1772562782761558000,8.20055810546875,-0.9915618896484375,-0.0144195556640625,0.0464935302734375
1772562782771625000,8.210625,-0.992218017578125,-0.014404296875,0.0485382080078125
1772562782781693000,8.22069287109375,-0.9906005859375,-0.0160675048828125,0.0466766357421875
1772562782791760000,8.230759765625,-0.9911956787109375,-0.0151824951171875,0.047821044921875
1772562782801827000,8.2408271484375,-0.99322509765625,-0.0137176513671875,0.04632568359375
1772562782811894000,8.25089404296875,-0.9908447265625,-0.014312744140625,0.0482635498046875
1772562782821961000,8.2609609375,-0.9927978515625,-0.014617919921875,0.0487518310546875
1772562782832028200,8.271028076171875,-0.9918365478515625,-0.0143585205078125,0.0484466552734375
1772562782842096000,8.28109619140625,-0.9918670654296875,-0.01507568359375,0.048004150390625
1772562782852163000,8.2911630859375,-0.9915618896484375,-0.0161895751953125,0.0482025146484375
1772562782862230000,8.30122998046875,-0.9928436279296875,-0.01409912109375,0.046295166015625
1772562782872297000,8.311296875,-0.991851806640625,-0.0136260986328125,0.0484161376953125
1772562782882363400,8.32136328125,-0.9923553466796875,-0.0155792236328125,0.047454833984375
1772562782892430300,8.331430419921874,-0.9897003173828125,-0.0154266357421875,0.04656982421875
1772562782902498600,8.34149853515625,-0.9906158447265625,-0.01690673828125,0.0486297607421875
1772562782912565500,8.3515654296875,-0.9930572509765625,-0.0144195556640625,0.0474395751953125
1772562782922632400,8.361632568359376,-0.9927520751953125,-0.0139617919921875,0.046173095703125
1772562782932699400,8.371699462890625,-0.992034912109375,-0.0136260986328125,0.0474090576171875
1772562782942766300,8.381766357421874,-0.99102783203125,-0.01483154296875,0.047698974609375
1772562782952833500,8.39183349609375,-0.9925079345703125,-0.013702392578125,0.04595947265625
1772562782962901200,8.4019013671875,-0.991546630859375,-0.016693115234375,0.04803466796875
1772562782972968400,8.411968505859376,-0.9921722412109375,-0.0153656005859375,0.04693603515625
1772562782983035400,8.422035400390625,-0.990631103515625,-0.0141143798828125,0.0467987060546875
1772562782993102300,8.432102294921876,-0.9908599853515625,-0.0146026611328125,0.04888916015625
1772562783003169300,8.442169189453125,-0.991119384765625,-0.0135345458984375,0.048492431640625
1772562783013236500,8.452236572265624,-0.9930572509765625,-0.0144500732421875,0.04791259765625
1772562783023304400,8.462304443359375,-0.9921875,-0.015533447265625,0.047943115234375
1772562783033371400,8.472371337890625,-0.9927825927734375,-0.014404296875,0.0469512939453125
1772562783043438300,8.482438232421876,-0.9910888671875,-0.0159759521484375,0.0469207763671875
1772562783053505500,8.492505615234375,-0.9915771484375,-0.0154266357421875,0.0484619140625
1772562783063572500,8.502572509765624,-0.9927215576171875,-0.014190673828125,0.046142578125
1772562783073639400,8.512639404296875,-0.9922943115234375,-0.0136566162109375,0.0480499267578125
1772562783083706400,8.522706298828124,-0.9916534423828125,-0.0152587890625,0.047698974609375
1772562783093774300,8.5327744140625,-0.9912872314453125,-0.0148773193359375,0.0485687255859375
1772562783103841300,8.54284130859375,-0.991241455078125,-0.0150146484375,0.047027587890625
1772562783113908200,8.552908203125,-0.992401123046875,-0.01422119140625,0.047943115234375
1772562783123975400,8.562975341796875,-0.9916839599609375,-0.014068603515625,0.04705810546875
1772562783134042600,8.573042724609374,-0.9921722412109375,-0.01446533203125,0.0461273193359375
1772562783144109600,8.583109619140625,-0.9918365478515625,-0.0149078369140625,0.0487213134765625
1772562783154177500,8.593177490234375,-0.9922637939453125,-0.0147705078125,0.0489501953125
1772562783164244500,8.603244384765626,-0.9917755126953125,-0.0154571533203125,0.047271728515625
1772562783174311400,8.6133115234375,-0.992462158203125,-0.0155487060546875,0.048797607421875
1772562783184378400,8.62337841796875,-0.992279052734375,-0.01544189453125,0.0485687255859375
1772562783194445300,8.6334453125,-0.991943359375,-0.01513671875,0.048675537109375
1772562783204512300,8.64351220703125,-0.99176025390625,-0.01422119140625,0.0496063232421875
1772562783214580200,8.653580322265626,-0.991668701171875,-0.013885498046875,0.0475616455078125
1772562783224647400,8.6636474609375,-0.9927215576171875,-0.0157318115234375,0.0476837158203125
1772562783234714600,8.673714599609376,-0.99169921875,-0.0150604248046875,0.04888916015625
1772562783244781600,8.683781494140625,-0.9913177490234375,-0.012939453125,0.0482330322265625
1772562783254848500,8.6938486328125,-0.9916229248046875,-0.0142974853515625,0.0482025146484375
1772562783264915500,8.70391552734375,-0.991302490234375,-0.0139923095703125,0.0454559326171875
1772562783274982400,8.713982421875,-0.99163818359375,-0.0136871337890625,0.0464935302734375
1772562783285050400,8.72405029296875,-0.9929962158203125,-0.015533447265625,0.0449676513671875
1772562783295117300,8.734117431640625,-0.991485595703125,-0.015655517578125,0.0465850830078125
1772562783305184300,8.744184326171874,-0.99163818359375,-0.0142822265625,0.0479888916015625
1772562783315251500,8.75425146484375,-0.991058349609375,-0.014984130859375,0.04791259765625
1772562783325318400,8.764318359375,-0.992095947265625,-0.0158233642578125,0.047454833984375
1772562783335385300,8.77438525390625,-0.992462158203125,-0.014617919921875,0.0463104248046875
1772562783345453600,8.78445361328125,-0.99163818359375,-0.01434326171875,0.047393798828125
1772562783355520500,8.7945205078125,-0.992767333984375,-0.015594482421875,0.0474395751953125
1772562783365587500,8.80458740234375,-0.991607666015625,-0.014373779296875,0.04718017578125
1772562783375654400,8.814654296875,-0.99102783203125,-0.01611328125,0.0480499267578125
1772562783385721300,8.824721435546875,-0.9913330078125,-0.0152740478515625,0.0466766357421875
1772562783395788500,8.83478857421875,-0.9922943115234375,-0.0144195556640625,0.046783447265625
1772562783405856300,8.844856201171876,-0.99261474609375,-0.0146636962890625,0.0474853515625
1772562783415923500,8.85492333984375,-0.9936370849609375,-0.0153961181640625,0.0469818115234375
1772562783425990400,8.864990478515624,-0.9922637939453125,-0.0159149169921875,0.0482330322265625
1772562783436057300,8.875057373046875,-0.9922943115234375,-0.016021728515625,0.0457000732421875
1772562783446124300,8.885124267578124,-0.9913177490234375,-0.0141754150390625,0.046142578125
1772562783456191200,8.895191162109375,-0.9921722412109375,-0.0143585205078125,0.0460205078125
1772562783466259500,8.905259521484375,-0.9927520751953125,-0.0145416259765625,0.046112060546875
1772562783476326400,8.915326416015626,-0.9918060302734375,-0.0157623291015625,0.0475311279296875
1772562783486393300,8.925393310546875,-0.9912567138671875,-0.01446533203125,0.04888916015625
1772562783496460500,8.93546044921875,-0.990753173828125,-0.0158538818359375,0.0476226806640625
1772562783506527500,8.945527587890625,-0.9910125732421875,-0.01531982421875,0.0474853515625
1772562783516594400,8.955594482421875,-0.993316650390625,-0.015472412109375,0.045684814453125
1772562783526661400,8.965661376953125,-0.9923248291015625,-0.01568603515625,0.045318603515625
1772562783536729300,8.975729248046875,-0.9900665283203125,-0.015838623046875,0.0465545654296875
1772562783546796300,8.98579638671875,-0.99188232421875,-0.0146942138671875,0.0481719970703125
1772562783556863200,8.99586328125,-0.9920654296875,-0.015411376953125,0.0459442138671875
1772562783566930200,9.00593017578125,-0.991119384765625,-0.01409912109375,0.0472412109375
1772562783576997600,9.01599755859375,-0.9922027587890625,-0.0144805908203125,0.048553466796875
1772562783587064600,9.026064697265625,-0.9918212890625,-0.015228271484375,0.048004150390625
1772562783597132500,9.036132568359376,-0.9921417236328125,-0.01409912109375,0.0480804443359375
1772562783607199500,9.046199462890625,-0.9913787841796875,-0.0145721435546875,0.047576904296875
1772562783617266400,9.056266357421874,-0.991302490234375,-0.0141754150390625,0.046783447265625
1772562783627333400,9.06633349609375,-0.99139404296875,-0.0146331787109375,0.048065185546875
1772562783637400300,9.076400390625,-0.991607666015625,-0.0145111083984375,0.0467071533203125
1772562783647467300,9.08646728515625,-0.992401123046875,-0.015625,0.047210693359375
1772562783657535200,9.09653515625,-0.99224853515625,-0.0149383544921875,0.048248291015625
1772562783667602200,9.106602294921874,-0.9913330078125,-0.0147857666015625,0.04803466796875
1772562783677669600,9.116669677734375,-0.992340087890625,-0.0146026611328125,0.0487823486328125
1772562783687736600,9.126736572265624,-0.9918060302734375,-0.0136566162109375,0.0472259521484375
1772562783697803500,9.136803466796875,-0.992706298828125,-0.0152130126953125,0.0464019775390625
1772562783707870500,9.146870361328125,-0.9929962158203125,-0.0155029296875,0.0473785400390625
1772562783717937400,9.1569375,-0.9913787841796875,-0.0143585205078125,0.048553466796875
1772562783728005400,9.16700537109375,-0.9925689697265625,-0.01513671875,0.0471343994140625
1772562783738072300,9.177072265625,-0.992431640625,-0.0158233642578125,0.046356201171875
1772562783748139300,9.18713916015625,-0.9929046630859375,-0.015655517578125,0.0485687255859375
1772562783758206500,9.19720654296875,-0.99285888671875,-0.0141143798828125,0.0475006103515625
1772562783768273400,9.2072734375,-0.9919586181640625,-0.0146942138671875,0.0481719970703125
1772562783778340400,9.21734033203125,-0.9926605224609375,-0.0144805908203125,0.047393798828125
1772562783788408600,9.22740869140625,-0.991455078125,-0.015106201171875,0.0476531982421875
1772562783798475500,9.2374755859375,-0.9932098388671875,-0.0140228271484375,0.04840087890625
1772562783808542500,9.24754248046875,-0.9905548095703125,-0.0145263671875,0.0478515625
1772562783818609400,9.257609375,-0.9903717041015625,-0.0133514404296875,0.047332763671875
1772562783828676400,9.26767626953125,-0.99188232421875,-0.0143280029296875,0.0467376708984375
1772562783838743600,9.27774365234375,-0.992034912109375,-0.015655517578125,0.0485076904296875
1772562783848811300,9.287811279296875,-0.9918365478515625,-0.015594482421875,0.047607421875
1772562783858878500,9.29787841796875,-0.99029541015625,-0.0149993896484375,0.0460357666015625
1772562783868945400,9.3079453125,-0.991973876953125,-0.015167236328125,0.0466156005859375
1772562783879012400,9.318012451171874,-0.99273681640625,-0.01397705078125,0.047698974609375
1772562783889080000,9.328080078125,-0.99310302734375,-0.014068603515625,0.0499725341796875
1772562783899147000,9.33814697265625,-0.991180419921875,-0.0166473388671875,0.0466766357421875
1772562783909215000,9.348215087890624,-0.9907684326171875,-0.015777587890625,0.0469512939453125
1772562783919282000,9.358281982421875,-0.9901275634765625,-0.0147247314453125,0.04791259765625
1772562783929348900,9.368348876953124,-0.9917449951171875,-0.014312744140625,0.0447845458984375
1772562783939415800,9.378415771484375,-0.9921722412109375,-0.0150604248046875,0.04644775390625
1772562783949483000,9.38848291015625,-0.990997314453125,-0.0162811279296875,0.045623779296875
1772562783959550000,9.398550048828126,-0.9911651611328125,-0.015472412109375,0.046783447265625
1772562783969617000,9.408616943359375,-0.9910888671875,-0.014801025390625,0.048919677734375
1772562783979684900,9.418684814453124,-0.991455078125,-0.015045166015625,0.0475311279296875
1772562783989752000,9.428751953125,-0.9925689697265625,-0.013916015625,0.04595947265625
1772562783999819000,9.438819091796875,-0.9934539794921875,-0.0134735107421875,0.0465545654296875
1772562784009886000,9.448885986328126,-0.9923553466796875,-0.0150299072265625,0.0467071533203125
1772562784019953000,9.458952880859375,-0.9922332763671875,-0.015106201171875,0.0487213134765625
1772562784030020000,9.46902001953125,-0.9917755126953125,-0.0154571533203125,0.047698974609375
1772562784040088000,9.479088134765625,-0.990875244140625,-0.01409912109375,0.047119140625
1772562784050155000,9.489155029296874,-0.9910125732421875,-0.0146026611328125,0.04833984375
1772562784060222000,9.499221923828125,-0.9910430908203125,-0.014739990234375,0.04766845703125
1772562784070289000,9.509288818359375,-0.991851806640625,-0.0146636962890625,0.0452728271484375
1772562784080355800,9.51935595703125,-0.99188232421875,-0.0145721435546875,0.046661376953125
1772562784090422800,9.5294228515625,-0.9911956787109375,-0.015228271484375,0.04718017578125
1772562784100491000,9.539490966796874,-0.9919891357421875,-0.0150604248046875,0.04754638671875
1772562784110558000,9.549557861328125,-0.9931488037109375,-0.015411376953125,0.0480499267578125
1772562784120625000,9.559625,-0.99273681640625,-0.014923095703125,0.046905517578125
1772562784130692000,9.569692138671876,-0.99163818359375,-0.013946533203125,0.0453948974609375
1772562784140759000,9.579759033203125,-0.9918975830078125,-0.015533447265625,0.0484466552734375
1772562784150826000,9.589825927734376,-0.9904022216796875,-0.015655517578125,0.047271728515625
1772562784160894000,9.59989404296875,-0.9918670654296875,-0.0146942138671875,0.0468292236328125
1772562784170961000,9.6099609375,-0.9909210205078125,-0.014739990234375,0.0484771728515625
1772562784181027800,9.62002783203125,-0.9922027587890625,-0.015380859375,0.0456085205078125
1772562784191094800,9.6300947265625,-0.9918670654296875,-0.0155487060546875,0.04669189453125
1772562784201162000,9.640161865234376,-0.9908447265625,-0.0156707763671875,0.0478057861328125
1772562784211229000,9.65022900390625,-0.9916229248046875,-0.0154266357421875,0.04791259765625
1772562784221297200,9.660297119140624,-0.991485595703125,-0.013763427734375,0.0456085205078125
1772562784231364000,9.670364013671875,-0.99029541015625,-0.0144195556640625,0.0472869873046875
1772562784241431000,9.68043115234375,-0.9920501708984375,-0.0147552490234375,0.046478271484375
1772562784251498000,9.690498046875,-0.994659423828125,-0.016387939453125,0.0466461181640625
1772562784261565000,9.70056494140625,-0.992034912109375,-0.01458740234375,0.0464935302734375
1772562784271632000,9.7106318359375,-0.991790771484375,-0.015411376953125,0.048126220703125
1772562784281698800,9.72069873046875,-0.99151611328125,-0.016265869140625,0.0475311279296875
1772562784291766800,9.730766845703124,-0.99169921875,-0.014923095703125,0.0468902587890625
1772562784301834000,9.740833984375,-0.990875244140625,-0.0154571533203125,0.048370361328125
1772562784311901000,9.75090087890625,-0.99139404296875,-0.0148773193359375,0.0491180419921875
1772562784321967900,9.7609677734375,-0.9907989501953125,-0.01397705078125,0.047149658203125
1772562784332035000,9.77103515625,-0.9911651611328125,-0.0142669677734375,0.047119140625
1772562784342102000,9.78110205078125,-0.992218017578125,-0.015838623046875,0.047271728515625
1772562784352170000,9.791169921875,-0.991302490234375,-0.0148773193359375,0.0478973388671875
1772562784362237000,9.80123681640625,-0.991119384765625,-0.0138397216796875,0.04583740234375
1772562784372304000,9.811303955078126,-0.991729736328125,-0.015655517578125,0.0471954345703125
1772562784382371000,9.82137109375,-0.9903564453125,-0.0151824951171875,0.0471038818359375
1772562784392438000,9.83143798828125,-0.9922943115234375,-0.0146484375,0.047271728515625
1772562784402505000,9.8415048828125,-0.992279052734375,-0.01690673828125,0.0488128662109375
1772562784412573000,9.851572998046874,-0.9910888671875,-0.0140533447265625,0.0462493896484375
1772562784422639900,9.861639892578125,-0.9913787841796875,-0.01629638671875,0.04644775390625
1772562784432706800,9.871706787109375,-0.9906158447265625,-0.01422119140625,0.044830322265625
1772562784442774000,9.88177392578125,-0.990631103515625,-0.01434326171875,0.04644775390625
1772562784452841000,9.891841064453125,-0.9912261962890625,-0.0150146484375,0.047088623046875
1772562784462908000,9.901907958984374,-0.9918365478515625,-0.0135955810546875,0.04779052734375
1772562784472976000,9.911975830078125,-0.991973876953125,-0.0147552490234375,0.048492431640625
1772562784483043000,9.92204296875,-0.991912841796875,-0.016448974609375,0.04705810546875
1772562784493110000,9.932110107421876,-0.991455078125,-0.0154876708984375,0.047515869140625
1772562784503177000,9.942177001953125,-0.9919891357421875,-0.015045166015625,0.047088623046875
1772562784513244000,9.952243896484376,-0.992919921875,-0.015289306640625,0.047760009765625
1772562784523310800,9.962310791015625,-0.993408203125,-0.0146331787109375,0.0486602783203125
1772562784533377800,9.972377685546874,-0.9908599853515625,-0.015838623046875,0.0461273193359375
1772562784543446000,9.982446044921875,-0.9913330078125,-0.01544189453125,0.0482940673828125
1772562784553513000,9.992512939453125,-0.9931640625,-0.014251708984375,0.04656982421875
1772562784563580200,10.002580078125,-0.9907989501953125,-0.0156707763671875,0.047027587890625
1772562784573647000,10.012647216796875,-0.99176025390625,-0.0140838623046875,0.0494842529296875
1772562784583714000,10.022714111328124,-0.9915924072265625,-0.0139312744140625,0.0470428466796875
1772562784593781000,10.032781005859375,-0.9927825927734375,-0.015472412109375,0.046539306640625
1772562784603849000,10.042848876953125,-0.992218017578125,-0.01513671875,0.0493316650390625
1772562784613916000,10.052916015625,-0.990814208984375,-0.0149078369140625,0.047576904296875
1772562784623982800,10.06298291015625,-0.9940948486328125,-0.0149993896484375,0.04571533203125
1772562784634049800,10.0730498046875,-0.9906463623046875,-0.0152130126953125,0.0458221435546875
1772562784644117000,10.083116943359375,-0.99188232421875,-0.0160369873046875,0.0463714599609375
1772562784654184000,10.093183837890624,-0.991668701171875,-0.015045166015625,0.0471954345703125
1772562784664252200,10.103252197265626,-0.9910430908203125,-0.0156402587890625,0.0485382080078125
1772562784674319000,10.113319091796875,-0.993408203125,-0.014556884765625,0.046966552734375
1772562784684386000,10.123385986328126,-0.990692138671875,-0.01470947265625,0.047027587890625
1772562784694453000,10.133452880859375,-0.9910430908203125,-0.014434814453125,0.047027587890625
1772562784704520000,10.14352001953125,-0.99090576171875,-0.0157623291015625,0.04766845703125
1772562784714587000,10.1535869140625,-0.9927215576171875,-0.0157318115234375,0.046661376953125
1772562784724654800,10.16365478515625,-0.9908905029296875,-0.0156097412109375,0.0467071533203125
1772562784734721800,10.1737216796875,-0.9913177490234375,-0.0151824951171875,0.047393798828125
1772562784744789000,10.1837890625,-0.99066162109375,-0.014739990234375,0.0476837158203125
1772562784754856000,10.19385595703125,-0.991729736328125,-0.0160064697265625,0.0468597412109375
1772562784764923000,10.2039228515625,-0.99169921875,-0.0137786865234375,0.0460662841796875
1772562784774989800,10.21398974609375,-0.99163818359375,-0.01556396484375,0.045318603515625
1772562784785056800,10.224056884765625,-0.9918975830078125,-0.015380859375,0.047119140625
1772562784795125000,10.234125,-0.9910888671875,-0.0147705078125,0.0453948974609375
1772562784805192000,10.24419189453125,-0.9913787841796875,-0.015289306640625,0.04766845703125
1772562784815258000,10.254258056640625,-0.9922637939453125,-0.0156402587890625,0.0458831787109375
1772562784825325000,10.264324951171876,-0.992279052734375,-0.0144195556640625,0.046905517578125
1772562784835392000,10.27439208984375,-0.9901580810546875,-0.0137786865234375,0.0469970703125
1772562784845459000,10.284458984375,-0.9921112060546875,-0.0133514404296875,0.0463714599609375
1772562784855526000,10.29452587890625,-0.9918212890625,-0.0146636962890625,0.0473175048828125
1772562784865593900,10.30459375,-0.9919891357421875,-0.0147247314453125,0.047149658203125
1772562784875660800,10.314660888671876,-0.9912567138671875,-0.0147247314453125,0.0481109619140625
1772562784885728000,10.32472802734375,-0.9924163818359375,-0.01519775390625,0.0488739013671875
1772562784895795000,10.334794921875,-0.9912109375,-0.014923095703125,0.0483245849609375
1772562784905862000,10.34486181640625,-0.9928436279296875,-0.014556884765625,0.047576904296875
1772562784915928800,10.3549287109375,-0.9931640625,-0.0152740478515625,0.046905517578125
1772562784925996800,10.364996826171875,-0.9923858642578125,-0.014923095703125,0.0482635498046875
1772562784936063700,10.375063720703125,-0.99176025390625,-0.0140533447265625,0.0489654541015625
1772562784946130700,10.385130615234376,-0.9921417236328125,-0.0152740478515625,0.0491180419921875
1772562784956197600,10.39519775390625,-0.9922027587890625,-0.014617919921875,0.048614501953125
1772562784966264800,10.405264892578124,-0.9927215576171875,-0.0157928466796875,0.0474853515625
1772562784976331800,10.415331787109375,-0.9930267333984375,-0.015411376953125,0.048004150390625
1772562784986400000,10.42539990234375,-0.9931793212890625,-0.016448974609375,0.0484619140625
1772562784996467000,10.435467041015626,-0.991790771484375,-0.0142059326171875,0.0459747314453125
1772562785006534000,10.445533935546875,-0.9914093017578125,-0.0148162841796875,0.04638671875
1772562785016600800,10.455600830078126,-0.993194580078125,-0.0156402587890625,0.0479736328125
1772562785026667800,10.465667724609375,-0.9901123046875,-0.0149993896484375,0.0455780029296875
1772562785036734700,10.475734619140624,-0.9923095703125,-0.01556396484375,0.046539306640625
1772562785046802000,10.485802001953125,-0.9913482666015625,-0.0151214599609375,0.04644775390625
1772562785056869600,10.49586962890625,-0.9909210205078125,-0.0148468017578125,0.0479736328125
1772562785066936800,10.505936767578126,-0.992095947265625,-0.015106201171875,0.0442962646484375
1772562785077003800,10.516003662109375,-0.99114990234375,-0.01593017578125,0.046417236328125
1772562785087071000,10.526071044921874,-0.99078369140625,-0.0137481689453125,0.0467987060546875
1772562785097138000,10.536137939453125,-0.9915618896484375,-0.01495361328125,0.050048828125
1772562785107204900,10.546204833984374,-0.9921417236328125,-0.0155181884765625,0.0477447509765625
1772562785117272800,10.55627294921875,-0.9913482666015625,-0.014617919921875,0.04541015625
1772562785127339800,10.56633984375,-0.9920806884765625,-0.014739990234375,0.047637939453125
1772562785137406700,10.57640673828125,-0.99212646484375,-0.015289306640625,0.0478363037109375
1772562785147474000,10.586473876953125,-0.990509033203125,-0.015594482421875,0.046844482421875
1772562785157540900,10.596540771484374,-0.9912109375,-0.01605224609375,0.0471954345703125
1772562785167607800,10.60660791015625,-0.9920501708984375,-0.016021728515625,0.0474853515625
1772562785177675800,10.61667578125,-0.991943359375,-0.016021728515625,0.0463104248046875
1772562785187742700,10.62674267578125,-0.9927825927734375,-0.015350341796875,0.0467529296875
1772562785197810000,10.636809814453125,-0.9918670654296875,-0.014495849609375,0.04638671875
1772562785207876900,10.646876953125,-0.9937744140625,-0.0146331787109375,0.0464324951171875
1772562785217943800,10.65694384765625,-0.9922332763671875,-0.01458740234375,0.04901123046875
1772562785228011000,10.667010986328124,-0.99114990234375,-0.013427734375,0.048095703125
1772562785238078000,10.677077880859375,-0.9914398193359375,-0.013916015625,0.0474090576171875
1772562785248146000,10.68714599609375,-0.9916839599609375,-0.0141448974609375,0.0488739013671875
1772562785258212900,10.697212890625,-0.990234375,-0.0146636962890625,0.0474853515625
1772562785268279800,10.70727978515625,-0.9917144775390625,-0.013824462890625,0.046722412109375
1772562785278346800,10.7173466796875,-0.992645263671875,-0.0155792236328125,0.0491790771484375
1772562785288413700,10.72741357421875,-0.9927215576171875,-0.0153656005859375,0.0462646484375
1772562785298480600,10.737480712890624,-0.9905548095703125,-0.0146026611328125,0.0470733642578125
1772562785308548900,10.747548828125,-0.9919281005859375,-0.015045166015625,0.0473785400390625
1772562785318615800,10.75761572265625,-0.9913482666015625,-0.0145416259765625,0.0482635498046875
1772562785328683000,10.76768310546875,-0.9920501708984375,-0.0155181884765625,0.04638671875
1772562785338750000,10.77775,-0.990997314453125,-0.0139923095703125,0.047210693359375
1772562785348817000,10.78781689453125,-0.991241455078125,-0.0154266357421875,0.0482025146484375
1772562785358883800,10.7978837890625,-0.99285888671875,-0.0147552490234375,0.0485992431640625
1772562785368951800,10.807951904296875,-0.992706298828125,-0.0143890380859375,0.0491790771484375
1772562785379018800,10.818018798828126,-0.990875244140625,-0.01373291015625,0.0475921630859375
1772562785389085700,10.828085693359375,-0.991455078125,-0.0145721435546875,0.0456390380859375
1772562785399152600,10.838152587890624,-0.9932098388671875,-0.0150146484375,0.0465087890625
1772562785409219800,10.8482197265625,-0.9929351806640625,-0.015411376953125,0.048187255859375
1772562785419286800,10.858286865234374,-0.9925994873046875,-0.0147705078125,0.047607421875
1772562785429355000,10.86835498046875,-0.9931488037109375,-0.015411376953125,0.0498504638671875
1772562785439422000,10.878421875,-0.9938507080078125,-0.01556396484375,0.0476837158203125
1772562785449489000,10.888489013671874,-0.9931182861328125,-0.015777587890625,0.0474395751953125
1772562785459555800,10.898555908203125,-0.9916229248046875,-0.0155792236328125,0.047637939453125
1772562785469622800,10.908622802734374,-0.9903717041015625,-0.0142822265625,0.0474090576171875
1772562785479689700,10.918689697265625,-0.991546630859375,-0.01446533203125,0.048431396484375
1772562785489757700,10.9287578125,-0.990478515625,-0.014923095703125,0.04754638671875
1772562785499824600,10.93882470703125,-0.9923858642578125,-0.0148468017578125,0.0486602783203125
1772562785509891800,10.948891845703125,-0.99285888671875,-0.0138702392578125,0.0478668212890625
1772562785519958800,10.958958740234374,-0.99114990234375,-0.01446533203125,0.0478363037109375
1772562785530025700,10.969025634765625,-0.991851806640625,-0.0136260986328125,0.04888916015625
1772562785540092700,10.9790927734375,-0.9930877685546875,-0.0150299072265625,0.0480499267578125
1772562785550161000,10.989160888671876,-0.990631103515625,-0.013916015625,0.0465240478515625
1772562785560227800,10.999227783203125,-0.9919281005859375,-0.014068603515625,0.04815673828125
1772562785570294800,11.009294677734376,-0.990753173828125,-0.0150909423828125,0.0469512939453125
1772562785580361700,11.01936181640625,-0.991851806640625,-0.014373779296875,0.046722412109375
1772562785590429000,11.029428955078124,-0.9903411865234375,-0.015625,0.0456085205078125
1772562785600495900,11.039495849609375,-0.9918060302734375,-0.0137176513671875,0.0478057861328125
1772562785610562800,11.049562744140625,-0.9914398193359375,-0.013641357421875,0.048126220703125
1772562785620630800,11.059630859375,-0.99163818359375,-0.0146026611328125,0.04608154296875
1772562785630697700,11.06969775390625,-0.99151611328125,-0.0139312744140625,0.0472869873046875
1772562785640764700,11.0797646484375,-0.99072265625,-0.01446533203125,0.0464324951171875
1772562785650832000,11.089831787109375,-0.991668701171875,-0.0140838623046875,0.0476531982421875
1772562785660898800,11.09989892578125,-0.9924163818359375,-0.0147705078125,0.047515869140625
1772562785670966000,11.109966064453126,-0.9914703369140625,-0.0138397216796875,0.0457305908203125
1772562785681033700,11.12003369140625,-0.99139404296875,-0.01519775390625,0.0480499267578125
1772562785691101000,11.130100830078124,-0.993804931640625,-0.016204833984375,0.046875
1772562785701167900,11.14016796875,-0.9912567138671875,-0.01519775390625,0.04632568359375
1772562785711234800,11.15023486328125,-0.989410400390625,-0.01495361328125,0.0462646484375
1772562785721301800,11.1603017578125,-0.9901885986328125,-0.0143585205078125,0.0464935302734375
1772562785731368700,11.17036865234375,-0.991729736328125,-0.01605224609375,0.0473785400390625
1772562785741436700,11.180436767578126,-0.9934539794921875,-0.014739990234375,0.0486602783203125
1772562785751503600,11.190503662109375,-0.9925079345703125,-0.0150604248046875,0.0473480224609375
1772562785761570800,11.20057080078125,-0.9911041259765625,-0.0141754150390625,0.0464019775390625
1772562785771638000,11.210637939453125,-0.990509033203125,-0.013671875,0.046722412109375
1772562785781705000,11.220705078125,-0.9907379150390625,-0.013946533203125,0.0478363037109375
1772562785791772000,11.23077197265625,-0.9920806884765625,-0.01446533203125,0.04754638671875
1772562785801839900,11.24083984375,-0.992095947265625,-0.0149688720703125,0.0461578369140625
1772562785811906800,11.25090673828125,-0.9917755126953125,-0.014862060546875,0.0456085205078125
1772562785821973800,11.260973876953125,-0.9926605224609375,-0.014556884765625,0.0460357666015625
1772562785832040700,11.271040771484374,-0.9908905029296875,-0.0153350830078125,0.04718017578125
1772562785842107600,11.281107666015625,-0.9920806884765625,-0.014373779296875,0.04632568359375
1772562785852174800,11.2911748046875,-0.9917144775390625,-0.014556884765625,0.0465240478515625
1772562785862242800,11.301242919921876,-0.991668701171875,-0.0145263671875,0.0480194091796875
1772562785872310000,11.31131005859375,-0.992095947265625,-0.015869140625,0.04705810546875
1772562785882377000,11.321376953125,-0.99200439453125,-0.0150909423828125,0.0464324951171875
1772562785892444400,11.3314443359375,-0.9916534423828125,-0.0146484375,0.0471038818359375
1772562785902511400,11.341511474609375,-0.9907989501953125,-0.0155792236328125,0.0454864501953125
1772562785912578300,11.351578369140626,-0.9924774169921875,-0.0144805908203125,0.04833984375
1772562785922646300,11.361646240234375,-0.9913482666015625,-0.0148162841796875,0.048431396484375
1772562785932713200,11.371713134765624,-0.9930419921875,-0.015716552734375,0.0475921630859375
1772562785942780200,11.3817802734375,-0.9933929443359375,-0.015869140625,0.0484161376953125
1772562785952847400,11.391847412109374,-0.991180419921875,-0.0150146484375,0.047027587890625
1772562785962914300,11.401914306640625,-0.9925079345703125,-0.0138092041015625,0.04656982421875
1772562785972981200,11.411981201171875,-0.9919586181640625,-0.015777587890625,0.04840087890625
1772562785983048200,11.422048095703126,-0.99224853515625,-0.0157470703125,0.049407958984375
1772562785993116400,11.432116455078125,-0.9906158447265625,-0.0146636962890625,0.048828125
1772562786003183400,11.442183349609374,-0.99188232421875,-0.0149688720703125,0.0485076904296875
1772562786013250300,11.452250244140625,-0.9908599853515625,-0.0143585205078125,0.0473175048828125
1772562786023317200,11.462317138671875,-0.9910125732421875,-0.01434326171875,0.0471649169921875
1772562786033384400,11.472384521484376,-0.992645263671875,-0.0151519775390625,0.0482177734375
1772562786043451400,11.482451416015625,-0.9925994873046875,-0.0144195556640625,0.0462646484375
1772562786053519400,11.492519287109374,-0.99212646484375,-0.0152587890625,0.047576904296875
1772562786063586300,11.50258642578125,-0.9919281005859375,-0.01641845703125,0.050201416015625
1772562786073653200,11.5126533203125,-0.991668701171875,-0.015533447265625,0.04669189453125
1772562786083720200,11.52272021484375,-0.9925994873046875,-0.0139923095703125,0.0469512939453125
1772562786093787100,11.532787109375,-0.9908447265625,-0.0135498046875,0.048492431640625
1772562786103854000,11.54285400390625,-0.9916229248046875,-0.0139007568359375,0.04656982421875
1772562786113922300,11.55292236328125,-0.9933929443359375,-0.0147552490234375,0.0465545654296875
1772562786123989200,11.5629892578125,-0.9925079345703125,-0.0141143798828125,0.046905517578125
1772562786134056400,11.573056396484375,-0.9911651611328125,-0.0156097412109375,0.0475311279296875
1772562786144123400,11.583123291015625,-0.992156982421875,-0.0147247314453125,0.0462799072265625
1772562786154190300,11.5931904296875,-0.9917449951171875,-0.014495849609375,0.0457763671875
1772562786164257300,11.60325732421875,-0.991668701171875,-0.016387939453125,0.048095703125
1772562786174325200,11.6133251953125,-0.9920654296875,-0.0162353515625,0.0466766357421875
1772562786184392200,11.62339208984375,-0.9947662353515625,-0.0157928466796875,0.046966552734375
1772562786194459100,11.633459228515624,-0.9920501708984375,-0.0153350830078125,0.047607421875
1772562786204526000,11.643526123046875,-0.992156982421875,-0.016632080078125,0.0478363037109375
1772562786214593300,11.65359326171875,-0.992584228515625,-0.01544189453125,0.046875
1772562786224660500,11.663660400390626,-0.9929656982421875,-0.015045166015625,0.0464935302734375
1772562786234728400,11.673728515625,-0.992645263671875,-0.0146484375,0.045440673828125
1772562786244795400,11.68379541015625,-0.9925994873046875,-0.015289306640625,0.0475006103515625
1772562786254862300,11.6938623046875,-0.992523193359375,-0.0145721435546875,0.04754638671875
1772562786264929300,11.70392919921875,-0.9926605224609375,-0.0152740478515625,0.047576904296875
1772562786274996200,11.713996337890626,-0.991424560546875,-0.0151214599609375,0.0471038818359375
1772562786285063200,11.724063232421875,-0.991119384765625,-0.0152435302734375,0.0472412109375
1772562786295131100,11.734131103515624,-0.9920196533203125,-0.01544189453125,0.0472564697265625
1772562786305198000,11.744197998046875,-0.9914093017578125,-0.0140380859375,0.045989990234375
1772562786315265300,11.754265380859374,-0.9932098388671875,-0.01483154296875,0.04803466796875
1772562786325332200,11.764332275390625,-0.9896087646484375,-0.01519775390625,0.0468902587890625
1772562786335399400,11.7743994140625,-0.989227294921875,-0.0157928466796875,0.04766845703125
1772562786345466400,11.78446630859375,-0.9915008544921875,-0.0147247314453125,0.04620361328125
1772562786355533300,11.794533203125,-0.990447998046875,-0.01422119140625,0.0473785400390625
1772562786365601300,11.804601318359374,-0.9923095703125,-0.0154876708984375,0.04840087890625
1772562786375668200,11.814668212890625,-0.9932708740234375,-0.0151519775390625,0.0455474853515625
1772562786385735200,11.824735107421875,-0.992523193359375,-0.0162353515625,0.0483856201171875
1772562786395802400,11.83480224609375,-0.9916229248046875,-0.0149383544921875,0.0461578369140625
1772562786405869300,11.844869384765625,-0.99249267578125,-0.0153045654296875,0.0473175048828125
1772562786415936300,11.854936279296876,-0.9923248291015625,-0.0152130126953125,0.04638671875
1772562786426004200,11.865004150390625,-0.991455078125,-0.01519775390625,0.04754638671875
1772562786436071400,11.875071533203124,-0.99127197265625,-0.0157470703125,0.0469818115234375
1772562786446138400,11.885138427734375,-0.98992919921875,-0.0166473388671875,0.047332763671875
1772562786456205300,11.895205322265625,-0.9923095703125,-0.0156097412109375,0.046142578125
1772562786466272300,11.905272216796876,-0.992279052734375,-0.014404296875,0.04638671875
1772562786476339500,11.91533935546875,-0.9905853271484375,-0.0148162841796875,0.0476531982421875
1772562786486407200,11.9254072265625,-0.9911041259765625,-0.013763427734375,0.04705810546875
1772562786496474400,11.935474365234375,-0.991729736328125,-0.0153350830078125,0.04638671875
1772562786506541300,11.945541259765625,-0.9911956787109375,-0.015350341796875,0.046234130859375
1772562786516608300,11.955608154296876,-0.9926300048828125,-0.015533447265625,0.047332763671875
1772562786526675200,11.96567529296875,-0.99053955078125,-0.01556396484375,0.0480194091796875
1772562786536742100,11.9757421875,-0.9921112060546875,-0.015045166015625,0.047515869140625
1772562786546810400,11.985810302734375,-0.9913787841796875,-0.0155792236328125,0.0460357666015625
1772562786556877300,11.995877197265624,-0.99127197265625,-0.0155792236328125,0.0486297607421875
1772562786566944300,12.0059443359375,-0.991729736328125,-0.0159912109375,0.0491180419921875
1772562786577011500,12.016011474609375,-0.9896697998046875,-0.0143585205078125,0.047821044921875
1772562786587078400,12.026078369140626,-0.992523193359375,-0.013916015625,0.04681396484375
1772562786597145300,12.036145263671875,-0.9925537109375,-0.01416015625,0.04827880859375
1772562786607213300,12.04621337890625,-0.991607666015625,-0.013916015625,0.046173095703125
1772562786617280300,12.0562802734375,-0.9898834228515625,-0.0155181884765625,0.049285888671875
1772562786627347200,12.06634716796875,-0.9910125732421875,-0.015869140625,0.04888916015625
1772562786637414100,12.0764140625,-0.9912567138671875,-0.0139312744140625,0.0478057861328125
1772562786647481000,12.086481201171875,-0.991790771484375,-0.01336669921875,0.046234130859375
1772562786657548300,12.09654833984375,-0.991455078125,-0.014190673828125,0.048736572265625
1772562786667616300,12.1066162109375,-0.990997314453125,-0.014892578125,0.046234130859375
1772562786677683500,12.116683349609374,-0.9912109375,-0.0150146484375,0.047119140625
1772562786687750400,12.12675048828125,-0.99066162109375,-0.0142669677734375,0.04779052734375
1772562786697817300,12.1368173828125,-0.9921875,-0.015289306640625,0.046722412109375
1772562786707884300,12.14688427734375,-0.9912109375,-0.01251220703125,0.04705810546875
1772562786717951200,12.156951171875,-0.9951019287109375,-0.0148162841796875,0.048126220703125
1772562786728019200,12.167019287109374,-0.9915924072265625,-0.015350341796875,0.0464019775390625
1772562786738086100,12.177086181640625,-0.9919281005859375,-0.0159759521484375,0.0484619140625
1772562786748153000,12.187153076171874,-0.9920196533203125,-0.0149078369140625,0.04962158203125
1772562786758220300,12.19722021484375,-0.9922943115234375,-0.01470947265625,0.0474700927734375
1772562786768287200,12.207287353515625,-0.9916229248046875,-0.01580810546875,0.0482940673828125
1772562786778354200,12.217354248046876,-0.990814208984375,-0.01409912109375,0.0475006103515625
1772562786788422400,12.22742236328125,-0.9917449951171875,-0.0141448974609375,0.0465240478515625
1772562786798489300,12.2374892578125,-0.9914398193359375,-0.0150604248046875,0.0482940673828125
1772562786808556300,12.247556396484375,-0.9917755126953125,-0.015350341796875,0.0479736328125
1772562786818623200,12.257623291015625,-0.991119384765625,-0.015472412109375,0.047454833984375
1772562786828690200,12.267690185546876,-0.990631103515625,-0.0147705078125,0.0466461181640625
1772562786838757400,12.27775732421875,-0.9908905029296875,-0.0154266357421875,0.0477752685546875
1772562786848824300,12.28782421875,-0.9913330078125,-0.0163421630859375,0.0473480224609375
1772562786858892300,12.297892333984375,-0.9913330078125,-0.01641845703125,0.046173095703125
1772562786868959200,12.307959228515625,-0.9912872314453125,-0.0146484375,0.0473480224609375
1772562786879026200,12.318026123046875,-0.9915771484375,-0.0140533447265625,0.04791259765625
1772562786889093000,12.328093017578125,-0.9917144775390625,-0.014556884765625,0.04766845703125
1772562786899160000,12.33816015625,-0.9917755126953125,-0.015350341796875,0.0472869873046875
1772562786909227000,12.34822705078125,-0.9904632568359375,-0.01422119140625,0.0458221435546875
1772562786919295000,12.358294921875,-0.9915008544921875,-0.015045166015625,0.046905517578125
1772562786929362200,12.368362060546875,-0.99188232421875,-0.0140838623046875,0.04705810546875
1772562786939429000,12.37842919921875,-0.990386962890625,-0.0160064697265625,0.0478057861328125
1772562786949496000,12.38849609375,-0.992401123046875,-0.0149993896484375,0.04620361328125
1772562786959563000,12.39856298828125,-0.991729736328125,-0.0148773193359375,0.046478271484375
1772562786969630000,12.4086298828125,-0.9920501708984375,-0.0135498046875,0.04730224609375
1772562786979698200,12.4186982421875,-0.9921722412109375,-0.0139312744140625,0.04693603515625
1772562786989765000,12.42876513671875,-0.9908599853515625,-0.014434814453125,0.045745849609375
1772562786999832000,12.43883203125,-0.9902801513671875,-0.0150146484375,0.0465545654296875
1772562787009899300,12.448899169921875,-0.99188232421875,-0.0132598876953125,0.04730224609375
1772562787019966200,12.45896630859375,-0.992950439453125,-0.014251708984375,0.04754638671875
1772562787030033200,12.469033203125,-0.99176025390625,-0.01422119140625,0.0471343994140625
1772562787040101000,12.47910107421875,-0.99200439453125,-0.015899658203125,0.0460968017578125
1772562787050168000,12.48916796875,-0.990966796875,-0.0142974853515625,0.0476226806640625
1772562787060235000,12.499235107421875,-0.991973876953125,-0.0143890380859375,0.04656982421875
1772562787070302000,12.509302001953126,-0.99078369140625,-0.0137481689453125,0.0463409423828125
1772562787080369000,12.519368896484375,-0.990234375,-0.0142059326171875,0.04681396484375
1772562787090436000,12.52943603515625,-0.991729736328125,-0.0172882080078125,0.0465545654296875
1772562787100504000,12.539504150390625,-0.9917144775390625,-0.0149383544921875,0.048583984375
1772562787110571300,12.5495712890625,-0.99273681640625,-0.0157012939453125,0.0475616455078125
1772562787120638200,12.55963818359375,-0.9920196533203125,-0.0164794921875,0.046783447265625
1772562787130705200,12.569705078125,-0.99041748046875,-0.01483154296875,0.04718017578125
1772562787140772000,12.579772216796876,-0.9917755126953125,-0.0147552490234375,0.0464019775390625
1772562787150839000,12.589839111328125,-0.99334716796875,-0.013214111328125,0.0462646484375
1772562787160907000,12.599906982421874,-0.9920654296875,-0.0156097412109375,0.045928955078125
1772562787170974000,12.609973876953125,-0.991668701171875,-0.0149078369140625,0.0480499267578125
1772562787181041000,12.620041015625,-0.9918670654296875,-0.0149383544921875,0.0477447509765625
1772562787191108000,12.630108154296876,-0.9947052001953125,-0.0156097412109375,0.04718017578125
1772562787201175000,12.640175048828125,-0.9907684326171875,-0.01568603515625,0.0477447509765625
1772562787211242000,12.650241943359376,-0.9918212890625,-0.0138092041015625,0.0475921630859375
1772562787221310200,12.660310302734375,-0.9920196533203125,-0.0141143798828125,0.0483856201171875
1772562787231377200,12.670377197265625,-0.9921417236328125,-0.01409912109375,0.04791259765625
1772562787241444000,12.680444091796875,-0.9904632568359375,-0.015350341796875,0.049102783203125
1772562787251511000,12.690510986328125,-0.992401123046875,-0.014495849609375,0.047943115234375
1772562787261578000,12.700577880859376,-0.9915771484375,-0.0142059326171875,0.048095703125
1772562787271645200,12.710645263671875,-0.9919281005859375,-0.0147705078125,0.0473480224609375
1772562787281713000,12.720712890625,-0.99237060546875,-0.015960693359375,0.0462493896484375
1772562787291780000,12.730780029296875,-0.9910430908203125,-0.015289306640625,0.0465545654296875
1772562787301847000,12.740846923828125,-0.990570068359375,-0.0161895751953125,0.04693603515625
1772562787311914000,12.7509140625,-0.99267578125,-0.0148162841796875,0.0475921630859375
1772562787321981200,12.760981201171875,-0.992218017578125,-0.0156097412109375,0.0470733642578125
1772562787332048100,12.771048095703126,-0.99163818359375,-0.015228271484375,0.0474395751953125
1772562787342116000,12.7811162109375,-0.9929656982421875,-0.0151214599609375,0.04693603515625
1772562787352183000,12.79118310546875,-0.9937896728515625,-0.0146026611328125,0.0459747314453125
1772562787362250000,12.80125,-0.9923248291015625,-0.0146484375,0.047088623046875
1772562787372317200,12.811317138671875,-0.99169921875,-0.01580810546875,0.0474700927734375
1772562787382384000,12.821384033203126,-0.99114990234375,-0.0160980224609375,0.047393798828125
1772562787392451000,12.831451171875,-0.990997314453125,-0.0154876708984375,0.04638671875
1772562787402519000,12.84151904296875,-0.992706298828125,-0.01422119140625,0.0462799072265625
1772562787412586000,12.8515859375,-0.9926910400390625,-0.0157012939453125,0.0461883544921875
1772562787422653000,12.86165283203125,-0.9924468994140625,-0.015350341796875,0.0477752685546875
1772562787432720100,12.87172021484375,-0.9920196533203125,-0.0137481689453125,0.047698974609375
1772562787442787000,12.881787109375,-0.9913482666015625,-0.0136871337890625,0.0476837158203125
1772562787452854300,12.891854248046876,-0.991729736328125,-0.0155029296875,0.0471038818359375
1772562787462922000,12.901921875,-0.9907684326171875,-0.0171051025390625,0.04742431640625
1772562787472989200,12.9119892578125,-0.9918060302734375,-0.0153961181640625,0.0454864501953125
1772562787483056000,12.92205615234375,-0.993438720703125,-0.0152435302734375,0.0477752685546875
1772562787493123000,12.932123046875,-0.9931640625,-0.0159149169921875,0.0486297607421875
1772562787503190000,12.94218994140625,-0.9912109375,-0.0146331787109375,0.0464935302734375
1772562787513257000,12.952257080078125,-0.9918975830078125,-0.01300048828125,0.047149658203125
1772562787523325000,12.962324951171874,-0.9915008544921875,-0.013946533203125,0.0472564697265625
1772562787533392100,12.97239208984375,-0.9913330078125,-0.0152740478515625,0.0474853515625
1772562787543459000,12.982458984375,-0.991607666015625,-0.01470947265625,0.04718017578125
1772562787553526300,12.9925263671875,-0.9929046630859375,-0.013763427734375,0.0477752685546875
