time,seconds_elapsed,z,y,x
1772562774622263800,0.061263916015625,-0.0018096179701387882,0.012582637369632721,0.003466370515525341
1772562774632331800,0.071331787109375,-0.001746501075103879,-0.07866791635751724,-0.001116130850277841
1772562774642398700,0.081398681640625,-0.0013145363191142678,-0.0978860855102539,-0.0032296155113726854
1772562774652466000,0.0914658203125,-0.00122558674775064,-0.039265379309654236,-0.003778226673603058
1772562774662532900,0.101532958984375,-0.005474127363413572,0.03508048877120018,0.006743123754858971
1772562774672599800,0.111599853515625,-0.005770004820078611,0.06619952619075775,0.014363759197294712
1772562774682667000,0.1216669921875,-0.005705290008336306,0.04234745725989342,0.0020817930344492197
1772562774692735000,0.13173486328125,-0.0044288369826972485,-0.017793377861380577,0.0009547432418912649
1772562774702802000,0.141802001953125,0.0015731292078271508,-0.06096508353948593,-0.0030075078830122948
1772562774712868900,0.151868896484375,-0.0011832424206659198,-0.05638737604022026,-0.0039017973467707634
1772562774722935800,0.161935791015625,-0.00401551416143775,-0.010553308762609959,0.0017614146927371621
1772562774733003000,0.1720029296875,-0.002975017298012972,0.03467489033937454,0.003180879633873701
1772562774743070000,0.182070068359375,-0.004939364735037088,0.0406305156648159,0.005983323790132999
1772562774753137000,0.192136962890625,-0.0022538332268595695,0.00869415607303381,0.00430286955088377
1772562774763204900,0.202204833984375,-0.0025752766523510218,-0.03068680688738823,0.00013608753215521574
1772562774773271800,0.212271728515625,-0.0011739213950932026,-0.04308115690946579,0.00018668759730644524
1772562774783339000,0.222339111328125,-0.002507898723706603,-0.023130619898438454,0.00001997370782191865
1772562774793406000,0.232406005859375,-0.004299940075725317,0.009189769625663757,0.0021174794528633356
1772562774803473000,0.242472900390625,-0.004997421521693468,0.022882413119077682,0.006030728109180927
1772562774813540000,0.2525400390625,-0.002614957746118307,0.016741961240768433,0.0070312777534127235
1772562774823607000,0.26260693359375,-0.0024554345291107893,-0.011173025704920292,0.0022652847692370415
1772562774833675000,0.272675048828125,-0.0019534286111593246,-0.03117096796631813,0.001957689644768834
1772562774843742000,0.282741943359375,-2.6631610694494157e-7,-0.024396419525146484,0.0006831008358858526
1772562774853809000,0.292808837890625,-0.0018168084789067507,-0.0075484635308384895,0.0008103998843580484
1772562774863875800,0.302875732421875,-0.0034061830956488848,0.01290381420403719,0.006532734259963036
1772562774873942800,0.31294287109375,-0.0023076289799064398,0.01504313200712204,0.004472512751817703
1772562774884009700,0.323009765625,-0.004176901653409004,-0.0010207896120846272,0.0031284152064472437
1772562774894077000,0.333076904296875,-0.0023134879302233458,-0.0167936272919178,0.0012514194240793586
1772562774904144600,0.34314453125,-0.0037028591614216566,-0.023050457239151,0.0018583538476377726
1772562774914211800,0.3532119140625,-0.0023643544409424067,-0.011544270440936089,0.0007257114048115909
1772562774924278800,0.36327880859375,-0.0016756609547883272,0.004217648413032293,0.003997937310487032
1772562774934345700,0.373345703125,-0.003980360459536314,0.00833942275494337,0.004650145769119263
1772562774944412700,0.38341259765625,-0.0019981698133051395,0.003365170443430543,0.006714095361530781
1772562774954479900,0.39347998046875,-0.0028820729348808527,-0.010911503806710243,0.0024525050539523363
1772562774964546800,0.403546875,-0.0031289479229599237,-0.017014669254422188,0.0017808558186516166
1772562774974614800,0.41361474609375,-0.003126551164314151,-0.014707040973007679,-0.00044314999831840396
1772562774984681700,0.423681640625,-0.002528138691559434,-0.003555319970473647,0.0005813680472783744
1772562774994749000,0.4337490234375,-0.001671666163019836,0.004478371702134609,0.0008972189389169216
1772562775004816000,0.44381591796875,-0.0024522386956959963,0.005264004226773977,0.0011973571963608265
1772562775014882800,0.4538828125,-0.003225354477763176,-0.001702026231214404,0.002374474424868822
1772562775024949800,0.46394970703125,-0.003915112931281328,-0.012464126572012901,0.004151069093495607
1772562775035017700,0.474017822265625,-0.0023166837636381388,-0.013399162329733372,0.0023491743486374617
1772562775045084700,0.484084716796875,-0.0016732640797272325,-0.009467537514865398,0.0004751079250127077
1772562775055151900,0.49415185546875,-0.004767857491970062,0.002478870330378413,0.003173955250531435
1772562775065218800,0.50421875,-0.002797118155285716,0.003412840887904167,0.0008370315190404654
1772562775075286000,0.5142861328125,-0.0031486554071307182,0.00025246766745112836,0.0036642432678490877
1772562775085353000,0.52435302734375,-0.002428004052489996,-0.0049436260014772415,0.006339654792100191
1772562775095420000,0.534419921875,-0.002386192325502634,-0.015123026445508003,0.0014700648607686162
1772562775105488000,0.54448779296875,-0.002597647253423929,-0.012554673478007317,0.0016389093361794949
1772562775115554800,0.554554931640625,-0.001988049829378724,-0.001942509668879211,0.0023217438720166683
1772562775125621800,0.564621826171875,-0.0036658411845564842,0.0013307816116139293,0.0008785768295638263
1772562775135688700,0.574688720703125,-0.005079180933535099,-0.0001310275256400928,0.005672533065080643
1772562775145755600,0.584755615234375,-0.0026519757229834795,-0.004686364438384771,0.004190484061837196
1772562775155822800,0.59482275390625,-0.004701810888946056,-0.009948237799108028,0.003980094101279974
1772562775165889800,0.604889892578125,-0.0009494169498793781,-0.010327205993235111,0.0024056334514170885
1772562775175958000,0.6149580078125,-0.0021544971968978643,-0.006631004624068737,0.0018679412314668298
1772562775186025000,0.62502490234375,-0.0030921963043510914,-0.003451190423220396,0.0028826056513935328
1772562775196092000,0.635091796875,-0.003965446725487709,-0.001374723738990724,0.002207494108006358
1772562775206158800,0.645158935546875,-0.005578789860010147,-0.0015188007382676005,0.007901332341134548
1772562775216225800,0.655225830078125,-0.004496214911341667,-0.007906658574938774,0.001895105466246605
1772562775226292700,0.665292724609375,-0.0031427964568138123,-0.006583866663277149,0.004802212119102478
1772562775236360700,0.675360595703125,-0.0034935346338897943,-0.008758338168263435,0.005510346498340368
1772562775246427600,0.685427734375,-0.002290584845468402,-0.0041334922425448895,0.0023545008152723312
1772562775256494800,0.695494873046875,-0.0038189729675650597,-0.0025688852183520794,0.0029518476221710443
1772562775266561800,0.705561767578125,-0.002734267385676503,-0.0007456850726157427,0.005768939387053251
1772562775276628700,0.715628662109375,-0.002670884132385254,-0.002127066720277071,0.002549177734181285
1772562775286695700,0.72569580078125,-0.0019214707426726818,-0.006073871627449989,0.0021558289881795645
1772562775296762600,0.7357626953125,-0.004385427106171846,-0.008167115971446037,0.0027300063520669937
1772562775306830800,0.745830810546875,-0.0031728900503367186,-0.006142847239971161,0.002502039773389697
1772562775316897800,0.755897705078125,-0.00430286955088377,-0.0049012815579771996,0.0057103498838841915
1772562775326964700,0.76596484375,-0.002582201035693288,-0.0012463594321161509,0.003088201628997922
1772562775337032000,0.776031982421875,-0.0029401297215372324,-0.0033036512322723866,0.0027363980188965797
1772562775347099000,0.786098876953125,-0.0025395904667675495,-0.003480485174804926,0.0018298579379916191
1772562775357165800,0.796165771484375,-0.006671485025435686,-0.00504136411473155,0.004479703027755022
1772562775367232800,0.806232666015625,-0.004083691164851189,-0.00643899105489254,0.0028458540327847004
1772562775377300700,0.81630078125,-0.0019837887957692146,-0.006939664948731661,0.0024027039762586355
1772562775387367700,0.82636767578125,-0.002922286745160818,-0.0036557212006300688,0.005283178761601448
1772562775397434600,0.8364345703125,0.00016937704640440643,-0.0034091125708073378,0.001927595934830606
1772562775407501800,0.846501708984375,-0.0027268105186522007,-0.0030221552588045597,0.0033127060160040855
1772562775417569000,0.856569091796875,-0.0022535668686032295,-0.0038250982761383057,-0.0015305186389014125
1772562775427636000,0.866635986328125,-0.005794239696115255,-0.006622748915106058,0.004406998865306377
1772562775437704000,0.876703857421875,-0.004449343308806419,-0.005086104851216078,0.0021763353142887354
1772562775447771000,0.88677099609375,-0.003483947366476059,-0.0059742690064013,0.002895122393965721
1772562775457837800,0.896837890625,-0.001677525113336742,-0.005253884010016918,0.004326038993895054
1772562775467904800,0.90690478515625,-0.003412308171391487,-0.002939863596111536,0.002829342382028699
1772562775477971700,0.9169716796875,-0.0033720945939421654,-0.0057313889265060425,0.0054520233534276485
1772562775488038700,0.92703857421875,-0.00202293717302382,-0.004020840395241976,0.005234709475189447
1772562775498105900,0.93710595703125,-0.0028192223981022835,-0.0049012815579771996,0.003935885615646839
1772562775508173800,0.947173828125,-0.002108957152813673,-0.004838697146624327,0.0018306568963453174
1772562775518241000,0.957240966796875,-0.0016508935950696468,-0.0036938043776899576,0.0008625978953205049
1772562775528308000,0.967307861328125,-0.006259493995457888,-0.0044109937734901905,0.002909237053245306
1772562775538375000,0.977375,-0.002320678671821952,-0.003069825703278184,0.0023148194886744022
1772562775548441900,0.98744189453125,-0.0046512107364833355,-0.0031486554071307182,0.0034549187403172255
1772562775558508800,0.9975087890625,-0.0006042712484486401,-0.0028905950020998716,0.0046658581122756
1772562775568575700,1.00757568359375,-0.002031725598499179,-0.0016349145444110036,0.0017595505341887474
1772562775578643700,1.017643798828125,-0.0034226945135742426,-0.004324174486100674,0.003419232554733753
1772562775588711000,1.0277109375,-0.0037417414132505655,-0.00427277572453022,0.002357163932174444
1772562775598777900,1.03777783203125,-0.0028487835079431534,-0.003968109842389822,0.0035606464371085167
1772562775608844800,1.0478447265625,-0.0018423747969791293,-0.005322593729943037,0.005005144979804754
1772562775618911700,1.057911865234375,-0.0033388049341738224,-0.007679491303861141,0.0006729807937517762
1772562775628978700,1.067978759765625,-0.0029286781791597605,-0.0043710460886359215,0.00044767739018425345
1772562775639047000,1.078046875,-0.004226702731102705,-0.0033366745337843895,0.0036709012929350138
1772562775649113900,1.08811376953125,-0.0037494644057005644,-0.004188885912299156,0.0034194989129900932
1772562775659180800,1.098180908203125,-0.002752110594883561,-0.002945189829915762,0.00253453035838902
1772562775669247700,1.108247802734375,-0.004990763962268829,-0.004960403777658939,0.0035782232880592346
1772562775679315000,1.11831494140625,-0.0033310819417238235,-0.007303186692297459,0.0025063008069992065
1772562775689382000,1.1283818359375,-0.00324852392077446,-0.004234958905726671,0.003579821204766631
1772562775699448800,1.13844873046875,-0.004513791762292385,-0.004700479097664356,0.0036709012929350138
1772562775709516800,1.148516845703125,-0.003964381758123636,-0.00395799009129405,0.005403021350502968
1772562775719583700,1.158583740234375,-0.002046106616035104,-0.005549228750169277,0.004473311826586723
1772562775729650700,1.168650634765625,-0.001799764228053391,-0.00757935643196106,0.008541024290025234
1772562775739717600,1.178717529296875,-0.004026965703815222,-0.004606469534337521,0.003912183456122875
1772562775749784800,1.188784912109375,-0.0037643781397491693,-0.005073055624961853,0.005261074751615524
1772562775759852000,1.19885205078125,-0.003950266633182764,-0.005665875039994717,0.001163268811069429
1772562775769919000,1.2089189453125,-0.0031047132797539234,-0.0034432008396834135,0.0002055960358120501
1772562775779987000,1.218987060546875,-0.0029856697656214237,-0.003278883872553706,0.0023249397054314613
1772562775790054000,1.229053955078125,-0.0025718146935105324,-0.003239202778786421,0.00549330236390233
1772562775800120800,1.239120849609375,-0.003070624778047204,-0.003921238239854574,0.004559864290058613
1772562775810187800,1.249187744140625,-0.004063717555254698,-0.0051865060813724995,0.006412891671061516
1772562775820254700,1.259254638671875,-0.0032810145057737827,-0.005724198184907436,0.0017379788914695382
1772562775830321700,1.26932177734375,-0.0030983216129243374,-0.0060112872160971165,0.0011832424206659198
1772562775840388900,1.279388916015625,-0.0033220271579921246,-0.007682953495532274,0.001543568097986281
1772562775850456800,1.289456787109375,-0.003073554253205657,-0.003610979998484254,0.004456799943000078
1772562775860524000,1.29952392578125,-0.0017206683987751603,-0.005370797123759985,0.0022660838440060616
1772562775870591000,1.309591064453125,-0.0027409254107624292,-0.003780623432248831,0.002129729837179184
1772562775880657700,1.31965771484375,-0.000922519015148282,-0.005291168577969074,0.0034490597900003195
1772562775890724900,1.329724853515625,-0.0026551715563982725,-0.005440838169306517,0.0007978830835781991
1772562775900791800,1.339791748046875,-0.0009126652730628848,-0.00464721629396081,0.004429901950061321
1772562775910859800,1.34985986328125,-0.0034229608718305826,-0.004481833893805742,0.0037409423384815454
1772562775920926700,1.3599267578125,-0.0021971079986542463,-0.003981159534305334,-0.0005339637864381075
1772562775930994000,1.369993896484375,-0.002356897573918104,-0.0021789984311908484,0.004611263517290354
1772562775941060900,1.380060791015625,-0.0024564997293055058,-0.004653607495129108,0.003784085623919964
1772562775951127800,1.3901279296875,-0.003638677066192031,-0.0028727517928928137,0.0033135050907731056
1772562775961194800,1.40019482421875,-0.003471696749329567,-0.004194212146103382,0.001969940261915326
1772562775971261700,1.41026171875,-0.0023425165563821793,-0.004249073565006256,0.003489806316792965
1772562775981329700,1.42032958984375,-0.0027137610595673323,-0.00546240946277976,0.0022564963437616825
1772562775991396600,1.430396728515625,-0.003385676769539714,-0.0038509308360517025,0.0012865731259807944
1772562776001463800,1.4404638671875,-0.0065100970678031445,-0.005760417319834232,0.0030988543294370174
1772562776011530800,1.45053076171875,-0.004304999951273203,-0.00407623453065753,0.0022474415600299835
1772562776021598000,1.460597900390625,-0.004338023252785206,-0.004963333252817392,0.0035217641852796078
1772562776031665000,1.470664794921875,-0.00439048744738102,-0.005821669939905405,0.0016263924771919847
1772562776041731800,1.48073193359375,-0.0027172232512384653,-0.004531634971499443,0.004734567832201719
1772562776051799800,1.4907998046875,-0.0018351842882111669,-0.004630970768630505,0.005046690348535776
1772562776061866800,1.50086669921875,-0.001094825565814972,-0.00436172541230917,0.002412291243672371
1772562776071933700,1.51093359375,-0.0026264095213264227,-0.0038804919458925724,0.0029348034877330065
1772562776082000600,1.521000732421875,-0.0028455876745283604,-0.005012601613998413,0.0022120214998722076
1772562776092067800,1.53106787109375,-0.002855974016711116,-0.00572979124262929,0.002177400514483452
1772562776102134800,1.541134765625,-0.003576092654839158,-0.005416336935013533,0.005757487844675779
1772562776112201700,1.55120166015625,-0.0014375743921846151,-0.004944957327097654,0.0008993495139293373
1772562776122270000,1.56127001953125,-0.004944957327097654,-0.005835252348333597,0.002549444092437625
1772562776132337000,1.5713369140625,-0.0029768813401460648,-0.006456301547586918,0.0032866070978343487
1772562776142403800,1.58140380859375,-0.0013065468519926071,-0.00498144282028079,0.0015140071045607328
1772562776152470800,1.591470703125,-0.0031827439088374376,-0.0037374801468104124,0.001547030289657414
1772562776162537700,1.601537841796875,-0.003623496973887086,-0.004776645917445421,0.0008420915110036731
1772562776172604700,1.611604736328125,-0.0026181535795331,-0.0052413675002753735,0.006340986583381891
1772562776182672600,1.621672607421875,-0.0027832696214318275,-0.004340952727943659,0.003081809962168336
1772562776192739800,1.63173974609375,-0.00230842805467546,-0.00347409350797534,0.001686579897068441
1772562776202806800,1.641806884765625,-0.002576342085376382,-0.003981159534305334,0.0070882695727050304
1772562776212873700,1.651873779296875,-0.00390312890522182,-0.005543636158108711,0.0041308291256427765
1772562776222940700,1.661940673828125,-0.003659183392301202,-0.003245328087359667,0.0035510589368641376
1772562776233007600,1.672007568359375,-0.0024056334514170885,-0.00449727987870574,0.001458080718293786
1772562776243074800,1.68207470703125,-0.003385144053027034,-0.006596117280423641,0.004757470916956663
1772562776253142800,1.692142822265625,-0.0018511632224544883,-0.0023257385473698378,0.004147340543568134
1772562776263209700,1.702209716796875,-0.0030069751664996147,-0.004168645944446325,0.0012338425731286407
1772562776273277000,1.71227685546875,-0.0016056197928264737,-0.0030503845773637295,0.0018162758788093925
1772562776283344000,1.72234375,-0.0033981935121119022,-0.005408347584307194,0.003596332622691989
1772562776293410800,1.732410888671875,-0.003596332622691989,-0.003896470880135894,0.004710066597908735
1772562776303477800,1.742477783203125,-0.004731904715299606,-0.004327103961259127,0.0030309436842799187
1772562776313545700,1.752545654296875,-0.00040000680019147694,-0.004591555800288916,0.0052107409574091434
1772562776323612700,1.76261279296875,-0.001966744428500533,-0.005032841581851244,0.004548679105937481
1772562776333679600,1.7726796875,-0.0023302659392356873,-0.00472631212323904,0.005625927820801735
1772562776343746800,1.782746826171875,-0.00446878420189023,-0.004653075244277716,0.004546015989035368
1772562776353813800,1.792813720703125,-0.0033214944414794445,-0.004002731293439865,0.005154814571142197
1772562776363881000,1.802880859375,-0.0032929987646639347,-0.006095442920923233,0.0031619712244719267
1772562776373948000,1.812947998046875,-0.002901247702538967,-0.003692206460982561,0.004778243601322174
1772562776384016000,1.823015869140625,-0.002537459833547473,-0.0051681301556527615,0.0032317459117621183
1772562776394082800,1.833082763671875,-0.0005318332696333528,-0.004730040207505226,-0.0000021305288555595325
1772562776404149800,1.843149658203125,-0.0036248285323381424,-0.002281796419993043,0.0026527747977524996
1772562776414216700,1.853216796875,-0.002888730727136135,-0.004559864290058613,0.00040959418402053416
1772562776424283600,1.86328369140625,-0.0032959282398223877,-0.004229632206261158,0.0035055188927799463
1772562776434350800,1.873350830078125,-0.0021901836153119802,-0.005234709475189447,0.0014729943359270692
1772562776444417800,1.883417724609375,-0.0026525084394961596,-0.005311674904078245,0.000639424950350076
1772562776454486000,1.893486083984375,-0.003968376200646162,-0.0032141690608114004,0.0031241541728377342
1772562776464553000,1.903552978515625,-0.0007669904152862728,-0.002651176881045103,0.0007392935222014785
1772562776474620000,1.913619873046875,-0.0015078817959874868,-0.005566805601119995,0.003335609333589673
1772562776484686800,1.923686767578125,-0.0020687435753643513,-0.005166266113519669,0.0011976235546171665
1772562776494753800,1.93375390625,-0.0046578687615692616,-0.0064925202168524265,0.0028999161440879107
1772562776504820700,1.94382080078125,-0.0018959043081849813,-0.003569700988009572,0.000568318588193506
1772562776514888700,1.953888671875,-0.0038421424105763435,-0.006389988586306572,0.00185089698061347
1772562776524955600,1.96395556640625,-0.002689260058104992,-0.005870139691978693,0.0012000204296782613
1772562776535022800,1.97402294921875,-0.002070873975753784,-0.005772401578724384,0.005695968866348267
1772562776545089800,1.98408984375,-0.0031047132797539234,-0.007587079424411058,0.0024567660875618458
1772562776555156700,1.99415673828125,-0.0010431602131575346,-0.006205165293067694,0.0033923345617949963
1772562776565223700,2.0042236328125,-0.0018375811632722616,-0.0046240463852882385,0.0028503811918199062
1772562776575290600,2.01429052734375,-0.00395692465826869,-0.004432565066963434,0.0035502600949257612
1772562776585358800,2.02435888671875,-0.002779541304334998,-0.0031816784758120775,0.0010823087068274617
1772562776595425800,2.03442578125,-0.003175020683556795,-0.005835518706589937,0.0026487798895686865
1772562776605492700,2.04449267578125,-0.003486344125121832,-0.006748982705175877,0.004323641769587994
1772562776615560000,2.054559814453125,-0.00407410366460681,-0.005550294183194637,0.0027297399938106537
1772562776625627000,2.064626953125,-0.0032461269292980433,-0.005446963477879763,0.0018010957865044475
1772562776635693800,2.07469384765625,-0.0025063008069992065,-0.0033425334841012955,0.002537459833547473
1772562776645761800,2.08476171875,-0.004289287142455578,-0.0021465078461915255,0.0026636936236172915
1772562776655828700,2.094828857421875,-0.0005536712124012411,-0.007162571884691715,0.0019859191961586475
1772562776665895700,2.104895751953125,-0.0036818201187998056,-0.0016410398529842496,0.0021702100057154894
1772562776675962600,2.114962646484375,-0.0017001620726659894,-0.003897269954904914,0.003168629016727209
1772562776686029600,2.125029541015625,-0.004012051969766617,-0.004636829718947411,0.0020277309231460094
1772562776696097000,2.135096923828125,-0.0019949739798903465,-0.005959089379757643,0.004710332956165075
1772562776706164000,2.1451640625,-0.003727626521140337,-0.0036155073903501034,0.00012996226723771542
1772562776716232000,2.15523193359375,-0.005727660376578569,0.044241763651371,0.00498117646202445
1772562776726299000,2.165298828125,-0.005101284943521023,0.07687853276729584,0.004505269695073366
1772562776736365800,2.17536572265625,-0.004114051349461079,0.05204802006483078,0.004375307355076075
1772562776746432800,2.185432861328125,-0.004709800239652395,-0.019532421603798866,0.005891711451113224
1772562776756499700,2.195499755859375,-0.001133707701228559,-0.077342189848423,-0.0026221484877169132
1772562776766566700,2.205566650390625,-0.0020959076937288046,-0.0996251255273819,-0.002294047037139535
1772562776776633900,2.2156337890625,-0.001755023142322898,-0.07794806361198425,-0.003908987622708082
1772562776786701600,2.22570166015625,-0.0008072041091509163,-0.028629247099161148,0.00013395700079854578
1772562776796768800,2.235768798828125,-0.0028421254828572273,0.0452476404607296,0.004396612755954266
1772562776806836000,2.2458359375,-0.0054450989700853825,0.07340177893638611,0.00547386147081852
1772562776816903000,2.25590283203125,-0.0019587550777941942,0.02875681407749653,0.008946623653173447
1772562776826969900,2.265969970703125,-0.005394499283283949,-0.03677665814757347,0.005647233221679926
1772562776837036800,2.276036865234375,-0.001600826159119606,-0.06315979361534119,-0.0028455876745283604
1772562776847104800,2.286104736328125,-0.0030032468494027853,-0.043052393943071365,-0.003108974313363433
1772562776857171700,2.296171630859375,-0.0018346516881138086,0.0010700580896809697,0.0019286612514406443
1772562776867238700,2.30623876953125,-0.006281598005443811,0.03744537755846977,0.0062488410621881485
1772562776877305900,2.316305908203125,-0.004559597931802273,0.037031520158052444,0.0071010529063642025
1772562776887372800,2.326372802734375,-0.003995540551841259,0.0031433289404958487,-0.0009763148264028132
1772562776897439700,2.336439697265625,-0.0029648973140865564,-0.03532043844461441,-0.001440237509086728
1772562776907506700,2.346506591796875,-0.0010357033461332321,-0.04614139720797539,0.0014852449530735612
1772562776917575000,2.356574951171875,-0.0035385421942919493,-0.018430938944220543,0.000624777574557811
1772562776927641900,2.366641845703125,-0.005576393101364374,0.01818219944834709,0.0032509206794202328
1772562776937708800,2.376708740234375,-0.005107143893837929,0.027789020910859108,0.008009457029402256
1772562776947775700,2.386775634765625,-0.0035920715890824795,0.011065701022744179,0.005396096967160702
1772562776957843000,2.396843017578125,-0.00296329939737916,-0.012854811735451221,0.0016524913953617215
1772562776967910000,2.406909912109375,-0.0029827402904629707,-0.029085448011755943,-0.00010599380766507238
1772562776977977900,2.416977783203125,-0.001543834456242621,-0.023085078224539757,0.0021995047573000193
1772562776988044800,2.427044921875,-0.0046426886692643166,-0.0056980992667376995,0.004217648413032293
1772562776998111700,2.43711181640625,-0.0017797905020415783,0.017054617404937744,0.006201969459652901
1772562777008178700,2.4471787109375,-0.004373176954686642,0.014374678023159504,0.007229683455079794
1772562777018245600,2.45724560546875,-0.003096990054473281,-0.003832022426649928,0.0017981663113459945
1772562777028312600,2.4673125,-0.0033984598703682423,-0.02147839404642582,0.0019656792283058167
1772562777038379800,2.4773798828125,-0.0024554345291107893,-0.02377430535852909,0.001975000137463212
1772562777048447700,2.48744775390625,-0.002921754028648138,-0.008929844945669174,0.0020703414920717478
1772562777058515000,2.497514892578125,-0.003951065707951784,0.006928746122866869,0.0018210695125162601
1772562777068582000,2.507581787109375,-0.006249906495213509,0.009837450459599495,0.006087453570216894
1772562777078648800,2.51764892578125,-0.0022623552940785885,0.004008590243756771,0.001796834752894938
1772562777088715800,2.5277158203125,-0.002454369328916073,-0.011260377243161201,0.0019233349012210965
1772562777098782700,2.53778271484375,-0.0019566244445741177,-0.014694790355861187,-0.0019542276859283447
1772562777108849700,2.547849609375,-0.003005377249792218,-0.013577061705291271,-0.0013646037550643086
1772562777118917600,2.557917724609375,-0.001999235013499856,-0.002567287301644683,0.005375590641051531
1772562777128984600,2.567984619140625,-0.0036037894897162914,0.007410245481878519,0.0047031426802277565
1772562777139051800,2.5780517578125,-0.0028687571175396442,0.005201153457164764,0.0054328483529388905
1772562777149119000,2.588118896484375,-0.0033481260761618614,-0.004540956113487482,0.0026519757229834795
1772562777159186000,2.59818603515625,-0.002237854292616248,-0.013173325918614864,-0.0005930859479121864
1772562777169252900,2.6082529296875,-0.0008186557097360492,-0.014093714766204357,0.002086320426315069
1772562777179320800,2.61832080078125,-0.0038280277512967587,-0.007922371849417686,0.005033374298363924
1772562777189387800,2.6283876953125,-0.0026170883793383837,0.0006743124104104936,0.0041369544342160225
1772562777199454700,2.638454833984375,-0.004235757514834404,0.004966795444488525,0.004381965380162001
1772562777209521700,2.648521728515625,-0.0033981935121119022,0.0005954828229732811,0.005933522712439299
1772562777219588900,2.6585888671875,-0.003290335414931178,-0.008971656672656536,-0.001374457380734384
1772562777229655800,2.66865576171875,-0.0036048549227416515,-0.010452374815940857,-0.0011669971281662583
1772562777239722800,2.67872265625,-0.0024106933269649744,-0.009939449839293957,0.0013816480059176683
1772562777249790700,2.688790771484375,-0.0052016861736774445,-0.001751827308908105,0.0006657902849838138
1772562777259858000,2.69885791015625,-0.0032676986884325743,-0.0003478088474366814,0.004710066597908735
1772562777269924900,2.7089248046875,-0.004571049474179745,0.0000500674286740832,0.0015717976493760943
1772562777279991800,2.71899169921875,-0.0021915151737630367,-0.0060325926169753075,0.0014980280539020896
1772562777290058800,2.729058837890625,-0.0015907060587778687,-0.009454754181206226,0.004778509959578514
1772562777300126000,2.7391259765625,-0.004445348400622606,-0.009414540603756905,0.0020248014479875565
1772562777310193700,2.749193603515625,-0.0018221348291262984,-0.004861334338784218,0.0033779535442590714
1772562777320260900,2.7592607421875,-0.0019563580863177776,-0.002695651724934578,0.0023086944129318
1772562777330327800,2.769327880859375,-0.002871420234441757,-0.0012719257501885295,0.0013291836949065328
1772562777340394800,2.779394775390625,-0.001564873498864472,-0.0016785904299467802,-0.0011387676931917667
1772562777350461700,2.789461669921875,-0.005813147872686386,-0.007005977910012007,0.0024229439441114664
1772562777360528600,2.799528564453125,-0.002148372121155262,-0.0062461779452860355,0.002273540711030364
1772562777370595600,2.809595703125,-0.0019297265680506825,-0.005164135713130236,0.000258859246969223
1772562777380663800,2.819663818359375,-0.0036163064651191235,-0.003835218260064721,0.002520415699109435
1772562777390730800,2.829730712890625,-0.0018796591321006417,-0.0023699470330029726,0.00030786142451688647
1772562777400798000,2.8397978515625,-0.0006045375484973192,-0.003477289341390133,0.0008809737046249211
1772562777410865000,2.849864990234375,-0.003209641668945551,-0.004181961994618177,0.003421629313379526
1772562777420931800,2.859931884765625,-0.002846652874723077,-0.005148689262568951,0.0037622477393597364
1772562777430998800,2.869998779296875,-0.003355316584929824,-0.005377188324928284,0.003438939806073904
1772562777441066800,2.880066650390625,-0.002101234160363674,-0.00427304208278656,0.0016969662392511964
1772562777451133700,2.8901337890625,-0.0028461201582103968,-0.003853061469271779,0.002213619416579604
1772562777461200600,2.90020068359375,-0.0022474415600299835,-0.0019630161114037037,0.004257329273968935
1772562777471267600,2.910267578125,-0.002100435085594654,-0.005279982928186655,0.004593420308083296
1772562777481334800,2.920334716796875,-0.0018913770327344537,-0.006598780397325754,0.000568052229937166
1772562777491401700,2.930401611328125,-0.001603489276021719,-0.006631004624068737,0.0016929714474827051
1772562777501469000,2.940468994140625,-0.004268780816346407,-0.005645102355629206,0.0015129417879506946
1772562777511537000,2.950536865234375,-0.004715659189969301,-0.004771052859723568,0.003704723436385393
1772562777521603800,2.960603759765625,-0.004878644831478596,-0.005693039391189814,0.003379018744453788
1772562777531670800,2.9706708984375,-0.004737497307360172,-0.0032530513126403093,0.0017100156983360648
1772562777541737700,2.98073779296875,-0.002254898427054286,-0.004232828039675951,0.004542021080851555
1772562777551804700,2.9908046875,-0.0025901903863996267,-0.006262157112360001,0.0008138620178215206
1772562777561872000,3.000871826171875,-0.003652791725471616,-0.006114884279668331,0.0028764803428202868
1772562777571939600,3.010939697265625,-0.003215500619262457,-0.004630704410374165,0.004913798533380032
1772562777582006800,3.0210068359375,-0.004227768164128065,-0.005150021053850651,0.006321545224636793
1772562777592073700,3.03107373046875,-0.004368915688246489,-0.0037979339249432087,0.0020836573094129562
1772562777602140700,3.041140625,-0.0019297265680506825,-0.005299157928675413,0.0035862126387655735
1772562777612207900,3.051207763671875,-0.004345479886978865,-0.005155880004167557,0.0023401195649057627
1772562777622274800,3.06127490234375,-0.0036764938849955797,-0.005661081522703171,0.002980876248329878
1772562777632341800,3.071341796875,-0.003310841741040349,-0.005262672435492277,0.000022903184799361043
1772562777642409700,3.08140966796875,-0.001767273643054068,-0.004180363845080137,0.0029856697656214237
1772562777652476700,3.0914765625,-0.004531901329755783,-0.004891428165137768,0.0029547770973294973
1772562777662544000,3.1015439453125,-0.0046421559527516365,-0.005962285213172436,0.0034354778472334146
1772562777672610800,3.11161083984375,-0.0024642229545861483,-0.005871205125004053,0.0050701261498034
1772562777682677800,3.121677734375,-0.0016519587952643633,-0.005030711181461811,0.000222373942960985
1772562777692744700,3.13174462890625,-0.002329200739040971,-0.007089334540069103,0.001577123999595642
1772562777702812700,3.141812744140625,-0.0043321643024683,-0.005343100056052208,0.0026325348298996687
1772562777712879900,3.1518798828125,-0.002603239845484495,-0.003805390791967511,0.0019888486713171005
1772562777722946800,3.16194677734375,-0.0017001620726659894,-0.0051966262981295586,0.0008586031035520136
1772562777733013800,3.172013671875,-0.0039049931801855564,-0.007416104432195425,0.004132693167775869
1772562777743081000,3.1820810546875,-0.0032754219137132168,-0.005191033706068993,0.002043709857389331
1772562777753148000,3.19214794921875,-0.004035221878439188,-0.004346012603491545,0.004732703324407339
1772562777763214800,3.20221484375,-0.0017566210590302944,-0.004763329867273569,0.004226969089359045
1772562777773282800,3.21228271484375,-0.003191798459738493,-0.0028935244772583246,0.002603506203740835
1772562777783349800,3.222349853515625,-0.004876248072832823,-0.005048554390668869,0.0006743124104104936
1772562777793416700,3.232416748046875,-0.0019313243683427572,-0.0026082999538630247,0.0016293219523504376
1772562777803483600,3.242483642578125,-0.002293247962370515,-0.003768639173358679,0.0018881811993196607
1772562777813550600,3.252550537109375,-0.002034655073657632,-0.0054664043709635735,0.000713993504177779
1772562777823617800,3.26261767578125,-0.0003270361921750009,-0.0032056469935923815,0.004549478180706501
1772562777833685800,3.272685791015625,-0.0034964641090482473,-0.004670917987823486,0.002111886627972126
1772562777843753000,3.2827529296875,-0.0020791299175471067,-0.005003813188523054,0.003236273303627968
1772562777853820000,3.29281982421875,-0.004890895448625088,-0.004437625408172607,0.0006937534781172872
1772562777863886800,3.302886962890625,-0.004446413833647966,-0.006312756799161434,0.004141215234994888
1772562777873953800,3.312953857421875,-0.004229099955409765,-0.0037491980474442244,0.0019971043802797794
1772562777884021500,3.323021484375,-0.00373135507106781,-0.005255748517811298,0.002032258315011859
1772562777894088400,3.33308837890625,-0.0034141724463552237,-0.005388373974710703,0.0027348001021891832
1772562777904156400,3.343156494140625,-0.0036189695820212364,-0.004292749334126711,-0.0008551410282962024
1772562777914223400,3.353223388671875,-0.003457315731793642,-0.00571833923459053,0.0038333539851009846
1772562777924290300,3.363290283203125,-0.004571582190692425,-0.0034117756877094507,0.0030003173742443323
1772562777934357500,3.373357421875,-0.005176386330276728,-0.002478870330378413,0.0032783513888716698
1772562777944424400,3.383424560546875,-0.004073305055499077,-0.005864813458174467,0.00447038235142827
1772562777954491400,3.393491455078125,-0.004057858604937792,-0.0051960935816168785,0.004000600427389145
1772562777964558300,3.403558349609375,-0.00318940170109272,-0.003998736385256052,0.002913498319685459
1772562777974626300,3.413626220703125,-0.003028813051059842,-0.004729241598397493,0.0035747610963881016
1772562777984693200,3.423693359375,-0.003975034225732088,-0.005659217480570078,0.002834402257576585
1772562777994760400,3.433760498046875,-0.005649097263813019,-0.0034325483720749617,0.001969407545402646
1772562778004827400,3.443827392578125,-0.004047472029924393,-0.00547386147081852,0.0018072210950776935
1772562778014894600,3.45389453125,-0.003153448924422264,-0.005360943265259266,0.0036048549227416515
1772562778024961500,3.46396142578125,-0.002082858234643936,-0.00541314110159874,0.003907922655344009
1772562778035029500,3.474029541015625,-0.0023843280505388975,-0.004721251782029867,0.0025481125339865685
1772562778045096400,3.484096435546875,-0.0004625910660251975,-0.004297276493161917,0.002314553363248706
1772562778055163400,3.494163330078125,-0.0044019389897584915,-0.006523413117974997,0.0023819312918931246
1772562778065230300,3.504230224609375,-0.005796902813017368,-0.00697854720056057,0.004263188224285841
1772562778075297300,3.51429736328125,-0.004448810592293739,-0.006397179327905178,0.006215019151568413
1772562778085364200,3.5243642578125,-0.003397128311917186,-0.003652791725471616,0.0009837717516347766
1772562778095432400,3.534432373046875,-0.0036993969697505236,-0.005940180737525225,0.004811000544577837
1772562778105499400,3.54449951171875,-0.0017526262672618032,-0.0036485306918621063,0.0022626216523349285
1772562778115566600,3.554566650390625,-0.004258661065250635,-0.003465571440756321,0.0027209515683352947
1772562778125633500,3.564633544921875,-0.0018333201296627522,-0.004538558889180422,0.0035305526107549667
1772562778135700500,3.574700439453125,-0.0019497001776471734,-0.004571315832436085,0.0016916398890316486
1772562778145767400,3.584767333984375,-0.0014426343841478229,-0.001758218975737691,0.002079662401229143
1772562778155834400,3.59483447265625,-0.002981142606586218,-0.003846669802442193,0.000693220819812268
1772562778165902300,3.60490234375,-0.001936917076818645,-0.006323676090687513,0.0038253646343946457
1772562778175969300,3.61496923828125,-0.00339126936160028,-0.0038831550627946854,0.0010069411946460605
1772562778186036200,3.6250361328125,-0.0036221654154360294,-0.002817624481394887,0.0004271710349712521
1772562778196103400,3.635103515625,-0.004655738361179829,-0.004316717851907015,0.002685531508177519
1772562778206170400,3.64517041015625,-0.002968625631183386,-0.006547914352267981,0.0035478631034493446
1772562778216237300,3.6552373046875,-0.0032615733798593283,-0.0057614827528595924,0.005447762086987495
1772562778226305500,3.665305419921875,-0.002832005498930812,-0.005285575985908508,0.006677343975752592
1772562778236372500,3.67537255859375,-0.0027023095171898603,-0.004495682194828987,0.004378503188490868
1772562778246439400,3.685439453125,-0.0033920682035386562,-0.004436826333403587,0.0014223942998796701
1772562778256506400,3.69550634765625,-0.0033984598703682423,-0.0067966533824801445,0.0031670311000198126
1772562778266573300,3.7055732421875,-0.0031995216850191355,-0.004837365821003914,0.001592037733644247
1772562778276640500,3.715640625,-0.003745469730347395,-0.005558017175644636,0.002261023735627532
1772562778286707500,3.72570751953125,-0.0016753945965319872,-0.0031140341889113188,0.0020985708106309175
1772562778296775400,3.735775390625,-0.0027925907634198666,-0.007711981888860464,0.0027427896857261658
1772562778306842400,3.74584228515625,-0.002895655110478401,-0.005805691238492727,0.0015475628897547722
1772562778316909300,3.755909423828125,-0.0034381409641355276,-0.004422178957611322,0.0062760054133832455
1772562778326976300,3.765976318359375,-0.00358834327198565,-0.006735134404152632,0.00205276464112103
1772562778337043500,3.77604345703125,-0.00373108871281147,-0.0052051483653485775,0.001677791471593082
1772562778347110400,3.7861103515625,-0.002650377806276083,-0.006117281038314104,0.004116980824619532
1772562778357178400,3.796178466796875,-0.0017036241479218006,-0.004258128348737955,0.0046605318784713745
1772562778367245300,3.806245361328125,-0.004475175868719816,-0.004461593925952911,0.00523577444255352
1772562778377312500,3.8163125,-0.002695119008421898,-0.004822185728698969,0.004252802114933729
1772562778387379500,3.82637939453125,-0.0021616879384964705,-0.004006459377706051,0.0031310785561800003
1772562778397446400,3.8364462890625,-0.000702009245287627,-0.002409361768513918,-0.0005017395596951246
1772562778407513300,3.846513427734375,-0.0029228192288428545,-0.0043830303475260735,0.0036610474344342947
1772562778417580300,3.856580322265625,-0.00250550196506083,-0.004111920483410358,-0.00027537086862139404
1772562778427648300,3.866648193359375,-0.004464789759367704,-0.0030045784078538418,-0.00043782367720268667
1772562778437715200,3.876715087890625,-0.004877845756709576,-0.004898884799331427,0.005667206831276417
1772562778447782400,3.886782470703125,-0.0018490327056497335,-0.005415804218500853,0.0028961875941604376
1772562778457849600,3.896849609375,-0.0021824603900313377,-0.00490314606577158,0.0033246902748942375
1772562778467916500,3.90691650390625,-0.003984621725976467,-0.00395692465826869,0.00592553336173296
1772562778477983500,3.9169833984375,-0.0035888757556676865,-0.005247758701443672,0.004683701321482658
1772562778488051500,3.927051513671875,-0.0029316076543182135,-0.003690076060593128,-0.0001685781026026234
1772562778498118400,3.937118408203125,-0.002034655073657632,-0.005317533854395151,0.0027225494850426912
1772562778508185300,3.947185302734375,-0.0014378406340256333,-0.0038871499709784985,0.003585680155083537
1772562778518252300,3.957252197265625,-0.004009921569377184,-0.006298908498138189,0.0029883331153541803
1772562778528319200,3.9673193359375,-0.0034647725988179445,-0.00501020485535264,0.0007350324303843081
1772562778538386400,3.977386474609375,-0.0031728900503367186,-0.003983023576438427,0.0008817726047709584
1772562778548453400,3.987453369140625,-0.004049070179462433,-0.006314887665212154,0.0038599856197834015
1772562778558521600,3.997521484375,-0.0030751521699130535,-0.004345746245235205,0.000877511571161449
1772562778568588500,4.007588623046875,-0.0014700648607686162,-0.004618453793227673,0.001799764228053391
1772562778578655500,4.017655517578125,-0.0010572749888524413,-0.006901049055159092,0.0030660973861813545
1772562778588722400,4.027722412109375,-0.003358246060088277,-0.003296194365248084,0.002843723399564624
1772562778598789400,4.037789306640625,-0.0035121769178658724,-0.005054679699242115,0.0019417107105255127
1772562778608856300,4.047856201171875,-0.004052266012877226,-0.004562793765217066,0.001583249308168888
1772562778618924300,4.05792431640625,-0.005285841878503561,-0.008766060695052147,0.0057798586785793304
1772562778628991500,4.067991455078125,-0.005121258553117514,-0.005574528593569994,0.0037491980474442244
1772562778639058400,4.078058349609375,-0.0016335829859599471,-0.001279116258956492,0.001592037733644247
1772562778649125400,4.08812548828125,-0.0019917781464755535,-0.005391037091612816,0.002694852650165558
1772562778659192300,4.0981923828125,-0.004620318301022053,-0.005239502992480993,0.006081061903387308
1772562778669259300,4.10825927734375,-0.0029467877466231585,-0.0057622818276286125,0.0026530411560088396
1772562778679327500,4.118327392578125,-0.0016900419723242521,-0.005599562544375658,-0.00044607947347685695
1772562778689394400,4.12839453125,-0.001746234716847539,-0.006148972548544407,0.001975000137463212
1772562778699461400,4.13846142578125,-0.0024588967207819223,-0.006457100156694651,0.0016341155860573053
1772562778709528300,4.1485283203125,-0.004432831425219774,-0.005338572897017002,0.0068089039996266365
1772562778719595500,4.158595458984375,-0.0006058691651560366,-0.005322593729943037,0.0024402544368058443
1772562778729662500,4.168662353515625,-0.002856240142136812,-0.00541367381811142,0.0021164140198379755
1772562778739729400,4.1787294921875,-0.0023339942563325167,-0.0028218855150043964,0.0035446672700345516
1772562778749797400,4.18879736328125,-0.0010684601729735732,-0.004058923572301865,0.00028628981090150774
1772562778759864300,4.1988642578125,-0.0041065942496061325,-0.0026988473255187273,0.0044261738657951355
1772562778769931300,4.20893115234375,-0.0044043357484042645,-0.006557235028594732,0.0005976133397780359
1772562778779998200,4.218998291015625,-0.003870638320222497,-0.005541239399462938,-0.0006303702248260379
1772562778790065400,4.2290654296875,-0.004102599807083607,-0.005540173966437578,0.003043993143364787
1772562778800132600,4.239132568359375,-0.0025981799699366093,-0.0041582598350942135,0.0033457293175160885
1772562778810199600,4.249199462890625,-0.003060770919546485,-0.005415804218500853,0.003020024625584483
1772562778820267500,4.259267578125,-0.004564391914755106,-0.004966795444488525,0.0032858080230653286
1772562778830334500,4.26933447265625,-0.0009653958841226995,-0.006586796138435602,0.0008149272762238979
1772562778840401400,4.2794013671875,-0.0017475662752985954,-0.0007249124464578927,0.0016756609547883272
1772562778850468400,4.28946826171875,-0.0015928366919979453,-0.005084240809082985,0.0046666571870446205
1772562778860535300,4.299535400390625,-0.003300189273431897,-0.004388090688735247,0.0035270904190838337
1772562778870602500,4.3096025390625,-0.00007217166421469301,-0.004795021377503872,0.004373443312942982
1772562778880669700,4.319669677734375,-0.0023092268966138363,-0.00509782275184989,0.0033182986080646515
1772562778890736600,4.329736572265625,-0.0005749764968641102,-0.005344964098185301,0.002046106616035104
1772562778900803800,4.339803955078125,-0.0034147051628679037,-0.004840295296162367,-0.0013401026371866465
1772562778910870800,4.349870849609375,-0.0025989788118749857,-0.004259193316102028,0.0007542071980424225
1772562778920937700,4.359937744140625,-0.003216566052287817,-0.004993959795683622,0.003165433183312416
1772562778931004700,4.370004638671875,-0.0033926009200513363,-0.004689560271799564,0.004081827122718096
1772562778941072600,4.38007275390625,-0.0019627497531473637,-0.00187992537394166,0.0026378610637038946
1772562778951139600,4.3901396484375,-0.0036373452749103308,-0.005852296482771635,0.004137753508985043
1772562778961206800,4.400206787109375,-0.0018820558907464147,-0.004120708908885717,0.0006093312404118478
1772562778971273700,4.410273681640625,-0.003683684393763542,-0.002984072081744671,0.0035902075469493866
1772562778981340700,4.420340576171875,-0.0019302591681480408,-0.0034908715169876814,0.00472657848149538
1772562778991407600,4.43040771484375,-0.0034197650384157896,-0.003968376200646162,0.0024895230308175087
1772562779001474600,4.440474609375,-0.0029582392890006304,-0.0030772825703024864,0.0020993698853999376
1772562779011542800,4.450542724609375,-0.002671416848897934,-0.006638728082180023,0.002110022585839033
1772562779021609700,4.460609619140625,-0.001023452845402062,-0.004454403184354305,0.0020386497490108013
1772562779031676700,4.4706767578125,-0.002173938322812319,-0.004620584659278393,-0.0000327568814100232
1772562779041744000,4.480743896484375,-0.002466353354975581,-0.00478277076035738,0.0015326491557061672
1772562779051810800,4.490810791015625,-0.002132925670593977,-0.002907373011112213,0.0018168084789067507
1772562779061877800,4.500877685546875,-0.003995806910097599,-0.0046754456125199795,0.002375007141381502
1772562779071945700,4.51094580078125,-0.0028658276423811913,-0.0019630161114037037,-0.00015952334797475487
1772562779082012700,4.5210126953125,-0.00558198569342494,-0.005833654198795557,0.003204049076884985
1772562779092079600,4.53107958984375,-0.0038128476589918137,-0.005114600993692875,0.0026551715563982725
1772562779102146600,4.541146484375,-0.0016080166678875685,-0.00577799417078495,0.004367318004369736
1772562779112213500,4.551213623046875,-0.0008364989189431071,-0.0035321505274623632,0.003491936717182398
1772562779122280700,4.56128076171875,-0.005353220272809267,-0.003162770066410303,0.00310497940517962
1772562779132347600,4.57134765625,-0.0023153522051870823,-0.0038048583082854748,0.004515655804425478
1772562779142416000,4.581415771484375,-0.0033806166611611843,-0.0041252365335822105,0.002784334821626544
1772562779152482800,4.59148291015625,-0.002972354181110859,-0.006018477492034435,0.0007251787465065718
1772562779162549800,4.6015498046875,-0.003355849301442504,-0.003367034485563636,0.005833920557051897
1772562779172616700,4.61161669921875,-0.0006775081856176257,-0.004084223881363869,0.0018924422329291701
1772562779182683600,4.62168359375,-0.0029558425303548574,-0.0057159424759447575,0.0022189458832144737
1772562779192750600,4.63175048828125,-0.004614725708961487,-0.005063468124717474,0.002229332225397229
1772562779202818600,4.641818603515625,-0.0024924525059759617,-0.0042131207883358,0.0005696501466445625
1772562779212885500,4.651885498046875,-0.004296477884054184,-0.006906109396368265,0.005297826137393713
1772562779222952700,4.66195263671875,-0.004519650712609291,-0.00567093538120389,0.002965163439512253
1772562779233019600,4.67201953125,-0.002968625631183386,-0.005570534151047468,-0.002466353354975581
1772562779243086800,4.6820869140625,-0.004964132327586412,-0.004294081125408411,0.001856223214417696
1772562779253153800,4.69215380859375,-0.0029798108153045177,-0.005340703297406435,0.004120708908885717
1772562779263220700,4.702220703125,-0.0028583707753568888,-0.0057377805933356285,0.0019627497531473637
1772562779273288700,4.712288818359375,-0.005130313336849213,-0.004357197787612677,0.0018791264155879617
1772562779283355600,4.722355712890625,-0.0027001791168004274,-0.005797967780381441,0.0026972496416419744
1772562779293422600,4.732422607421875,-0.005708752200007439,-0.006982542108744383,0.0042719766497612
1772562779303489800,4.74248974609375,-0.003763579297810793,-0.005388107616454363,0.0038458709605038166
1772562779313556700,4.752556640625,-0.002855974016711116,-0.006518353242427111,0.0022927154786884785
1772562779323623700,4.762623779296875,-0.003694869577884674,-0.005026184022426605,0.004825381562113762
1772562779333691600,4.772691650390625,-0.004459196701645851,-0.0037758296821266413,0.0034562505315989256
1772562779343758600,4.782758544921875,-0.002374208066612482,-0.005074386950582266,0.001888980157673359
1772562779353825800,4.79282568359375,-0.002636795863509178,-0.001455151243135333,0.001663410454057157
1772562779363892700,4.802892822265625,-0.00250603468157351,-0.004428570624440908,0.00205276464112103
1772562779373959700,4.812959716796875,-0.003132676472887397,-0.004856806714087725,0.001065264455974102
1772562779384027000,4.82302685546875,-0.001067661214619875,-0.00410473020747304,0.0008077367674559355
1772562779394093800,4.83309375,-0.003939081449061632,-0.00373028963804245,0.0025952504947781563
1772562779404161800,4.843161865234375,-0.002538258908316493,-0.004311125259846449,0.0052413675002753735
1772562779414228700,4.853228759765625,-0.0020876519847661257,-0.007741010282188654,0.00195156445261091
1772562779424295700,4.863295654296875,-0.004366785287857056,-0.006281598005443811,0.008333297446370125
1772562779434362600,4.873362548828125,-0.003658917034044862,-0.002600310370326042,0.0006913566030561924
1772562779444429600,4.8834296875,-0.002883404493331909,-0.004595817066729069,0.0025654230266809464
1772562779454496500,4.89349658203125,-0.0018463695887476206,-0.004446413833647966,0.001487375469878316
1772562779464564700,4.903564697265625,-0.0029502499382942915,-0.005061071366071701,0.004834169987589121
1772562779474631700,4.913631591796875,-0.0028943235520273447,-0.006740993354469538,0.0036048549227416515
1772562779484699000,4.923698974609375,-0.0023529028985649347,-0.003576359013095498,0.0026234800461679697
1772562779494765800,4.933765869140625,-0.0024056334514170885,-0.0051902346312999725,0.0016437029698863626
1772562779504832800,4.943832763671875,-0.00276196445338428,-0.003870371961966157,0.0018751317402347922
1772562779514899700,4.953899658203125,-0.004327370319515467,-0.0029670277144759893,0.003061303636059165
1772562779524967700,4.9639677734375,-0.005215268116444349,-0.005548163317143917,0.001916410750709474
1772562779535034600,4.97403466796875,-0.003979827743023634,-0.005723399575799704,0.004444282967597246
1772562779545101600,4.9841015625,-0.003371029393747449,-0.004445881117135286,0.0004697816038969904
1772562779555168500,4.99416845703125,-0.0028043086640536785,-0.006404369603842497,0.002895655110478401
1772562779565235700,5.004235595703125,-0.0020242687314748764,-0.0052259210497140884,0.0007928230334073305
1772562779575302700,5.014302734375,-0.00247594085521996,-0.004979312419891357,0.0022684806026518345
1772562779585369600,5.02436962890625,-0.0035065840929746628,-0.003951332066208124,0.0023515713401138783
1772562779595437800,5.034437744140625,-0.0033393376506865025,-0.006560164503753185,0.001642637769691646
1772562779605504800,5.0445048828125,-0.004314587451517582,-0.004738828632980585,0.0031441280152648687
1772562779615571700,5.05457177734375,-0.004479969386011362,-0.005066930316388607,-0.00031079089967533946
1772562779625638700,5.064638671875,-0.004482632502913475,-0.005401689559221268,0.003093794221058488
1772562779635705600,5.07470556640625,-0.0016192019684240222,-0.006573214195668697,0.002763828495517373
1772562779645772800,5.084772705078125,-0.0019433086272329092,-0.0041364217177033424,0.0027742148377001286
1772562779655840500,5.094840576171875,-0.004568652715533972,-0.003239202778786421,0.000707868195604533
1772562779665907700,5.10490771484375,-0.0008130630594678223,-0.00555135915055871,-0.00011904330312972888
1772562779675974700,5.114974609375,-0.0036171053070575,-0.0036077843979001045,0.00395852280780673
1772562779686041600,5.12504150390625,-0.002516953507438302,-0.0034043188206851482,0.0023249397054314613
1772562779696108500,5.135108642578125,-0.001975000137463212,-0.004521248396486044,0.00547386147081852
1772562779706175700,5.14517578125,-0.004334294702857733,-0.005929261911660433,0.002555303042754531
1772562779716242700,5.15524267578125,-0.0012258529895916581,-0.004239486064761877,0.0012628709664568305
1772562779726310700,5.165310546875,-0.005665342323482037,-0.004005394410341978,0.003715375903993845
1772562779736377600,5.175377685546875,-0.003757453989237547,-0.0046237800270318985,0.005329518113285303
1772562779746444800,5.18544482421875,-0.001776328426785767,-0.0026498453225940466,0.004254666157066822
1772562779756511700,5.19551171875,-0.002290851203724742,-0.0035571842454373837,0.0015361113473773003
1772562779766578700,5.20557861328125,-0.0030250847339630127,-0.004208859521895647,0.002656769473105669
1772562779776645600,5.215645751953125,-0.00358807691372931,-0.005278651602566242,0.005592638161033392
1772562779786713600,5.225713623046875,-0.0032929987646639347,-0.004807005636394024,0.00401551416143775
1772562779796780500,5.235780517578125,-0.0030719563364982605,-0.003919107839465141,0.002746518002822995
1772562779806847700,5.24584765625,-0.004175303969532251,-0.006179865449666977,0.002843723399564624
1772562779816914700,5.255914794921875,-0.0038772961124777794,-0.004677842371165752,-0.000716922979336232
1772562779826982000,5.26598193359375,-0.004600344225764275,-0.005304217804223299,-0.00036218989407643676
1772562779837048800,5.276048828125,-0.002954510971903801,-0.005841377656906843,0.0054727960377931595
1772562779847115800,5.28611572265625,-0.0026378610637038946,-0.004343615844845772,0.005197159014642239
1772562779857183700,5.296183837890625,-0.0030330740846693516,-0.0033017871901392937,0.003471430391073227
1772562779867250700,5.306250732421875,-0.0032730249222368,-0.006905843038111925,0.006991863250732422
1772562779877317600,5.316317626953125,-0.004746019374579191,-0.0027885958552360535,0.003971039317548275
1772562779887385000,5.326385009765625,-0.003930026665329933,-0.003266899613663554,0.0041252365335822105
1772562779897452000,5.3364521484375,-0.0029973878990858793,-0.00621075788512826,0.001392566948197782
1772562779907519000,5.34651904296875,-0.0031880701426416636,-0.004745220299810171,0.002002697205170989
1772562779917587000,5.3565869140625,-0.004162254277616739,-0.0032325449865311384,0.002086320426315069
1772562779927654100,5.366654052734375,-0.0041060615330934525,-0.005535646807402372,0.0048916940577328205
1772562779937721000,5.37672119140625,-0.0031033814884722233,-0.003920173272490501,0.004216316621750593
1772562779947788000,5.3867880859375,-0.002835467690601945,-0.005745769944041967,0.0017129451734945178
1772562779957855000,5.39685498046875,-0.004081560764461756,-0.004355600103735924,0.00660543842241168
1772562779967922000,5.406921875,-0.0019145464757457376,-0.005131378769874573,0.00458836043253541
1772562779977990100,5.416990234375,-0.0026098978705704212,-0.0046852994710206985,0.002606169320642948
1772562779988057000,5.42705712890625,-0.0025502429343760014,-0.005615274887531996,0.0018897791160270572
1772562779998124000,5.4371240234375,-0.00003408846168895252,-0.0028032432310283184,0.001614940818399191
1772562780008191200,5.447191162109375,-0.0033278861083090305,-0.005016063805669546,0.0030210898257791996
1772562780018258200,5.457258056640625,-0.0023068301379680634,-0.006564692128449678,0.004962267819792032
1772562780028325000,5.4673251953125,-0.0036043222062289715,-0.005604888778179884,0.002891660202294588
1772562780038392000,5.47739208984375,-0.002269545802846551,-0.004856540355831385,0.0020354539155960083
1772562780048460000,5.4874599609375,-0.004757204558700323,-0.004495149478316307,0.008681372739374638
1772562780058527000,5.49752685546875,-0.002167813014239073,-0.005981726106256247,0.004832838196307421
1772562780068594000,5.507593994140625,-0.001228782464750111,-0.005340969655662775,0.004321511369198561
1772562780078660900,5.517660888671875,-0.003486610483378172,-0.005002748221158981,0.0036037894897162914
1772562780088728000,5.52772802734375,-0.004325506277382374,-0.0033041839487850666,0.0023616913240402937
1772562780098795000,5.537794921875,-0.0020610203500837088,-0.004794222768396139,0.002453836612403393
1772562780108863200,5.54786328125,-0.00245117349550128,-0.003820304526016116,0.003210174385458231
1772562780118930200,5.55793017578125,-0.0029667613562196493,-0.006582002621144056,0.003918575122952461
1772562780128997000,5.5679970703125,-0.0006002765148878098,-0.0027329358272254467,0.0007941546500660479
1772562780139064000,5.57806396484375,-0.0018759306985884905,-0.006744455546140671,0.0009675264009274542
1772562780149131000,5.588131103515625,-0.00541340745985508,-0.006551642436534166,0.0033457293175160885
1772562780159198000,5.598197998046875,-0.0006013417732901871,-0.004418184049427509,0.001975532853975892
1772562780169265200,5.60826513671875,-0.0016727314796298742,-0.0033816818613559008,0.003281813347712159
1772562780179332900,5.618332763671875,-0.0025747441686689854,-0.0017310547409579158,0.0032317459117621183
1772562780189400000,5.628400146484375,-0.0007107976707629859,-0.003698331769555807,0.0015776565996930003
1772562780199467000,5.638467041015625,-0.0022828616201877594,-0.002788329729810357,0.002311623888090253
1772562780209534000,5.648533935546875,-0.0020809939596801996,-0.0017478326335549355,0.005883188918232918
1772562780219601000,5.658600830078125,-0.0031289479229599237,-0.0036490634083747864,0.004804608877748251
1772562780229668000,5.668668212890625,-0.004757470916956663,-0.004236556589603424,0.004248274490237236
1772562780239736000,5.678736083984375,-0.0034285534638911486,-0.005315402988344431,0.0036075180396437645
1772562780249803000,5.688802978515625,-0.006111155729740858,-0.003513508476316929,0.004668521229177713
1772562780259870000,5.698869873046875,-0.004532966297119856,-0.006021939683705568,0.00535375252366066
1772562780269937200,5.708937255859375,-0.0029406624380499125,-0.0034703651908785105,0.0026732811238616705
1772562780280004000,5.719004150390625,-0.00475374236702919,-0.000675377668812871,0.004655738361179829
1772562780290071000,5.729071044921875,-0.0013281183782964945,-0.0029265477787703276,0.002162220422178507
1772562780300138000,5.739137939453125,-0.002001898130401969,-0.004322310443967581,0.003358778776600957
1772562780310206000,5.7492060546875,-0.0012548814993351698,-0.0037729002069681883,0.001547030289657414
1772562780320273000,5.75927294921875,-0.003519633784890175,-0.004316185135394335,0.0031257520895451307
1772562780330340000,5.769340087890625,-0.005539907608181238,-0.004567321389913559,0.00108284130692482
1772562780340407000,5.779406982421875,-0.0033012544736266136,-0.003907123580574989,0.0035246936604380608
1772562780350474200,5.78947412109375,-0.0028876655269414186,-0.006756706163287163,0.005927397403866053
1772562780360541200,5.799541259765625,-0.004344148561358452,-0.006597182713449001,0.005321261938661337
1772562780370609200,5.809609130859375,0.00008255799184553325,-0.003531085327267647,0.001119060325436294
1772562780380676000,5.819676025390625,-0.004005926661193371,-0.00512738386169076,0.004546815063804388
1772562780390743000,5.829742919921875,-0.0026559706311672926,-0.006060289219021797,0.004096740856766701
1772562780400810000,5.83981005859375,-0.00293267285451293,-0.004869057331234217,0.0010223875287920237
1772562780410877000,5.849876953125,-0.0016106797847896814,-0.006099704187363386,0.0008711199625395238
1772562780420944000,5.85994384765625,-0.004335892386734486,-0.005403021350502968,0.0038048583082854748
1772562780431011800,5.87001171875,-0.0017568873008713126,-0.005066397599875927,0.00152359448838979
1772562780441079000,5.8800791015625,-0.0034615767654031515,-0.005440305452793837,0.004756139125674963
1772562780451146200,5.890146240234375,-0.003388606244698167,-0.005840578582137823,0.0035920715890824795
1772562780461213200,5.900213134765625,-0.0027470507193356752,-0.006833404768258333,0.004257595632225275
1772562780471280000,5.910280029296875,-0.002567020943388343,-0.004899950232356787,0.0008010788587853312
1772562780481347000,5.92034716796875,-0.003251719754189253,-0.003065032185986638,0.005649629980325699
1772562780491414000,5.9304140625,-0.003037335118278861,-0.004516454879194498,0.004817658569663763
1772562780501482000,5.94048193359375,-0.0028706213925033808,-0.006539658177644014,0.0014317154418677092
1772562780511549000,5.950548828125,-0.008104798384010792,-0.006157760974019766,0.0037643781397491693
1772562780521616000,5.960615966796875,-0.0029920614324510098,-0.0028221518732607365,0.0012658004416152835
1772562780531683000,5.97068310546875,-0.004984372295439243,-0.005089300684630871,0.002347842790186405
1772562780541750000,5.98075,-0.0030093719251453876,-0.004490888677537441,0.0019265307346358895
1772562780551817000,5.99081689453125,-0.0020607539918273687,-0.0035864789970219135,-0.00024341292737517506
1772562780561885200,6.00088525390625,-0.0037111148703843355,-0.003707652911543846,0.001885784324258566
1772562780571952000,6.0109521484375,-0.002523078816011548,-0.0046549392864108086,0.0015257250051945448
1772562780582019000,6.02101904296875,-0.001389104756526649,-0.006915696896612644,0.004649080336093903
1772562780592086000,6.0310859375,-0.004486094694584608,-0.0031374699901789427,0.0026972496416419744
1772562780602153000,6.041153076171875,-0.002002430846914649,-0.006718090269714594,0.002284459536895156
1772562780612220200,6.05122021484375,-0.002243979601189494,-0.0031105722300708294,0.0023869911674410105
1772562780622288000,6.061287841796875,-0.003343332326039672,-0.004236822947859764,0.0007560714147984982
1772562780632355000,6.07135498046875,-0.003322825999930501,-0.00577826052904129,0.002257827902212739
1772562780642422000,6.081422119140625,-0.003924167715013027,-0.006484264507889748,0.0002681803307496011
1772562780652489000,6.091489013671875,-0.0019198728259652853,-0.004461327567696571,-0.00038935415796004236
1772562780662556000,6.101555908203125,-0.003358512418344617,-0.004898352082818747,0.004351338837295771
1772562780672622800,6.111622802734375,-0.004259992390871048,-0.0030503845773637295,0.0022160164080560207
1772562780682690000,6.12168994140625,-0.001642637769691646,-0.005571865476667881,0.0020908478181809187
1772562780692758000,6.131758056640625,-0.002683667466044426,-0.005534581374377012,0.0023134879302233458
1772562780702825000,6.141824951171875,-0.0003707120195031166,-0.0031401331070810556,0.00561154680326581
1772562780712892200,6.15189208984375,-0.002856240142136812,-0.003750795964151621,0.0007563377148471773
1772562780722959000,6.161958984375,-0.0030511836521327496,-0.0032586439047008753,0.0010061422362923622
1772562780733026000,6.172026123046875,-0.004593153949826956,-0.005283445119857788,0.000291616132017225
1772562780743093000,6.182093017578125,-0.0029462550301104784,-0.004715392831712961,0.003227484878152609
1772562780753160000,6.192159912109375,-0.0022125542163848877,-0.0027286747936159372,0.0023696806747466326
1772562780763228000,6.202227783203125,-0.0027451864443719387,-0.004704207647591829,0.0029609024059027433
1772562780773294800,6.212294921875,-0.005614476278424263,-0.00433003343641758,0.0011922972043976188
1772562780783362000,6.222362060546875,-0.0026522420812398195,-0.0038488004356622696,0.001868207473307848
1772562780793429200,6.23242919921875,-0.004221642855554819,-0.006421147845685482,0.0029377329628914595
1772562780803496200,6.24249609375,-0.003037601476535201,-0.003850398352369666,0.001511343871243298
1772562780813561900,6.252561767578125,-0.005095692351460457,-0.006061354652047157,0.0029374666046351194
1772562780823629000,6.262629150390625,-0.0029920614324510098,-0.003600061172619462,0.00173744629137218
1772562780833697000,6.272697021484375,-0.0032919333316385746,-0.006148972548544407,0.007861917838454247
1772562780843764000,6.282763916015625,-0.005037369206547737,-0.0044173854403197765,0.0020722055342048407
1772562780853831200,6.2928310546875,-0.002228533150628209,-0.00361683894880116,0.002317482838407159
1772562780863898000,6.302898193359375,-0.0027603665366768837,-0.005892510060220957,0.0014303837670013309
1772562780873965000,6.312965087890625,-0.003011236200109124,-0.005117264110594988,0.005553489550948143
1772562780884032000,6.323031982421875,-0.001701759872958064,-0.0046538738533854485,0.0026402578223496675
1772562780894099000,6.333098876953125,-0.002353968098759651,-0.0019656792283058167,0.003620833856984973
1772562780904167000,6.3431669921875,-0.00566960358992219,-0.005050418432801962,0.0021528995130211115
1772562780914233900,6.35323388671875,-0.004406998865306377,-0.004680771846324205,0.0025901903863996267
1772562780924300800,6.36330078125,-0.0019169433508068323,-0.0022357236593961716,0.0031369375064969063
1772562780934368000,6.373367919921875,-0.004033357370644808,-0.0032565132714807987,0.005812881514430046
1772562780944435000,6.38343505859375,-0.005573463626205921,-0.004756405483931303,0.0046149916015565395
1772562780954502000,6.393501953125,-0.004228567238897085,-0.0036706349346786737,0.0006021407316438854
1772562780964569900,6.40356982421875,-0.003029079409316182,-0.006622748915106058,0.002900981344282627
1772562780974636800,6.41363671875,-0.0020221380982548,-0.0030386666767299175,0.0026381274219602346
1772562780984704000,6.4237041015625,-0.004653075244277716,-0.003926298581063747,0.0036192359402775764
1772562780994771000,6.43377099609375,-0.004000600427389145,-0.004602475091814995,0.0031222901307046413
1772562781004838000,6.443837890625,-0.0036479979753494263,-0.0028367992490530014,0.003784085623919964
1772562781014905000,6.453905029296875,-0.0017180051654577255,-0.006006759591400623,0.00336117553524673
1772562781024972800,6.463972900390625,-0.0026522420812398195,-0.006681604776531458,0.0009062737226486206
1772562781035040000,6.4740400390625,-0.003079413203522563,-0.0051289820112288,0.005154015496373177
1772562781045107000,6.48410693359375,0.0008253136184066534,-0.002793922321870923,0.004765193909406662
1772562781055174000,6.494173828125,-0.0025750105269253254,-0.005250421818345785,-0.00008122641156660393
1772562781065240800,6.50424072265625,-0.002171807922422886,-0.005297826137393713,0.000022636868379777297
1772562781075307800,6.514307861328125,-0.0019976370967924595,-0.003989148885011673,0.001853826455771923
1772562781085374700,6.524374755859375,-0.002971288748085499,-0.004261324182152748,0.0016343819443136454
1772562781095443000,6.53444287109375,-0.0033100428991019726,-0.00404507527127862,0.0018847191240638494
1772562781105510000,6.544510009765625,0.00034727618913166225,-0.00478543434292078,0.0028575719334185123
1772562781115577000,6.5545771484375,-0.0006223807577043772,-0.0005792375304736197,0.004108725115656853
1772562781125644000,6.56464404296875,-0.00170788518153131,-0.004893824923783541,0.0014271880500018597
1772562781135711000,6.5747109375,-0.005218996666371822,-0.005396363325417042,0.0043473439291119576
1772562781145778000,6.58477783203125,-0.003257844829931855,-0.004232561681419611,0.002210956299677491
1772562781155846000,6.594845947265625,-0.0027893949300050735,-0.004780374001711607,0.0020780644845217466
1772562781165912800,6.604912841796875,-0.0008261125767603517,-0.005893309134989977,0.0023318638559430838
1772562781175979800,6.614979736328125,-0.002058623591437936,-0.003703658003360033,0.003136138431727886
1772562781186046700,6.625046630859375,-0.0015670040156692266,-0.004676776938140392,0.0015315839555114508
1772562781196115000,6.635114990234375,-0.0008532768115401268,-0.0027079021092504263,0.0014375743921846151
1772562781206183000,6.645182861328125,-0.0041734399273991585,-0.005363073665648699,0.0019430422689765692
1772562781216249900,6.655249755859375,-0.001925199176184833,-0.003099653171375394,0.004653075244277716
1772562781226317000,6.665317138671875,-0.002606169320642948,-0.006599046755582094,0.0027545075863599777
1772562781236384000,6.675384033203125,-0.0023696806747466326,-0.005714078433811665,0.0017177389236167073
1772562781246451000,6.685450927734375,-0.0020213392563164234,-0.0032498554792255163,0.0011552792275324464
1772562781256518000,6.695517822265625,-0.0006929545197635889,-0.004947886802256107,0.0028397287242114544
1772562781266584800,6.705584716796875,-0.002612294629216194,-0.005015264730900526,0.0031577101908624172
1772562781276652800,6.71565283203125,-0.0024642229545861483,-0.0046357642859220505,0.00032330775866284966
1772562781286719700,6.7257197265625,-0.004217648413032293,-0.006947921123355627,0.0027286747936159372
1772562781296787000,6.735786865234375,-0.004826446995139122,-0.006163619924336672,0.003933755215257406
1772562781306854000,6.74585400390625,-0.004070907831192017,-0.004602741450071335,0.00404454255476594
1772562781316921000,6.755921142578125,-0.0035928706638514996,-0.00484162662178278,0.0035630431957542896
1772562781326988000,6.765988037109375,-0.0011611381778493524,-0.002886333968490362,0.0012479572324082255
1772562781337056000,6.776055908203125,-0.0013672668719664216,-0.003718571737408638,0.0059660132974386215
1772562781347123000,6.786123046875,-0.0012652678415179253,-0.005251487251371145,0.0010282464791089296
1772562781357190000,6.79618994140625,-0.0021142836194485426,-0.004387291613966227,0.003492735791951418
1772562781367256800,6.8062568359375,-0.002722283359616995,-0.006804376374930143,0.0035052525345236063
1772562781377323800,6.81632373046875,-0.0031033814884722233,-0.0054730623960494995,0.001817607437260449
1772562781387391000,6.826390869140625,-0.0034043188206851482,-0.004147074185311794,0.0006234460161067545
1772562781397458000,6.8364580078125,-0.0026293389964848757,-0.004255997482687235,0.002281796419993043
1772562781407526100,6.846526123046875,-0.0014479606179520488,-0.005771336145699024,0.006173473782837391
1772562781417593000,6.856593017578125,-0.0017510283505544066,-0.0046996804885566235,0.0015257250051945448
1772562781427660000,6.866659912109375,-0.0029523803386837244,-0.007713845930993557,0.001148355077020824
1772562781437727000,6.87672705078125,-0.0022927154786884785,-0.0054765245877206326,0.0003025351034011692
1772562781447794000,6.8867939453125,-0.0023307986557483673,-0.002802710747346282,0.0017499631503596902
1772562781457860900,6.89686083984375,-0.0022037657909095287,-0.003480485174804926,0.005758020561188459
1772562781467928800,6.9069287109375,-0.002514024032279849,-0.0031933963764458895,0.0032735576387494802
1772562781477995800,6.916995849609375,-0.0049678608775138855,-0.00569996377453208,0.004139084834605455
1772562781488063000,6.92706298828125,-0.0016900419723242521,-0.00353428116068244,0.0016610135789960623
1772562781498130000,6.9371298828125,-0.004589425399899483,-0.006656837183982134,0.0009424926829524338
1772562781508196900,6.94719677734375,-0.0009467537747696042,-0.005579855293035507,0.0006085322820581496
1772562781518263800,6.957263916015625,-0.0034674357157200575,-0.0031353395897895098,0.004142014309763908
1772562781528332000,6.96733203125,-0.002109756227582693,-0.003436809405684471,0.0041468082927167416
1772562781538399000,6.97739892578125,-0.0017965685110539198,-0.0049071405082941055,0.0028850024100393057
1772562781548466000,6.9874658203125,-0.0025417208671569824,-0.006411560345441103,0.005504487548023462
1772562781558532900,6.997532958984375,-0.00022796659322921187,-0.005849367007613182,0.0012306467397138476
1772562781568600000,7.00760009765625,-0.004544684197753668,-0.0028988507110625505,0.0038059235084801912
1772562781578667000,7.0176669921875,-0.003198456484824419,-0.005788380745798349,0.004563326481729746
1772562781588734000,7.02773388671875,-0.00432976707816124,-0.005878129042685032,0.004093278665095568
1772562781598802000,7.037802001953125,-0.004606469534337521,-0.003893807763233781,0.00004713794987765141
1772562781608868900,7.047868896484375,-0.006076268386095762,-0.004640291910618544,0.004194212146103382
1772562781618935800,7.057935791015625,-0.0032708945218473673,-0.0054909056052565575,0.0025126924738287926
1772562781629002800,7.068002685546875,-0.0026224146131426096,-0.0046813045628368855,-0.0012338425731286407
1772562781639069700,7.078069580078125,-0.0033007217571139336,-0.004606469534337521,0.004613393917679787
1772562781649137000,7.088136962890625,-0.004225105047225952,-0.004459463059902191,0.003680488560348749
1772562781659204900,7.098204833984375,-0.004358795937150717,-0.003653058083727956,-0.00027084347675554454
1772562781669272000,7.10827197265625,-0.0010849718237295747,-0.005136172287166119,0.0017246630741283298
1772562781679339000,7.118339111328125,-0.0031047132797539234,-0.0037204360123723745,0.0024378576781600714
1772562781689406000,7.128406005859375,-0.0019089538836851716,-0.0043532028794288635,0.0035654399544000626
1772562781699473000,7.138472900390625,-0.005191832315176725,-0.004593420308083296,0.0036671727430075407
1772562781709539800,7.148539794921875,-0.0017334514996036887,-0.005456018261611462,-0.0015542207984253764
1772562781719606800,7.158606689453125,-0.0014468954177573323,-0.003995007835328579,0.004748682491481304
1772562781729674800,7.1686748046875,-0.00443869037553668,-0.00452790642157197,0.003634948516264558
1772562781739741700,7.17874169921875,-0.003742540255188942,-0.004546282347291708,0.00424268189817667
1772562781749809000,7.188808837890625,-0.00264798104763031,-0.006353237200528383,0.004282895475625992
1772562781759876000,7.1988759765625,-0.006198507267981768,-0.007174289785325527,0.0025949841365218163
1772562781769943000,7.208943115234375,-0.00321816373616457,-0.0049161952920258045,0.0021310613956302404
1772562781780010000,7.219010009765625,0.00048629322554916143,-0.005337773822247982,0.0010572749888524413
1772562781790078000,7.229077880859375,-0.0025893915444612503,-0.0062712118960917,0.005368932615965605
1772562781800145000,7.239144775390625,-0.002579271560534835,-0.004560397006571293,0.005259742960333824
1772562781810211800,7.2492119140625,-0.004611263517290354,-0.0023302659392356873,0.004229099955409765
1772562781820278800,7.25927880859375,-0.0033800839446485043,-0.003930293023586273,0.003035204717889428
1772562781830346000,7.269345947265625,-0.0036136433482170105,-0.0049191247671842575,0.004412325099110603
1772562781840413000,7.279412841796875,-0.002576608443632722,-0.004786765668541193,0.0035694348625838757
1772562781850481000,7.28948095703125,-0.001885784324258566,-0.0038152446504682302,0.003692739177495241
1772562781860548000,7.299548095703125,-0.003186205867677927,-0.005403287708759308,0.003507649526000023
1772562781870615000,7.309614990234375,-0.0023246733471751213,-0.005112203769385815,0.0038133803755044937
1772562781880682000,7.319681884765625,-0.002951315138489008,-0.004613393917679787,0.0003294330381322652
1772562781890749000,7.3297490234375,-0.005664810072630644,-0.004050934221595526,0.0013201289111748338
1772562781900816000,7.33981591796875,-0.001716673607006669,-0.00455879932269454,0.00498091010376811
1772562781910883000,7.349883056640625,-0.002031991956755519,-0.006653375457972288,0.0020248014479875565
1772562781920951000,7.359950927734375,-0.0022594258189201355,-0.004839229863137007,0.0006295712664723396
1772562781931018200,7.370018310546875,-0.006057892460376024,-0.0044043357484042645,0.004295146092772484
1772562781941085200,7.380085205078125,-0.002523078816011548,-0.0028240159153938293,0.001061802264302969
1772562781951152000,7.390152099609375,-0.003615241264924407,-0.006731672212481499,0.0037859496660530567
1772562781961219000,7.400218994140625,-0.003599794814363122,-0.004162520635873079,0.0038517299108207226
1772562781971286000,7.4102861328125,-0.0006114617572166026,-0.003772367723286152,-0.00023515711654908955
1772562781981354000,7.42035400390625,-0.004435494542121887,-0.005852296482771635,0.0026999127585440874
1772562781991421000,7.4304208984375,-0.002837331732735038,-0.005353220272809267,0.0015480954898521304
1772562782001488000,7.44048779296875,-0.0034618431236594915,-0.006607302464544773,0.002151301596313715
1772562782011555000,7.45055517578125,-0.0024498419370502234,-0.0046757119707763195,-0.0024799355305731297
1772562782021622000,7.4606220703125,-0.0029859361238777637,-0.004845887888222933,0.0011704593198373914
1772562782031689000,7.47068896484375,-0.00526693370193243,-0.006322344299405813,0.0026378610637038946
1772562782041757200,7.480757080078125,-0.0027590349782258272,-0.0054674698039889336,0.006618221756070852
1772562782051824000,7.49082421875,-0.0026612968649715185,-0.003293797606602311,0.0018495653057470918
1772562782061891000,7.50089111328125,-0.0016783240716904402,-0.005056810099631548,0.0037803570739924908
1772562782071958000,7.5109580078125,-0.004135356284677982,-0.005609150044620037,0.004746019374579191
1772562782082025000,7.52102490234375,-0.0024370586033910513,-0.0054879761300981045,0.005745503585785627
1772562782092092200,7.531092041015625,-0.0030394657514989376,-0.0021252024453133345,0.0034735610242933035
1772562782102159000,7.5411591796875,-0.001969141187146306,-0.0044077979400753975,0.0012692625168710947
1772562782112227000,7.55122705078125,-0.003709516953676939,-0.006855775602161884,0.0015909724170342088
1772562782122294000,7.5612939453125,-0.003198456484824419,-0.00660517206415534,0.0028991170693188906
1772562782132361000,7.57136083984375,-0.005405950825661421,-0.003884752979502082,0.0015110776294022799
1772562782142428000,7.581427978515625,-0.002793655963614583,-0.004013916477560997,0.001996305538341403
1772562782152495000,7.5914951171875,-0.0020093549974262714,-0.00646748673170805,0.004760933108627796
1772562782162562000,7.60156201171875,-0.004427238833159208,-0.004601676017045975,-0.00043782367720268667
1772562782172630000,7.611630126953125,-0.002386192325502634,-0.0019864519126713276,0.0028996497858315706
1772562782182697000,7.621697021484375,-0.003963316325098276,-0.0067660268396139145,0.0019981698133051395
1772562782192764200,7.63176416015625,-0.003183542750775814,-0.005428054835647345,-0.0003193130251020193
1772562782202831000,7.6418310546875,-0.0030421288684010506,-0.0035156388767063618,0.0031337416730821133
1772562782212898000,7.65189794921875,-0.0035867453552782536,-0.0059873186983168125,0.0048887645825743675
1772562782222965000,7.661965087890625,-0.0027917916886508465,-0.004177967086434364,0.0020367854740470648
1772562782233033000,7.672032958984375,-0.0012591425329446793,-0.005809952039271593,0.0019885823130607605
1772562782243100000,7.682099853515625,-0.001657285145483911,-0.003650394966825843,0.005359877832233906
1772562782253166800,7.692166748046875,-0.002650644164532423,-0.003442135639488697,0.004735100548714399
1772562782263234000,7.702234130859375,-0.004544950556010008,-0.005814746022224426,0.006585464812815189
1772562782273301200,7.71230126953125,-0.0011329087428748608,-0.003946272190660238,0.0009006810723803937
1772562782283368200,7.7223681640625,-0.004798217210918665,-0.004494084510952234,0.0021054951939731836
1772562782293435100,7.73243505859375,-0.003335342975333333,-0.0031904669012874365,0.0032599754631519318
1772562782303503000,7.742503173828125,-0.004175836686044931,-0.005332181230187416,-0.00024234765442088246
1772562782313570000,7.752570068359375,-0.0021587584633380175,-0.00541500560939312,0.002802977105602622
1772562782323637000,7.762636962890625,-0.002296710154041648,-0.004722050856798887,0.0017973673529922962
1772562782333704000,7.772703857421875,-0.0007688545738346875,-0.003932423423975706,0.001719603082165122
1772562782343771000,7.78277099609375,-0.00330285239033401,-0.004600078333169222,0.003272492438554764
1772562782353838000,7.792838134765625,-0.003518834710121155,-0.004830974154174328,0.0008293083519674838
1772562782363906000,7.802906005859375,-0.005150287412106991,-0.00589703768491745,0.003085005795583129
1772562782373973200,7.81297314453125,-0.0020394488237798214,-0.0028900622855871916,0.003626426449045539
1772562782384040200,7.823040283203125,-0.002037318190559745,-0.004989165812730789,0.0008492820779792964
1772562782394107100,7.833107177734375,-0.0025720810517668724,-0.005224056541919708,0.0025124261155724525
1772562782404174000,7.843174072265625,-0.004054929129779339,-0.003924434073269367,0.005379585549235344
1772562782414241000,7.853240966796875,-0.001999235013499856,-0.005606752820312977,0.003802461316809058
1772562782424309000,7.86330908203125,-0.004485296085476875,-0.00586614478379488,0.0017526262672618032
1772562782434376000,7.8733759765625,-0.004232828039675951,-0.006478405557572842,-0.0004945489927195013
1772562782444443000,7.88344287109375,-0.0022831279784440994,-0.003576625371351838,0.0032834112644195557
1772562782454510000,7.893510009765625,-0.0057681407779455185,-0.004021106753498316,0.0009084042394533753
1772562782464577000,7.903576904296875,-0.001660214620642364,-0.005340703297406435,0.004166515544056892
1772562782474644000,7.91364404296875,-0.0028735508676618338,-0.004549478180706501,0.005848567932844162
1772562782484711000,7.9237109375,-0.001141963410191238,-0.0038389465771615505,0.0015491608064621687
1772562782494779100,7.933779052734375,-0.0008748483960516751,-0.003972637467086315,0.003697799053043127
1772562782504846000,7.94384619140625,-0.004315652418881655,-0.002773682354018092,0.003341201925650239
1772562782514913000,7.9539130859375,-0.004413124173879623,-0.004020574036985636,0.004019509069621563
1772562782524980000,7.96397998046875,-0.0024197481106966734,-0.0054277884773910046,0.004787564743310213
1772562782535047200,7.974047119140625,-0.004334294702857733,-0.0036519928835332394,0.003543868428096175
1772562782545114000,7.984114013671875,-0.002239984693005681,-0.0033366745337843895,0.0030631679110229015
1772562782555182000,7.99418212890625,-0.0028642297256737947,-0.006746852304786444,0.0026615632232278585
1772562782565249000,8.0042490234375,-0.0004846953088417649,-0.001853560097515583,0.002495914464816451
1772562782575316000,8.01431591796875,-0.0025771409273147583,-0.006019276566803455,0.0015691345324739814
1772562782585383000,8.0243828125,-0.001802960061468184,-0.005754292011260986,0.005543902516365051
1772562782595449900,8.034449951171876,-0.004050401505082846,-0.007625695317983627,0.002370745874941349
1772562782605517000,8.04451708984375,-0.0028357338160276413,-0.004608866758644581,0.0032503881957381964
1772562782615585000,8.0545849609375,-0.0038655782118439674,-0.00430127140134573,0.004735899157822132
1772562782625652000,8.06465185546875,-0.001770203118212521,-0.0031380027066916227,0.0029984530992805958
1772562782635719200,8.07471923828125,-0.004373176954686642,-0.005958023946732283,0.0029166939202696085
1772562782645786000,8.0847861328125,-0.004972388036549091,-0.0068419273011386395,0.003192331176251173
1772562782655853000,8.09485302734375,-0.0029675604309886694,-0.003841343568637967,-0.0014418354257941246
1772562782665920000,8.104919921875,-0.002031459240242839,-0.0038839541375637054,0.003829892026260495
1772562782675987000,8.114987060546875,-0.007250456139445305,-0.004877579398453236,0.004311657976359129
1772562782686055000,8.125054931640625,-0.0017417073249816895,-0.003913515247404575,0.004049602895975113
1772562782696121900,8.135121826171876,-0.004661863669753075,-0.0035451999865472317,0.0012948289513587952
1772562782706188800,8.145188720703125,-0.0051803807727992535,-0.006640592124313116,0.002159557305276394
1772562782716256300,8.15525634765625,-0.0028160265646874905,-0.006676012184470892,0.0030863373540341854
1772562782726323200,8.1653232421875,-0.002323341788724065,-0.0035808864049613476,0.0031063109636306763
1772562782736390100,8.17539013671875,-0.0035308189690113068,-0.004856540355831385,0.0023869911674410105
1772562782746458000,8.1854580078125,-0.0016365124611184,-0.0057798586785793304,0.0032927324064075947
1772562782756525000,8.195525146484375,-0.004376106429845095,-0.0059987702406942844,0.004040548112243414
1772562782766592000,8.205592041015626,-0.00355904852040112,-0.0038163098506629467,0.0021342572290450335
1772562782776659000,8.215658935546875,-0.0024136228021234274,-0.005078914575278759,0.0024546354543417692
1772562782786726000,8.225725830078124,-0.003230414353311062,-0.005053082015365362,0.004968925844877958
1772562782796793000,8.23579296875,-0.0018354506464675069,-0.005566006526350975,0.0009496832499280572
1772562782806860800,8.24586083984375,-0.0016437029698863626,-0.0057103498838841915,0.002823217073455453
1772562782816928300,8.25592822265625,-0.0005648564547300339,-0.0037678403314203024,0.006720487028360367
1772562782826995200,8.2659951171875,-0.004268514458090067,-0.006364688742905855,0.003942010924220085
1772562782837062100,8.276062255859374,-0.0009856359101831913,-0.004484230652451515,0.0012535499408841133
1772562782847129000,8.286129150390625,-0.0036788906436413527,-0.006000102031975985,0.004364388529211283
1772562782857196000,8.296196044921874,-0.005124188028275967,-0.004825115203857422,0.0015901734586805105
1772562782867264000,8.306263916015626,-0.0046568033285439014,-0.006844590418040752,0.007477623876184225
1772562782877331000,8.3163310546875,-0.004215251188725233,-0.005090898834168911,0.005923136603087187
1772562782887397400,8.3263974609375,-0.0033244239166378975,-0.005785717628896236,0.004186489153653383
1772562782897464600,8.336464599609375,-0.003349990351125598,-0.006514358334243298,0.004237089306116104
1772562782907531500,8.346531494140624,-0.0008066715090535581,-0.0020189424976706505,0.0015699334908276796
1772562782917598500,8.356598388671875,-0.0029755497816950083,-0.004189951345324516,0.002117745578289032
1772562782927665400,8.36666552734375,-0.0033787523861974478,-0.004740426782518625,0.0055151404812932014
1772562782937733400,8.3767333984375,-0.004424309358000755,-0.0046448190696537495,0.005293565336614847
1772562782947800300,8.38680029296875,-0.0031531827989965677,-0.006425675004720688,0.002395247109234333
1772562782957867300,8.3968671875,-0.0017129451734945178,-0.004670385736972094,0.0009033442474901676
1772562782967934500,8.4069345703125,-0.0029017801862210035,-0.005388906225562096,0.0052056810818612576
1772562782978001400,8.41700146484375,-0.003620301140472293,-0.004771319217979908,0.0033510555513203144
1772562782988068400,8.427068359375,-0.003179814200848341,-0.004969991277903318,0.0013022858183830976
1772562782998136600,8.437136474609375,-0.003293531248345971,-0.004920456558465958,0.00577879324555397
1772562783008203500,8.44720361328125,-0.0018277274211868644,-0.005091431550681591,0.004789961501955986
1772562783018270500,8.4572705078125,-0.0027976506389677525,-0.0036477316170930862,0.003320162883028388
1772562783028337400,8.46733740234375,-0.005542570725083351,-0.005138036794960499,0.0021110877860337496
1772562783038404400,8.477404296875,-0.005753759294748306,-0.004430168308317661,0.003997404593974352
1772562783048471600,8.487471435546874,-0.0017014936311170459,-0.004674380179494619,0.004787831101566553
1772562783058539300,8.497539306640626,-0.0030221552588045597,-0.005603024736046791,0.002796851797029376
1772562783068606500,8.5076064453125,-0.002704173792153597,-0.0054184673354029655,0.004058124963194132
1772562783078673400,8.51767333984375,-0.002916161436587572,-0.00583685003221035,0.0031055121216923
1772562783088740400,8.527740234375,-0.004237888380885124,-0.0033984598703682423,0.0023965786676853895
1772562783098807300,8.537807373046874,-0.003227484878152609,-0.004459463059902191,0.005471464246511459
1772562783108874200,8.547874267578125,-0.0021310613956302404,-0.005577990785241127,0.0018010957865044475
1772562783118942500,8.5579423828125,-0.004472512751817703,-0.0041489386931061745,0.0038892803713679314
1772562783129009400,8.568009521484376,-0.0024437166284769773,-0.005798766855150461,0.0025904567446559668
1772562783139076400,8.578076416015625,-0.00401657959446311,-0.006712763570249081,0.002603772561997175
1772562783149143600,8.5881435546875,-0.003907123580574989,-0.004845355171710253,0.0024373249616473913
1772562783159210500,8.59821044921875,-0.0027486486360430717,-0.005089034326374531,0.006848851218819618
1772562783169277400,8.60827734375,-0.0035108451265841722,-0.004750812891870737,0.003629622282460332
1772562783179344400,8.618344482421875,-0.003932423423975706,-0.0036882117856293917,0.004487160127609968
1772562783189412400,8.628412353515625,-0.004683434963226318,-0.0029558425303548574,0.002094576135277748
1772562783199479300,8.638479248046876,-0.004714061506092548,-0.004264253657311201,0.004049070179462433
1772562783209546200,8.648546142578125,-0.004456267226487398,-0.004849083721637726,0.003716174978762865
1772562783219613400,8.658613525390624,-0.001648496720008552,-0.003984621725976467,0.0007850998663343489
1772562783229680400,8.668680419921875,-0.002966495230793953,-0.003594202222302556,0.003970240708440542
1772562783239747600,8.67874755859375,-0.0017238641157746315,-0.003078614128753543,0.00195129809435457
1772562783249815600,8.688815673828126,-0.004453337751328945,-0.004190484061837196,0.004702077247202396
1772562783259882500,8.698882568359375,-0.002251968951895833,-0.006283462047576904,0.0014927018200978637
1772562783269949400,8.708949462890626,-0.0032434638123959303,-0.005268531385809183,0.0017118799732998013
1772562783280016400,8.719016357421875,-0.0027233485598117113,-0.005425658077001572,0.003328684950247407
1772562783290083300,8.729083251953124,-0.0035633095540106297,-0.005480519030243158,0.006579073145985603
1772562783300150300,8.739150390625,-0.0025744778104126453,-0.0049281795509159565,0.0017963021527975798
1772562783310218200,8.74921826171875,-0.0029411951545625925,-0.004344148561358452,0.0012487561907619238
1772562783320285400,8.759285400390626,-0.0035947347059845924,-0.003763046581298113,0.0029670277144759893
1772562783330352400,8.769352294921875,-0.001255414099432528,-0.004518052563071251,0.0032985913567245007
1772562783340419300,8.77941943359375,-0.0023529028985649347,-0.005255482159554958,0.002957440447062254
1772562783350486500,8.789486572265625,-0.0020780644845217466,-0.0055034225806593895,0.0024684839881956577
1772562783360553500,8.799553466796874,-0.004356931429356337,-0.004260258749127388,0.00395692465826869
1772562783370620400,8.809620361328125,-0.0033683660440146923,-0.00506826164200902,0.0022367890924215317
1772562783380688400,8.8196884765625,-0.004535363521426916,-0.004230431281030178,0.005216067191213369
1772562783390755300,8.82975537109375,-0.003320162883028388,-0.003900465788319707,0.004520449787378311
1772562783400822500,8.839822509765625,-0.0011326423846185207,-0.005022455472499132,0.0034173682797700167
1772562783410889500,8.849889404296874,-0.0020271982066333294,-0.0031036478467285633,0.005567071959376335
1772562783420956400,8.859956298828125,-0.003555319970473647,-0.005293831694871187,0.0033039175905287266
1772562783431023400,8.8700234375,-0.003516171593219042,-0.005640575196594,-0.0003608583356253803
1772562783441091300,8.88009130859375,-0.0024226775858551264,-0.005679457448422909,0.002174737397581339
1772562783451158500,8.890158447265625,-0.0036535905674099922,-0.006868292577564716,0.004444815684109926
1772562783461225500,8.9002255859375,-0.0046120621263980865,-0.0070853400975465775,0.0036876790691167116
1772562783471292400,8.91029248046875,0.0003145193331874907,-0.0025150892324745655,-0.000035420041967881843
1772562783481359400,8.920359375,-0.0024466461036354303,-0.005378786474466324,0.0006474144756793976
1772562783491426600,8.930426513671875,-0.00318886898458004,-0.003099653171375394,-0.0007070692372508347
1772562783501494500,8.94049462890625,-0.003492203075438738,-0.006284261122345924,0.0019150790758430958
1772562783511561500,8.9505615234375,-0.0037774275988340378,-0.0076121133752167225,0.0035478631034493446
1772562783521628400,8.96062841796875,-0.0012330436147749424,-0.005653358530253172,0.003861583536490798
1772562783531695400,8.9706953125,-0.0031486554071307182,-0.005338040180504322,0.0031166973058134317
1772562783541762300,8.98076220703125,-0.002675145398825407,-0.005456284619867802,0.0004588626616168767
1772562783551829200,8.990829345703125,-0.002351038623601198,-0.005654157139360905,0.003147856332361698
1772562783561897500,9.0008974609375,-0.003385410411283374,-0.0065071675926446915,0.0007632619817741215
1772562783571964400,9.01096435546875,-0.001627191435545683,-0.006759369280189276,0.0046695866622030735
1772562783582031600,9.021031494140624,-0.0017188041238114238,-0.004625111818313599,0.005055745132267475
1772562783592098600,9.0310986328125,-0.0044046021066606045,-0.005379585549235344,0.0028445222415030003
1772562783602165500,9.04116552734375,-0.002010952914133668,-0.005308212712407112,0.005304484162479639
1772562783612232400,9.051232421875,-0.003483148291707039,-0.0032714270055294037,0.003200853243470192
1772562783622299400,9.06129931640625,-0.0016791230300441384,-0.005197425372898579,0.0023899206425994635
1772562783632367400,9.071367431640626,-0.0031736891251057386,-0.0038506644777953625,0.00376011710613966
1772562783642434300,9.081434326171875,-0.0044205812737345695,-0.0048948898911476135,0.0020010992884635925
1772562783652501200,9.091501220703124,-0.0026639599818736315,-0.005395564250648022,0.0016413062112405896
1772562783662568400,9.101568359375,-0.0034844798501580954,-0.00327275856398046,0.0028421254828572273
1772562783672635400,9.111635498046875,-0.004278101958334446,-0.006792392116039991,0.0054424358531832695
1772562783682702300,9.121702392578126,-0.005420065484941006,-0.004770520608872175,0.003594468580558896
1772562783692770600,9.1317705078125,-0.0014602112350985408,-0.004447745159268379,-0.0002860235108528286
1772562783702837500,9.14183740234375,-0.0024413196370005608,-0.0037318875547498465,0.0038924762047827244
1772562783712904400,9.151904541015625,-0.0026642263401299715,-0.005249090492725372,0.0016221314435824752
1772562783722971400,9.161971435546874,0.0002258360618725419,-0.005839246790856123,0.00344506511464715
1772562783733038300,9.172038330078125,-0.0034519892651587725,-0.00449861166998744,0.00321816373616457
1772562783743105500,9.18210546875,-0.0011294466676190495,-0.005134840961545706,0.004245877731591463
1772562783753173200,9.19217333984375,-0.002385925967246294,-0.004983306862413883,0.0016743293963372707
1772562783763240400,9.202240478515625,-0.0006639260682277381,-0.003177950158715248,0.00264824740588665
1772562783773307400,9.212307373046874,-0.003081277245655656,-0.003952397499233484,0.002127066720277071
1772562783783374300,9.222374267578125,-0.002098038326948881,-0.0028160265646874905,0.0016010924009606242
1772562783793441300,9.232441162109374,-0.00318966805934906,-0.004565723240375519,0.0020000338554382324
1772562783803508500,9.242508544921876,-0.002067412016913295,-0.004606203176081181,0.0029140308033674955
1772562783813575400,9.252575439453125,-0.005302886478602886,-0.004038683604449034,0.0037348170299082994
1772562783823643400,9.262643310546874,-0.002912699244916439,-0.004821653012186289,0.002305232221260667
1772562783833710300,9.27271044921875,-0.001612544059753418,-0.004150802735239267,0.0029119004029780626
1772562783843777500,9.282777587890624,-0.00276196445338428,-0.00560968229547143,0.005858954507857561
1772562783853844500,9.292844482421875,-0.004493551794439554,-0.007168697193264961,0.0010490191634744406
1772562783863911400,9.302911376953125,-0.00324852392077446,-0.00401471508666873,0.004338821861892939
1772562783873978400,9.312978271484376,-0.0037505298387259245,-0.0054211304523050785,0.00039787625428289175
1772562783884047000,9.323047119140625,-0.0007520766812376678,-0.003456783015280962,0.0019923108629882336
1772562783894114000,9.333114013671874,-0.001757952617481351,-0.004295945167541504,0.0027838023379445076
1772562783904181000,9.343180908203125,-0.0028913940768688917,-0.0023403859231621027,0.0002700445184018463
1772562783914248000,9.353248046875,-0.0013108078856021166,-0.004135622642934322,0.0010319749126210809
1772562783924315000,9.36331494140625,-0.0013283847365528345,-0.004677309654653072,-0.00041971419705078006
1772562783934382000,9.373382080078125,-0.0029976540245115757,-0.004391818773001432,0.0025124261155724525
1772562783944449800,9.38344970703125,-0.004613926634192467,-0.004532699938863516,0.0018658105982467532
1772562783954517000,9.39351708984375,-0.003460777923464775,-0.005136971361935139,0.0017907095607370138
1772562783964584000,9.403583984375,-0.003781156148761511,-0.0057564228773117065,0.00019734023953787982
1772562783974651000,9.41365087890625,-0.0030543794855475426,-0.005607285536825657,0.0044139232486486435
1772562783984717800,9.4237177734375,-0.003279150230810046,-0.003810983384028077,0.0022628880105912685
1772562783994784800,9.43378466796875,-0.0006860303110443056,-0.002787797013297677,-0.000180029688635841
1772562784004853000,9.44385302734375,-0.0011837751371785998,-0.0028455876745283604,0.004226969089359045
1772562784014920000,9.453919921875,-0.0016666061710566282,-0.005815810989588499,0.0018671422731131315
1772562784024987000,9.46398681640625,-0.004568119999021292,-0.005409678909927607,0.002965696156024933
1772562784035054000,9.47405419921875,-0.004653607495129108,-0.00492125516757369,0.0017438378417864442
1772562784045121000,9.48412109375,-0.00504136411473155,-0.0055151404812932014,0.003894606838002801
1772562784055188000,9.49418798828125,-0.0016876452136784792,-0.004188885912299156,0.003454386256635189
1772562784065256000,9.504255859375,-0.0028964539524167776,-0.004533499013632536,0.005301021970808506
1772562784075323000,9.514322998046875,-0.0017025588313117623,-0.004286357667297125,0.0023587618488818407
1772562784085389800,9.524389892578125,-0.0037321539130061865,-0.004751611966639757,0.004060521721839905
1772562784095456800,9.534456787109375,-0.004136155359447002,-0.006463758181780577,0.003418433479964733
1772562784105524000,9.54452392578125,-0.004830974154174328,-0.0044349622912704945,0.0038751657120883465
1772562784115591200,9.554591064453126,0.0005464806454256177,-0.0019504991360008717,0.004685831721872091
1772562784125658000,9.564658203125,-0.0018261295044794679,-0.0064834654331207275,0.0022511701099574566
1772562784135726000,9.57472607421875,-0.004231496714055538,-0.004250404890626669,0.0029049760196357965
1772562784145793000,9.58479296875,-0.0029174929950386286,-0.003034672001376748,0.005320996046066284
1772562784155860000,9.59485986328125,-0.00390259618870914,-0.005088502075523138,0.001621066126972437
1772562784165927000,9.604927001953126,-0.001493500778451562,-0.0033217607997357845,0.0031007183715701103
1772562784175993900,9.614993896484375,-0.0017062872648239136,-0.005341236013919115,0.0025899240281432867
1772562784186060800,9.625060791015626,-0.004189951345324516,-0.0036887445021420717,0.003403786104172468
1772562784196128800,9.635128662109375,-0.004445348400622606,-0.003891144646331668,0.004582501482218504
1772562784206195700,9.64519580078125,-0.00529729388654232,-0.005289037711918354,0.0016327840276062489
1772562784216263200,9.65526318359375,-0.004268514458090067,-0.005513009615242481,0.002959837205708027
1772562784226330000,9.665330078125,-0.0016538230702280998,-0.004495948553085327,0.0030093719251453876
1772562784236397000,9.67539697265625,-0.0038634478114545345,-0.006856308318674564,0.005013400688767433
1772562784246464000,9.685464111328125,-0.004642955027520657,-0.002885801251977682,0.0018485001055523753
1772562784256532000,9.695531982421874,-0.0028754149097949266,-0.002198705682530999,0.004286091309040785
1772562784266599000,9.705598876953125,-0.0023587618488818407,-0.005058940965682268,0.0016980315558612347
1772562784276665900,9.715665771484375,-0.0029350698459893465,-0.003568103304132819,0.0046362970024347305
1772562784286732800,9.72573291015625,-0.0019947076216340065,-0.004339354578405619,0.0017012272728607059
1772562784296800000,9.735800048828125,-0.004506068304181099,-0.0030069751664996147,0.003004844533279538
1772562784306867000,9.745866943359376,-0.002028529765084386,-0.004545483272522688,0.002433596644550562
1772562784316935200,9.75593505859375,-0.0036794233601540327,-0.004541754722595215,0.0020213392563164234
1772562784327002000,9.766002197265625,-0.0018434401135891676,-0.006096241995692253,0.0036245621740818024
1772562784337069000,9.776069091796876,-0.0015342470724135637,-0.004543086513876915,0.003087668912485242
1772562784347136000,9.786135986328125,-0.0041587925516068935,-0.005514341406524181,0.0008937568636611104
1772562784357203000,9.796202880859376,-0.00461765518411994,-0.005343899130821228,0.001845038030296564
1772562784367270000,9.806269775390625,-0.0008631304954178631,-0.0037955371662974358,0.0030956584960222244
1772562784377337000,9.816337158203124,-0.003406715579330921,-0.004025368019938469,0.004202734678983688
1772562784387404800,9.82640478515625,-0.0026618295814841986,-0.005693305749446154,0.0005864280392415822
1772562784397472000,9.836471923828125,-0.002070873975753784,-0.002787530655041337,0.0005113269435241818
1772562784407539000,9.8465390625,-0.002787264296784997,-0.005486910697072744,0.0015366439474746585
1772562784417606000,9.85660595703125,-0.004222974646836519,-0.005608883686363697,0.004178499802947044
1772562784427672800,9.8666728515625,-0.006631004624068737,-0.004862932022660971,0.0041465419344604015
1772562784437739800,9.87673974609375,-0.0028370653744786978,-0.005002215504646301,0.006741259712725878
1772562784447808000,9.88680810546875,-0.0049249837175011635,-0.003216566052287817,0.0030631679110229015
1772562784457875000,9.896875,-0.002939064521342516,-0.002799248555675149,0.002749713836237788
1772562784467942000,9.90694189453125,-0.0030362699180841446,-0.002035187790170312,0.003025350859388709
1772562784478009000,9.917009033203126,-0.003921504598110914,-0.005245095584541559,0.004310592543333769
1772562784488076000,9.927075927734375,-0.0036402747500687838,-0.004879443906247616,0.0008804410463199019
1772562784498143000,9.93714306640625,-0.0016101471846923232,-0.007958856411278248,0.0059998356737196445
1772562784508211000,9.9472109375,-0.00367170013487339,-0.005803826730698347,-0.000056459015468135476
1772562784518278000,9.95727783203125,-0.004037085920572281,-0.005486910697072744,0.0016969662392511964
1772562784528344800,9.9673447265625,-0.003716707695275545,-0.006686664652079344,0.0034346787724643946
1772562784538411800,9.977411865234375,-0.004159324802458286,-0.004924184642732143,0.0036554548423737288
1772562784548478700,9.987478759765626,-0.0056951697915792465,-0.003560912562534213,0.0033867419697344303
1772562784558546200,9.997546142578125,-0.002112152986228466,-0.0033963292371481657,0.005313538946211338
1772562784568614000,10.00761376953125,-0.003356115659698844,-0.006615824531763792,0.0034053840208798647
1772562784578681000,10.01768115234375,-0.0044051348231732845,-0.004351072479039431,0.0018034926615655422
1772562784588748000,10.027748046875,-0.0036970002111047506,-0.006108758971095085,0.0010514160385355353
1772562784598815000,10.03781494140625,-0.0026730147656053305,-0.005361742340028286,0.0031260184478014708
1772562784608882000,10.0478818359375,-0.0024610271211713552,-0.003962783608585596,0.0037641117814928293
1772562784618948900,10.057948974609374,-0.0033041839487850666,-0.00487198680639267,0.0010061422362923622
1772562784629015800,10.068015869140625,-0.0024913870729506016,-0.003069559345021844,0.0036224317736923695
1772562784639083800,10.078083740234375,-0.0037593182642012835,-0.0054757255129516125,0.003497795667499304
1772562784649151000,10.08815087890625,-0.0014564828015863895,-0.004730839282274246,0.001118527608923614
1772562784659218000,10.098218017578125,-0.0020240023732185364,-0.006168946158140898,0.0029585056472569704
1772562784669285000,10.10828515625,-0.004412325099110603,-0.002292981604114175,0.0029558425303548574
1772562784679352000,10.11835205078125,-0.0031486554071307182,-0.0035124430432915688,0.002841326640918851
1772562784689419000,10.1284189453125,-0.0043718451634049416,-0.003338006092235446,0.0033933997619897127
1772562784699487000,10.138487060546876,-0.003165699541568756,-0.004833903629332781,0.0018333201296627522
1772562784709554000,10.148553955078125,-0.003020024625584483,-0.005849100649356842,0.0035782232880592346
1772562784719620900,10.158620849609376,-0.004296744242310524,-0.004059989005327225,0.00196354859508574
1772562784729687800,10.168687744140625,-0.0022445120848715305,-0.004367051646113396,0.0032519858796149492
1772562784739755000,10.178755126953124,-0.003868241561576724,-0.0038570561446249485,0.0037971350830048323
1772562784749822000,10.188822021484375,-0.005394765175879002,-0.004631503485143185,0.001353684812784195
1772562784759890000,10.198889892578125,-0.0051801144145429134,-0.0051899682730436325,0.002895388752222061
1772562784769957000,10.20895703125,-0.003341468283906579,-0.003936151973903179,0.0024487765040248632
1772562784780024000,10.219024169921875,-0.003478354774415493,-0.005053082015365362,0.0008239820599555969
1772562784790091000,10.229091064453126,-0.00367143377661705,-0.005860285833477974,0.0017915084026753902
1772562784800158000,10.239157958984375,-0.003203516360372305,-0.005399026442319155,0.003945473115891218
1772562784810224000,10.24922412109375,-0.0036133769899606705,-0.00427304208278656,0.0011659319279715419
1772562784820291000,10.259291015625,-0.002240251051262021,-0.006717291194945574,0.0023100259713828564
1772562784830359000,10.269359130859375,-0.004348942078649998,-0.00455800024792552,0.00512871565297246
1772562784840426000,10.279426025390626,-0.0027888622134923935,-0.0054509579204022884,0.0022032330743968487
1772562784850493000,10.289492919921875,-0.003479952458292246,-0.005429120268672705,0.004633633885532618
1772562784860560000,10.299559814453126,-0.0008309062686748803,-0.004508997779339552,0.0032567796297371387
1772562784870626800,10.309626708984375,-0.00276063266210258,-0.006001699715852737,0.0015065502375364304
1772562784880694000,10.319694091796874,-0.003224821761250496,-0.0037771612405776978,0.0033806166611611843
1772562784890761700,10.32976171875,-0.0026519757229834795,-0.005170527379959822,0.0037470676470547915
1772562784900829000,10.339828857421875,-0.001190433045849204,-0.006476807873696089,0.005486111622303724
1772562784910895900,10.349895751953126,-0.004501807503402233,-0.005230714567005634,0.0020596887916326523
1772562784920962800,10.359962890625,-0.0016876452136784792,-0.006487193983048201,0.0005579322460107505
1772562784931029800,10.37002978515625,-0.0027750139124691486,-0.0037915424909442663,0.003433080855756998
1772562784941096700,10.3800966796875,-0.0037942056078463793,-0.006662430241703987,0.006898119580000639
1772562784951163600,10.39016357421875,-0.0013949638232588768,-0.005679723806679249,0.0019451729021966457
1772562784961231600,10.400231689453125,-0.0026346652302891016,-0.004322044085711241,0.001916144392453134
1772562784971298800,10.410298828125,-0.002439455594867468,-0.004265584982931614,0.0027334685437381268
1772562784981366000,10.420365966796876,-0.0015981629258021712,-0.004633900243788958,0.0032655680552124977
1772562784991433000,10.430432861328125,-0.0022058964241296053,-0.0020359866321086884,0.003072755178436637
1772562785001500000,10.4405,-0.0023728765081614256,-0.003709783311933279,0.0013869742397218943
1772562785011566800,10.45056689453125,-0.00307621737010777,-0.0041462755762040615,0.005906624719500542
1772562785021634800,10.460634765625,-0.004547613672912121,-0.005446697119623423,0.0062946476973593235
1772562785031701800,10.47070166015625,-0.0037143107037991285,-0.006982009392231703,0.004090615548193455
1772562785041768700,10.480768798828125,-0.002313754288479686,-0.005258411634713411,-0.0011169298086315393
1772562785051835600,10.490835693359376,-0.002734001260250807,-0.007839281111955643,0.003157443832606077
1772562785061902800,10.50090283203125,-0.0033281524665653706,-0.004259726032614708,0.0023672839161008596
1772562785071969800,10.5109697265625,-0.0008713863207958639,-0.0043622576631605625,0.0016772588714957237
1772562785082038000,10.5210380859375,-0.004326571244746447,-0.005231780000030994,0.001961151836439967
1772562785092105000,10.53110498046875,-0.0031095067970454693,-0.005579855293035507,0.004264253657311201
1772562785102172000,10.541171875,-0.0033302828669548035,-0.004043477587401867,-0.00007243797881528735
1772562785112238800,10.55123876953125,-0.0020501012913882732,-0.00392842898145318,0.00018615495355334133
1772562785122305800,10.561305908203124,-0.0009451558580622077,-0.004029895178973675,0.005272526293992996
1772562785132372700,10.571372802734375,-0.00481286458671093,-0.005369731690734625,0.004807005636394024
1772562785142440000,10.58143994140625,-0.001785116852261126,-0.003984621725976467,0.0011448930017650127
1772562785152508000,10.5915078125,-0.0018002968281507492,-0.0044381581246852875,0.0031819448340684175
1772562785162574800,10.601574951171875,-0.0043686493299901485,-0.004571315832436085,0.00119575927965343
1772562785172641800,10.611641845703126,-0.0026967169251292944,-0.0038839541375637054,0.003658917034044862
1772562785182708700,10.621708740234375,-0.003072755178436637,-0.006362025626003742,0.0023734092246741056
1772562785192775700,10.631775634765624,-0.002177933230996132,-0.004199006129056215,0.002388589084148407
1772562785202842600,10.641842529296875,-0.002287389012053609,-0.004758003633469343,0.003451723139733076
1772562785212910800,10.651910888671875,-0.0029031119775027037,-0.005203816574066877,0.003154247999191284
1772562785222977800,10.661977783203126,-0.0027020431589335203,-0.004089816473424435,0.002379800658673048
1772562785233044700,10.672044677734375,-0.003907922655344009,-0.004063983913511038,0.004503937903791666
1772562785243112000,10.68211181640625,-0.003353186184540391,-0.00560968229547143,0.0023555660154670477
1772562785253179000,10.692178955078125,-0.002621615771204233,-0.005480519030243158,0.003310841741040349
1772562785263245800,10.702245849609374,-0.001698830397799611,-0.0020418455824255943,0.005756955128163099
1772562785273313800,10.712313720703126,-0.0026676885318011045,-0.0031467911321669817,0.00022397184511646628
1772562785283380700,10.722380615234375,-0.004397145472466946,-0.003605387406423688,0.004477572627365589
1772562785293447700,10.73244775390625,-0.0028482507914304733,-0.006259493995457888,0.0032032502349466085
1772562785303514600,10.7425146484375,-0.004733768757432699,-0.001719869440421462,0.0044115264900028706
1772562785313581800,10.752581787109374,-0.005531119182705879,-0.005067463032901287,0.002447711303830147
1772562785323649000,10.76264892578125,-0.0025070998817682266,-0.006732204928994179,0.006395581178367138
1772562785333717000,10.772717041015625,-0.002665557898581028,-0.0049494849517941475,0.0018080200534313917
1772562785343784000,10.782783935546876,-0.004671450704336166,-0.004881307948380709,0.0032519858796149492
1772562785353851000,10.792850830078125,-0.0021321268286556005,-0.007905061356723309,0.0026429209392517805
1772562785363917800,10.802917724609374,-0.003497795667499304,-0.003436809405684471,0.002805906580761075
1772562785373984800,10.81298486328125,-0.002246110001578927,-0.006882939953356981,0.005274923052638769
1772562785384051700,10.8230517578125,-0.0027771443128585815,-0.005067196674644947,0.0059907808899879456
1772562785394119000,10.833118896484375,-0.0021347899455577135,-0.004676776938140392,0.00373055599629879
1772562785404186600,10.8431865234375,-0.002924683503806591,-0.0049284459091722965,0.0028477180749177933
1772562785414253800,10.85325390625,-0.0035918052308261395,-0.004050401505082846,0.004376638680696487
1772562785424321000,10.863321044921875,-0.004536961205303669,-0.0062765381298959255,0.0044235107488930225
1772562785434388000,10.873387939453124,-0.0007355650886893272,-0.007050186395645142,0.00413482403382659
1772562785444455000,10.883454833984375,-0.0033513219095766544,-0.005477855913341045,0.0031302794814109802
1772562785454523000,10.89352294921875,-0.0051534827798604965,-0.005101817660033703,0.0003842941368930042
1772562785464589800,10.90358984375,-0.0008998821140266955,-0.004803277086466551,0.0032293491531163454
1772562785474656800,10.91365673828125,-0.003174221608787775,-0.006171875633299351,0.0032503881957381964
1772562785484723700,10.9237236328125,-0.0011552792275324464,-0.003916977439075708,0.0025782061275094748
1772562785494791000,10.933791015625,-0.003620034782215953,-0.0046546729281544685,0.002659965306520462
1772562785504857900,10.94385791015625,-0.0019526296528056264,-0.004350806120783091,-0.0003057308786083013
1772562785514924800,10.9539248046875,-0.0037643781397491693,-0.00449914438650012,-0.0003587277897167951
1772562785524992800,10.96399267578125,-0.0023664848413318396,-0.0041494714096188545,-0.0015491608064621687
1772562785535060000,10.97406005859375,-0.00452817277982831,-0.005270395893603563,0.0010713896481320262
1772562785545127000,10.984126953125,-0.0011355718597769737,-0.002779541304334998,0.006816360633820295
1772562785555193900,10.99419384765625,-0.0028450549580156803,-0.004731371998786926,0.002639725338667631
1772562785565260800,11.0042607421875,-0.003838147735223174,-0.00407623453065753,0.003710848744958639
1772562785575328000,11.014327880859375,-0.0018040252616629004,-0.003916977439075708,0.002704440150409937
1772562785585395700,11.024395751953126,-0.0034232272300869226,-0.006613427773118019,0.002868490759283304
1772562785595463000,11.034462890625,-0.003718571737408638,-0.0045585329644382,0.0044256411492824554
1772562785605529900,11.04452978515625,-0.003073021536692977,-0.005790777504444122,0.004782238509505987
1772562785615596800,11.0545966796875,-0.002799781272187829,-0.004533232655376196,0.004455468617379665
1772562785625663700,11.064663818359374,-0.0021427792962640524,-0.00455613574013114,0.002469549188390374
1772562785635730700,11.074730712890625,-0.002382730133831501,-0.003829625668004155,0.0003938815207220614
1772562785645799000,11.084798828125,-0.0057164751924574375,-0.005525526590645313,0.0025590313598513603
1772562785655865900,11.094865966796876,-0.004403004422783852,-0.005025118589401245,0.0041457428596913815
1772562785665932800,11.104932861328125,-0.004579039290547371,-0.006637396290898323,0.004224305972456932
1772562785676000000,11.115,-0.0032772859558463097,-0.005928462836891413,0.0066650933586061
1772562785686067000,11.12506689453125,-0.002514823107048869,-0.005471464246511459,0.002016545506194234
1772562785696134000,11.1351337890625,-0.003177417442202568,-0.0062800003215670586,0.0023331954143941402
1772562785706201900,11.145201904296876,-0.00310577847994864,-0.0030567762441933155,0.0004665858286898583
1772562785716268800,11.155268798828125,-0.003070092061534524,-0.005065065808594227,0.001996838254854083
1772562785726335700,11.165335693359374,-0.002691923175007105,-0.003908189013600349,0.005278385244309902
1772562785736402700,11.175402587890625,-0.002350772265344858,-0.005079447291791439,0.003412574529647827
1772562785746469600,11.1854697265625,-0.001924666459672153,-0.004574245307594538,-0.0005257080192677677
1772562785756536800,11.195536865234375,-0.0026234800461679697,-0.00683154072612524,0.0007041397620923817
1772562785766603800,11.205603759765625,-0.0024674187880009413,-0.0054754591546952724,0.004977714270353317
1772562785776672000,11.215672119140624,-0.0034996599424630404,-0.005458415020257235,0.0038152446504682302
1772562785786739000,11.225739013671875,-0.002426938619464636,-0.004309260752052069,0.0033065807074308395
1772562785796806000,11.235805908203124,-0.0032170985359698534,-0.0029230855870991945,0.0026080335956066847
1772562785806872800,11.245872802734375,-0.003209908027201891,-0.0037875475827604532,-0.00007297061529243365
1772562785816939800,11.255939697265624,-0.0033457293175160885,-0.006425941362977028,0.003919107839465141
1772562785827006700,11.2660068359375,-0.001457814360037446,-0.0032506543211638927,0.002916427794843912
1772562785837074700,11.27607470703125,-0.004555869847536087,-0.00577799417078495,0.0017741979099810123
1772562785847141600,11.2861416015625,-0.001677525113336742,-0.006314887665212154,0.00532525684684515
1772562785857208800,11.296208740234375,-0.0043321643024683,-0.003561178920790553,0.003233876544982195
1772562785867275800,11.30627587890625,-0.001936917076818645,-0.00484349112957716,0.0028698223177343607
1772562785877343000,11.316343017578125,-0.0021939121652394533,-0.00407410366460681,0.002938798163086176
1772562785887410000,11.326409912109375,-0.0006410228670574725,-0.005065065808594227,-0.00020186760229989886
1772562785897478400,11.336478515625,-0.002156361471861601,-0.005424859002232552,0.0029403960797935724
1772562785907545300,11.34654541015625,-0.0036096484400331974,-0.0026109630707651377,0.00009161273919744417
1772562785917612300,11.3566123046875,-0.002243180526420474,-0.0016732640797272325,-0.000957939017098397
1772562785927679200,11.36667919921875,-0.001755023142322898,-0.0044322991743683815,0.005022988189011812
1772562785937746200,11.37674609375,-0.0021441110875457525,-0.0052259210497140884,-0.0013440974289551377
1772562785947813400,11.3868134765625,-0.004270112607628107,-0.004436559975147247,0.0049095372669398785
1772562785957881000,11.396881103515625,-0.00279046013019979,-0.00884915143251419,0.003102849004790187
1772562785967948300,11.4069482421875,-0.0032445292454212904,-0.003163302782922983,0.002764361212030053
1772562785978015200,11.41701513671875,-0.0016857809387147427,-0.0051779840141534805,-0.0020580908749252558
1772562785988082200,11.427082275390624,-0.0035388083197176456,-0.005848301574587822,0.004450141917914152
1772562785998149400,11.4371494140625,-0.002846386516466737,-0.006615558639168739,0.004554271697998047
1772562786008216300,11.44721630859375,-0.002939597237855196,-0.003913515247404575,0.001958222361281514
1772562786018284300,11.4572841796875,-0.003293797606602311,-0.00040320257539860904,0.0057561565190553665
1772562786028351200,11.467351318359375,-0.0006005428149364889,-0.003997138235718012,0.0005139900604262948
1772562786038418200,11.477418212890624,-0.0011262508342042565,-0.00640703272074461,0.004798749927431345
1772562786048485400,11.4874853515625,-0.0020959076937288046,-0.004067978356033564,0.005800897255539894
1772562786058552300,11.49755224609375,-0.003459712490439415,-0.003913248889148235,0.00318913534283638
1772562786068619300,11.507619384765626,-0.0026786073576658964,-0.0034048515371978283,-0.0014689996605738997
1772562786078687200,11.517687255859375,-0.004317516926676035,-0.005726329050958157,0.004391818773001432
1772562786088754200,11.527754150390624,-0.0011941614793613553,-0.003992078360170126,0.0011672634864225984
1772562786098821000,11.537821044921875,-0.003919640555977821,-0.0054999603889882565,0.002897519152611494
1772562786108888300,11.547888427734375,-0.0054730623960494995,-0.005653092171996832,0.0031121699139475822
1772562786118955300,11.557955322265625,-0.00452923821285367,-0.006160424090921879,0.0036125779151916504
1772562786129022500,11.5680224609375,-0.003108707955107093,-0.006779076531529427,0.004168113227933645
1772562786139089400,11.57808935546875,-0.002284193178638816,-0.005656288005411625,0.0011704593198373914
1772562786149157400,11.588157470703125,-0.0014269216917455196,-0.0051801144145429134,0.0002735066518653184
1772562786159224300,11.598224365234374,-0.0019622170366346836,-0.004269846249371767,0.0033217607997357845
1772562786169291300,11.608291259765625,-0.0009587379754520953,-0.006076268386095762,0.003540672594681382
1772562786179358200,11.618358154296875,-0.0035366779193282127,-0.003668504301458597,-0.002977147698402405
1772562786189425200,11.628425048828126,-0.002441585995256901,-0.0027411917690187693,-0.00038988678716123104
1772562786199492000,11.6384921875,-0.004532966297119856,-0.004086886998265982,0.002173938322812319
1772562786209560300,11.648560302734374,-0.004147340543568134,-0.003713245503604412,0.0013829795643687248
1772562786219627300,11.658627197265625,-0.0015267902053892612,-0.004102599807083607,0.002255697501823306
1772562786229694500,11.668694580078125,-0.0031758195254951715,-0.005902097560465336,0.003194727934896946
1772562786239761400,11.678761474609376,-0.0013156015193089843,-0.006827545817941427,0.002698048483580351
1772562786249828400,11.688828369140625,0.0002442118711769581,-0.005830458365380764,0.004782504867762327
1772562786259895300,11.698895263671876,-0.0034844798501580954,-0.0036224317736923695,0.0011054781498387456
1772562786269963300,11.70896337890625,-0.0016508935950696468,-0.005123123060911894,0.005742041394114494
1772562786280030200,11.7190302734375,-0.004005128052085638,-0.004456267226487398,0.003285009181126952
1772562786290097200,11.72909716796875,-0.004776379559189081,-0.0054821171797811985,0.0019912454299628735
1772562786300164000,11.7391640625,-0.001996039180085063,-0.004652542527765036,0.0037766287568956614
1772562786310231300,11.749231201171876,-0.005578523501753807,-0.0033920682035386562,0.0019169433508068323
