time,seconds_elapsed,z,y,x
1772713750356113000,0.07611279296875,0.1243981197476387,-0.12088637053966522,0.2445458322763443
1772713750366088000,0.086087890625,0.11452897638082504,-0.17405743896961212,0.25734448432922363
1772713750376062000,0.09606201171875,0.12030849605798721,-0.23320665955543518,0.2736204266548157
1772713750386036000,0.106035888671875,0.1320977807044983,-0.24988603591918945,0.2761610746383667
1772713750396010800,0.1160107421875,0.15251465141773224,-0.23187032341957092,0.27488991618156433
1772713750405984800,0.12598486328125,0.16915754973888397,-0.2054099589586258,0.2759746313095093
1772713750415958800,0.135958740234375,0.18417423963546753,-0.16660530865192413,0.27594098448753357
1772713750425933800,0.145933837890625,0.1907666176557541,-0.122027188539505,0.2636882960796356
1772713750435907800,0.155907958984375,0.18772061169147491,-0.07560767978429794,0.24054299294948578
1772713750445882600,0.165882568359375,0.18427395820617676,-0.031469251960515976,0.22397546470165253
1772713750455857400,0.175857421875,0.18510757386684418,0.000014286953955888748,0.21029049158096313
1772713750465831400,0.18583154296875,0.17846351861953735,0.0349578894674778,0.1963014304637909
1772713750475806500,0.195806396484375,0.171074777841568,0.06858576089143753,0.17646868526935577
1772713750485780500,0.205780517578125,0.1599683314561844,0.10935262590646744,0.1448867917060852
1772713750495754500,0.21575439453125,0.15601781010627747,0.12698791921138763,0.11079498380422592
1772713750505729500,0.2257294921875,0.15480580925941467,0.11429290473461151,0.06166871637105942
1772713750515703600,0.23570361328125,0.1439138799905777,0.0881752073764801,0.012882597744464874
1772713750525677600,0.245677490234375,0.13275523483753204,0.061169419437646866,-0.03743623197078705
1772713750535652400,0.25565234375,0.1183978021144867,0.034065600484609604,-0.0684909075498581
1772713750545626400,0.26562646484375,0.10649320483207703,-0.0001450985437259078,-0.0764729306101799
1772713750555600400,0.275600341796875,0.09157612919807434,-0.037496745586395264,-0.06391766667366028
1772713750565575700,0.28557568359375,0.09498178213834763,-0.07757572084665298,-0.038488201797008514
1772713750575549700,0.2955498046875,0.09350892156362534,-0.12614867091178894,-0.018256371840834618
1772713750585523500,0.3055234375,0.0924907922744751,-0.16956885159015656,0.007638341281563044
1772713750595498500,0.31549853515625,0.0858130156993866,-0.1806987076997757,0.038811810314655304
1772713750605472500,0.325472412109375,0.07153980433940887,-0.16508060693740845,0.06483915448188782
1772713750615446500,0.335446533203125,0.05178404599428177,-0.15427124500274658,0.07680096477270126
1772713750625421600,0.345421630859375,0.026782555505633354,-0.14032186567783356,0.07003067433834076
1772713750635395600,0.3553955078125,-0.009644127450883389,-0.1274598091840744,0.05973739176988602
1772713750645370400,0.365370361328125,-0.024567948654294014,-0.11830013245344162,0.0465073399245739
1772713750655344400,0.375344482421875,-0.025358280166983604,-0.11237584054470062,0.04594532027840614
1772713750665318400,0.385318359375,-0.01070317067205906,-0.08645263314247131,0.06193893402814865
1772713750675293400,0.39529345703125,0.005195809528231621,-0.063161700963974,0.08694589883089066
1772713750685267500,0.405267333984375,0.01685938984155655,-0.05040702223777771,0.11056787520647049
1772713750695241500,0.415241455078125,0.01041616965085268,-0.03605951741337776,0.11984850466251373
1772713750705216500,0.425216552734375,-0.012370902113616467,-0.02828468568623066,0.12454312294721603
1772713750715190500,0.4351904296875,-0.037184976041316986,-0.023482345044612885,0.11862244457006454
1772713750725164300,0.445164306640625,-0.05705082416534424,-0.021368592977523804,0.11867863684892654
1772713750735139300,0.455139404296875,-0.06992943584918976,-0.011545265093445778,0.1127905547618866
1772713750745113300,0.46511328125,-0.06783672422170639,-0.013530918397009373,0.11080596596002579
1772713750755087400,0.47508740234375,-0.06645956635475159,-0.007925961166620255,0.12524013221263885
1772713750765062700,0.485062744140625,-0.06221581995487213,0.0020001728553324938,0.14097729325294495
1772713750775036700,0.49503662109375,-0.04287395253777504,-0.006220220122486353,0.14786753058433533
1772713750785011500,0.505011474609375,-0.020218705758452415,-0.016623325645923615,0.15796969830989838
1772713750794985500,0.5149853515625,0.004601989407092333,-0.010889201425015926,0.17827987670898438
1772713750804959500,0.52495947265625,0.022347697988152504,-0.009865482337772846,0.17945565283298492
1772713750814934500,0.5349345703125,0.026235323399305344,-0.023320507258176804,0.14790226519107819
1772713750824908500,0.544908447265625,0.0175467599183321,-0.03805311769247055,0.09157374501228333
1772713750834882600,0.554882568359375,0.003646284807473421,-0.02365468069911003,0.022887034341692924
1772713750844857300,0.564857421875,0.00007631746120750904,0.004837947431951761,-0.049977850168943405
1772713750854831400,0.574831298828125,0.002854342805221677,0.044777628034353256,-0.11858373135328293
1772713750864805400,0.584805419921875,0.0024900222197175026,0.07802453637123108,-0.17855864763259888
1772713750874780400,0.594780517578125,0.0016198079101741314,0.09396747499704361,-0.2258278727531433
1772713750884754400,0.60475439453125,0.002013955730944872,0.10324273258447647,-0.2528751790523529
1772713750894728400,0.614728515625,-0.005232878029346466,0.11414365470409393,-0.26278191804885864
1772713750904703500,0.624703369140625,-0.01064202468842268,0.11328797787427902,-0.26066815853118896
1772713750914677500,0.634677490234375,-0.01923408918082714,0.11148928850889206,-0.25373825430870056
1772713750924651300,0.6446513671875,-0.01898215338587761,0.11495672166347504,-0.2422560453414917
1772713750934626600,0.65462646484375,-0.014797518029808998,0.11542634665966034,-0.22136688232421875
1772713750944600600,0.6646005859375,-0.0018857140094041824,0.1074025109410286,-0.17502520978450775
1772713750954575600,0.67457568359375,0.00048205582424998283,0.09026835113763809,-0.11111810803413391
1772713750964549600,0.684549560546875,-0.004572623409330845,0.06087743863463402,-0.0427294597029686
1772713750974523600,0.694523681640625,-0.008249499835073948,0.026102447882294655,0.000746564706787467
1772713750984498400,0.70449853515625,-0.004457690753042698,-0.008681097999215126,0.02576403319835663
1772713750994472400,0.714472412109375,0.0021593733690679073,-0.04236289858818054,0.023467760533094406
1772713751004446500,0.724446533203125,0.013258363120257854,-0.06486101448535919,0.00850825197994709
1772713751014421500,0.73442138671875,0.02672886662185192,-0.07803753018379211,-0.004963906016200781
1772713751024395500,0.7443955078125,0.030713753774762154,-0.0830991342663765,-0.011936860159039497
1772713751034369500,0.75436962890625,0.033551789820194244,-0.07403834909200668,-0.0136957922950387
1772713751044344300,0.76434423828125,0.03708473965525627,-0.04777878150343895,-0.015273979865014553
1772713751054318300,0.774318359375,0.03991176560521126,-0.01808091439306736,-0.025517592206597328
1772713751064292400,0.784292236328125,0.03844117000699043,0.0034203827381134033,-0.03787652403116226
1772713751074267400,0.794267333984375,0.04144445061683655,0.026059802621603012,-0.04628261178731918
1772713751084241400,0.804241455078125,0.04718729108572006,0.04479353874921799,-0.0494413860142231
1772713751094215400,0.81421533203125,0.04703187942504883,0.058631476014852524,-0.03912162780761719
1772713751104190500,0.8241904296875,0.04259105771780014,0.06442490965127945,-0.011674558743834496
1772713751114164500,0.83416455078125,0.03609619662165642,0.05608702078461647,0.01838425174355507
1772713751124138500,0.844138427734375,0.030235908925533295,0.037460874766111374,0.03501809015870094
1772713751134113500,0.854113525390625,0.03228908032178879,0.012007199227809906,0.04452201724052429
1772713751144087600,0.864087646484375,0.03693016991019249,-0.010317015461623669,0.03849821165204048
1772713751154062600,0.8740625,0.040487851947546005,-0.03147270530462265,0.014932328835129738
1772713751164036600,0.88403662109375,0.04238349199295044,-0.044246286153793335,-0.007701344322413206
1772713751174010600,0.8940107421875,0.042910702526569366,-0.043983977288007736,-0.025297749787569046
1772713751183985400,0.9039853515625,0.03374836593866348,-0.039767924696207047,-0.03934059664607048
1772713751193959400,0.91395947265625,0.0312582403421402,-0.04189006984233856,-0.05533522367477417
1772713751203933400,0.923933349609375,0.024148132652044296,-0.04363230988383293,-0.07118795812129974
1772713751213908500,0.933908447265625,0.02355070598423481,-0.04469826817512512,-0.08349598944187164
1772713751223882500,0.943882568359375,0.029530301690101624,-0.03155583515763283,-0.08673305809497833
1772713751233856500,0.9538564453125,0.03451036661863327,-0.02324322797358036,-0.07835738360881805
1772713751243831300,0.963831298828125,0.03705634921789169,-0.034167248755693436,-0.07257673144340515
1772713751253805300,0.973805419921875,0.03661069646477699,-0.05265422910451889,-0.06336188316345215
1772713751263779300,0.983779296875,0.036210156977176666,-0.06820683181285858,-0.05117285996675491
1772713751273754600,0.993754638671875,0.0346994549036026,-0.07619637250900269,-0.04095347598195076
1772713751283728600,1.003728759765625,0.03530319407582283,-0.0709129273891449,-0.03844691067934036
1772713751293702700,1.01370263671875,0.037976864725351334,-0.07265544682741165,-0.035503193736076355
1772713751303677400,1.023677490234375,0.03775369003415108,-0.05638139694929123,-0.03305068612098694
1772713751313651500,1.0336513671875,0.03048204630613327,-0.045876238495111465,-0.026840295642614365
1772713751323625500,1.04362548828125,0.023843051865696907,-0.03279399126768112,-0.024087920784950256
1772713751333600500,1.0536005859375,0.014650678262114525,-0.030363572761416435,-0.013132406398653984
1772713751343574500,1.063574462890625,0.004589256830513477,-0.023669717833399773,-0.0029551363550126553
1772713751353548500,1.073548583984375,-0.001546172657981515,-0.023497292771935463,0.013323264196515083
1772713751363523600,1.083523681640625,-0.00455048494040966,-0.0246198158711195,0.03389618545770645
1772713751373497600,1.09349755859375,-0.01670903153717518,-0.02416072227060795,0.05609104782342911
1772713751383472400,1.103472412109375,-0.01948457770049572,-0.02670111134648323,0.07662375271320343
1772713751393446400,1.1134462890625,-0.02923571690917015,-0.03473857045173645,0.09056538343429565
1772713751403420400,1.12342041015625,-0.04026253893971443,-0.03786538913846016,0.09599077701568604
1772713751413395500,1.1333955078125,-0.05888490751385689,-0.04030173271894455,0.09275340288877487
1772713751423369500,1.143369384765625,-0.06885312497615814,-0.04529302939772606,0.07575151324272156
1772713751433343500,1.153343505859375,-0.0713333711028099,-0.04826103895902634,0.053873684257268906
1772713751443318300,1.163318359375,-0.07109928131103516,-0.04959714412689209,0.033820345997810364
1772713751453291500,1.17329150390625,-0.07352488487958908,-0.052518099546432495,0.015133744105696678
1772713751463265500,1.183265625,-0.07475564628839493,-0.06656970083713531,-0.0036072665825486183
1772713751473240300,1.193240234375,-0.07578682154417038,-0.08063758164644241,-0.017349177971482277
1772713751483214300,1.20321435546875,-0.07162243872880936,-0.0947004035115242,-0.02068105898797512
1772713751493188400,1.213188232421875,-0.06407763063907623,-0.10344698280096054,-0.014037692919373512
1772713751503163600,1.22316357421875,-0.060315120965242386,-0.1159617081284523,-0.004526479635387659
1772713751513137700,1.2331376953125,-0.05495483800768852,-0.1270192265510559,0.011549489572644234
1772713751523111700,1.243111572265625,-0.05132228508591652,-0.1411086767911911,0.03555335849523544
1772713751533086500,1.25308642578125,-0.0576048344373703,-0.13694025576114655,0.061285797506570816
1772713751543060500,1.263060546875,-0.060627520084381104,-0.12584872543811798,0.07241009175777435
1772713751553034500,1.273034423828125,-0.06493165343999863,-0.10974452644586563,0.06938592344522476
1772713751563009500,1.283009521484375,-0.0688377171754837,-0.08735879510641098,0.05185885727405548
1772713751572983600,1.292983642578125,-0.0697266161441803,-0.06309933215379715,0.023768350481987
1772713751582958300,1.302958251953125,-0.0722089484333992,-0.03438059985637665,-0.006331493612378836
1772713751592932400,1.312932373046875,-0.07516658306121826,-0.01049962267279625,-0.03086964040994644
1772713751602906400,1.32290625,-0.06696910411119461,0.015153809450566769,-0.04762065410614014
1772713751612881400,1.33288134765625,-0.06223682314157486,0.0396556556224823,-0.05688624829053879
1772713751622855400,1.34285546875,-0.050897348672151566,0.05115332081913948,-0.06170417368412018
1772713751632829400,1.352829345703125,-0.03178216144442558,0.044104088097810745,-0.06668031960725784
1772713751642804500,1.362804443359375,-0.01973162591457367,0.031419187784194946,-0.06714264303445816
1772713751652778500,1.372778564453125,-0.008015591651201248,0.011922166682779789,-0.05637364462018013
1772713751662752500,1.38275244140625,-0.00040188059210777283,-0.014958449639379978,-0.03856055811047554
1772713751672727600,1.3927275390625,0.0021790103055536747,-0.04493512585759163,-0.01634298637509346
1772713751682701600,1.40270166015625,0.00007458054460585117,-0.07384533435106277,-0.00449245423078537
1772713751692675600,1.412675537109375,0.0031793639063835144,-0.09378693997859955,0.005358797498047352
1772713751702650600,1.422650634765625,0.00686757592484355,-0.09928983449935913,0.0199931338429451
1772713751712624600,1.432624755859375,0.003724409267306328,-0.0931050255894661,0.027769872918725014
1772713751722598700,1.4425986328125,-0.005487198941409588,-0.0816345289349556,0.03216489031910896
1772713751732573400,1.452573486328125,-0.012138073332607746,-0.06793776899576187,0.021366791799664497
1772713751742547500,1.46254736328125,-0.016789283603429794,-0.04453390836715698,0.009433699771761894
1772713751752521500,1.472521484375,-0.01710684970021248,-0.014164783991873264,-0.011359009891748428
1772713751762496500,1.48249658203125,-0.012218882329761982,0.013403992168605328,-0.03261050209403038
1772713751772470500,1.492470458984375,-0.010350201278924942,0.03022502176463604,-0.0549800805747509
1772713751782444500,1.502444580078125,-0.010638355277478695,0.03259497135877609,-0.06432165205478668
1772713751792419300,1.51241943359375,-0.01313974428921938,0.02824501506984234,-0.06352226436138153
1772713751802393300,1.522393310546875,-0.015507826581597328,0.020937034860253334,-0.06019730865955353
1772713751812368400,1.532368408203125,-0.015057187527418137,0.005507194437086582,-0.051898080855607986
1772713751822342400,1.54234228515625,-0.01585879921913147,-0.0025856192223727703,-0.0459163561463356
1772713751832316400,1.55231640625,-0.009093964472413063,-0.017280220985412598,-0.04303528741002083
1772713751842291700,1.562291748046875,-0.003996141254901886,-0.02488301321864128,-0.050897203385829926
1772713751852265500,1.572265380859375,-0.006264146417379379,-0.01864609494805336,-0.05703605338931084
1772713751862239500,1.582239501953125,-0.0048540025018155575,-0.007662419229745865,-0.05175766721367836
1772713751872214500,1.592214599609375,-0.015576377511024475,0.0015295741613954306,-0.04836039990186691
1772713751882188500,1.6021884765625,-0.015087153762578964,0.009785639122128487,-0.05144141614437103
1772713751892162600,1.61216259765625,-0.009265505708754063,0.017634371295571327,-0.05026658996939659
1772713751902137600,1.6221376953125,0.00029471050947904587,0.020015502348542213,-0.060521624982357025
1772713751912111600,1.632111572265625,0.012200485914945602,0.012360655702650547,-0.06838861852884293
1772713751922085600,1.642085693359375,0.020020324736833572,0.005279575940221548,-0.07086748629808426
1772713751932060400,1.652060302734375,0.027798840776085854,0.01070967223495245,-0.06171485781669617
1772713751942034400,1.662034423828125,0.03270571678876877,0.004232332110404968,-0.05037112534046173
1772713751952008400,1.672008544921875,0.04210035130381584,-0.0019444681238383055,-0.040927089750766754
1772713751961983500,1.6819833984375,0.04796915873885155,-0.029335878789424896,-0.03857232257723808
1772713751971957500,1.69195751953125,0.055022019892930984,-0.04258960485458374,-0.04105701297521591
1772713751981931500,1.701931640625,0.061709217727184296,-0.04867786169052124,-0.04247887432575226
1772713751991906300,1.71190625,0.06272977590560913,-0.038121819496154785,-0.028460418805480003
1772713752001880300,1.72188037109375,0.055842041969299316,-0.021494904533028603,-0.01345856674015522
1772713752011854300,1.731854248046875,0.05085873603820801,-0.006821419112384319,-0.0022530490532517433
1772713752021829400,1.741829345703125,0.04527515172958374,0.0016524933744221926,0.006410746369510889
1772713752031803400,1.751803466796875,0.04342164099216461,-0.007646911311894655,0.0006488540675491095
1772713752041778700,1.76177880859375,0.04729413986206055,-0.012384941801428795,-0.007695894688367844
1772713752051752400,1.77175244140625,0.04658778756856918,-0.011509185656905174,-0.01612050272524357
1772713752061726500,1.7817265625,0.04187798872590065,-0.007444935850799084,-0.019962379708886147
1772713752071701500,1.791701416015625,0.03320148214697838,-0.0047195833176374435,-0.01962927356362343
1772713752081675500,1.801675537109375,0.026626667007803917,-0.011089066043496132,-0.015863562002778053
1772713752091649500,1.8116494140625,0.02295752614736557,-0.015158587135374546,-0.015383983962237835
1772713752101624600,1.82162451171875,0.023473912850022316,-0.01720256358385086,-0.014138157479465008
1772713752111598600,1.8315986328125,0.02474590763449669,-0.015389606356620789,-0.017440790310502052
1772713752121572600,1.841572509765625,0.025143783539533615,-0.013552558608353138,-0.02350693941116333
1772713752131547400,1.85154736328125,0.02355061285197735,-0.012656813487410545,-0.029430825263261795
1772713752141521400,1.861521484375,0.02043045312166214,-0.004972795024514198,-0.030705414712429047
1772713752151495400,1.871495361328125,0.014642453752458096,0.0007178109372034669,-0.035499028861522675
1772713752161470500,1.881470458984375,0.006988262291997671,-0.010500488802790642,-0.048799123615026474
1772713752171444500,1.891444580078125,-0.0025783430319279432,-0.022871311753988266,-0.06582780182361603
1772713752181418500,1.90141845703125,-0.0020595595706254244,-0.02013012021780014,-0.07975213974714279
1772713752191393300,1.911393310546875,0.0038217066321521997,-0.005591416731476784,-0.09048955887556076
1772713752201367300,1.9213671875,0.007272364571690559,0.0157274529337883,-0.09864681959152222
1772713752211341300,1.93134130859375,0.00935179553925991,0.03601415455341339,-0.10876113176345825
1772713752221316600,1.941316650390625,0.0064753154292702675,0.03950129821896553,-0.11851682513952255
1772713752231290600,1.95129052734375,0.005736993625760078,0.01782892271876335,-0.1328141987323761
1772713752241264600,1.9612646484375,0.007452601566910744,-0.004711539018899202,-0.1460232138633728
1772713752251239400,1.971239501953125,0.004340038634836674,-0.03717794269323349,-0.1760825216770172
1772713752261213400,1.98121337890625,-0.0014779034536331892,-0.06041855365037918,-0.20638076961040497
1772713752271187500,1.9911875,-0.003633640008047223,-0.05295717343688011,-0.22549019753932953
1772713752281162500,2.00116259765625,-0.0018743558321148157,-0.029078204184770584,-0.23530635237693787
1772713752291136500,2.011136474609375,-0.001280482392758131,-0.008083021268248558,-0.23236022889614105
1772713752301110500,2.021110595703125,0.000252166879363358,-0.004143673926591873,-0.2230687141418457
1772713752311085600,2.03108544921875,-0.00017472635954618454,-0.012736248783767223,-0.20670293271541595
1772713752321059600,2.0410595703125,0.0005113038932904601,-0.024212077260017395,-0.19043581187725067
1772713752331034400,2.051034423828125,0.0010393515694886446,-0.030707456171512604,-0.17505869269371033
1772713752341008400,2.06100830078125,0.0025823870673775673,-0.027653610333800316,-0.1588919758796692
1772713752350982400,2.070982421875,0.0021270206198096275,-0.01927453652024269,-0.14016036689281464
1772713752360956400,2.080956298828125,0.003935839515179396,-0.012860579416155815,-0.12287753075361252
1772713752370931500,2.090931396484375,-0.00002796272747218609,-0.010724537074565887,-0.101384237408638
1772713752380905500,2.100905517578125,0.0017664751503616571,-0.018398968502879143,-0.07623707503080368
1772713752390880500,2.110880615234375,0.0035471112933009863,-0.02291763573884964,-0.044501543045043945
1772713752400854500,2.1208544921875,0.0044408682733774185,-0.021384719759225845,-0.009013324975967407
1772713752410828500,2.13082861328125,-0.00046598282642662525,-0.017104528844356537,0.012150267139077187
1772713752420803600,2.140803466796875,-0.0042753685265779495,-0.012129477225244045,0.022676944732666016
1772713752430777600,2.150777587890625,-0.007351424545049667,-0.0060089509934186935,0.025573324412107468
1772713752440751600,2.160751708984375,-0.005693340208381414,0.008587301708757877,0.024602603167295456
1772713752450726100,2.17072607421875,-0.006221434101462364,0.01903473027050495,0.026581991463899612
1772713752460700200,2.1807001953125,-0.01557978242635727,0.028135549277067184,0.030860096216201782
1772713752470674200,2.190674072265625,-0.02084476873278618,0.02604389376938343,0.038725029677152634
1772713752480649200,2.200649169921875,-0.023814726620912552,0.03128446266055107,0.042823635041713715
1772713752490623200,2.210623291015625,-0.01918363943696022,0.0313187837600708,0.0427483431994915
1772713752500597200,2.22059716796875,-0.015430979430675507,0.024546362459659576,0.03402675688266754
1772713752510572300,2.230572265625,-0.00930129736661911,0.018860550597310066,0.019130554050207138
1772713752520546300,2.24054638671875,-0.0051691364496946335,0.011324337683618069,0.0018839226104319096
1772713752530520300,2.250520263671875,-0.0020107098389416933,0.002997972536832094,-0.013461296446621418
1772713752540495400,2.260495361328125,-0.0050552356988191605,-0.013447578996419907,-0.024356022477149963
1772713752550469000,2.27046923828125,-0.003362113144248724,-0.025747084990143776,-0.0315018929541111
1772713752560443100,2.280443115234375,0.0005074598593637347,-0.023274073377251625,-0.031008142977952957
1772713752570418400,2.29041845703125,-0.0002072518691420555,-0.015682045370340347,-0.026113294064998627
1772713752580392400,2.300392333984375,-0.0026315273717045784,-0.003503410844132304,-0.023939091712236404
1772713752590366500,2.310366455078125,0.0017749738181009889,0.013322781771421432,-0.0215168260037899
1772713752600341200,2.32034130859375,0.008921033702790737,0.02100680023431778,-0.02029816433787346
1772713752610315300,2.330315185546875,0.015547291375696659,0.020240262150764465,-0.021711794659495354
1772713752620289300,2.340289306640625,0.02038945071399212,0.010750087909400463,-0.028887150809168816
1772713752630264300,2.350264404296875,0.02208832837641239,0.007493123412132263,-0.03075551614165306
1772713752640238300,2.36023828125,0.02514510415494442,0.004966049920767546,-0.028210066258907318
1772713752650213000,2.370213134765625,0.02346956916153431,0.005383709911257029,-0.02068483643233776
1772713752660187100,2.380187255859375,0.021219464018940926,0.006605035625398159,-0.008994891308248043
1772713752670161200,2.3901611328125,0.021298931911587715,0.013540128245949745,0.004131645895540714
1772713752680135200,2.40013525390625,0.023266475647687912,0.01121998205780983,0.012890782207250595
1772713752690110200,2.410110107421875,0.031573500484228134,-0.0021890290081501007,0.015965759754180908
1772713752700084200,2.420084228515625,0.035916849970817566,-0.008426952175796032,0.012279144488275051
1772713752710059300,2.430059326171875,0.03808605298399925,-0.011639490723609924,0.000895028468221426
1772713752720033300,2.440033203125,0.04188105836510658,0.00557891046628356,-0.0008429503068327904
1772713752730007300,2.45000732421875,0.04404588043689728,0.018077893182635307,-0.006543545052409172
1772713752739982300,2.459982421875,0.04086820036172867,0.012518810108304024,-0.004015939310193062
1772713752749956400,2.469956298828125,0.037778839468955994,0.004623598884791136,-0.000344329047948122
1772713752759930400,2.479930419921875,0.03211775794625282,-0.00401356490328908,0.003479437902569771
1772713752769905400,2.489905517578125,0.029022561386227608,-0.016112452372908592,0.008948542177677155
1772713752779879400,2.49987939453125,0.028718961402773857,-0.02097378671169281,0.01674468070268631
1772713752789853400,2.509853515625,0.028143592178821564,-0.017331723123788834,0.026197368279099464
1772713752799828200,2.519828125,0.025148602202534676,-0.01978635974228382,0.028773443773388863
1772713752809802200,2.52980224609375,0.025057198479771614,-0.02575257048010826,0.0269625186920166
1772713752819776300,2.5397763671875,0.02328299917280674,-0.023140275850892067,0.026695668697357178
1772713752829751300,2.549751220703125,0.023519590497016907,-0.014960525557398796,0.025651128962635994
1772713752839725300,2.559725341796875,0.015134895220398903,-0.016207417473196983,0.021913915872573853
1772713752849699300,2.56969921875,0.0076061743311584,-0.01312127336859703,0.015183686278760433
1772713752859674000,2.579674072265625,-0.0008435032796114683,0.001979648368433118,0.006969165988266468
1772713752869648100,2.589648193359375,-0.010423043742775917,0.020167937502264977,0.0049066259525716305
1772713752879622100,2.5996220703125,-0.015815945342183113,0.028177395462989807,-0.0012010675854980946
1772713752889597200,2.60959716796875,-0.01667427085340023,0.02104971744120121,-0.006111680995672941
1772713752899571200,2.6195712890625,-0.019827453419566154,0.012641584500670433,-0.004354261327534914
1772713752909545200,2.629545166015625,-0.02155251055955887,0.005355898756533861,-0.003545926883816719
1772713752919520300,2.639520263671875,-0.029542526230216026,0.004384910222142935,-0.004709994420409203
1772713752929494300,2.649494384765625,-0.030392931774258614,0.008720343932509422,-0.006290811114013195
1772713752939468300,2.65946826171875,-0.035035356879234314,0.018081355839967728,-0.0037895701825618744
1772713752949443300,2.669443359375,-0.033070266246795654,0.016650402918457985,-0.004199272487312555
1772713752959417300,2.679417236328125,-0.03832894563674927,0.01012033224105835,-0.007771104108542204
1772713752969391400,2.689391357421875,-0.03380875661969185,0.0007575592026114464,-0.012941238470375538
1772713752979366400,2.699366455078125,-0.03513048589229584,-0.00308724632486701,-0.01307546067982912
1772713752989340400,2.70934033203125,-0.03601067140698433,-0.0038905679248273373,-0.010957307182252407
1772713752999314400,2.719314453125,-0.03625621646642685,-0.0014769452391192317,-0.011124820448458195
1772713753009289200,2.729289306640625,-0.03727665916085243,0.007001274265348911,0.0018882632721215487
1772713753019263200,2.73926318359375,-0.03691872954368591,0.00461481511592865,0.011739562265574932
1772713753029237200,2.7492373046875,-0.030261628329753876,0.0021400521509349346,0.017392806708812714
1772713753039212300,2.75921240234375,-0.02504529245197773,-0.010728874243795872,0.024131935089826584
1772713753049186300,2.769186279296875,-0.015425723977386951,-0.016672058030962944,0.019871562719345093
1772713753059160300,2.779160400390625,-0.008425071835517883,-0.018344523385167122,0.011591793969273567
1772713753069135000,2.789135009765625,-0.0022381548769772053,-0.014782203361392021,0.0038762858603149652
1772713753079109000,2.799109130859375,-0.002110856119543314,-0.006911230273544788,0.001439493615180254
1772713753089084400,2.80908447265625,-0.0016932024154812098,0.0015092984540387988,-0.0024005556479096413
1772713753099058400,2.819058349609375,0.0021968770306557417,0.006773035973310471,-0.0014918851666152477
1772713753109032400,2.829032470703125,0.0004382870392873883,0.0010060056811198592,0.007159843575209379
1772713753119007200,2.83900732421875,-0.005493904463946819,-0.002498447895050049,0.01111703459173441
1772713753128981200,2.848981201171875,-0.012929555028676987,-0.008924237452447414,0.0066429805010557175
1772713753138955300,2.858955322265625,-0.015108553692698479,-0.005894092842936516,0.0034394636750221252
1772713753148930300,2.868930419921875,-0.010623314417898655,0.005050661973655224,0.0038103279657661915
1772713753158904300,2.878904296875,-0.010078963823616505,0.0078219473361969,0.0002680574543774128
1772713753168878300,2.88887841796875,-0.0025499530602246523,0.007959894835948944,0.005635940004140139
1772713753178853400,2.898853271484375,0.0021151062101125717,0.007103954441845417,0.011972665786743164
1772713753188827400,2.908827392578125,0.0014836819609627128,0.004933482501655817,0.014365766197443008
1772713753198801200,2.91880126953125,0.00020856037735939026,-0.006661920342594385,0.015714658424258232
1772713753208776200,2.928776123046875,-0.004702979698777199,-0.012216823175549507,0.00882007833570242
1772713753218750200,2.938750244140625,-0.003269666340202093,-0.011956365779042244,0.003006131388247013
1772713753228724200,2.94872412109375,-0.00148150441236794,-0.008222916163504124,0.0047953203320503235
1772713753238699300,2.95869921875,-0.0059662675485014915,-0.002161828801035881,0.0028552073054015636
1772713753248673300,2.96867333984375,-0.0052591292187571526,-0.002522378694266081,0.006570413708686829
1772713753258647300,2.978647216796875,-0.008742810226976871,-0.010839697904884815,0.0020454367622733116
1772713753268622000,2.9886220703125,-0.011925773695111275,-0.017139216884970665,-0.016531730070710182
1772713753278596000,2.99859619140625,-0.006046312861144543,-0.024067163467407227,-0.04474419355392456
1772713753288570000,3.008570068359375,-0.005710233934223652,-0.02767186611890793,-0.06707892566919327
1772713753298545400,3.01854541015625,0.0005583144957199693,-0.024655569344758987,-0.07793264091014862
1772713753308519400,3.02851953125,-0.0013771667145192623,-0.011551369912922382,-0.07256162911653519
1772713753318493400,3.038493408203125,0.001746987458318472,-0.00419571902602911,-0.06299075484275818
1772713753328468200,3.04846826171875,0.005815035663545132,-0.011180510744452477,-0.050004683434963226
1772713753338442200,3.058442138671875,0.010207387618720531,-0.019731387495994568,-0.048015303909778595
1772713753348416300,3.068416259765625,0.01927226595580578,-0.023305080831050873,-0.039814382791519165
1772713753358391300,3.078391357421875,0.02217724174261093,-0.02238362655043602,-0.036866262555122375
1772713753368365300,3.088365234375,0.02635318413376808,-0.017422042787075043,-0.034304093569517136
1772713753378339300,3.09833935546875,0.028556417673826218,-0.004680681973695755,-0.028225697576999664
1772713753388314400,3.108314453125,0.03100886382162571,0.01049115788191557,-0.02448257803916931
1772713753398288100,3.1182880859375,0.03237852826714516,0.016979949548840523,-0.017892586067318916
1772713753408262100,3.12826220703125,0.03874572739005089,0.012910601682960987,-0.015470100566744804
1772713753418237200,3.1382373046875,0.04114416986703873,0.012441086582839489,-0.014575544744729996
1772713753428211200,3.148211181640625,0.04684995859861374,0.011270283721387386,-0.01936350017786026
1772713753438185200,3.158185302734375,0.049263846129179,0.015604578889906406,-0.020635690540075302
1772713753448160300,3.16816015625,0.04959925636649132,0.02137652039527893,-0.01420686673372984
1772713753458135000,3.178135009765625,0.050836026668548584,0.026715358719229698,-0.01397410687059164
1772713753468109000,3.188109130859375,0.04885362833738327,0.038553837686777115,-0.002943858504295349
1772713753478084000,3.198083984375,0.04627968370914459,0.05560073256492615,0.015858324244618416
1772713753488058000,3.20805810546875,0.04260776564478874,0.06623093038797379,0.026599900797009468
1772713753498032000,3.2180322265625,0.042134519666433334,0.06381650269031525,0.028520572930574417
1772713753508007200,3.228007080078125,0.05253216251730919,0.04998518526554108,0.022465012967586517
1772713753517981000,3.23798095703125,0.06084255501627922,0.03960791230201721,0.014613481238484383
1772713753527955000,3.247954833984375,0.06851578503847122,0.019110972061753273,0.006016466300934553
1772713753537930200,3.25793017578125,0.07028625160455704,0.009825329296290874,0.0033333315514028072
1772713753547904300,3.267904296875,0.06158328428864479,0.006902282126247883,0.009038099087774754
1772713753557878300,3.277878173828125,0.052822817116975784,0.0004606279544532299,0.00832357257604599
1772713753567853300,3.287853271484375,0.051220379769802094,-0.006726824678480625,0.0007249121554195881
1772713753577827300,3.297827392578125,0.05503642186522484,0.00025198841467499733,-0.008675780147314072
1772713753587801300,3.30780126953125,0.06260792165994644,0.009779789485037327,-0.015601661056280136
1772713753597776100,3.317776123046875,0.06759814918041229,0.015606519766151905,-0.02729986235499382
1772713753607750100,3.327750244140625,0.07278456538915634,0.015573762357234955,-0.03015751577913761
1772713753617725200,3.33772509765625,0.0696987584233284,0.01469864696264267,-0.029172146692872047
1772713753627699200,3.34769921875,0.06559046357870102,0.009081125259399414,-0.02503407560288906
1772713753637673200,3.357673095703125,0.0627608522772789,0.006276017986238003,-0.016515156254172325
1772713753647647200,3.367647216796875,0.06717497855424881,0.0029739292804151773,-0.008167318068444729
1772713753657622000,3.3776220703125,0.07282087951898575,-0.0006767318118363619,-0.0027059735730290413
1772713753667596000,3.387595947265625,0.07552766799926758,-0.0025503048673272133,0.0023198267444968224
1772713753677571000,3.397571044921875,0.07928485423326492,-0.008896618150174618,0.012371927499771118
1772713753687545000,3.407545166015625,0.08018413931131363,-0.021367179229855537,0.013668494299054146
1772713753697519000,3.41751904296875,0.07469429820775986,-0.020267294719815254,0.023608742281794548
1772713753707493000,3.4274931640625,0.07255657017230988,-0.014101804234087467,0.029758024960756302
1772713753717468200,3.43746826171875,0.06952270120382309,-0.002001730725169182,0.04154517874121666
1772713753727442200,3.447442138671875,0.0687197595834732,0.004997056443244219,0.05061323940753937
1772713753737417200,3.457417236328125,0.06535831093788147,0.0009157621534541249,0.06091088429093361
1772713753747391200,3.46739111328125,0.07130729407072067,-0.009483234956860542,0.05724277347326279
1772713753757365200,3.477365234375,0.07181036472320557,-0.024766050279140472,0.048696424812078476
1772713753767340300,3.48734033203125,0.07514985650777817,-0.03157491981983185,0.04077078029513359
1772713753777314300,3.497314208984375,0.07954300194978714,-0.03334272652864456,0.04095560684800148
1772713753787288000,3.5072880859375,0.07028071582317352,-0.029237885028123856,0.04302092641592026
1772713753797263000,3.51726318359375,0.06152184680104256,-0.01987660676240921,0.04747479408979416
1772713753807237000,3.527237060546875,0.048201754689216614,-0.007810049690306187,0.04761915281414986
1772713753817211100,3.537211181640625,0.036355748772621155,-0.007569033652544022,0.040855523198843
1772713753827186200,3.547186279296875,0.022990677505731583,-0.006658611819148064,0.03262034431099892
1772713753837160200,3.55716015625,0.013685058802366257,-0.0018750419840216637,0.026423433795571327
1772713753847134200,3.56713427734375,0.005376644432544708,0.007249707356095314,0.015676848590373993
1772713753857109000,3.57710888671875,-0.006205176468938589,0.0074486457742750645,-0.0012075924314558506
1772713753867083000,3.5870830078125,-0.018078451976180077,0.011591613292694092,-0.014668211340904236
1772713753877057000,3.59705712890625,-0.02922777459025383,0.010955384001135826,-0.027674823999404907
1772713753887032300,3.6070322265625,-0.03036978654563427,0.0002823054092004895,-0.04189449921250343
1772713753897006000,3.617006103515625,-0.026660000905394554,-0.010708028450608253,-0.04355577751994133
1772713753906980000,3.62697998046875,-0.02619526907801628,-0.023678572848439217,-0.04704092815518379
1772713753916955100,3.636955078125,-0.02877507358789444,-0.03843168541789055,-0.04409334063529968
1772713753926929200,3.64692919921875,-0.021226666867733,-0.04499603062868118,-0.038079071789979935
1772713753936903200,3.656903076171875,-0.021126264706254005,-0.05398313328623772,-0.039175763726234436
1772713753946878200,3.666878173828125,-0.025874728336930275,-0.05152203142642975,-0.04210922122001648
1772713753956852200,3.676852294921875,-0.030742721632122993,-0.0444132536649704,-0.0471295490860939
1772713753966826200,3.686826171875,-0.02707369439303875,-0.033860597759485245,-0.049998167902231216
1772713753976801300,3.69680126953125,-0.02341238036751747,-0.02371262200176716,-0.06044788286089897
1772713753986775000,3.706775146484375,-0.015124021098017693,-0.01339341327548027,-0.06277084350585938
1772713753996749000,3.7167490234375,-0.005095621570944786,-0.004924827720969915,-0.06455862522125244
1772713754006724000,3.72672412109375,-0.00018107122741639614,-0.006193474866449833,-0.06387469172477722
1772713754016698000,3.736697998046875,0.0015457223635166883,-0.012018606998026371,-0.061548955738544464
1772713754026672000,3.746672119140625,0.005136461928486824,-0.01688031665980816,-0.048193614929914474
1772713754036647200,3.756647216796875,0.004045364912599325,-0.028112465515732765,-0.028807666152715683
1772713754046621200,3.76662109375,0.0024053326342254877,-0.03612664341926575,-0.009242178872227669
1772713754056595200,3.77659521484375,-0.0036054220981895924,-0.03423180431127548,0.01596304215490818
1772713754066570000,3.786570068359375,-0.008793213404715061,-0.03514732047915459,0.03370724618434906
1772713754076544000,3.7965439453125,-0.011110163293778896,-0.04131679981946945,0.03946606442332268
1772713754086518000,3.80651806640625,-0.01666194014251232,-0.037472981959581375,0.03479590266942978
1772713754096493300,3.816493408203125,-0.02332516945898533,-0.026351623237133026,0.0209147110581398
1772713754106467300,3.82646728515625,-0.027864769101142883,-0.00881991907954216,0.005054093897342682
1772713754116441300,3.83644140625,-0.03585744649171829,0.01722606271505356,-0.010174926370382309
1772713754126416100,3.846416015625,-0.04448523372411728,0.03605426102876663,-0.02188890241086483
1772713754136390100,3.85639013671875,-0.04817451164126396,0.05518241599202156,-0.02999716065824032
1772713754146364200,3.8663642578125,-0.04726038873195648,0.06489116698503494,-0.031382422894239426
1772713754156339200,3.876339111328125,-0.03928821533918381,0.05805936083197594,-0.0295400470495224
1772713754166313200,3.886313232421875,-0.03336489200592041,0.051641788333654404,-0.025023816153407097
1772713754176287200,3.896287353515625,-0.02608088031411171,0.039378996938467026,-0.02353244461119175
1772713754186262000,3.906261962890625,-0.023718852549791336,0.022260237485170364,-0.024401340633630753
1772713754196236000,3.916236083984375,-0.014328813180327415,0.02265837974846363,-0.022629808634519577
1772713754206210000,3.9262099609375,-0.0008476492948830128,0.0233503058552742,-0.01661558449268341
1772713754216185000,3.93618505859375,0.007243567146360874,0.026574328541755676,-0.00830732099711895
1772713754226159000,3.9461591796875,0.021432459354400635,0.025091705843806267,-0.000456763431429863
1772713754236133000,3.956133056640625,0.029181459918618202,0.01485451590269804,0.007054948713630438
1772713754246108200,3.966108154296875,0.0359204076230526,0.003575796727091074,0.009908310137689114
1772713754256082200,3.976082275390625,0.040291983634233475,-0.004214215558022261,0.009293653070926666
1772713754266056000,3.986055908203125,0.04362934082746506,-0.011221485212445259,0.0034580675419420004
1772713754276031200,3.99603125,0.04556359350681305,-0.013230307027697563,0.002524895826354623
1772713754286005200,4.006005126953125,0.05106860399246216,-0.012142401188611984,0.006006751209497452
1772713754295979300,4.015979248046875,0.05633074417710304,-0.006515407934784889,0.014398105442523956
1772713754305954300,4.025954345703125,0.057844702154397964,-0.002818492241203785,0.020921936258673668
1772713754315928300,4.03592822265625,0.04999610036611557,0.0006822331342846155,0.025008291006088257
1772713754325902300,4.04590234375,0.03461909294128418,-0.004969369154423475,0.034887783229351044
1772713754335877000,4.055877197265625,0.012373972684144974,-0.005307324696332216,0.043140921741724014
1772713754345851100,4.06585107421875,-0.003954921383410692,0.0019844109192490578,0.04726826027035713
1772713754355825200,4.0758251953125,-0.014261621050536633,0.010941687040030956,0.04573987424373627
1772713754365800200,4.08580029296875,-0.021042099222540855,0.0163851510733366,0.03629222884774208
1772713754375774200,4.095774169921875,-0.0199201088398695,0.027976825833320618,0.020984644070267677
1772713754385748200,4.105748291015625,-0.0172503013163805,0.028990045189857483,-0.002499239519238472
1772713754395723000,4.115722900390625,-0.015493679791688919,0.0263868048787117,-0.018645185977220535
1772713754405697000,4.125697021484375,-0.007614498026669025,0.025522684678435326,-0.02575102262198925
1772713754415671000,4.135671142578125,-0.009666197933256626,0.02886202186346054,-0.024449534714221954
1772713754425646000,4.14564599609375,-0.010169210843741894,0.02852916531264782,-0.015605591237545013
1772713754435620000,4.1556201171875,-0.009934053756296635,0.020874442532658577,-0.003937217872589827
1772713754445594000,4.165593994140625,-0.007574839983135462,0.008838815614581108,0.0077853696420788765
1772713754455569000,4.17556884765625,-0.009296840056777,-0.005978213157504797,0.02282743714749813
1772713754465543000,4.18554296875,-0.011585155501961708,-0.006822511553764343,0.039271458983421326
1772713754475516700,4.1955166015625,-0.009227192029356956,0.0034048259258270264,0.04899066314101219
1772713754485491700,4.20549169921875,0.002886739559471607,0.013446389697492123,0.04503520205616951
1772713754495465700,4.2154658203125,0.010655979625880718,0.020110152661800385,0.03136119991540909
1772713754505439700,4.225439697265625,0.016324609518051147,0.014880085363984108,0.009553613141179085
1772713754515414800,4.235414794921875,0.02241898886859417,0.0033709679264575243,-0.012180444784462452
1772713754525388800,4.245388916015625,0.02029629983007908,-0.006591011304408312,-0.03327438235282898
1772713754535362800,4.25536279296875,0.014873836189508438,-0.009178273379802704,-0.04564929008483887
1772713754545337600,4.265337646484375,0.013969854451715946,-0.0009806409943848848,-0.052822183817625046
1772713754555311600,4.2753115234375,0.016414104029536247,-0.0006789048202335835,-0.0628788098692894
1772713754565285600,4.28528564453125,0.02325737290084362,0.003054278902709484,-0.0663616731762886
1772713754575260700,4.2952607421875,0.03089824877679348,0.000021737301722168922,-0.06757287681102753
1772713754585234700,4.305234619140625,0.037510648369789124,-0.0006544762291014194,-0.05804651230573654
1772713754595208700,4.315208740234375,0.04019111767411232,-0.00596721563488245,-0.035145726054906845
1772713754605183700,4.325183837890625,0.03763763606548309,-0.017054416239261627,-0.009914129972457886
1772713754615157800,4.33515771484375,0.03708236664533615,-0.0359085313975811,0.019629115238785744
1772713754625131800,4.3451318359375,0.037185486406087875,-0.05314819514751434,0.037454307079315186
1772713754635106800,4.35510693359375,0.039475008845329285,-0.05664226412773132,0.04050922021269798
1772713754645080800,4.365080810546875,0.037124257534742355,-0.0472971647977829,0.042872101068496704
1772713754655054800,4.375054931640625,0.03355642035603523,-0.0352969616651535,0.03416143357753754
1772713754665030000,4.38502978515625,0.03555237874388695,-0.029317473992705345,0.014331286773085594
1772713754675003600,4.395003662109375,0.033562466502189636,-0.02236928604543209,-0.005887165199965239
1772713754684977700,4.404977783203125,0.035654760897159576,-0.012934545055031776,-0.02385065145790577
1772713754694952700,4.41495263671875,0.030391288921236992,-0.00593202980235219,-0.04487604275345802
1772713754704926700,4.4249267578125,0.029083827510476112,0.009385979734361172,-0.045827388763427734
1772713754714900700,4.434900634765625,0.02503315918147564,0.027420107275247574,-0.0367039330303669
1772713754724875800,4.444875732421875,0.02348148450255394,0.034085243940353394,-0.021279506385326385
1772713754734849800,4.454849853515625,0.02288600243628025,0.03170304372906685,-0.001742023043334484
1772713754744823800,4.46482373046875,0.02237025275826454,0.01867710053920746,0.021092653274536133
1772713754754798600,4.474798583984375,0.026718661189079285,0.00003630493301898241,0.03618292137980461
1772713754764772600,4.484772705078125,0.031550921499729156,-0.018096962943673134,0.04691538214683533
1772713754774746600,4.49474658203125,0.035382676869630814,-0.035480745136737823,0.05474241077899933
1772713754784722000,4.504721923828125,0.033505309373140335,-0.04465850070118904,0.059007879346609116
1772713754794696000,4.514696044921875,0.021602846682071686,-0.04230479896068573,0.05269751697778702
1772713754804669700,4.524669677734375,0.01414663065224886,-0.03401441127061844,0.037696849554777145
1772713754814644700,4.534644775390625,0.008833890780806541,-0.030268941074609756,0.008280904963612556
1772713754824618800,4.54461865234375,0.0023842935916036367,-0.02030613087117672,-0.01952970400452614
1772713754834592800,4.5545927734375,0.00469671655446291,-0.007204444147646427,-0.047120317816734314
1772713754844567800,4.56456787109375,0.008024151436984539,0.013417769223451614,-0.060426246374845505
1772713754854541800,4.574541748046875,0.01013497356325388,0.021648800000548363,-0.0625796690583229
1772713754864515800,4.584515869140625,0.014035796746611595,0.016083983704447746,-0.05523174628615379
1772713754874490600,4.59449072265625,0.014986013062298298,0.004186845384538174,-0.042437389492988586
1772713754884464600,4.604464599609375,0.010849753394722939,-0.007315992843359709,-0.02167319320142269
1772713754894438700,4.614438720703125,0.013473499566316605,-0.008167937397956848,0.00502100121229887
1772713754904413700,4.62441357421875,0.01639496348798275,0.00023437209893018007,0.03092637099325657
1772713754914387700,4.6343876953125,0.021775081753730774,0.004324188455939293,0.051676392555236816
1772713754924361700,4.64436181640625,0.025560973212122917,-0.0018583834171295166,0.06311533600091934
1772713754934336800,4.654336669921875,0.02714155986905098,-0.020683735609054565,0.06584321707487106
1772713754944310800,4.664310791015625,0.023896649479866028,-0.04311683401465416,0.06253230571746826
1772713754954284500,4.674284423828125,0.02433287538588047,-0.05226479098200798,0.05327516049146652
1772713754964258600,4.684258544921875,0.025076059624552727,-0.05006247013807297,0.04896915704011917
1772713754974233600,4.694233642578125,0.019830696284770966,-0.03775200620293617,0.04317251965403557
1772713754984207600,4.70420751953125,0.0133943110704422,-0.03682340681552887,0.04501796141266823
1772713754994181600,4.714181640625,0.0015184772200882435,-0.0498872771859169,0.04846595600247383
1772713755004157000,4.724156982421875,-0.009255248121917248,-0.06762966513633728,0.05851857736706734
1772713755014131000,4.734130859375,-0.017825834453105927,-0.09048092365264893,0.06552695482969284
1772713755024105000,4.74410498046875,-0.03851381316781044,-0.10439685732126236,0.07537226378917694
1772713755034079700,4.754079833984375,-0.04942531883716583,-0.10938948392868042,0.07128964364528656
1772713755044053800,4.7640537109375,-0.06105697527527809,-0.10178451985120773,0.052541814744472504
1772713755054027800,4.77402783203125,-0.06811141967773438,-0.08057457208633423,0.031537994742393494
1772713755064002800,4.7840029296875,-0.07848180085420609,-0.05324940383434296,0.01581493392586708
1772713755073976800,4.793976806640625,-0.09638304263353348,-0.027414875105023384,0.0010490387212485075
1772713755083950800,4.803950927734375,-0.1115572601556778,-0.00897985976189375,-0.016854535788297653
1772713755093925600,4.813925537109375,-0.12073424458503723,0.0072281379252672195,-0.024025630205869675
1772713755103899600,4.823899658203125,-0.12466204911470413,0.02655096724629402,-0.02819793112576008
1772713755113873700,4.833873779296875,-0.12126678228378296,0.04261994734406471,-0.026310814544558525
1772713755123848700,4.8438486328125,-0.11512311547994614,0.05774613469839096,-0.017053138464689255
1772713755133822700,4.85382275390625,-0.10744708776473999,0.0687314122915268,-0.0044832839630544186
1772713755143796700,4.863796630859375,-0.09967634081840515,0.07640465348958969,0.02088945358991623
1772713755153771500,4.873771484375,-0.08782713860273361,0.07521022111177444,0.04322059452533722
1772713755163745500,4.88374560546875,-0.0745525062084198,0.07022329419851303,0.06311992555856705
1772713755173719600,4.893719482421875,-0.06012456491589546,0.05572530999779701,0.07636968046426773
1772713755183694800,4.90369482421875,-0.04372875764966011,0.03965744376182556,0.07761591672897339
1772713755193668900,4.9136689453125,-0.01695067249238491,0.02954675257205963,0.07290185987949371
1772713755203643000,4.923642822265625,0.004153339192271233,0.028432263061404228,0.07175256311893463
1772713755213618000,4.933617919921875,0.027801409363746643,0.01749199815094471,0.06092068925499916
1772713755223591700,4.943591796875,0.04277414083480835,-0.002377046039327979,0.05284404754638672
1772713755233565700,4.953565673828125,0.054786328226327896,-0.022796301171183586,0.03922783583402634
1772713755243540700,4.963540771484375,0.06176931411027908,-0.04501517489552498,0.031724393367767334
1772713755253514800,4.9735146484375,0.06370808929204941,-0.06408394128084183,0.018535621464252472
1772713755263488800,4.98348876953125,0.06498227268457413,-0.07578127086162567,0.005642658565193415
1772713755273463800,4.9934638671875,0.0640815943479538,-0.07594957947731018,-0.00992484949529171
1772713755283437800,5.003437744140625,0.0499492771923542,-0.06638578325510025,-0.02590741030871868
1772713755293411800,5.013411865234375,0.02651878632605076,-0.05425508692860603,-0.03781866654753685
1772713755303386600,5.02338671875,0.0017940332181751728,-0.03358754515647888,-0.043535009026527405
1772713755313360600,5.033360595703125,-0.022257773205637932,-0.01842350699007511,-0.048534028232097626
1772713755323334700,5.043334716796875,-0.04706040769815445,-0.0016883525531738997,-0.05264616012573242
1772713755333309700,5.053309814453125,-0.0605919286608696,0.013902325183153152,-0.057540785521268845
1772713755343283700,5.06328369140625,-0.050805553793907166,0.016109738498926163,-0.06436704844236374
1772713755353257700,5.0732578125,-0.03264518827199936,0.023457132279872894,-0.06938710808753967
1772713755363232800,5.083232666015625,-0.02112305909395218,0.02251642383635044,-0.06933717429637909
1772713755373206800,5.093206787109375,-0.008995821699500084,0.015568503178656101,-0.06069016084074974
1772713755383180500,5.1031806640625,-0.009352083317935467,0.022813793271780014,-0.03861921653151512
1772713755393155800,5.11315576171875,-0.014223271049559116,0.028361156582832336,-0.0035581672564148903
1772713755403129900,5.1231298828125,-0.02054407447576523,0.03214573115110397,0.023082634434103966
1772713755413103900,5.133103759765625,-0.028511453419923782,0.022839048877358437,0.030121902003884315
1772713755423078700,5.14307861328125,-0.019892502576112747,0.01620953157544136,0.02952435612678528
1772713755433052700,5.153052734375,-0.011657743714749813,0.007703394629061222,0.01797449216246605
1772713755443026700,5.163026611328125,-0.0031711070332676172,0.009684600867331028,0.00466300081461668
1772713755453002000,5.173001953125,0.00888901762664318,0.016494570299983025,-0.007176348008215427
1772713755462976000,5.18297607421875,0.02050734870135784,0.029407545924186707,-0.014552958309650421
1772713755472949800,5.19294970703125,0.025337789207696915,0.030405165627598763,-0.01911282166838646
1772713755482925000,5.202925048828125,0.027680549770593643,0.025209371000528336,-0.02140766754746437
1772713755492898800,5.21289892578125,0.03367932140827179,0.021297987550497055,-0.013579041697084904
1772713755502872800,5.222872802734375,0.029919179156422615,0.010922474786639214,-0.0024159420281648636
1772713755512848000,5.232847900390625,0.030049141496419907,-0.0046309176832437515,0.004064328037202358
1772713755522822000,5.24282177734375,0.034033820033073425,-0.02166738733649254,0.006624806672334671
1772713755532796000,5.2527958984375,0.04259588196873665,-0.03550597280263901,0.009466665796935558
1772713755542771000,5.26277099609375,0.05044620856642723,-0.041246190667152405,0.01408780924975872
1772713755552745000,5.272744873046875,0.053847599774599075,-0.04008665308356285,0.0222096499055624
1772713755562719000,5.282718994140625,0.05876927077770233,-0.024978499859571457,0.02636304870247841
1772713755572693000,5.29269287109375,0.0549955740571022,-0.0028023584745824337,0.025437068194150925
1772713755582667800,5.302667724609375,0.04760834574699402,0.01473877765238285,0.017010094597935677
1772713755592641800,5.312641845703125,0.04246098920702934,0.028550995513796806,0.008224593475461006
1772713755602616800,5.322616943359375,0.03724082186818123,0.031160252168774605,-0.000389335211366415
1772713755612589800,5.33258984375,0.03837692737579346,0.023514049127697945,-0.0056458828039467335
1772713755622563800,5.342563720703125,0.042140111327171326,0.011250117793679237,-0.013775382190942764
1772713755632539000,5.352538818359375,0.046836595982313156,0.001157801947556436,-0.02072942815721035
1772713755642513000,5.362512939453125,0.04535872861742973,-0.015276714228093624,-0.027645597234368324
1772713755652487000,5.37248681640625,0.03765979781746864,-0.022774312645196915,-0.04100454971194267
1772713755662461700,5.382461669921875,0.03465425595641136,-0.018022852018475533,-0.05701899528503418
1772713755672435700,5.392435791015625,0.028403550386428833,-0.005654866807162762,-0.07095425575971603
1772713755682409700,5.40240966796875,0.019364632666110992,0.002061070641502738,-0.07616465538740158
1772713755692385000,5.412385009765625,0.019916439428925514,-0.00790527742356062,-0.08912014216184616
1772713755702359000,5.422359130859375,0.02297547273337841,-0.017640387639403343,-0.09565240889787674
1772713755712333000,5.4323330078125,0.03219000995159149,-0.019458793103694916,-0.10178086906671524
1772713755722307800,5.442307861328125,0.04173644632101059,-0.029360396787524223,-0.10352490842342377
1772713755732281900,5.45228173828125,0.046824149787425995,-0.03138972446322441,-0.09933175891637802
1772713755742255900,5.462255859375,0.05256848782300949,-0.04682619124650955,-0.08688856661319733
1772713755752231000,5.47223095703125,0.06036915257573128,-0.06861671060323715,-0.08262085169553757
1772713755762205000,5.482204833984375,0.05742283910512924,-0.08349969238042831,-0.07801802456378937
1772713755772179000,5.492178955078125,0.0637289360165596,-0.08115610480308533,-0.07239103317260742
1772713755782153000,5.502153076171875,0.06532655656337738,-0.0543360635638237,-0.06210869923233986
1772713755792127700,5.512127685546875,0.06292279064655304,-0.031548723578453064,-0.04543145373463631
1772713755802101800,5.522101806640625,0.06111091002821922,-0.027134209871292114,-0.036979109048843384
1772713755812076800,5.532076904296875,0.06402067840099335,-0.020160190761089325,-0.035310372710227966
1772713755822050800,5.54205078125,0.06914602220058441,-0.013973403722047806,-0.029945362359285355
1772713755832024800,5.55202490234375,0.07371333986520767,-0.008957607671618462,-0.034053023904561996
1772713755841998800,5.561998779296875,0.07989046722650528,-0.022429220378398895,-0.03862314671278
1772713755851974000,5.571973876953125,0.08424872905015945,-0.051003340631723404,-0.025356341153383255
1772713755861947600,5.58194775390625,0.08562760800123215,-0.07885919511318207,-0.010961700230836868
1772713755871921700,5.591921630859375,0.08366059511899948,-0.11528404802083969,0.007698270492255688
1772713755881897000,5.60189697265625,0.0760098323225975,-0.1519949734210968,0.014732550829648972
1772713755891871000,5.61187109375,0.06567756086587906,-0.18307167291641235,0.006681548897176981
1772713755901845000,5.621844970703125,0.04838266596198082,-0.20345449447631836,-0.011429695412516594
1772713755911820000,5.631820068359375,0.025505583733320236,-0.19331477582454681,-0.03350623697042465
1772713755921794000,5.6417939453125,-0.007923169992864132,-0.14923086762428284,-0.05876955762505531
1772713755931768000,5.65176806640625,-0.03641233593225479,-0.08474055677652359,-0.08051000535488129
1772713755941742800,5.661742919921875,-0.061018772423267365,-0.015278544276952744,-0.09912236779928207
1772713755951716900,5.671716796875,-0.06350749731063843,0.04545990377664566,-0.10646496713161469
1772713755961691000,5.68169091796875,-0.04849528521299362,0.12749622762203217,-0.0990547239780426
1772713755971666000,5.691666015625,-0.04230237007141113,0.1877044439315796,-0.09647705405950546
1772713755981640000,5.701639892578125,-0.01611253060400486,0.17900754511356354,-0.08701191842556
1772713755991614000,5.711614013671875,-0.00316557171754539,0.1595669984817505,-0.051174551248550415
1772713756001588700,5.721588623046875,0.004603182896971703,0.11418040841817856,-0.005951882340013981
1772713756011562800,5.731562744140625,0.0013123145326972008,0.06882517784833908,0.0480375811457634
1772713756021536800,5.741536865234375,-0.000971589470282197,0.027416981756687164,0.09612175822257996
1772713756031511800,5.75151171875,0.004774712957441807,-0.018663162365555763,0.12293019890785217
1772713756041485800,5.76148583984375,0.00941324420273304,-0.05961914360523224,0.12884387373924255
1772713756051459800,5.7714599609375,0.016353707760572433,-0.08330503106117249,0.1186399757862091
1772713756061434600,5.7814345703125,0.02213837206363678,-0.08577193319797516,0.09464004635810852
1772713756071408600,5.79140869140625,0.030115338042378426,-0.06572205573320389,0.059088967740535736
1772713756081382700,5.801382568359375,0.040021222084760666,-0.03870254009962082,0.011074437759816647
1772713756091358000,5.81135791015625,0.044641803950071335,-0.019247349351644516,-0.03327757865190506
1772713756101332000,5.82133203125,0.044210419058799744,-0.0059121716767549515,-0.07049764692783356
1772713756111306000,5.831305908203125,0.04022419825196266,0.006204145960509777,-0.09522856026887894
1772713756121281000,5.841281005859375,0.03736399859189987,0.008873245678842068,-0.10759055614471436
1772713756131254800,5.8512548828125,0.031668562442064285,0.005296620540320873,-0.11226120591163635
1772713756141228800,5.861228759765625,0.023842794820666313,0.006641887594014406,-0.10126501321792603
1772713756151202800,5.871202880859375,0.01847732439637184,0.0050407955422997475,-0.08647168427705765
1772713756161177900,5.881177734375,0.011662239208817482,0.008622430264949799,-0.06360114365816116
1772713756171152000,5.89115185546875,0.005792898591607809,0.005956606008112431,-0.03690295293927193
1772713756181126000,5.9011259765625,-0.0017057298682630062,-0.0028197574429214,-0.006310279946774244
1772713756191101000,5.911100830078125,-0.015291314572095871,-0.012132031843066216,0.015758536756038666
1772713756201075000,5.921074951171875,-0.028591834008693695,-0.019215667620301247,0.027737360447645187
1772713756211049000,5.931049072265625,-0.0343964621424675,-0.02237071469426155,0.024408143013715744
1772713756221023700,5.941023681640625,-0.043797027319669724,-0.014070495031774044,0.015104802325367928
1772713756230997800,5.950997802734375,-0.05492531135678291,0.005818524863570929,0.004718207288533449
1772713756240971800,5.9609716796875,-0.062091242522001266,0.03198978677392006,-0.004527021199464798
1772713756250946800,5.97094677734375,-0.0717204362154007,0.043223265558481216,-0.013354867696762085
1772713756260920800,5.9809208984375,-0.07447804510593414,0.03966208174824715,-0.0277787484228611
1772713756270894800,5.990894775390625,-0.07401438802480698,0.026658663526177406,-0.04810718819499016
1772713756280870000,6.000869873046875,-0.0645664781332016,-0.004613629542291164,-0.06845568120479584
1772713756290844000,6.010843994140625,-0.04898565262556076,-0.023544976487755775,-0.08634945750236511
1772713756300818000,6.02081787109375,-0.030970120802521706,-0.026524055749177933,-0.09441163390874863
1772713756310793000,6.03079296875,-0.012738650664687157,-0.02132982574403286,-0.08193046599626541
1772713756320767000,6.04076708984375,0.00004780001472681761,-0.016273939982056618,-0.07506731897592545
1772713756330741000,6.050740966796875,0.015652325004339218,-0.0076570152305066586,-0.061808500438928604
1772713756340715800,6.0607158203125,0.03397265076637268,-0.0048215389251708984,-0.053522396832704544
1772713756350689800,6.070689697265625,0.04455472156405449,-0.012287178076803684,-0.04916999489068985
1772713756360663800,6.080663818359375,0.056914299726486206,-0.00996334571391344,-0.0473475307226181
1772713756370638800,6.090638916015625,0.05765066295862198,-0.010867488570511341,-0.04432191327214241
1772713756380612900,6.10061279296875,0.056184038519859314,-0.013589207082986832,-0.036414459347724915
1772713756390587000,6.1105869140625,0.0564197301864624,-0.015702957287430763,-0.02495221421122551
1772713756400562000,6.12056201171875,0.05120263993740082,-0.01425373088568449,-0.017031431198120117
1772713756410536000,6.130535888671875,0.05673908814787865,-0.008770283311605453,-0.007530604489147663
1772713756420509700,6.140509765625,0.058711275458335876,-0.005740179680287838,-0.0025352495722472668
1772713756430484700,6.150484619140625,0.06375131011009216,0.001941175782121718,0.0057136258110404015
1772713756440458800,6.160458740234375,0.06418711692094803,0.0030918859411031008,0.010443728417158127
1772713756450432800,6.170432861328125,0.056814953684806824,0.0012460490688681602,0.016824929043650627
1772713756460406300,6.18040625,0.04954437538981438,-0.0037953569553792477,0.025980139151215553
1772713756470381300,6.19038134765625,0.039955396205186844,-0.004048889968544245,0.03529055044054985
1772713756480355300,6.200355224609375,0.030015643686056137,-0.006130625959485769,0.03723101317882538
1772713756490329300,6.210329345703125,0.01980322040617466,0.004158230032771826,0.03746696561574936
1772713756500304100,6.22030419921875,0.016320709139108658,0.019411329180002213,0.03984616696834564
1772713756510278100,6.230278076171875,0.016925780102610588,0.03778660669922829,0.041361238807439804
1772713756520252200,6.240252197265625,0.01977560482919216,0.047604385763406754,0.04977043345570564
1772713756530227200,6.250227294921875,0.022379111498594284,0.05027659982442856,0.05441419035196304
1772713756540201200,6.260201171875,0.02566373720765114,0.04788805544376373,0.06536530703306198
1772713756550175200,6.27017529296875,0.02573564276099205,0.04207730293273926,0.06174367666244507
1772713756560150300,6.280150390625,0.023411551490426064,0.03495926037430763,0.05703631788492203
1772713756570124300,6.290124267578125,0.024925291538238525,0.015726177021861076,0.04993712902069092
1772713756580098300,6.300098388671875,0.027736302465200424,-0.00781649723649025,0.03766369819641113
1772713756590073300,6.3100732421875,0.02602788433432579,-0.024469241499900818,0.03348280489444733
1772713756600047400,6.32004736328125,0.026619743555784225,-0.04002252593636513,0.02784055471420288
1772713756610021400,6.330021484375,0.027584873139858246,-0.039049942046403885,0.024549420922994614
1772713756619996400,6.339996337890625,0.032030243426561356,-0.020118627697229385,0.024982724338769913
1772713756629970400,6.349970458984375,0.03782075643539429,0.014246003702282906,0.027388092130422592
1772713756639944200,6.359944091796875,0.04486327990889549,0.04627722129225731,0.03962119668722153
1772713756649919200,6.369919189453125,0.046498991549015045,0.06963341683149338,0.05829954519867897
1772713756659893200,6.379893310546875,0.04727352038025856,0.0837206095457077,0.0791482925415039
1772713756669867300,6.3898671875,0.04143906384706497,0.08989115059375763,0.09122999012470245
1772713756679842300,6.39984228515625,0.03753754869103432,0.08819004148244858,0.09812158346176147
1772713756689816300,6.40981640625,0.04566684737801552,0.08431221544742584,0.09836659580469131
1772713756699790300,6.419790283203125,0.04797874763607979,0.06823349744081497,0.09259885549545288
1772713756709764400,6.429764404296875,0.05520230531692505,0.04826484993100166,0.0862666592001915
1772713756719739100,6.4397392578125,0.0578550323843956,0.03368610888719559,0.07512526214122772
1772713756729713200,6.449713134765625,0.05948515236377716,0.02462203986942768,0.07011159509420395
1772713756739687200,6.459687255859375,0.056627094745635986,0.016575362533330917,0.05708107724785805
1772713756749662200,6.469662109375,0.050791844725608826,0.019017746672034264,0.04752032831311226
1772713756759636200,6.47963623046875,0.054038409143686295,0.020479829981923103,0.04080244526267052
1772713756769610200,6.4896103515625,0.05448662117123604,0.027165696024894714,0.03944822773337364
1772713756779585300,6.499585205078125,0.05227026715874672,0.021566901355981827,0.03929582238197327
1772713756789559300,6.509559326171875,0.05425778403878212,0.008721675723791122,0.031049877405166626
1772713756799533300,6.519533203125,0.05483376607298851,-0.010254190303385258,0.028320806100964546
1772713756809508400,6.52950830078125,0.05544016882777214,-0.021111898124217987,0.020193105563521385
1772713756819482400,6.539482421875,0.05341386795043945,-0.028053581714630127,0.012927819043397903
1772713756829456400,6.549456298828125,0.051010098308324814,-0.0326579213142395,0.003414475591853261
1772713756839431200,6.55943115234375,0.0499819777905941,-0.04037660360336304,-0.00849127396941185
1772713756849405200,6.5694052734375,0.0453462116420269,-0.04678496718406677,-0.0197396669536829
1772713756859379200,6.579379150390625,0.04400540143251419,-0.04396016150712967,-0.032429039478302
1772713756869354200,6.589354248046875,0.03664948418736458,-0.03451792150735855,-0.03470737487077713
1772713756879328300,6.599328369140625,0.027948057278990746,-0.024300316348671913,-0.03341752663254738
1772713756889302300,6.60930224609375,0.018870674073696136,-0.01566767878830433,-0.03253815323114395
1772713756899277300,6.61927734375,0.017764363437891006,-0.013428043574094772,-0.031178217381238937
1772713756909251300,6.629251220703125,0.016545699909329414,-0.010602695867419243,-0.027295593172311783
1772713756919225000,6.63922509765625,0.014911826699972153,-0.014724834822118282,-0.02217732183635235
1772713756929199000,6.64919921875,0.013307804241776466,-0.01489074807614088,-0.009004529565572739
1772713756939174100,6.659174072265625,0.014480906538665295,-0.018268274143338203,0.0019368473440408707
1772713756949148200,6.669148193359375,0.009953798726201057,-0.013255671598017216,0.008083956316113472
1772713756959122200,6.6791220703125,0.007461460307240486,-0.016409819945693016,0.013466758653521538
1772713756969097500,6.689097412109375,-0.004753394518047571,-0.017411435022950172,0.015217788517475128
1772713756979071500,6.699071533203125,-0.013743029907345772,-0.017843201756477356,0.019100377336144447
1772713756989045500,6.70904541015625,-0.014475133270025253,-0.008052356541156769,0.020890820771455765
1772713756999020300,6.719020263671875,-0.013413172215223312,0.007666452322155237,0.01588437706232071
1772713757008994300,6.728994384765625,-0.010823514312505722,0.011714456602931023,0.005368885584175587
1772713757018968300,6.73896826171875,-0.007274145260453224,0.013776414096355438,-0.0033809388987720013
1772713757028943400,6.748943359375,-0.012900073081254959,0.015415322035551071,-0.0030733440071344376
1772713757038917400,6.75891748046875,-0.01836000382900238,0.019578780978918076,0.003543463069945574
1772713757048891400,6.768891357421875,-0.023762226104736328,0.01094481348991394,0.010332925245165825
1772713757058866200,6.7788662109375,-0.025358976796269417,0.004466692917048931,0.007913066074252129
1772713757068840200,6.788840087890625,-0.01972692459821701,-0.0028207809664309025,0.0036983478348702192
1772713757078814200,6.798814208984375,-0.01564093865454197,-0.01087896153330803,-0.011232296004891396
1772713757088789200,6.808789306640625,-0.01299668662250042,-0.017968297004699707,-0.01698845438659191
1772713757098763300,6.81876318359375,-0.013681108132004738,-0.02419397421181202,-0.017007792368531227
1772713757108737300,6.8287373046875,-0.022976605221629143,-0.01872650347650051,-0.007505899760872126
1772713757118712000,6.838712158203125,-0.023871172219514847,-0.009893326088786125,0.005233495496213436
1772713757128686000,6.84868603515625,-0.028313057497143745,-0.0068040587939321995,0.012852000072598457
1772713757138660000,6.85866015625,-0.023746928200125694,-0.009534405544400215,0.01959226280450821
1772713757148634000,6.868634033203125,-0.02455786056816578,-0.005144983530044556,0.018323000520467758
1772713757158609400,6.878609375,-0.021130362525582314,-0.005021561402827501,0.014071136713027954
1772713757168583400,6.88858349609375,-0.024014566093683243,0.003988977521657944,0.007612971123307943
1772713757178557400,6.898557373046875,-0.023532141000032425,0.02996792085468769,-0.0005944278091192245
1772713757188532500,6.908532470703125,-0.01737331412732601,0.056523632258176804,0.0046951426193118095
1772713757198506200,6.91850634765625,-0.01477174274623394,0.07161334902048111,0.013506697490811348
1772713757208480300,6.928480224609375,-0.014417275786399841,0.06151916831731796,0.013133855536580086
1772713757218455300,6.938455322265625,-0.013269858434796333,0.035423990339040756,0.007794415578246117
1772713757228429300,6.94842919921875,-0.017539171501994133,0.007912740111351013,0.0027676993049681187
1772713757238403300,6.9584033203125,-0.014647116884589195,-0.010715197771787643,-0.00048328936100006104
1772713757248378400,6.96837841796875,-0.014638861641287804,-0.014740033075213432,-0.004023429471999407
1772713757258352400,6.978352294921875,-0.01778821274638176,-0.012978245504200459,-0.002628807444125414
1772713757268326400,6.988326416015625,-0.020585596561431885,-0.008795217610895634,-0.012193816713988781
1772713757278301200,6.99830126953125,-0.02939624711871147,-0.006824702490121126,-0.015811515972018242
1772713757288275200,7.008275146484375,-0.03299204632639885,-0.0046824561432003975,-0.023820972070097923
1772713757298249200,7.018249267578125,-0.033201441168785095,-0.007540732156485319,-0.03559456765651703
1772713757308224300,7.028224365234375,-0.027538759633898735,0.001288711791858077,-0.04124073684215546
1772713757318198300,7.0381982421875,-0.02996899001300335,0.009175408631563187,-0.03942397981882095
1772713757328172300,7.04817236328125,-0.029346076771616936,0.004569205921143293,-0.02995963767170906
1772713757338146300,7.058146240234375,-0.0319095179438591,0.00648450804874301,-0.027846623212099075
1772713757348121000,7.06812109375,-0.02649584412574768,0.0036647533997893333,-0.01862356625497341
1772713757358095000,7.07809521484375,-0.02924521267414093,0.0008918902603909373,-0.016993017867207527
1772713757368069000,7.088069091796875,-0.02648298256099224,-0.010787402279675007,-0.010613415390253067
1772713757378044400,7.09804443359375,-0.028195053339004517,-0.01725875586271286,-0.007667391560971737
1772713757388018400,7.108018310546875,-0.026509538292884827,-0.011585957370698452,-0.0041661337018013
1772713757397992400,7.117992431640625,-0.026848003268241882,-0.0009855390526354313,-0.0038063228130340576
1772713757407967200,7.12796728515625,-0.028867211192846298,0.0016669692704454064,-0.009997373446822166
1772713757417941200,7.137941162109375,-0.024005338549613953,0.0005343356169760227,-0.027210310101509094
1772713757427915300,7.147915283203125,-0.021422870457172394,-0.004820215981453657,-0.04433789476752281
1772713757437890300,7.157890380859375,-0.01613752730190754,-0.0021668251138180494,-0.053766146302223206
1772713757447864300,7.1678642578125,-0.01602593995630741,0.005625317804515362,-0.05001881346106529
1772713757457843000,7.177843017578125,-0.014386082999408245,0.011711747385561466,-0.039410173892974854
1772713757467817700,7.187817626953125,-0.006485815159976482,0.009246991947293282,-0.025291690602898598
1772713757477791700,7.197791748046875,0.001984960865229368,-0.009102013893425465,-0.011697935871779919
1772713757487765800,7.207765869140625,0.0069847796112298965,-0.03004484809935093,0.004728441126644611
1772713757497740800,7.21774072265625,0.011151513084769249,-0.043636880815029144,0.009954581037163734
1772713757507714800,7.22771484375,0.0037412678357213736,-0.04246322438120842,0.017596788704395294
1772713757517688800,7.237688720703125,0.0011583042796701193,-0.03912554308772087,0.015927428379654884
1772713757527662800,7.247662841796875,-0.006856745108962059,-0.03835908696055412,0.002443577628582716
1772713757537638000,7.257637939453125,-0.00881709810346365,-0.032050855457782745,-0.003673170693218708
1772713757547612000,7.26761181640625,-0.008152106776833534,-0.020142000168561935,-0.00684579461812973
1772713757557586000,7.2775859375,-0.012076031416654587,-0.010827561840415001,-0.00909431092441082
1772713757567561000,7.28756103515625,-0.0204498078674078,-0.005944123957306147,-0.011818459257483482
1772713757577535000,7.297534912109375,-0.02804962731897831,-0.0017813998274505138,-0.00899149477481842
1772713757587509000,7.307509033203125,-0.038795746862888336,0.0061612119898200035,-0.0012584743089973927
1772713757597483800,7.31748388671875,-0.03495563194155693,0.013689275830984116,0.005260867066681385
1772713757607457800,7.327457763671875,-0.039846792817115784,0.0077395071275532246,0.014062615111470222
1772713757617431800,7.337431884765625,-0.041157010942697525,-0.003857707604765892,0.02369515225291252
1772713757627406800,7.34740673828125,-0.04449767991900444,-0.022488117218017578,0.03724425286054611
1772713757637380900,7.357380859375,-0.05095871537923813,-0.030552266165614128,0.040887895971536636
1772713757647355000,7.36735498046875,-0.05066629871726036,-0.03109581582248211,0.03085736557841301
1772713757657330000,7.377329833984375,-0.04941150173544884,-0.024026859551668167,0.018786676228046417
1772713757667303700,7.3873037109375,-0.04890470206737518,0.012437675148248672,-0.0061732688918709755
1772713757677277700,7.397277587890625,-0.04388078674674034,0.045128583908081055,-0.033514149487018585
1772713757687251700,7.407251708984375,-0.041318025439977646,0.06927892565727234,-0.05783386901021004
1772713757697226800,7.417226806640625,-0.04004864767193794,0.08110571652650833,-0.06990192085504532
1772713757707200800,7.42720068359375,-0.03836366534233093,0.08305355161428452,-0.06095822900533676
1772713757717174800,7.4371748046875,-0.025847919285297394,0.07551660388708115,-0.03186507895588875
1772713757727150000,7.447150146484375,-0.014891674742102623,0.045774951577186584,0.0033570905216038227
1772713757737123800,7.457123779296875,0.00044509838335216045,0.007321731653064489,0.04288806766271591
1772713757747097900,7.467097900390625,0.008126720786094666,-0.03212447464466095,0.0739932581782341
1772713757757073000,7.477072998046875,0.016260119155049324,-0.05484699830412865,0.09027494490146637
1772713757767047000,7.487046875,0.021908683702349663,-0.06330946087837219,0.09768998622894287
1772713757777021000,7.49702099609375,0.02749044820666313,-0.05941570922732353,0.08910103887319565
1772713757786996000,7.506995849609375,0.030700089409947395,-0.05466249957680702,0.0728488340973854
1772713757796970000,7.516969970703125,0.02576306276023388,-0.03496513515710831,0.04767166078090668
1772713757806944000,7.526944091796875,0.023744653910398483,-0.02109086513519287,0.015793360769748688
1772713757816918800,7.536918701171875,0.019907522946596146,-0.008195772767066956,-0.02243020012974739
1772713757826892800,7.546892822265625,0.014713295735418797,0.01293188240379095,-0.059338685125112534
1772713757836866800,7.55686669921875,0.02109571173787117,0.021452177315950394,-0.0805572122335434
1772713757846841900,7.566841796875,0.02283981442451477,0.030672306194901466,-0.08745160698890686
1772713757856815900,7.57681591796875,0.022821594029664993,0.03132520616054535,-0.07816974073648453
1772713757866790000,7.586789794921875,0.02730582468211651,0.016553448513150215,-0.051303502172231674
1772713757876764000,7.596763916015625,0.029094092547893524,-0.0037746678572148085,-0.026160098612308502
1772713757886738700,7.60673876953125,0.026928942650556564,-0.019604232162237167,0.011078882962465286
1772713757896712700,7.616712646484375,0.02076970599591732,-0.03274296969175339,0.044479649513959885
1772713757906686700,7.626686767578125,0.01921255514025688,-0.035738758742809296,0.058928895741701126
1772713757916662000,7.636662109375,0.013965146616101265,-0.030700987204909325,0.05926516652107239
1772713757926635800,7.6466357421875,0.015876496210694313,-0.015728428959846497,0.048655398190021515
1772713757936609800,7.65660986328125,0.017288200557231903,-0.00006711401510983706,0.030176891013979912
1772713757946584800,7.666584716796875,0.019146021455526352,0.007828359492123127,0.01024579256772995
1772713757956558800,7.676558837890625,0.010667849332094193,0.02219904214143753,-0.0026553580537438393
1772713757966532900,7.686532958984375,0.006224364973604679,0.027173560112714767,-0.014620408415794373
1772713757976508000,7.6965078125,0.0038589483592659235,0.032790813595056534,-0.020564837381243706
1772713757986482000,7.70648193359375,0.00289088930003345,0.02464713528752327,-0.027493847534060478
1772713757996456000,7.7164560546875,0.004547409247606993,0.010387061163783073,-0.02724815346300602
1772713758006430000,7.726429931640625,0.0034523173235356808,0.006707371212542057,-0.03085300698876381
1772713758016405000,7.736405029296875,-0.0019505196250975132,0.006675276439636946,-0.036324650049209595
1772713758026378800,7.746378662109375,-0.012514214031398296,0.022500313818454742,-0.045362088829278946
1772713758036352800,7.756352783203125,-0.021756770089268684,0.04341033101081848,-0.05672968178987503
1772713758046327800,7.766327880859375,-0.038253456354141235,0.0643872544169426,-0.08303239196538925
1772713758056301800,7.7763017578125,-0.035882189869880676,0.06262172758579254,-0.11388764530420303
1772713758066275800,7.78627587890625,-0.024996517226099968,0.06355436891317368,-0.1316855549812317
1772713758076251000,7.7962509765625,-0.013266636058688164,0.07719974964857101,-0.15029160678386688
1772713758086225000,7.806224853515625,-0.009834887459874153,0.07092560827732086,-0.16321752965450287
1772713758096199000,7.816198974609375,-0.017468871548771858,0.10591600090265274,-0.1901254653930664
1772713758106173700,7.826173583984375,-0.0340459868311882,0.17862188816070557,-0.23030057549476624
1772713758116147700,7.836147705078125,-0.06560234725475311,0.2254677563905716,-0.2679620683193207
1772713758126121700,7.846121826171875,-0.10393961519002914,0.23720058798789978,-0.3055714964866638
1772713758136097000,7.856096923828125,-0.10900910198688507,0.23731733858585358,-0.3143954277038574
1772713758146071000,7.866071044921875,-0.11682015657424927,0.23253722488880157,-0.28698432445526123
1772713758156045000,7.876045166015625,-0.1073240339756012,0.22153744101524353,-0.2549847960472107
1772713758166019000,7.88601904296875,-0.10012044757604599,0.19584886729717255,-0.2150946408510208
1772713758175993900,7.895993896484375,-0.08975202590227127,0.1518656313419342,-0.16618265211582184
1772713758185967900,7.9059677734375,-0.07966743409633636,0.11401013284921646,-0.11023896187543869
1772713758195942000,7.91594189453125,-0.0775514766573906,0.06316961348056793,-0.05586090311408043
1772713758205917000,7.9259169921875,-0.07476074993610382,0.02921590581536293,-0.001803259365260601
1772713758215891000,7.935890869140625,-0.07528965175151825,-0.003906626719981432,0.04039479419589043
1772713758225865000,7.945864990234375,-0.07814988493919373,-0.056927233934402466,0.07180038839578629
1772713758235839700,7.95583984375,-0.07658766210079193,-0.10255522280931473,0.08361241221427917
1772713758245813800,7.965813720703125,-0.07322515547275543,-0.1339040845632553,0.07635849714279175
1772713758255787800,7.975787841796875,-0.07179351150989532,-0.1437603086233139,0.05451710522174835
1772713758265762800,7.9857626953125,-0.0673508271574974,-0.14116878807544708,0.030031468719244003
1772713758275736800,7.99573681640625,-0.06031450629234314,-0.13131466507911682,0.013507483527064323
1772713758285710800,8.0057109375,-0.059197042137384415,-0.12555238604545593,0.011510378681123257
1772713758295684900,8.015684814453126,-0.05162975937128067,-0.11065799742937088,0.025622421875596046
1772713758305659600,8.02565966796875,-0.04848749563097954,-0.07728006690740585,0.046619314700365067
1772713758315633700,8.035633544921875,-0.04137802869081497,-0.062236249446868896,0.06175334379076958
1772713758325607700,8.045607666015625,-0.04203689470887184,-0.08139076828956604,0.0485944002866745
1772713758335583000,8.0555830078125,-0.030616551637649536,-0.11875756829977036,0.03752146288752556
1772713758345557000,8.065556884765625,-0.01644720509648323,-0.13652510941028595,0.030097899958491325
1772713758355531000,8.075531005859375,-0.004758624359965324,-0.15157978236675262,0.023236650973558426
1772713758365506000,8.085506103515625,-0.005357036832720041,-0.1747836321592331,0.017526300624012947
1772713758375480000,8.09547998046875,-0.0042152125388383865,-0.18916650116443634,0.016328074038028717
1772713758385453800,8.105453857421875,-0.007962812669575214,-0.17879801988601685,0.014109127223491669
1772713758395428900,8.115428955078125,-0.008711982518434525,-0.14352068305015564,0.01119375228881836
1772713758405403000,8.12540283203125,-0.014722203835844994,-0.11333375424146652,0.00502959918230772
1772713758415377000,8.135376953125,-0.02281203307211399,-0.09820188581943512,-0.0031583914533257484
1772713758425352000,8.14535205078125,-0.03663383796811104,-0.09604978561401367,-0.019950421527028084
1772713758435326000,8.155325927734374,-0.044188424944877625,-0.09209153056144714,-0.026509521529078484
1772713758445300000,8.165300048828126,-0.055572107434272766,-0.09119483828544617,-0.03821944072842598
1772713758455274000,8.17527392578125,-0.06467001140117645,-0.10315628349781036,-0.05444382131099701
1772713758465245000,8.185244873046875,-0.06294295191764832,-0.10219301283359528,-0.06153262034058571
1772713758475219000,8.195218994140625,-0.05404544621706009,-0.09726239740848541,-0.053482744842767715
1772713758485193000,8.20519287109375,-0.0418231338262558,-0.09967202693223953,-0.04113366827368736
1772713758495168000,8.21516796875,-0.040919117629528046,-0.09906718879938126,-0.031217336654663086
1772713758505142000,8.22514208984375,-0.049579448997974396,-0.10134685039520264,-0.010950678959488869
1772713758515116000,8.235115966796876,-0.056752998381853104,-0.09629446268081665,0.012372873723506927
1772713758525090800,8.2450908203125,-0.06791564077138901,-0.09186083823442459,0.0319598913192749
1772713758535064800,8.25506494140625,-0.07627524435520172,-0.09221258759498596,0.04574643820524216
1772713758545038800,8.265038818359375,-0.07642357796430588,-0.07791008055210114,0.05853067710995674
1772713758555012900,8.275012939453125,-0.08390926569700241,-0.06958958506584167,0.05770771577954292
1772713758564988000,8.28498779296875,-0.08538705110549927,-0.07352413982152939,0.057899992913007736
1772713758574962000,8.2949619140625,-0.0790947899222374,-0.06928335130214691,0.053877707570791245
1772713758584936000,8.30493603515625,-0.0622582845389843,-0.04797167330980301,0.05326198413968086
1772713758594911000,8.314910888671875,-0.05468449741601944,-0.029912540689110756,0.05944399535655975
1772713758604885000,8.324885009765625,-0.040148697793483734,-0.015904581174254417,0.06234896928071976
1772713758614859000,8.33485888671875,-0.03201134130358696,-0.005419169552624226,0.067627914249897
1772713758624834000,8.344833984375,-0.027221377938985825,0.005504318047314882,0.06231490895152092
1772713758634808000,8.35480810546875,-0.02226075902581215,0.0018099359003826976,0.04892132058739662
1772713758644782000,8.364781982421874,-0.014960234984755516,-0.02068658545613289,0.034811895340681076
1772713758654757000,8.374757080078124,-0.011418242007493973,-0.04036054015159607,0.021982243284583092
1772713758664731100,8.384731201171874,-0.005050623323768377,-0.033772412687540054,0.020564643666148186
1772713758674705200,8.394705078125,0.002916766796261072,-0.02152734436094761,0.034312549978494644
1772713758684680000,8.404679931640626,0.009168537333607674,-0.0205137450248003,0.04456385597586632
1772713758694654000,8.414654052734376,0.02061375416815281,-0.030176274478435516,0.05067353695631027
1772713758704628000,8.4246279296875,0.030171306803822517,-0.029909957200288773,0.05763983353972435
1772713758714602000,8.43460205078125,0.042795635759830475,-0.03348477557301521,0.05685548856854439
1772713758724577000,8.444576904296875,0.050617072731256485,-0.028763525187969208,0.06101587787270546
1772713758734551000,8.454551025390625,0.056465618312358856,-0.015834379941225052,0.05851089954376221
1772713758744525000,8.464525146484375,0.05803448706865311,-0.004522070288658142,0.061326924711465836
1772713758754499800,8.474499755859375,0.05448935553431511,-0.002310830866917968,0.06888740509748459
1772713758764473900,8.484473876953125,0.0483611561357975,-0.004389162175357342,0.06886796653270721
1772713758774447900,8.49444775390625,0.046420153230428696,-0.01719016395509243,0.061131708323955536
1772713758784423000,8.5044228515625,0.038109224289655685,-0.03435530513525009,0.05687624216079712
1772713758794397000,8.51439697265625,0.031151924282312393,-0.04436362907290459,0.055279772728681564
1772713758804371000,8.524370849609374,0.03580845892429352,-0.030143683776259422,0.06111342832446098
1772713758814346000,8.534345947265624,0.0421806164085865,-0.01870928332209587,0.0708325058221817
1772713758824320000,8.544320068359376,0.03974835202097893,-0.02441404014825821,0.09217294305562973
1772713758834294000,8.5542939453125,0.03784909471869469,-0.034752484411001205,0.10658269375562668
1772713758844268000,8.56426806640625,0.035557180643081665,-0.048587605357170105,0.11293380707502365
1772713758854243000,8.5742431640625,0.03324676677584648,-0.05688011273741722,0.10594934225082397
1772713758864217000,8.584217041015625,0.028626451268792152,-0.042229797691106796,0.09232833981513977
1772713758874191000,8.594191162109375,0.022002993151545525,-0.003246032167226076,0.05924979969859123
1772713758884166000,8.604165771484375,0.009809443727135658,0.06463980674743652,0.008467312902212143
1772713758894140000,8.614139892578125,-0.008212001994252205,0.1430470049381256,-0.03024299070239067
1772713758904114000,8.624114013671875,-0.03644417226314545,0.2380656599998474,-0.05914334952831268
1772713758914089000,8.6340888671875,-0.07427733391523361,0.31823402643203735,-0.0763910561800003
1772713758924063000,8.64406298828125,-0.1511755734682083,0.4078608453273773,0.02573690377175808
1772713758934037000,8.654037109375,-0.15587137639522552,0.22436457872390747,0.08096761256456375
1772713758944012000,8.664011962890624,-0.08891045302152634,0.04215800762176514,0.13485588133335114
1772713758953986000,8.673986083984374,-0.044175274670124054,-0.13414113223552704,0.17377743124961853
1772713758963959800,8.683959716796876,-0.019455811008810997,-0.28012365102767944,0.1834300458431244
1772713758973933800,8.693933837890626,0.004323913715779781,-0.3235262632369995,0.15955938398838043
1772713758983908900,8.703908935546876,0.021787060424685478,-0.2679527699947357,0.12086950987577438
1772713758993883000,8.7138828125,0.021711865440011024,-0.13414113223552704,0.06042103469371796
1772713759003857000,8.72385693359375,0.004015692509710789,0.023346226662397385,-0.02686859481036663
1772713759013832200,8.733832275390625,-0.01983758807182312,0.1717304289340973,-0.1325710266828537
1772713759023806200,8.74380615234375,-0.050973135977983475,0.3329065144062042,-0.20307129621505737
1772713759033780200,8.7537802734375,-0.07446286827325821,0.4672878086566925,-0.2139892578125
1772713759043755000,8.763755126953125,-0.06668483465909958,0.3944290578365326,-0.21425344049930573
