time,seconds_elapsed,z,y,x
1772458648775113200,0.07011328125,0.22985558211803436,0.16668914258480072,-0.6951234340667725
1772458648785181000,0.080180908203125,0.22059032320976257,0.1656723916530609,-0.6539861559867859
1772458648795249200,0.090249267578125,0.18489092588424683,0.14325283467769623,-0.5671074390411377
1772458648805317000,0.100317138671875,0.13647852838039398,0.11764010041952133,-0.44529813528060913
1772458648815386000,0.11038623046875,0.07696700841188431,0.044859372079372406,-0.3113962709903717
1772458648825454300,0.120454345703125,0.0283142551779747,-0.060814402997493744,-0.19108718633651733
1772458648835522000,0.13052197265625,-0.008948961272835732,-0.16536477208137512,-0.0993998721241951
1772458648845590000,0.140590087890625,-0.04325456917285919,-0.24481533467769623,-0.03589307516813278
1772458648855658000,0.150657958984375,-0.07381966710090637,-0.28314247727394104,0.004928924608975649
1772458648865727200,0.160727294921875,-0.0921795666217804,-0.2925945222377777,0.011677110567688942
1772458648875795200,0.170795166015625,-0.08938165009021759,-0.3051731586456299,-0.018868014216423035
1772458648885863200,0.18086328125,-0.07900426536798477,-0.3322547972202301,-0.0914415493607521
1772458648895931100,0.19093115234375,-0.06905895471572876,-0.3693790137767792,-0.19864630699157715
1772458648905999000,0.2009990234375,-0.06911545991897583,-0.4179157316684723,-0.33664917945861816
1772458648916068000,0.211068115234375,-0.08236681669950485,-0.4467979967594147,-0.4793680012226105
1772458648926136000,0.221135986328125,-0.09686368703842163,-0.44300341606140137,-0.6116461157798767
1772458648936204300,0.231204345703125,-0.0977473258972168,-0.40449172258377075,-0.7203342914581299
1772458648946272300,0.241272216796875,-0.0865163505077362,-0.35375455021858215,-0.801325261592865
1772458648956340000,0.251340087890625,-0.06304005533456802,-0.2643069624900818,-0.8540443778038025
1772458648966408200,0.261408203125,-0.036577701568603516,-0.1416993886232376,-0.8664765357971191
1772458648976477200,0.271477294921875,-0.010040100663900375,-0.002943103201687336,-0.843166172504425
1772458648986545200,0.281545166015625,0.011181665584445,0.13698384165763855,-0.7752734422683716
1772458648996613000,0.291613037109375,0.01473911665380001,0.27750182151794434,-0.6658710241317749
1772458649006681000,0.30168115234375,0.015506850555539131,0.3668085038661957,-0.5370909571647644
1772458649016749000,0.3117490234375,0.019077351316809654,0.38999849557876587,-0.3954075872898102
1772458649026818000,0.321818115234375,0.024356789886951447,0.3544045090675354,-0.2612942159175873
1772458649036886300,0.33188623046875,0.02112424559891224,0.2761256992816925,-0.1477506309747696
1772458649046954200,0.341954345703125,0.0130470534786582,0.18237906694412231,-0.04870101436972618
1772458649057022200,0.352022216796875,0.006183288525789976,0.07867849618196487,0.016378918662667274
1772458649067090000,0.36208984375,0.0024292338639497757,-0.041144177317619324,0.05794847011566162
1772458649077158100,0.372158203125,0.004613825120031834,-0.16176407039165497,0.08261147141456604
1772458649087227100,0.38222705078125,0.0293936338275671,-0.2794700562953949,0.08444639295339584
1772458649097295000,0.392295166015625,0.06740333139896393,-0.3662009537220001,0.07535089552402496
1772458649107363300,0.40236328125,0.10517723858356476,-0.40648379921913147,0.0683654248714447
1772458649117431000,0.41243115234375,0.12545587122440338,-0.4399253726005554,0.056463491171598434
1772458649127499000,0.4224990234375,0.13023310899734497,-0.4820568859577179,0.049283869564533234
1772458649137568300,0.432568359375,0.11923292279243469,-0.5167309641838074,0.03703705966472626
1772458649147636200,0.44263623046875,0.09593170881271362,-0.5318742990493774,0.035520393401384354
1772458649157704200,0.4527041015625,0.06117638573050499,-0.5002452731132507,0.023713799193501472
1772458649167772200,0.462772216796875,0.017130106687545776,-0.40667447447776794,0.015820452943444252
1772458649177840000,0.472840087890625,-0.034511249512434006,-0.2555936276912689,0.003956336993724108
1772458649187909000,0.4829091796875,-0.0852501168847084,-0.08289741724729538,-0.02973184920847416
1772458649197977000,0.49297705078125,-0.12178709357976913,0.062280286103487015,-0.08801592886447906
1772458649208045300,0.50304541015625,-0.1454392671585083,0.15642982721328735,-0.15162445604801178
1772458649218113300,0.51311328125,-0.1572008579969406,0.2234562635421753,-0.21460875868797302
1772458649228181200,0.52318115234375,-0.15853983163833618,0.268040269613266,-0.2678208649158478
1772458649238249000,0.5332490234375,-0.14861848950386047,0.31756043434143066,-0.2995857000350952
1772458649248318200,0.543318115234375,-0.1172989159822464,0.37232744693756104,-0.30787134170532227
1772458649258386200,0.55338623046875,-0.08872026950120926,0.4048164188861847,-0.27788734436035156
1772458649268454100,0.5634541015625,-0.06129024550318718,0.4345568120479584,-0.22618871927261353
1772458649278522400,0.5735224609375,-0.03915431350469589,0.47498705983161926,-0.13813315331935883
1772458649288590000,0.583590087890625,-0.02900734916329384,0.5100276470184326,-0.025810878723859787
1772458649298659000,0.5936591796875,-0.006871155463159084,0.5332314968109131,0.09888684749603271
1772458649308727000,0.60372705078125,0.01459801197052002,0.49810901284217834,0.21682094037532806
1772458649318795300,0.613795166015625,0.03127392753958702,0.41739577054977417,0.3164745569229126
1772458649328863200,0.62386328125,0.0390891507267952,0.32892167568206787,0.405361533164978
1772458649338931200,0.63393115234375,0.023072632029652596,0.25543972849845886,0.48737597465515137
1772458649349000200,0.644000244140625,-0.008517681621015072,0.16119199991226196,0.5523664355278015
1772458649359068200,0.654068115234375,-0.05184917896986008,0.035186659544706345,0.5899548530578613
1772458649369136000,0.66413623046875,-0.09157709777355194,-0.10916748642921448,0.5899638533592224
1772458649379204000,0.6742041015625,-0.12147560715675354,-0.2368420958518982,0.536859393119812
1772458649389272300,0.684272216796875,-0.14408136904239655,-0.30469971895217896,0.4505154490470886
1772458649399340000,0.694340087890625,-0.16242389380931854,-0.3092963397502899,0.341103196144104
1772458649409409000,0.704408935546875,-0.16759878396987915,-0.2592942714691162,0.2415664941072464
1772458649419477200,0.714477294921875,-0.15353330969810486,-0.1692456156015396,0.15968282520771027
1772458649429545200,0.724545166015625,-0.1193653792142868,-0.0850343257188797,0.10516498237848282
1772458649439613200,0.73461328125,-0.07808931171894073,-0.018403898924589157,0.05054807662963867
1772458649449681200,0.74468115234375,-0.016922347247600555,0.060019493103027344,0.009354297071695328
1772458649459750100,0.754750244140625,0.07778312265872955,0.14815866947174072,-0.004620373249053955
1772458649469818000,0.764818115234375,0.21147269010543823,0.19388501346111298,-0.003559367498382926
1772458649479886000,0.774885986328125,0.34315773844718933,0.21783801913261414,0.029286464676260948
1772458649489954300,0.784954345703125,0.4361313283443451,0.25776198506355286,0.09284946322441101
1772458649500022300,0.795022216796875,0.47010767459869385,0.3185883164405823,0.18101367354393005
1772458649510091000,0.805091064453125,0.43869248032569885,0.4204215705394745,0.2748895585536957
1772458649520159200,0.8151591796875,0.35284945368766785,0.567457914352417,0.3479355275630951
1772458649530227200,0.825227294921875,0.2354465126991272,0.724069356918335,0.40044641494750977
1772458649540295200,0.835295166015625,0.1278042048215866,0.8504080772399902,0.42890334129333496
1772458649550362600,0.845362548828125,0.054586175829172134,0.91722172498703,0.4315289556980133
1772458649560430600,0.8554306640625,0.017956262454390526,0.9165096282958984,0.4047335684299469
1772458649570499600,0.86549951171875,0.002681117970496416,0.8716443181037903,0.33861660957336426
1772458649580567600,0.875567626953125,0.009804008528590202,0.8066307306289673,0.2356569468975067
1772458649590635500,0.885635498046875,0.032558903098106384,0.7474426627159119,0.11769222468137741
1772458649600703700,0.895703857421875,0.07574019581079483,0.6989472508430481,-0.008603659458458424
1772458649610771700,0.905771728515625,0.13019134104251862,0.639656662940979,-0.13281908631324768
1772458649620840400,0.91584033203125,0.19493119418621063,0.5551567077636719,-0.23914286494255066
1772458649630908700,0.92590869140625,0.26711228489875793,0.4611769914627075,-0.3138085901737213
1772458649640976600,0.9359765625,0.33359065651893616,0.35537251830101013,-0.3552841246128082
1772458649651044600,0.946044677734375,0.3847457766532898,0.21983550488948822,-0.3726221024990082
1772458649661112600,0.956112548828125,0.4100812077522278,0.051094695925712585,-0.3618064820766449
1772458649671180800,0.966180908203125,0.40052083134651184,-0.126669779419899,-0.34682270884513855
1772458649681249500,0.97624951171875,0.34529566764831543,-0.26517412066459656,-0.32438158988952637
1772458649691317500,0.9863173828125,0.24896961450576782,-0.34234386682510376,-0.29045453667640686
1772458649701385700,0.9963857421875,0.12497176229953766,-0.3156547248363495,-0.2541481852531433
1772458649711453700,1.00645361328125,-0.007220251951366663,-0.18441534042358398,-0.21149152517318726
1772458649721521700,1.016521728515625,-0.12402702122926712,-0.0017033168114721775,-0.17995436489582062
1772458649731590700,1.026590576171875,-0.20214158296585083,0.19360749423503876,-0.15215203166007996
1772458649741658600,1.03665869140625,-0.25010618567466736,0.33690738677978516,-0.14172762632369995
1772458649751726600,1.0467265625,-0.2720092535018921,0.4185383915901184,-0.1517605483531952
1772458649761794600,1.056794677734375,-0.2784317433834076,0.4500023126602173,-0.17947553098201752
1772458649771862800,1.06686279296875,-0.27698788046836853,0.4587478041648865,-0.2149011641740799
1772458649781931500,1.076931640625,-0.2636720836162567,0.45256659388542175,-0.25501397252082825
1772458649791999500,1.08699951171875,-0.24078842997550964,0.4444088935852051,-0.28044185042381287
1772458649802067500,1.0970673828125,-0.21494270861148834,0.427419513463974,-0.2856898605823517
1772458649812135700,1.1071357421875,-0.18611153960227966,0.38404226303100586,-0.2827098071575165
1772458649822203600,1.11720361328125,-0.15015007555484772,0.32021719217300415,-0.28333351016044617
1772458649832272600,1.127272705078125,-0.1213395819067955,0.24586176872253418,-0.2799358367919922
1772458649842340600,1.137340576171875,-0.09772825986146927,0.15261544287204742,-0.2785067856311798
1772458649852408600,1.14740869140625,-0.08683038502931595,0.07561429589986801,-0.2832677364349365
1772458649862476500,1.1574765625,-0.07331404089927673,0.035626932978630066,-0.2875157296657562
1772458649872544500,1.16754443359375,-0.05762946605682373,-0.002693678718060255,-0.2991974353790283
1772458649882612700,1.17761279296875,-0.04445081204175949,-0.06326355040073395,-0.31375852227211
1772458649892681500,1.187681396484375,-0.02540975622832775,-0.11836306005716324,-0.33122244477272034
1772458649902749400,1.19774951171875,-0.002959840465337038,-0.16061542928218842,-0.3399842381477356
1772458649912817700,1.207817626953125,0.018270624801516533,-0.21287940442562103,-0.3579725921154022
1772458649922885600,1.2178857421875,0.04050855338573456,-0.2680166959762573,-0.3526768982410431
1772458649932953600,1.22795361328125,0.06292548775672913,-0.3196594715118408,-0.33225494623184204
1772458649943022800,1.23802294921875,0.08869583904743195,-0.396756649017334,-0.29625433683395386
1772458649953090600,1.248090576171875,0.12417788058519363,-0.4868691563606262,-0.2398824244737625
1772458649963158500,1.258158447265625,0.16538764536380768,-0.5789521932601929,-0.18446896970272064
1772458649973226500,1.2682265625,0.18476393818855286,-0.6598206758499146,-0.12971250712871552
1772458649983294700,1.278294677734375,0.17679229378700256,-0.7323153614997864,-0.08199159055948257
1772458649993362700,1.28836279296875,0.1530524641275406,-0.796925961971283,-0.04519016668200493
1772458650003431700,1.298431640625,0.1250554472208023,-0.8574343323707581,-0.01632869243621826
1772458650013499600,1.308499755859375,0.10353347659111023,-0.8938717842102051,-0.0045740301720798016
1772458650023567600,1.318567626953125,0.08557524532079697,-0.8760666847229004,-0.009085425175726414
1772458650033635600,1.328635498046875,0.06803055852651596,-0.7984358668327332,-0.01230678427964449
1772458650043703600,1.33870361328125,0.054449234157800674,-0.690194845199585,-0.010875867679715157
1772458650053772800,1.348772705078125,0.04835889860987663,-0.5881884694099426,-0.0046155741438269615
1772458650063840500,1.358840576171875,0.041273824870586395,-0.5061532258987427,0.007811534684151411
1772458650073908500,1.368908447265625,0.05153514817357063,-0.45147761702537537,0.028805499896407127
1772458650083976700,1.378976806640625,0.07317999005317688,-0.45625853538513184,0.05800545960664749
1772458650094044700,1.389044677734375,0.09795372933149338,-0.5157327055931091,0.06840324401855469
1772458650104113700,1.39911376953125,0.11274146288633347,-0.5956591963768005,0.053461574018001556
1772458650114181600,1.409181640625,0.11689551919698715,-0.665580689907074,0.01858401857316494
1772458650124249600,1.41924951171875,0.10254880040884018,-0.7126739025115967,-0.029582178220152855
1772458650134317600,1.429317626953125,0.06255999952554703,-0.7326907515525818,-0.09782381355762482
1772458650144385500,1.439385498046875,0.0031286273151636124,-0.7303442358970642,-0.17167779803276062
1772458650154454800,1.449454833984375,-0.06900393962860107,-0.6993156671524048,-0.24647188186645508
1772458650164522800,1.459522705078125,-0.15313133597373962,-0.627646267414093,-0.28936344385147095
1772458650174590500,1.469590576171875,-0.24085211753845215,-0.5048174262046814,-0.3073086142539978
1772458650184658400,1.479658447265625,-0.31273534893989563,-0.33215194940567017,-0.29240185022354126
1772458650194726700,1.4897265625,-0.3625589609146118,-0.1668081432580948,-0.25470927357673645
1772458650204794600,1.499794677734375,-0.39518803358078003,-0.04915367811918259,-0.21163906157016754
1772458650214863600,1.509863525390625,-0.41942405700683594,0.048156917095184326,-0.1459420770406723
1772458650224931800,1.519931884765625,-0.4365905225276947,0.08607819676399231,-0.07780297100543976
1772458650234999600,1.52999951171875,-0.4465198516845703,0.07937350124120712,-0.004621434025466442
1772458650245067500,1.540067626953125,-0.44364070892333984,0.046535927802324295,0.08041010051965714
1772458650255135500,1.550135498046875,-0.429892361164093,0.021563146263360977,0.17832840979099274
1772458650265204700,1.560204833984375,-0.4064144492149353,0.011218097060918808,0.2935172915458679
1772458650275272700,1.570272705078125,-0.3813498020172119,0.0021406589075922966,0.4070254862308502
1772458650285340700,1.580340576171875,-0.3597742021083832,-0.015384271740913391,0.5110387206077576
1772458650295408600,1.59040869140625,-0.3311050832271576,-0.05389596149325371,0.5982151627540588
1772458650305476600,1.6004765625,-0.3074479401111603,-0.10455833375453949,0.65036940574646
1772458650315545600,1.610545654296875,-0.2747543752193451,-0.1432424783706665,0.6768889427185059
1772458650325613800,1.62061376953125,-0.24186541140079498,-0.1914675384759903,0.6763461828231812
1772458650335681800,1.630681884765625,-0.20665501058101654,-0.25703945755958557,0.6409831047058105
1772458650345749500,1.64074951171875,-0.17595303058624268,-0.3098456859588623,0.5900887846946716
1772458650355817500,1.6508173828125,-0.1489468663930893,-0.35968315601348877,0.5258112549781799
1772458650365885700,1.6608857421875,-0.13643720746040344,-0.41474828124046326,0.4424508512020111
1772458650375954700,1.67095458984375,-0.14329813420772552,-0.4757213890552521,0.34853076934814453
1772458650386022700,1.681022705078125,-0.16537760198116302,-0.5178629755973816,0.24645206332206726
1772458650396090600,1.691090576171875,-0.21090728044509888,-0.5298142433166504,0.1471787393093109
1772458650406158600,1.70115869140625,-0.276685506105423,-0.4979056119918823,0.0689164325594902
1772458650416226600,1.7112265625,-0.3578307330608368,-0.4157690107822418,0.0020801422651857138
1772458650426295600,1.721295654296875,-0.4381820261478424,-0.2887170612812042,-0.030809631571173668
1772458650436363800,1.73136376953125,-0.5187573432922363,-0.14105165004730225,-0.04999237880110741
1772458650446431700,1.741431640625,-0.5862389206886292,0.01021324098110199,-0.06649146229028702
1772458650456499500,1.75149951171875,-0.637322187423706,0.14768919348716736,-0.0884297788143158
1772458650466567700,1.761567626953125,-0.6654276251792908,0.23753811419010162,-0.11313778907060623
1772458650476636700,1.77163671875,-0.6674450039863586,0.27460819482803345,-0.1245984435081482
1772458650486704600,1.78170458984375,-0.6508407592773438,0.2688578963279724,-0.13212746381759644
1772458650496772600,1.791772705078125,-0.614801824092865,0.24701710045337677,-0.1260296106338501
1772458650506840800,1.8018408203125,-0.5718352198600769,0.2288934886455536,-0.10693209618330002
1772458650516908500,1.811908447265625,-0.5238421559333801,0.20757439732551575,-0.08985856920480728
1772458650526977500,1.8219775390625,-0.48035189509391785,0.1769925206899643,-0.08479936420917511
1772458650537045800,1.832045654296875,-0.4535372257232666,0.13290192186832428,-0.09576785564422607
1772458650547113700,1.84211376953125,-0.4437415897846222,0.10231152176856995,-0.11366429924964905
1772458650557181700,1.852181640625,-0.4429838955402374,0.07468566298484802,-0.14138753712177277
1772458650567249700,1.862249755859375,-0.44099822640419006,0.06437816470861435,-0.17492499947547913
1772458650577318700,1.872318603515625,-0.438432902097702,0.054305702447891235,-0.2160322219133377
1772458650587386600,1.88238671875,-0.4264249801635742,0.05958754941821098,-0.2662990987300873
1772458650597454600,1.89245458984375,-0.40601590275764465,0.07309161126613617,-0.33008766174316406
1772458650607522800,1.902522705078125,-0.38117632269859314,0.08080439269542694,-0.4115159511566162
1772458650617590800,1.9125908203125,-0.3415341079235077,0.10283087193965912,-0.5045977234840393
1772458650627658500,1.922658447265625,-0.2770475149154663,0.13729269802570343,-0.5924684405326843
1772458650637727700,1.932727783203125,-0.20013442635536194,0.17630064487457275,-0.6715819239616394
1772458650647795700,1.942795654296875,-0.11895834654569626,0.19888825714588165,-0.7471967935562134
1772458650657863700,1.95286376953125,-0.038359642028808594,0.1895068883895874,-0.8194507360458374
1772458650667931600,1.962931640625,0.03827867656946182,0.16871772706508636,-0.8806869387626648
1772458650677999600,1.97299951171875,0.10657395422458649,0.12848351895809174,-0.9192449450492859
1772458650688068600,1.983068603515625,0.17107971012592316,0.09678764641284943,-0.9313221573829651
1772458650698136600,1.993136474609375,0.23070378601551056,0.08478979021310806,-0.8987005352973938
1772458650708204800,2.003204833984375,0.2790316343307495,0.11093457788228989,-0.8241285681724548
1772458650718272800,2.013272705078125,0.3049262464046478,0.1635487824678421,-0.7117234468460083
1772458650728340700,2.0233408203125,0.31415942311286926,0.2147057056427002,-0.5774348974227905
1772458650738409500,2.033409423828125,0.3336949348449707,0.26490533351898193,-0.4330414831638336
1772458650748477700,2.043477783203125,0.38229894638061523,0.3008846640586853,-0.2865566909313202
1772458650758545700,2.053545654296875,0.45181041955947876,0.3132254183292389,-0.14633914828300476
1772458650768613600,2.063613525390625,0.5365796089172363,0.29182666540145874,-0.016882630065083504
1772458650778681900,2.073681884765625,0.6170103549957275,0.2497616708278656,0.10298838466405869
1772458650788750600,2.08375048828125,0.6825171709060669,0.19018995761871338,0.21591946482658386
1772458650798818600,2.093818603515625,0.7318695783615112,0.15891747176647186,0.323916494846344
1772458650808886500,2.103886474609375,0.7619292140007019,0.1488717645406723,0.44510284066200256
1772458650818954800,2.113954833984375,0.7735273241996765,0.127118781208992,0.540370523929596
1772458650829022700,2.124022705078125,0.7703267335891724,0.06033175438642502,0.6081287860870361
1772458650839091500,2.134091552734375,0.7396530508995056,-0.035723570734262466,0.635710597038269
1772458650849159700,2.14415966796875,0.6778213977813721,-0.12577462196350098,0.6301558017730713
1772458650859227600,2.1542275390625,0.5777612328529358,-0.18544898927211761,0.6081636548042297
1772458650869295600,2.164295654296875,0.4600270986557007,-0.23558273911476135,0.588046669960022
1772458650879363600,2.174363525390625,0.34731048345565796,-0.2541271150112152,0.5844466090202332
1772458650889431800,2.184431884765625,0.24961404502391815,-0.21532724797725677,0.6122305989265442
1772458650899500500,2.19450048828125,0.17060135304927826,-0.13928011059761047,0.6628844141960144
1772458650909568500,2.204568603515625,0.11692135035991669,-0.03925205022096634,0.725900411605835
1772458650919636700,2.21463671875,0.08203765749931335,0.04019339755177498,0.76886385679245
1772458650929704700,2.22470458984375,0.07457654923200607,0.0629277378320694,0.7778760194778442
1772458650939772700,2.234772705078125,0.08209028840065002,0.04060492292046547,0.7484933137893677
1772458650949841700,2.244841552734375,0.09758003056049347,0.033232759684324265,0.7186648845672607
1772458650959909600,2.25490966796875,0.10894591361284256,0.09245426207780838,0.7219895720481873
1772458650969977600,2.2649775390625,0.11307088285684586,0.253375768661499,0.77618408203125
1772458650980045600,2.275045654296875,0.10101534426212311,0.44825121760368347,0.8664372563362122
1772458650990113800,2.28511376953125,0.08296337723731995,0.623770534992218,0.9416598677635193
1772458651000182500,2.2951826171875,0.06808619946241379,0.7743359804153442,0.997484564781189
1772458651010250500,2.30525048828125,0.05914197862148285,0.8788964748382568,1.0021882057189941
1772458651020318700,2.315318603515625,0.054754968732595444,0.895412027835846,0.961852490901947
1772458651030386700,2.32538671875,0.05528759956359863,0.8284164667129517,0.8777759671211243
1772458651040454700,2.33545458984375,0.05087047815322876,0.6964316368103027,0.7603060603141785
1772458651050523400,2.3455234375,0.04114168509840965,0.5397980809211731,0.6158231496810913
1772458651060591600,2.355591552734375,0.030759235844016075,0.3602480888366699,0.45230910181999207
1772458651070659600,2.36565966796875,0.01875903271138668,0.18640464544296265,0.2864929735660553
1772458651080727600,2.3757275390625,0.01125377044081688,0.05071786791086197,0.12434160709381104
1772458651090795500,2.38579541015625,0.0048536621034145355,-0.039739593863487244,-0.036510393023490906
1772458651100864800,2.39586474609375,-0.00591855775564909,-0.10288900136947632,-0.1797059029340744
1772458651110932500,2.405932373046875,-0.02586403489112854,-0.12630166113376617,-0.3236188590526581
1772458651121000400,2.41600048828125,-0.05567584186792374,-0.11353575438261032,-0.46155568957328796
1772458651131068700,2.426068603515625,-0.07905812561511993,-0.07820173352956772,-0.5834826827049255
1772458651141136600,2.43613671875,-0.10492129623889923,-0.03995431959629059,-0.6966909766197205
1772458651151205600,2.44620556640625,-0.11904484033584595,-0.0010276958346366882,-0.7870746850967407
1772458651161273600,2.456273681640625,-0.13090604543685913,0.06968604028224945,-0.8422324657440186
1772458651171341600,2.466341552734375,-0.132075697183609,0.1827729195356369,-0.8614908456802368
1772458651181409500,2.476409423828125,-0.12343554198741913,0.29731249809265137,-0.8525098562240601
1772458651191477500,2.4864775390625,-0.09538393467664719,0.371834397315979,-0.8106889128684998
1772458651201545700,2.496545654296875,-0.05193958431482315,0.41018831729888916,-0.7546626925468445
1772458651211614700,2.50661474609375,-0.003061526222154498,0.4143691956996918,-0.6897603869438171
1772458651221682400,2.516682373046875,0.05098573863506317,0.3889763355255127,-0.6346651911735535
1772458651231750700,2.526750732421875,0.10677976161241531,0.3487575352191925,-0.5954977869987488
1772458651241818600,2.536818603515625,0.15540626645088196,0.28896260261535645,-0.5782684683799744
1772458651251887600,2.5468876953125,0.19812096655368805,0.22614261507987976,-0.559542179107666
1772458651261955800,2.556955810546875,0.23041562736034393,0.19324550032615662,-0.5361782908439636
1772458651272023600,2.5670234375,0.2576451301574707,0.17296579480171204,-0.49992915987968445
1772458651282091500,2.577091552734375,0.27953189611434937,0.16213735938072205,-0.457854688167572
1772458651292159500,2.587159423828125,0.3009069561958313,0.15372709929943085,-0.423039972782135
1772458651302227700,2.597227783203125,0.32163068652153015,0.15648606419563293,-0.3910444974899292
1772458651312296700,2.607296630859375,0.3370434641838074,0.1524079591035843,-0.3681431710720062
1772458651322364700,2.61736474609375,0.34455472230911255,0.1599222868680954,-0.3544026017189026
1772458651332432600,2.6274326171875,0.34888872504234314,0.17371799051761627,-0.339507520198822
1772458651342500600,2.63750048828125,0.3595938980579376,0.18482667207717896,-0.3156930208206177
1772458651352568600,2.647568603515625,0.3778301775455475,0.1765439659357071,-0.2896158695220947
1772458651362637600,2.657637451171875,0.39598745107650757,0.1488162875175476,-0.2618316411972046
1772458651372705800,2.667705810546875,0.4093021750450134,0.1128833219408989,-0.23227083683013916
1772458651382773800,2.677773681640625,0.41341468691825867,0.06883519142866135,-0.19122886657714844
1772458651392841500,2.687841552734375,0.405990332365036,0.0277538038790226,-0.14211271703243256
1772458651402909400,2.697909423828125,0.3851253092288971,-0.026577133685350418,-0.09519634395837784
1772458651412978700,2.707978759765625,0.34790098667144775,-0.10021939873695374,-0.049142025411129
1772458651423046700,2.718046630859375,0.31669914722442627,-0.1920301765203476,-0.016105780377984047
1772458651433114600,2.728114501953125,0.28442803025245667,-0.2873431146144867,-0.000039196573197841644
1772458651443182600,2.7381826171875,0.25918102264404297,-0.3789962828159332,0.009453105740249157
1772458651453250600,2.74825048828125,0.23163540661334991,-0.4662070870399475,0.003511859802529216
1772458651463319600,2.758319580078125,0.20562756061553955,-0.5159211754798889,-0.008723766542971134
1772458651473387800,2.7683876953125,0.17149221897125244,-0.4897362291812897,-0.0126061225309968
1772458651483455700,2.778455810546875,0.1422700583934784,-0.37916019558906555,-0.007614295929670334
1772458651493523700,2.788523681640625,0.1347959041595459,-0.23042583465576172,0.019528375938534737
1772458651503591400,2.79859130859375,0.1437472105026245,-0.1427982896566391,0.05354173853993416
1772458651513660700,2.80866064453125,0.15315642952919006,-0.16744956374168396,0.07701164484024048
1772458651523728600,2.818728759765625,0.1445760279893875,-0.275044709444046,0.07409175485372543
1772458651533796600,2.828796630859375,0.11216749995946884,-0.39326563477516174,0.033007167279720306
1772458651543864800,2.83886474609375,0.044150251895189285,-0.47727397084236145,-0.03810162842273712
1772458651553933000,2.84893310546875,-0.061044346541166306,-0.5184317827224731,-0.14974959194660187
1772458651564002300,2.859002197265625,-0.18985973298549652,-0.5140613317489624,-0.28836262226104736
1772458651574070300,2.8690703125,-0.3202188014984131,-0.46381357312202454,-0.4356098473072052
1772458651584138200,2.87913818359375,-0.4286978840827942,-0.37409159541130066,-0.5736761093139648
1772458651594206200,2.889206298828125,-0.500575840473175,-0.2529294788837433,-0.6888943314552307
1772458651604274200,2.899274169921875,-0.5342826247215271,-0.1774146854877472,-0.7805408835411072
1772458651614343200,2.90934326171875,-0.5463289022445679,-0.16100481152534485,-0.8385812640190125
1772458651624411400,2.919411376953125,-0.5403786301612854,-0.12060493230819702,-0.8306480050086975
1772458651634479400,2.929479248046875,-0.5284242033958435,0.009283030405640602,-0.7471373677253723
1772458651644547300,2.93954736328125,-0.4902549088001251,0.17608073353767395,-0.5815337896347046
1772458651654615000,2.949614990234375,-0.43165522813796997,0.3309643268585205,-0.3656589686870575
1772458651664684300,2.959684326171875,-0.3736548125743866,0.4562254846096039,-0.12066468596458435
1772458651674752300,2.969752197265625,-0.32770729064941406,0.5283739566802979,0.11451268196105957
1772458651684820200,2.9798203125,-0.287405788898468,0.5368255376815796,0.3306039869785309
1772458651694888400,2.989888427734375,-0.24197518825531006,0.48301661014556885,0.5142347812652588
1772458651704956400,2.999956298828125,-0.18075840175151825,0.38825446367263794,0.6718896627426147
1772458651715025200,3.010025146484375,-0.10019377619028091,0.27228844165802,0.7966645956039429
1772458651725093400,3.02009326171875,-0.010767758823931217,0.12931078672409058,0.8993284106254578
1772458651735161300,3.030161376953125,0.06533792614936829,-0.004423041827976704,0.9864428043365479
1772458651745229300,3.040229248046875,0.10685262084007263,-0.09513445198535919,1.062513828277588
1772458651755297300,3.05029736328125,0.11466660350561142,-0.12721648812294006,1.1266896724700928
1772458651765366300,3.0603662109375,0.10921990126371384,-0.14216899871826172,1.1799086332321167
1772458651775434200,3.070434326171875,0.08673004060983658,-0.15811653435230255,1.2154428958892822
1772458651785502200,3.080502197265625,0.04217448830604553,-0.17262762784957886,1.220300555229187
1772458651795570400,3.0905703125,-0.028096742928028107,-0.1743594855070114,1.190123200416565
1772458651805638400,3.100638427734375,-0.09977421164512634,-0.16585679352283478,1.127883791923523
1772458651815707100,3.11070703125,-0.17315015196800232,-0.15756157040596008,1.0207408666610718
1772458651825775000,3.120775146484375,-0.24606512486934662,-0.1412772536277771,0.8759759068489075
1772458651835843300,3.13084326171875,-0.3212789297103882,-0.1008632481098175,0.7147880792617798
1772458651845911300,3.140911376953125,-0.3910336196422577,-0.03640758991241455,0.5380133390426636
1772458651855979300,3.150979248046875,-0.44942957162857056,0.04380016401410103,0.36149024963378906
1772458651866048300,3.16104833984375,-0.48535704612731934,0.12151587009429932,0.18877066671848297
1772458651876116200,3.1711162109375,-0.514433741569519,0.16962720453739166,0.02736739255487919
1772458651886184200,3.18118408203125,-0.5291411280632019,0.16939236223697662,-0.12695878744125366
1772458651896252200,3.191252197265625,-0.5367979407310486,0.11712144315242767,-0.271255761384964
1772458651906320400,3.2013203125,-0.5315586924552917,0.0683998316526413,-0.3931851387023926
1772458651916388400,3.211388427734375,-0.5125024318695068,0.05564941093325615,-0.4916211664676666
1772458651926457000,3.22145703125,-0.48712143301963806,0.065093494951725,-0.5574010014533997
1772458651936525300,3.231525390625,-0.44799426198005676,0.0637107789516449,-0.6194776892662048
1772458651946593300,3.24159326171875,-0.3979272246360779,0.04971536993980408,-0.6784397959709167
1772458651956661200,3.2516611328125,-0.35661065578460693,0.026035606861114502,-0.7295834422111511
1772458651966730200,3.261730224609375,-0.3267044425010681,0.017592525109648705,-0.7714760303497314
1772458651976798200,3.271798095703125,-0.3187088370323181,0.017539795488119125,-0.7872557640075684
1772458651986866200,3.2818662109375,-0.3068816065788269,0.011168479919433594,-0.7925679683685303
1772458651996934100,3.29193408203125,-0.29021981358528137,-0.0030669155530631542,-0.7962908148765564
1772458652007002400,3.30200244140625,-0.2588430345058441,-0.02343684807419777,-0.7959571480751038
1772458652017070300,3.3120703125,-0.2118733823299408,-0.0518525093793869,-0.8061482310295105
1772458652027139000,3.32213916015625,-0.15732014179229736,-0.08335176855325699,-0.8197999000549316
1772458652037207300,3.332207275390625,-0.0874909833073616,-0.13248735666275024,-0.8343237042427063
1772458652047275300,3.342275146484375,-0.003206778084859252,-0.198024719953537,-0.8365029692649841
1772458652057343200,3.35234326171875,0.10310288518667221,-0.26223620772361755,-0.8183396458625793
1772458652067411200,3.3624111328125,0.2194732278585434,-0.31250274181365967,-0.7741959095001221
1772458652077480200,3.372480224609375,0.33319365978240967,-0.32263126969337463,-0.6996415257453918
1772458652087548200,3.382548095703125,0.4270596504211426,-0.2869500517845154,-0.6027474403381348
1772458652097616100,3.3926162109375,0.499318927526474,-0.2153930366039276,-0.4915037155151367
1772458652107684400,3.402684326171875,0.552236020565033,-0.11170302331447601,-0.3689573109149933
1772458652117752300,3.41275244140625,0.5873663425445557,0.007747207302600145,-0.2482210397720337
1772458652127821300,3.4228212890625,0.6119980216026306,0.120008684694767,-0.13242653012275696
1772458652137889000,3.432888916015625,0.6265646815299988,0.2113623023033142,-0.04189503192901611
1772458652147957200,3.442957275390625,0.62480229139328,0.28323376178741455,0.029317360371351242
1772458652158025200,3.453025146484375,0.6177427768707275,0.3316692113876343,0.07807078957557678
1772458652168094200,3.46309423828125,0.6226061582565308,0.371299684047699,0.12227606028318405
1772458652178162400,3.473162353515625,0.6415252685546875,0.38579845428466797,0.1671074479818344
1772458652188230400,3.48323046875,0.6638794541358948,0.37261807918548584,0.19471244513988495
1772458652198298000,3.493298095703125,0.6726076602935791,0.33180010318756104,0.17261086404323578
1772458652208366000,3.503365966796875,0.6448900103569031,0.24485176801681519,0.10312847048044205
1772458652218434300,3.513434326171875,0.5597662925720215,0.15948067605495453,0.001428206218406558
1772458652228503300,3.52350341796875,0.4191735088825226,0.10354389995336533,-0.08285658061504364
1772458652238571300,3.5335712890625,0.2743835747241974,0.08129425346851349,-0.12330253422260284
1772458652248639200,3.54363916015625,0.1626192033290863,0.09887538105249405,-0.09694256633520126
1772458652258707200,3.553707275390625,0.08992929011583328,0.14385858178138733,-0.018384646624326706
1772458652268775200,3.563775146484375,0.043235182762145996,0.1848546266555786,0.11448471248149872
1772458652278844400,3.573844482421875,0.02526497095823288,0.22519591450691223,0.2776899039745331
1772458652288912400,3.583912353515625,0.03247179836034775,0.30283230543136597,0.47258296608924866
1772458652298980400,3.59398046875,0.06428459286689758,0.44144102931022644,0.6998991966247559
1772458652309048000,3.604048095703125,0.1114310622215271,0.5826311707496643,0.9205186367034912
1772458652319116300,3.6141162109375,0.16146786510944366,0.672762930393219,1.1041747331619263
1772458652329185300,3.624185302734375,0.2018730789422989,0.6970494985580444,1.218794822692871
1772458652339253200,3.634253173828125,0.23218998312950134,0.6638950109481812,1.2546292543411255
1772458652349321500,3.644321533203125,0.26110348105430603,0.5834691524505615,1.2247475385665894
1772458652359389200,3.65438916015625,0.2647826373577118,0.4894145429134369,1.1590590476989746
1772458652369458200,3.664458251953125,0.24647288024425507,0.3756895065307617,1.0634711980819702
1772458652379526400,3.6745263671875,0.20512758195400238,0.2714259624481201,0.9500517249107361
1772458652389594400,3.684594482421875,0.1489141434431076,0.1939607411623001,0.8329267501831055
1772458652399662300,3.694662353515625,0.08705797791481018,0.14209115505218506,0.7283164262771606
1772458652409730300,3.704730224609375,0.0363955944776535,0.1250038594007492,0.629362940788269
1772458652419799300,3.71479931640625,-0.002896418096497655,0.10846961289644241,0.5493704080581665
1772458652429867300,3.7248671875,-0.0388018935918808,0.0906342938542366,0.47389084100723267
1772458652439935200,3.734935302734375,-0.08417870104312897,0.08748617768287659,0.4077456295490265
1772458652450003200,3.745003173828125,-0.13472974300384521,0.11096593737602234,0.34881147742271423
1772458652460071400,3.755071533203125,-0.1890190839767456,0.14887523651123047,0.2974367141723633
1772458652470139400,3.765139404296875,-0.2308436632156372,0.1910914182662964,0.24439024925231934
1772458652480208100,3.7752080078125,-0.2697761654853821,0.2274848371744156,0.196746826171875
1772458652490276400,3.7852763671875,-0.30341342091560364,0.2535685896873474,0.1421850472688675
1772458652500344300,3.79534423828125,-0.3225359618663788,0.28369399905204773,0.10046237707138062
1772458652510412300,3.805412353515625,-0.3263334035873413,0.302270770072937,0.061220962554216385
1772458652520481300,3.815481201171875,-0.32244598865509033,0.3057278096675873,0.009795859456062317
1772458652530549200,3.82554931640625,-0.30945396423339844,0.3053697347640991,-0.04186201095581055
1772458652540617200,3.8356171875,-0.2893918454647064,0.3016067147254944,-0.09566798806190491
1772458652550685200,3.845685302734375,-0.26481762528419495,0.29701730608940125,-0.14938953518867493
1772458652560752600,3.855752685546875,-0.2377242147922516,0.28307485580444336,-0.19986975193023682
1772458652570822000,3.86582177734375,-0.21165835857391357,0.24331074953079224,-0.24468916654586792
1772458652580889600,3.8758896484375,-0.19327323138713837,0.18907278776168823,-0.27672749757766724
1772458652590957600,3.88595751953125,-0.16742049157619476,0.14178091287612915,-0.28858682513237
1772458652601025500,3.896025634765625,-0.14594396948814392,0.10208863765001297,-0.2751980423927307
1772458652611093800,3.90609375,-0.13403809070587158,0.08758275955915451,-0.2438896745443344
1772458652621162800,3.916162841796875,-0.12844517827033997,0.08528844267129898,-0.21515204012393951
1772458652631230700,3.926230712890625,-0.1313806176185608,0.06845539063215256,-0.18912097811698914
1772458652641298700,3.936298583984375,-0.14044681191444397,0.026558011770248413,-0.1828971654176712
1772458652651366700,3.94636669921875,-0.1508273333311081,-0.02259235829114914,-0.193057119846344
1772458652661434600,3.9564345703125,-0.16131220757961273,-0.06050485000014305,-0.20398886501789093
1772458652671504000,3.96650390625,-0.1695834994316101,-0.07192226499319077,-0.2189081609249115
1772458652681571800,3.97657177734375,-0.17033663392066956,-0.06105231121182442,-0.23898440599441528
1772458652691639600,3.9866396484375,-0.1751750260591507,-0.05434184521436691,-0.25404003262519836
1772458652701707500,3.99670751953125,-0.1703144907951355,-0.06497105211019516,-0.2791304886341095
1772458652711775700,4.006775634765625,-0.1660669595003128,-0.07283827662467957,-0.2984817922115326
1772458652721844700,4.0168447265625,-0.16285039484500885,-0.07353468984365463,-0.3200896382331848
1772458652731912700,4.02691259765625,-0.16216665506362915,-0.08433128893375397,-0.3223825991153717
1772458652741980700,4.036980712890625,-0.1722611039876938,-0.102707639336586,-0.31511858105659485
1772458652752048600,4.047048583984375,-0.1920861005783081,-0.11264129728078842,-0.30752110481262207
1772458652762116600,4.05711669921875,-0.20969705283641815,-0.09923627227544785,-0.3015148639678955
1772458652772185600,4.067185546875,-0.2207217961549759,-0.10010642558336258,-0.30758050084114075
1772458652782253800,4.07725390625,-0.22547048330307007,-0.1362314075231552,-0.34879425168037415
1772458652792321800,4.08732177734375,-0.2382044941186905,-0.1999616175889969,-0.4306555390357971
1772458652802389500,4.097389404296875,-0.2619872987270355,-0.2798391580581665,-0.5391319990158081
1772458652812457500,4.10745751953125,-0.295552521944046,-0.3550357222557068,-0.6543344855308533
1772458652822526700,4.117526611328125,-0.3274793028831482,-0.41354936361312866,-0.7538421750068665
1772458652832594700,4.1275947265625,-0.3359108567237854,-0.431491494178772,-0.811037003993988
1772458652842662700,4.13766259765625,-0.3063007891178131,-0.39909255504608154,-0.8185455203056335
1772458652852730600,4.147730712890625,-0.2535717189311981,-0.3057910203933716,-0.7516010999679565
1772458652862798600,4.157798583984375,-0.1875985711812973,-0.1649574339389801,-0.6189274787902832
1772458652872867600,4.16786767578125,-0.1147867813706398,-0.04583684727549553,-0.4419343173503876
1772458652882935800,4.177935791015625,-0.03846457600593567,-0.03050290048122406,-0.2794165015220642
1772458652893003800,4.188003662109375,0.024120768532156944,-0.11734550446271896,-0.1667136698961258
1772458652903071700,4.19807177734375,0.06727542728185654,-0.2795788645744324,-0.1033938080072403
1772458652913139500,4.208139404296875,0.08042634278535843,-0.4745640754699707,-0.06828057020902634
1772458652923208700,4.218208740234375,0.04394902288913727,-0.7001519203186035,-0.04777449369430542
1772458652933276700,4.228276611328125,-0.03804939612746239,-0.9173908233642578,-0.04235602542757988
1772458652943344600,4.2383447265625,-0.15010428428649902,-1.0700013637542725,-0.04675903171300888
1772458652953412900,4.248412841796875,-0.24378228187561035,-1.1626394987106323,-0.05082567781209946
1772458652963480800,4.258480712890625,-0.30223944783210754,-1.253389835357666,-0.056944817304611206
1772458652973549600,4.268549560546875,-0.3334193825721741,-1.3464747667312622,-0.05533813685178757
1772458652983617800,4.27861767578125,-0.3519275188446045,-1.367351770401001,-0.044682297855615616
1772458652993685800,4.288685791015625,-0.35523146390914917,-1.2795915603637695,0.012272333726286888
1772458653003753700,4.298753662109375,-0.32785338163375854,-1.1009035110473633,0.11651565134525299
1772458653013821700,4.30882177734375,-0.2944398820400238,-0.8411650657653809,0.25753509998321533
1772458653023890700,4.318890625,-0.2531941831111908,-0.5467459559440613,0.4025633931159973
1772458653033958700,4.328958740234375,-0.21028545498847961,-0.2684841454029083,0.5343663692474365
1772458653044026600,4.339026611328125,-0.16016104817390442,-0.053249575197696686,0.6232571005821228
1772458653054094800,4.3490947265625,-0.11138731241226196,0.0710611343383789,0.6707404851913452
1772458653064162800,4.359162841796875,-0.061647456139326096,0.09037970751523972,0.6887117624282837
1772458653074232600,4.369232666015625,-0.011528471484780312,0.051160622388124466,0.7082782983779907
1772458653084300800,4.37930078125,0.05174317583441734,0.02547656185925007,0.7547887563705444
1772458653094369500,4.38936962890625,0.132970929145813,-0.003532793838530779,0.8129658102989197
1772458653104437500,4.3994375,0.20458146929740906,-0.0472152940928936,0.8734046220779419
1772458653114505700,4.409505615234375,0.2561855912208557,-0.10873109847307205,0.9192509651184082
1772458653124573700,4.41957373046875,0.2747640609741211,-0.19311228394508362,0.9408486485481262
1772458653134641700,4.4296416015625,0.264089435338974,-0.26671937108039856,0.9247738122940063
1772458653144710700,4.439710693359375,0.2276134341955185,-0.3303052484989166,0.8906208872795105
1772458653154778600,4.449778564453125,0.1787983775138855,-0.4098823368549347,0.8369789719581604
1772458653164846600,4.4598466796875,0.1150984987616539,-0.49378228187561035,0.7625963687896729
1772458653174914600,4.46991455078125,0.039741434156894684,-0.5683857798576355,0.6662133932113647
1772458653184983800,4.47998388671875,-0.04514363035559654,-0.6227342486381531,0.5404658317565918
1772458653195051800,4.4900517578125,-0.13412904739379883,-0.6672014594078064,0.37464600801467896
1772458653205119500,4.500119384765625,-0.2232096642255783,-0.6892141103744507,0.19366608560085297
1772458653215187700,4.510187744140625,-0.31115397810935974,-0.6742873787879944,-0.0021257814951241016
1772458653225255700,4.520255615234375,-0.38902372121810913,-0.6202819347381592,-0.19492879509925842
1772458653235324700,4.53032470703125,-0.46089205145835876,-0.5263321399688721,-0.3818930685520172
1772458653245392600,4.540392578125,-0.5253586769104004,-0.36102598905563354,-0.5605618953704834
1772458653255460900,4.5504609375,-0.5830589532852173,-0.13469275832176208,-0.7249990701675415
1772458653265528600,4.560528564453125,-0.620436429977417,0.10284551233053207,-0.8468043208122253
1772458653275596500,4.570596435546875,-0.628275990486145,0.2951842248439789,-0.9254538416862488
1772458653285665800,4.580665771484375,-0.6270978450775146,0.4221528172492981,-0.9568317532539368
1772458653295733800,4.590733642578125,-0.6137643456459045,0.5131199955940247,-0.9447231888771057
1772458653305801700,4.6008017578125,-0.5828402638435364,0.5821222066879272,-0.9108778238296509
1772458653315869700,4.61086962890625,-0.525165855884552,0.6230826377868652,-0.8551786541938782
1772458653325937700,4.620937744140625,-0.4349350333213806,0.637062668800354,-0.7939214110374451
1772458653336006700,4.631006591796875,-0.3328295648097992,0.6059055328369141,-0.7354027032852173
1772458653346074600,4.64107470703125,-0.22877535223960876,0.5457290410995483,-0.688960075378418
1772458653356142800,4.651142822265625,-0.1335393786430359,0.46956098079681396,-0.6335858106613159
1772458653366210800,4.6612109375,-0.04022727534174919,0.36674964427948,-0.5693479776382446
1772458653376278500,4.671278564453125,0.05458678677678108,0.24026471376419067,-0.4955080449581146
1772458653386347800,4.68134765625,0.15259511768817902,0.11726503074169159,-0.4065113365650177
1772458653396415700,4.691415771484375,0.23964980244636536,0.015465596690773964,-0.310813307762146
1772458653406483700,4.701483642578125,0.3198937773704529,-0.05579207465052605,-0.2283669114112854
1772458653416551700,4.7115517578125,0.38397544622421265,-0.09175437688827515,-0.15259118378162384
1772458653426619600,4.72161962890625,0.4401601552963257,-0.1051439568400383,-0.09428899735212326
1772458653436688600,4.731688720703125,0.48959022760391235,-0.11236460506916046,-0.056339215487241745
1772458653446756600,4.741756591796875,0.5251820087432861,-0.10955949872732162,-0.023476876318454742
1772458653456824800,4.751824951171875,0.5556703805923462,-0.09105897694826126,-0.0018642580835148692
1772458653466892800,4.761892822265625,0.5747625827789307,-0.04370185360312462,0.020062612369656563
1772458653476960800,4.771960693359375,0.5834654569625854,0.021838515996932983,0.03520987555384636
1772458653487029800,4.78202978515625,0.5848580002784729,0.09538037329912186,0.05283467471599579
1772458653497097700,4.79209765625,0.5825424194335938,0.15095406770706177,0.06531984359025955
1772458653507165700,4.802165771484375,0.5759170055389404,0.17505142092704773,0.07632055878639221
1772458653517233700,4.812233642578125,0.5558180809020996,0.17586180567741394,0.09402897953987122
1772458653527302700,4.822302734375,0.5262598991394043,0.17176826298236847,0.11546023935079575
1772458653537370600,4.83237060546875,0.5028549432754517,0.1679985523223877,0.15276393294334412
1772458653547438600,4.8424384765625,0.4896763265132904,0.15861570835113525,0.210846409201622
1772458653557507300,4.85250732421875,0.4839705228805542,0.13710066676139832,0.28797370195388794
1772458653567575300,4.8625751953125,0.4735322594642639,0.13874410092830658,0.36930742859840393
1772458653577644300,4.872644287109375,0.45689496397972107,0.20887978374958038,0.4720732271671295
1772458653587712300,4.882712158203125,0.45059871673583984,0.33213165402412415,0.5806210041046143
1772458653597780200,4.8927802734375,0.4619634747505188,0.4647029936313629,0.6907264590263367
1772458653607848200,4.90284814453125,0.477483332157135,0.5757317543029785,0.7693451046943665
1772458653617916400,4.91291650390625,0.5016061067581177,0.6525253653526306,0.7868367433547974
1772458653627985200,4.922985107421875,0.5273154973983765,0.6578394770622253,0.7562921643257141
1772458653638053000,4.93305322265625,0.5359129309654236,0.5457698106765747,0.6606920957565308
1772458653648121300,4.943121337890625,0.49627044796943665,0.2874612510204315,0.4911089837551117
1772458653658189300,4.953189208984375,0.3857647776603699,-0.011373505927622318,0.2764368951320648
1772458653668257300,4.96325732421875,0.21407610177993774,-0.21467335522174835,0.061366643756628036
1772458653678326300,4.973326171875,0.04881171137094498,-0.29886165261268616,-0.09426715970039368
1772458653688394200,4.983394287109375,-0.083748459815979,-0.29725202918052673,-0.16198307275772095
1772458653698462200,4.993462158203125,-0.19039300084114075,-0.18241524696350098,-0.11852376163005829
1772458653708530200,5.0035302734375,-0.27675503492355347,-0.00937901996076107,-0.002951624570414424
1772458653718599400,5.013599365234375,-0.3334868848323822,0.1581566333770752,0.12681275606155396
1772458653728667100,5.023667236328125,-0.3621414303779602,0.33373111486434937,0.2626449167728424
1772458653738735000,5.033735107421875,-0.3576478064060211,0.4916932284832001,0.37873050570487976
1772458653748803300,5.04380322265625,-0.3122427761554718,0.5801287889480591,0.4769103229045868
1772458653758871300,5.053871337890625,-0.23681257665157318,0.5782387256622314,0.5564911365509033
1772458653768940300,5.063940185546875,-0.15869593620300293,0.5052965879440308,0.6226709485054016
1772458653779008300,5.07400830078125,-0.10011859238147736,0.4249741733074188,0.6643885970115662
1772458653789076200,5.084076171875,-0.06569191068410873,0.3421642482280731,0.6835681200027466
1772458653799144200,5.094144287109375,-0.04527957737445831,0.2677146792411804,0.6894444227218628
1772458653809212200,5.104212158203125,-0.04605908691883087,0.18056195974349976,0.6798439621925354
1772458653819281400,5.114281494140625,-0.06623568385839462,0.06968016177415848,0.6533090472221375
1772458653829349400,5.124349365234375,-0.1063186526298523,-0.045740172266960144,0.6009310483932495
1772458653839417300,5.134417236328125,-0.15627245604991913,-0.141047403216362,0.5392903089523315
1772458653849485000,5.144485107421875,-0.21431578695774078,-0.20725011825561523,0.4705142080783844
1772458653859553300,5.15455322265625,-0.2848810851573944,-0.24143512547016144,0.3714584708213806
1772458653869622300,5.164622314453125,-0.3501559793949127,-0.24388337135314941,0.2804204523563385
1772458653879690200,5.174690185546875,-0.405451238155365,-0.2193700671195984,0.17401570081710815
1772458653889758500,5.184758544921875,-0.4467374384403229,-0.19792629778385162,0.07280492037534714
1772458653899826200,5.194826171875,-0.485717236995697,-0.1654270738363266,-0.023771952837705612
1772458653909895200,5.204895263671875,-0.5317798256874084,-0.1260993778705597,-0.10987914353609085
1772458653919963400,5.21496337890625,-0.5803175568580627,-0.07037273049354553,-0.1847643107175827
1772458653930031400,5.22503125,-0.6113340854644775,0.002659816527739167,-0.24178844690322876
1772458653940099300,5.235099365234375,-0.6240298748016357,0.05915969982743263,-0.2930750548839569
1772458653950167300,5.245167236328125,-0.6255965828895569,0.09891270101070404,-0.330690860748291
1772458653960236300,5.255236328125,-0.6058410406112671,0.12261009216308594,-0.3537628948688507
1772458653970304300,5.26530419921875,-0.5757289528846741,0.1315399408340454,-0.3712955415248871
1772458653980372200,5.275372314453125,-0.5337653160095215,0.12676000595092773,-0.377766489982605
1772458653990440400,5.2854404296875,-0.49485331773757935,0.10108979046344757,-0.37150755524635315
1772458654000508400,5.29550830078125,-0.45395779609680176,0.06387221813201904,-0.36017152667045593
1772458654010577200,5.3055771484375,-0.416059672832489,0.006047797854989767,-0.34696492552757263
1772458654020645400,5.315645263671875,-0.3815280497074127,-0.05930647999048233,-0.3438972234725952
1772458654030713300,5.32571337890625,-0.34645557403564453,-0.11823105067014694,-0.33924999833106995
1772458654040781300,5.33578125,-0.3106479048728943,-0.13760259747505188,-0.3322823643684387
1772458654050850000,5.34585009765625,-0.27352502942085266,-0.11776632070541382,-0.30872485041618347
1772458654060918300,5.355918212890625,-0.2389223277568817,-0.07057841122150421,-0.2774127423763275
1772458654070986200,5.365986328125,-0.2078072875738144,-0.030407560989260674,-0.2379787713289261
1772458654081054200,5.37605419921875,-0.18208195269107819,-0.026156621053814888,-0.20190200209617615
1772458654091122200,5.3861220703125,-0.15953457355499268,-0.04729652404785156,-0.17252306640148163
1772458654101191200,5.396191162109375,-0.13002397119998932,-0.09056930989027023,-0.15184202790260315
1772458654111259100,5.406259033203125,-0.09904688596725464,-0.13374075293540955,-0.1210513636469841
1772458654121327000,5.4163271484375,-0.059130944311618805,-0.14949505031108856,-0.09332626312971115
1772458654131395300,5.426395263671875,-0.014059338718652725,-0.1566469669342041,-0.0583546981215477
1772458654141463300,5.43646337890625,0.03298209235072136,-0.15829357504844666,-0.023301638662815094
1772458654151532300,5.4465322265625,0.0706876665353775,-0.14808806777000427,0.002863920759409666
1772458654161600300,5.456600341796875,0.09704817831516266,-0.1257123053073883,0.027706416323781013
1772458654171668200,5.466668212890625,0.10450050234794617,-0.08793722093105316,0.04188961535692215
1772458654181736200,5.476736083984375,0.0957082211971283,-0.05023254081606865,0.04567236825823784
1772458654191805400,5.486805419921875,0.08135458081960678,-0.04848657175898552,0.016214612871408463
1772458654201873400,5.496873291015625,0.06358495354652405,-0.0939658060669899,-0.048665851354599
1772458654211941000,5.506941162109375,0.03785749152302742,-0.1785358190536499,-0.13809053599834442
1772458654222009000,5.517009033203125,0.010222455486655235,-0.26727578043937683,-0.2408355474472046
1772458654232077300,5.527077392578125,-0.022510457783937454,-0.33570384979248047,-0.3406340479850769
1772458654242146300,5.537146240234375,-0.06085719168186188,-0.39994603395462036,-0.436153382062912
1772458654252214300,5.54721435546875,-0.09102974832057953,-0.4466080963611603,-0.5157755613327026
1772458654262282500,5.557282470703125,-0.10888438671827316,-0.4556165337562561,-0.5641294717788696
1772458654272350200,5.56735009765625,-0.11561872065067291,-0.42424771189689636,-0.5699207782745361
1772458654282418200,5.577418212890625,-0.11434062570333481,-0.368490606546402,-0.549898624420166
1772458654292487200,5.587487060546875,-0.1105850338935852,-0.310615599155426,-0.5141744613647461
1772458654302555400,5.597555419921875,-0.10512076318264008,-0.27560967206954956,-0.4760339558124542
1772458654312623400,5.607623291015625,-0.10241658985614777,-0.2807873785495758,-0.4457804560661316
1772458654322691300,5.61769140625,-0.10050000250339508,-0.31073522567749023,-0.4255119264125824
1772458654332760300,5.62776025390625,-0.11544326692819595,-0.36056724190711975,-0.42593881487846375
1772458654342828300,5.637828369140625,-0.13889704644680023,-0.41398635506629944,-0.4396570324897766
1772458654352896300,5.647896240234375,-0.16742642223834991,-0.4601338803768158,-0.45569247007369995
1772458654362964200,5.657964111328125,-0.20389847457408905,-0.48327746987342834,-0.4706016480922699
1772458654373032400,5.668032470703125,-0.2458408623933792,-0.5071157217025757,-0.4839073121547699
1772458654383101200,5.67810107421875,-0.2632542848587036,-0.5274573564529419,-0.4851408898830414
1772458654393169200,5.688169189453125,-0.2944345474243164,-0.5164049863815308,-0.4635179042816162
1772458654403237400,5.6982373046875,-0.3308195471763611,-0.4668165147304535,-0.40613529086112976
1772458654413305300,5.708305419921875,-0.37135446071624756,-0.36910274624824524,-0.2977912425994873
1772458654423374000,5.7183740234375,-0.40061476826667786,-0.1991974264383316,-0.13426944613456726
1772458654433442300,5.7284423828125,-0.4099704623222351,-0.010572387836873531,0.05952480435371399
1772458654443510300,5.73851025390625,-0.40785083174705505,0.11542084813117981,0.24360783398151398
1772458654453578200,5.748578125,-0.39211714267730713,0.144059956073761,0.37780559062957764
1772458654463646200,5.758646240234375,-0.36932894587516785,0.10441621392965317,0.47306737303733826
1772458654473715200,5.768715087890625,-0.34439828991889954,0.026491057127714157,0.5338249802589417
1772458654483783200,5.778783203125,-0.32653772830963135,-0.07328839600086212,0.5698524713516235
1772458654493851100,5.78885107421875,-0.31072014570236206,-0.16357968747615814,0.59738689661026
1772458654503919400,5.79891943359375,-0.2900800108909607,-0.23671109974384308,0.6051215529441833
1772458654513987300,5.8089873046875,-0.25332650542259216,-0.3183335065841675,0.6077391505241394
1772458654524056300,5.819056396484375,-0.2221928834915161,-0.41723302006721497,0.5884709358215332
1772458654534124300,5.829124267578125,-0.2018713653087616,-0.5158616304397583,0.558750569820404
1772458654544192300,5.839192138671875,-0.19908033311367035,-0.5768660306930542,0.5336223244667053
1772458654554260000,5.849260009765625,-0.20831750333309174,-0.5857841372489929,0.5085664987564087
1772458654564329000,5.859328857421875,-0.22168172895908356,-0.565952718257904,0.4854840934276581
1772458654574397000,5.86939697265625,-0.24048125743865967,-0.5322155356407166,0.46953442692756653
1772458654584465200,5.879465087890625,-0.26955726742744446,-0.4810275733470917,0.44286447763442993
1772458654594532900,5.889532958984375,-0.31538841128349304,-0.4193500876426697,0.39611029624938965
1772458654604600800,5.899600830078125,-0.3675321936607361,-0.3353070318698883,0.31640028953552246
1772458654614670000,5.909670166015625,-0.4294586777687073,-0.240997314453125,0.21868011355400085
1772458654624738000,5.919738037109375,-0.48604094982147217,-0.1489824801683426,0.10026957094669342
1772458654634806000,5.929805908203125,-0.5356236696243286,-0.09597145766019821,-0.02664710022509098
1772458654644874000,5.9398740234375,-0.5782367587089539,-0.09243642538785934,-0.14315666258335114
1772458654654943000,5.94994287109375,-0.599592924118042,-0.09076076000928879,-0.24155567586421967
1772458654665011000,5.960010986328125,-0.6029211282730103,-0.06025407090783119,-0.29360583424568176
1772458654675079000,5.970078857421875,-0.5980513095855713,-0.0004935343749821186,-0.31256192922592163
1772458654685147000,5.98014697265625,-0.5796136260032654,0.06271747499704361,-0.3086377680301666
1772458654695215000,5.990215087890625,-0.5512576103210449,0.1341056376695633,-0.2872893214225769
1772458654705283800,6.000283935546875,-0.5042018294334412,0.1906176209449768,-0.254961222410202
1772458654715351800,6.010351806640625,-0.4524526000022888,0.22105833888053894,-0.22698338329792023
1772458654725420000,6.020419921875,-0.39518195390701294,0.2262345850467682,-0.2076597511768341
1772458654735488000,6.030488037109375,-0.33371004462242126,0.21308763325214386,-0.19769208133220673
1772458654745556700,6.040556640625,-0.28124359250068665,0.17824126780033112,-0.18495231866836548
1772458654755625000,6.050625,-0.24033237993717194,0.12403528392314911,-0.1648387908935547
1772458654765693000,6.06069287109375,-0.2113179862499237,0.05984281003475189,-0.1450248658657074
1772458654775761000,6.070760986328125,-0.19824373722076416,0.00839267112314701,-0.12058264762163162
1772458654785828900,6.080828857421875,-0.1929549127817154,-0.010709628462791443,-0.11186026781797409
1772458654795897900,6.09089794921875,-0.19259484112262726,0.011782631278038025,-0.1125369742512703
1772458654805965800,6.1009658203125,-0.1831858903169632,0.05502989515662193,-0.11814399063587189
1772458654816033800,6.11103369140625,-0.16829721629619598,0.10281046479940414,-0.12068305164575577
1772458654826102000,6.12110205078125,-0.1464506834745407,0.147847980260849,-0.126839742064476
1772458654836171000,6.1311708984375,-0.1140967383980751,0.186793252825737,-0.1306248903274536
1772458654846239000,6.141239013671875,-0.06750211864709854,0.21392236649990082,-0.1297026425600052
1772458654856307000,6.151306884765625,-0.013640482909977436,0.22827094793319702,-0.1256043016910553
1772458654866375000,6.161375,0.04884856566786766,0.24178268015384674,-0.12096960842609406
1772458654876443000,6.17144287109375,0.12467487901449203,0.2572311758995056,-0.09407541155815125
1772458654886512000,6.18151220703125,0.20361684262752533,0.27585577964782715,-0.0504581592977047
1772458654896580000,6.191580078125,0.2843036949634552,0.29188188910484314,0.013680349104106426
1772458654906647800,6.201647705078125,0.36313873529434204,0.2996947467327118,0.08184928447008133
1772458654916715800,6.2117158203125,0.43345898389816284,0.30015119910240173,0.14417923986911774
1772458654926784000,6.221783935546875,0.4943629205226898,0.3090359568595886,0.20152722299098969
1772458654936853000,6.23185302734375,0.5445650815963745,0.2973955273628235,0.23830361664295197
1772458654946921000,6.2419208984375,0.5737168788909912,0.21108298003673553,0.2404828816652298
1772458654956989000,6.251989013671875,0.5789209604263306,0.072652667760849,0.2058364748954773
1772458654967057000,6.262056884765625,0.5522515177726746,-0.09465623646974564,0.13025037944316864
1772458654977126000,6.2721259765625,0.5007108449935913,-0.25266024470329285,0.026448074728250504
1772458654987193900,6.28219384765625,0.44063717126846313,-0.33398064970970154,-0.08747342973947525
1772458654997262000,6.292261962890625,0.38597792387008667,-0.32355543971061707,-0.18456721305847168
1772458655007330000,6.302330078125,0.35035818815231323,-0.25363028049468994,-0.23867332935333252
1772458655017397800,6.312397705078125,0.3462800979614258,-0.16190941631793976,-0.23476247489452362
1772458655027467000,6.322467041015625,0.36402004957199097,-0.07596961408853531,-0.1994905024766922
1772458655037535000,6.332534912109375,0.4108107388019562,-0.053640879690647125,-0.14784196019172668
1772458655047603000,6.34260302734375,0.485235333442688,-0.08372578024864197,-0.10114184021949768
1772458655057671000,6.3526708984375,0.5483048558235168,-0.13112658262252808,-0.052979372441768646
1772458655067740000,6.362739990234375,0.5824930667877197,-0.15874606370925903,0.010387350805103779
1772458655077807900,6.372807861328125,0.5875133872032166,-0.1405273675918579,0.10598950833082199
1772458655087875800,6.382875732421875,0.5551204085350037,-0.015721715986728668,0.24543476104736328
1772458655097944000,6.392944091796875,0.49268555641174316,0.18200600147247314,0.40124884247779846
1772458655108012800,6.4030126953125,0.4181256890296936,0.3518000841140747,0.5260711908340454
1772458655118080800,6.413080810546875,0.3531157970428467,0.45096713304519653,0.5854040384292603
1772458655128149000,6.42314892578125,0.30553361773490906,0.4848601818084717,0.5694724321365356
1772458655138217000,6.433217041015625,0.28337720036506653,0.4618922770023346,0.49126502871513367
1772458655148285000,6.443284912109375,0.2705070376396179,0.38403865694999695,0.36490577459335327
1772458655158354000,6.45335400390625,0.26830753684043884,0.2762557566165924,0.22375263273715973
1772458655168422000,6.463421875,0.2718563675880432,0.16316767036914825,0.08730743080377579
1772458655178489900,6.47348974609375,0.28085440397262573,0.04557819664478302,-0.029487095773220062
1772458655188557800,6.483557861328125,0.30178430676460266,-0.0630434975028038,-0.13199615478515625
1772458655198627000,6.493626953125,0.31621065735816956,-0.13655206561088562,-0.21442657709121704
1772458655208695000,6.503695068359375,0.3119201362133026,-0.1572597771883011,-0.2676088511943817
1772458655218762800,6.5137626953125,0.29012295603752136,-0.1357606053352356,-0.27319028973579407
1772458655228830700,6.523830810546875,0.25690141320228577,-0.08294987678527832,-0.26204684376716614
1772458655238899000,6.53389892578125,0.207389235496521,-0.006614090874791145,-0.23271051049232483
1772458655248968000,6.543968017578125,0.16009509563446045,0.07985830307006836,-0.2002609670162201
1772458655259036000,6.554035888671875,0.11421601474285126,0.16296730935573578,-0.17224477231502533
1772458655269104000,6.564104248046875,0.08595544099807739,0.23391106724739075,-0.15392862260341644
1772458655279171800,6.574171875,0.07179754227399826,0.30383074283599854,-0.16813737154006958
1772458655289240800,6.58424072265625,0.08346518129110336,0.34941691160202026,-0.20763471722602844
1772458655299309000,6.59430908203125,0.09937597066164017,0.35524284839630127,-0.25845980644226074
1772458655309377000,6.604376953125,0.12253375351428986,0.340545654296875,-0.30193617939949036
1772458655319445000,6.614445068359375,0.15330711007118225,0.3072854280471802,-0.3378465175628662
1772458655329513000,6.624512939453125,0.18687544763088226,0.2740477919578552,-0.3546164333820343
1772458655339582000,6.63458203125,0.21699874103069305,0.2418120801448822,-0.3536105751991272
1772458655349650000,6.64464990234375,0.23284773528575897,0.20889510214328766,-0.3324296474456787
1772458655359718000,6.6547177734375,0.2373514026403427,0.183709055185318,-0.30125707387924194
1772458655369786000,6.6647861328125,0.23022304475307465,0.15929269790649414,-0.25913146138191223
1772458655379854800,6.674854736328125,0.219048410654068,0.14139492809772491,-0.20454278588294983
1772458655389922800,6.6849228515625,0.20402242243289948,0.12118877470493317,-0.14779961109161377
1772458655399991000,6.694990966796875,0.20395025610923767,0.09741207212209702,-0.1128658726811409
1772458655410059000,6.70505908203125,0.2183731496334076,0.07667495310306549,-0.09376035630702972
1772458655420127000,6.715126953125,0.24179111421108246,0.0672827884554863,-0.0992632508277893
1772458655430195700,6.72519580078125,0.26443490386009216,0.06707939505577087,-0.11646034568548203
1772458655440264000,6.735263916015625,0.28457000851631165,0.0922558605670929,-0.12558326125144958
1772458655450332000,6.745331787109375,0.29519304633140564,0.11979051679372787,-0.13536052405834198
1772458655460399900,6.75539990234375,0.3021761178970337,0.12043739855289459,-0.13836003839969635
1772458655470469000,6.76546923828125,0.30801472067832947,0.1016785055398941,-0.1350896805524826
1772458655480536800,6.775536865234375,0.3098496198654175,0.0823357030749321,-0.11737114191055298
1772458655490604800,6.785604736328125,0.3305673599243164,0.06917227804660797,-0.09234515577554703
1772458655500672800,6.7956728515625,0.3513568043708801,0.02921714261174202,-0.05833951756358147
1772458655510742000,6.805741943359375,0.36778438091278076,-0.038089506328105927,-0.025588760152459145
1772458655520810000,6.81581005859375,0.36249110102653503,-0.12185204029083252,0.006140141282230616
1772458655530878000,6.8258779296875,0.34778574109077454,-0.19768576323986053,0.030104860663414
1772458655540946000,6.83594580078125,0.3237459063529968,-0.24264444410800934,0.04700501635670662
1772458655551014000,6.846013916015625,0.301649272441864,-0.26443254947662354,0.0532035231590271
1772458655561083100,6.856083251953125,0.2850910723209381,-0.2846560478210449,0.04061023145914078
1772458655571151000,6.866151123046875,0.2645754814147949,-0.32089436054229736,0.001655111787840724
1772458655581219000,6.876218994140625,0.22878257930278778,-0.3606228828430176,-0.04440372809767723
1772458655591286800,6.886286865234375,0.1900012493133545,-0.3713049590587616,-0.09067588299512863
1772458655601356000,6.89635595703125,0.14364254474639893,-0.3645557165145874,-0.1326448917388916
1772458655611424000,6.906424072265625,0.10064548999071121,-0.3343117833137512,-0.16359801590442657
1772458655621492000,6.916491943359375,0.060772377997636795,-0.2769201397895813,-0.17120960354804993
1772458655631560200,6.926560302734375,0.02528981678187847,-0.21286733448505402,-0.15212325751781464
1772458655641628000,6.9366279296875,0.009588618762791157,-0.15146975219249725,-0.1290925145149231
1772458655651697000,6.94669677734375,0.013118037022650242,-0.15585675835609436,-0.09142956137657166
1772458655661765000,6.95676513671875,0.040238603949546814,-0.2148660272359848,-0.06865820288658142
1772458655671833000,6.9668330078125,0.07501304149627686,-0.3204673230648041,-0.06461206078529358
1772458655681901000,6.976901123046875,0.09100931882858276,-0.445630818605423,-0.0916772335767746
1772458655691970000,6.986969970703125,0.07382762432098389,-0.5697822570800781,-0.1566128134727478
1772458655702038000,6.9970380859375,0.025057684630155563,-0.6580013036727905,-0.24523615837097168
1772458655712106000,7.00710595703125,-0.04139488935470581,-0.7274359464645386,-0.3428388833999634
1772458655722174000,7.017174072265625,-0.1078716516494751,-0.7628301382064819,-0.42800384759902954
1772458655732243000,7.027242919921875,-0.15865857899188995,-0.7524064183235168,-0.47813358902931213
1772458655742311000,7.037310791015625,-0.18586009740829468,-0.7025328874588013,-0.5006088018417358
1772458655752379000,7.04737890625,-0.210934117436409,-0.625220775604248,-0.48478004336357117
1772458655762447000,7.057447021484375,-0.23731033504009247,-0.5795195698738098,-0.4663965106010437
1772458655772515000,7.06751513671875,-0.2538750469684601,-0.44133538007736206,-0.40295282006263733
1772458655782584000,7.077583984375,-0.2425089329481125,-0.24892225861549377,-0.28717029094696045
1772458655792652000,7.087652099609375,-0.20421390235424042,-0.030493013560771942,-0.1345336139202118
1772458655802720000,7.097719970703125,-0.1598682701587677,0.18481557071208954,0.03507645055651665
1772458655812788000,7.1077880859375,-0.12383304536342621,0.34667012095451355,0.19008095562458038
1772458655822857000,7.11785693359375,-0.08352743834257126,0.4200439453125,0.3200288414955139
1772458655832925200,7.12792529296875,-0.03303459659218788,0.4099309742450714,0.4176312983036041
1772458655842993000,7.137992919921875,0.03212203457951546,0.33412542939186096,0.4814949631690979
1772458655853060900,7.148060791015625,0.10765227675437927,0.23477128148078918,0.5328584909439087
1772458655863130000,7.158130126953125,0.18120531737804413,0.10831721127033234,0.5522007942199707
1772458655873198000,7.168197998046875,0.2531375586986542,-0.0248841755092144,0.557267963886261
1772458655883266000,7.17826611328125,0.3282754421234131,-0.14081770181655884,0.5392801761627197
1772458655893334000,7.188333984375,0.4025725722312927,-0.23396122455596924,0.5064745545387268
1772458655903402000,7.198402099609375,0.46077996492385864,-0.2985069155693054,0.44917988777160645
1772458655913471000,7.208470947265625,0.4801052510738373,-0.32677868008613586,0.37037989497184753
1772458655923539000,7.2185390625,0.45896241068840027,-0.34649431705474854,0.2704397141933441
1772458655933607200,7.228607177734375,0.41095665097236633,-0.3421967327594757,0.15161025524139404
1772458655943675100,7.238675048828125,0.34754467010498047,-0.30657827854156494,0.036742258816957474
1772458655953744000,7.248743896484375,0.2681051790714264,-0.25446006655693054,-0.06912638247013092
1772458655963812000,7.25881201171875,0.16731703281402588,-0.1742858588695526,-0.150564506649971
1772458655973880000,7.268880126953125,0.07067033648490906,-0.06282373517751694,-0.21734674274921417
1772458655983948000,7.278947998046875,-0.019196970388293266,0.04298711568117142,-0.2690722346305847
1772458655994017000,7.28901708984375,-0.0755927637219429,0.13101910054683685,-0.30872565507888794
1772458656004085000,7.2990849609375,-0.10618076473474503,0.19845566153526306,-0.3406068980693817
1772458656014153000,7.309153076171875,-0.11261133849620819,0.25707072019577026,-0.3533996343612671
1772458656024221000,7.319220947265625,-0.10570523142814636,0.33342379331588745,-0.34119412302970886
1772458656034289200,7.3292890625,-0.08205685019493103,0.4172697961330414,-0.30880501866340637
1772458656044358000,7.33935791015625,-0.053189244121313095,0.48462405800819397,-0.2795374095439911
1772458656054425900,7.34942578125,-0.011213032528758049,0.5121231079101562,-0.2663624882698059
1772458656064493800,7.359493896484375,0.034620501101017,0.5091030597686768,-0.26351237297058105
1772458656074562000,7.36956201171875,0.08137187361717224,0.46535104513168335,-0.2663300037384033
1772458656084631000,7.379631103515625,0.12157921493053436,0.3713124096393585,-0.26699525117874146
1772458656094699000,7.389698974609375,0.14778928458690643,0.2541070282459259,-0.2578212022781372
1772458656104767000,7.39976708984375,0.16188272833824158,0.13301894068717957,-0.24258260428905487
1772458656114835000,7.4098349609375,0.15761259198188782,0.034971147775650024,-0.2192104160785675
1772458656124904000,7.419904052734375,0.14118807017803192,-0.00892573781311512,-0.19358575344085693
1772458656134972200,7.42997216796875,0.12192840874195099,-0.029710885137319565,-0.17606428265571594
1772458656145040100,7.4400400390625,0.10645757615566254,-0.04538918286561966,-0.16940423846244812
1772458656155108000,7.450108154296875,0.09717107564210892,-0.03419594094157219,-0.17237792909145355
1772458656165175800,7.46017578125,0.08568086475133896,-0.00011440319940447807,-0.18416614830493927
1772458656175245000,7.4702451171875,0.07739913463592529,0.03786785900592804,-0.19284725189208984
1772458656185313000,7.48031298828125,0.07592614740133286,0.07834471762180328,-0.19770778715610504
1772458656195381000,7.490381103515625,0.07481127977371216,0.12427245825529099,-0.18998277187347412
1772458656205449200,7.50044921875,0.08094774186611176,0.17588770389556885,-0.16016948223114014
1772458656215518000,7.51051806640625,0.08379240334033966,0.21316516399383545,-0.12027212232351303
1772458656225586000,7.5205859375,0.08873815834522247,0.22580105066299438,-0.06531460583209991
1772458656235654100,7.530654052734375,0.08987149596214294,0.22017845511436462,-0.005645147990435362
1772458656245722000,7.54072216796875,0.09658586233854294,0.20451001822948456,0.06012321263551712
1772458656255790800,7.550790771484375,0.1027306467294693,0.17613908648490906,0.12211894243955612
1772458656265859000,7.560859130859375,0.11161334812641144,0.1433529108762741,0.17125214636325836
1772458656275927000,7.570927001953125,0.12888532876968384,0.11299658566713333,0.2242860496044159
1772458656285995000,7.5809951171875,0.15346044301986694,0.0761038213968277,0.2773735225200653
1772458656296063000,7.59106298828125,0.18304507434368134,0.05220812186598778,0.32106640934944153
1772458656306132000,7.601132080078125,0.20500603318214417,0.05596770718693733,0.35171937942504883
1772458656316200000,7.611199951171875,0.23058083653450012,0.0907277911901474,0.3731386661529541
1772458656326268000,7.621267822265625,0.25341108441352844,0.13864178955554962,0.3804381191730499
1772458656336336000,7.6313359375,0.2811870276927948,0.18083101511001587,0.3736917972564697
1772458656346405000,7.641405029296875,0.3095473051071167,0.20296187698841095,0.34497785568237305
1772458656356473000,7.65147314453125,0.3419540822505951,0.16491946578025818,0.2919788360595703
1772458656366540800,7.661540771484375,0.37202969193458557,0.06726747751235962,0.22545810043811798
1772458656376609000,7.671609130859375,0.38587212562561035,-0.040664345026016235,0.15567103028297424
1772458656386678000,7.681677978515625,0.3813852369785309,-0.13178253173828125,0.07744760811328888
1772458656396746000,7.69174609375,0.34983786940574646,-0.2304411381483078,0.0027747040148824453
1772458656406814200,7.701814208984375,0.3008279800415039,-0.3129352033138275,-0.08360279351472855
1772458656416882000,7.7118818359375,0.23471248149871826,-0.3695394992828369,-0.16059397161006927
1772458656426951000,7.721950927734375,0.14757224917411804,-0.372000515460968,-0.20828665792942047
1772458656437019100,7.73201904296875,0.057686883956193924,-0.29014089703559875,-0.2047305554151535
1772458656447087000,7.742087158203125,-0.010491104796528816,-0.13490550220012665,-0.14156916737556458
1772458656457155000,7.752155029296875,-0.04226803779602051,0.037734441459178925,-0.036172959953546524
1772458656467223000,7.76222314453125,-0.040275994688272476,0.1718275249004364,0.0663217231631279
1772458656477292000,7.7722919921875,-0.01764531061053276,0.2595515549182892,0.1615172028541565
1772458656487360000,7.782360107421875,-0.001450894633308053,0.31159505248069763,0.24508507549762726
1772458656497428000,7.792427978515625,-0.009713884443044662,0.36623433232307434,0.32361742854118347
1772458656507496200,7.80249609375,-0.04927631467580795,0.4395502507686615,0.40395569801330566
1772458656517565000,7.81256494140625,-0.11474155634641647,0.5122386813163757,0.47746214270591736
1772458656527633000,7.8226328125,-0.19800448417663574,0.5887872576713562,0.5408168435096741
1772458656537701000,7.832701171875,-0.273295134305954,0.6120865941047668,0.5772936344146729
1772458656547769000,7.84276904296875,-0.31769269704818726,0.5693103671073914,0.5842180848121643
1772458656557837800,7.852837890625,-0.33891189098358154,0.47815194725990295,0.5568535923957825
1772458656567905800,7.86290576171875,-0.3371952176094055,0.37299543619155884,0.5032026171684265
1772458656577973800,7.872973876953125,-0.31828561425209045,0.2634505033493042,0.42017728090286255
1772458656588041700,7.883041748046875,-0.28318357467651367,0.16524270176887512,0.3055356442928314
1772458656598109700,7.893109619140625,-0.2299969345331192,0.09868437796831131,0.17861150205135345
1772458656608179000,7.903178955078125,-0.1516752392053604,0.040398966521024704,0.06887995451688766
1772458656618247000,7.913246826171875,-0.0651676282286644,0.005865785293281078,-0.009234292432665825
1772458656628314600,7.923314697265625,0.020410660654306412,-0.025959523394703865,-0.05192875862121582
1772458656638382600,7.933382568359375,0.08800366520881653,-0.08098132908344269,-0.06469009071588516
1772458656648451800,7.943451904296875,0.13906791806221008,-0.13327115774154663,-0.06069881096482277
1772458656658519800,7.953519775390625,0.17066961526870728,-0.1902483105659485,-0.04338719695806503
1772458656668587800,7.963587890625,0.17555199563503265,-0.2332402467727661,-0.02255009487271309
1772458656678655700,7.97365576171875,0.16871176660060883,-0.2795945107936859,-0.008489139378070831
1772458656688723000,7.983722900390625,0.13723747432231903,-0.26516151428222656,-0.007481398526579142
1772458656698791000,7.993791015625,0.09818217158317566,-0.191145658493042,-0.015579002909362316
1772458656708859600,8.003859619140625,0.06033412367105484,-0.09885993599891663,-0.04694491624832153
1772458656718928000,8.013927978515625,0.024849528446793556,-0.006775137037038803,-0.09487941861152649
1772458656728995800,8.023995849609374,-0.012689058668911457,0.07343314588069916,-0.1732969880104065
1772458656739063800,8.034063720703125,-0.044510483741760254,0.15192179381847382,-0.2631666958332062
1772458656749131800,8.0441318359375,-0.07036737352609634,0.22192244231700897,-0.35173916816711426
1772458656759200800,8.05420068359375,-0.08578947931528091,0.26699838042259216,-0.4237087070941925
1772458656769268700,8.064268798828126,-0.10199880599975586,0.30139684677124023,-0.469921737909317
1772458656779336700,8.074336669921875,-0.11756391823291779,0.31869834661483765,-0.4895937144756317
1772458656789405000,8.084405029296875,-0.12288704514503479,0.3241564929485321,-0.49041953682899475
1772458656799473700,8.0944736328125,-0.12045563757419586,0.32066574692726135,-0.4751734733581543
1772458656809541600,8.104541748046875,-0.11050579696893692,0.3027658462524414,-0.45562508702278137
1772458656819609600,8.114609619140625,-0.09569084644317627,0.2705281972885132,-0.4247033894062042
1772458656829677800,8.124677734375,-0.07349339872598648,0.2299613356590271,-0.3835096061229706
1772458656839746800,8.134746826171876,-0.04489333927631378,0.1801067590713501,-0.3402838408946991
1772458656849814500,8.144814453125,-0.013694675639271736,0.12818069756031036,-0.2979726195335388
1772458656859882800,8.1548828125,0.020603114739060402,0.0768471360206604,-0.2639171779155731
1772458656869950700,8.16495068359375,0.051668357104063034,0.04535605013370514,-0.2397812157869339
1772458656880019700,8.175019775390625,0.07793223112821579,0.02201281674206257,-0.21066567301750183
1772458656890088000,8.185087890625,0.10159015655517578,-0.006129338871687651,-0.18625648319721222
1772458656900156000,8.195156005859374,0.1265319436788559,-0.06079781427979469,-0.16687798500061035
1772458656910223600,8.2052236328125,0.1472579836845398,-0.11753779649734497,-0.14475537836551666
1772458656920291600,8.21529150390625,0.1575949341058731,-0.1622469127178192,-0.11963030695915222
1772458656930360800,8.22536083984375,0.16300594806671143,-0.2067725658416748,-0.09250867366790771
1772458656940428800,8.2354287109375,0.16999468207359314,-0.28259173035621643,-0.061146754771471024
1772458656950496800,8.245496826171875,0.18115173280239105,-0.38139528036117554,-0.037688832730054855
1772458656960564700,8.255564697265624,0.19025163352489471,-0.4970141053199768,-0.015091645531356335
1772458656970633700,8.2656337890625,0.1952224224805832,-0.6042838096618652,0.00536542572081089
1772458656980701700,8.27570166015625,0.19492842257022858,-0.6789164543151855,0.016049228608608246
1772458656990770000,8.28577001953125,0.1840970814228058,-0.7213435173034668,0.02027832716703415
1772458657000838000,8.295837890625,0.17148593068122864,-0.7370723485946655,0.02455376461148262
1772458657010906600,8.30590673828125,0.15162301063537598,-0.7243515253067017,0.04566118121147156
1772458657020974800,8.315974853515625,0.11048020422458649,-0.6453051567077637,0.09224652498960495
1772458657031042800,8.326042724609374,0.05736318975687027,-0.47255393862724304,0.16788962483406067
1772458657041110800,8.33611083984375,0.015992525964975357,-0.30764010548591614,0.2114807665348053
1772458657051179500,8.346179443359375,-0.0002836487255990505,-0.2503696382045746,0.18226483464241028
1772458657061247700,8.356247802734375,0.010365857742726803,-0.2760939300060272,0.0914507731795311
1772458657071316700,8.366316650390624,0.008376209996640682,-0.31621578335762024,-0.027056697756052017
1772458657081384700,8.376384765625,-0.01579340547323227,-0.3452399969100952,-0.1551494300365448
1772458657091453000,8.386452880859375,-0.06589172780513763,-0.39075207710266113,-0.2987135052680969
1772458657101521000,8.39652099609375,-0.13696490228176117,-0.438949316740036,-0.451657772064209
1772458657111589600,8.406589599609376,-0.21501629054546356,-0.46941107511520386,-0.5914236903190613
1772458657121657900,8.416657958984375,-0.2982466220855713,-0.45351195335388184,-0.7075921297073364
1772458657131725800,8.426725830078125,-0.36638492345809937,-0.39041048288345337,-0.7882275581359863
1772458657141793800,8.436793701171876,-0.423476904630661,-0.3183651864528656,-0.8246614933013916
1772458657151862800,8.44686279296875,-0.469877690076828,-0.26497334241867065,-0.856612503528595
1772458657161930800,8.4569306640625,-0.49697086215019226,-0.14368732273578644,-0.812542200088501
1772458657171998700,8.466998779296874,-0.48772725462913513,-0.07433328032493591,-0.725401759147644
1772458657182066700,8.477066650390626,-0.43158233165740967,0.030022811144590378,-0.6039093732833862
1772458657192136000,8.487135986328125,-0.35229256749153137,0.1876734346151352,-0.44278812408447266
1772458657202203600,8.49720361328125,-0.29727625846862793,0.28146690130233765,-0.27959492802619934
1772458657212271600,8.507271728515626,-0.2627776861190796,0.33123472332954407,-0.13919948041439056
1772458657222339800,8.51733984375,-0.19900403916835785,0.41040071845054626,0.0030266332905739546
1772458657232408800,8.527408935546875,-0.12716473639011383,0.4076225161552429,0.11267882585525513
1772458657242476800,8.537476806640624,-0.07172761112451553,0.3537716567516327,0.1974288672208786
1772458657252544800,8.547544677734376,-0.031542643904685974,0.27433595061302185,0.27200964093208313
1772458657262612700,8.55761279296875,0.009656129404902458,0.14809507131576538,0.32985934615135193
1772458657272680700,8.5676806640625,0.043465759605169296,0.03236447647213936,0.3790394365787506
1772458657282749700,8.577749755859376,0.06957394629716873,-0.048875488340854645,0.4183977544307709
1772458657292818000,8.58781787109375,0.10047540068626404,-0.12299712002277374,0.43786945939064026
1772458657302886000,8.597885986328125,0.12666328251361847,-0.17616963386535645,0.4366672933101654
1772458657312953600,8.60795361328125,0.15068498253822327,-0.19773991405963898,0.4110482335090637
1772458657323022800,8.61802294921875,0.14457878470420837,-0.20722034573554993,0.35801962018013
1772458657333090800,8.6280908203125,0.1240716502070427,-0.18940167129039764,0.2960220277309418
1772458657343158800,8.63815869140625,0.09445244818925858,-0.12794572114944458,0.2271028757095337
1772458657353226800,8.648226806640626,0.021688228473067284,-0.024260060861706734,0.1603320986032486
1772458657363295700,8.658295654296875,-0.06631533801555634,0.09181589633226395,0.08793167769908905
1772458657373363700,8.66836376953125,-0.14929145574569702,0.2017620950937271,0.02624540403485298
1772458657383431700,8.678431640625,-0.23152640461921692,0.29495635628700256,-0.03244054690003395
1772458657393500000,8.6885,-0.2918110489845276,0.36903539299964905,-0.08865455538034439
1772458657403568600,8.698568603515625,-0.3270803391933441,0.40321168303489685,-0.14339236915111542
1772458657413636600,8.70863671875,-0.338366836309433,0.41069647669792175,-0.18784265220165253
1772458657423704800,8.718704833984376,-0.3293571472167969,0.4130893647670746,-0.22059474885463715
1772458657433772800,8.728772705078125,-0.3125121295452118,0.3923148214817047,-0.23927468061447144
1772458657443841800,8.738841796875,-0.2809515595436096,0.34817832708358765,-0.24704977869987488
1772458657453909800,8.74890966796875,-0.22821860015392303,0.29689544439315796,-0.23814231157302856
1772458657463977700,8.758977783203125,-0.16146869957447052,0.24826779961585999,-0.2158695012331009
1772458657474045700,8.769045654296875,-0.09986206889152527,0.19146683812141418,-0.18914814293384552
1772458657484114700,8.77911474609375,-0.04780126363039017,0.1355135440826416,-0.16079293191432953
1772458657494183000,8.789182861328126,-0.00026064319536089897,0.0945003405213356,-0.12295766174793243
1772458657504251000,8.7992509765625,0.03990856185555458,0.043493784964084625,-0.0883735865354538
1772458657514318600,8.809318603515624,0.07935397326946259,-0.028357770293951035,-0.07161644846200943
1772458657524387800,8.819387939453126,0.11771931499242783,-0.09547197073698044,-0.06520462036132812
1772458657534455800,8.829455810546875,0.16191686689853668,-0.14585977792739868,-0.07282605767250061
1772458657544523800,8.839523681640625,0.21197134256362915,-0.18878361582756042,-0.08994352072477341
1772458657554591700,8.849591796875,0.2614366114139557,-0.2137097269296646,-0.10838112235069275
1772458657564660700,8.85966064453125,0.30357009172439575,-0.21611806750297546,-0.12119891494512558
1772458657574728700,8.869728759765625,0.33052635192871094,-0.20553305745124817,-0.12006067484617233
1772458657584796700,8.879796630859374,0.34257423877716064,-0.19473685324192047,-0.09960254281759262
1772458657594864600,8.88986474609375,0.3375054597854614,-0.170417919754982,-0.05811528116464615
1772458657604933600,8.89993359375,0.31232723593711853,-0.13937975466251373,0.002746995072811842
1772458657615001600,8.910001708984375,0.27155476808547974,-0.09736493974924088,0.0688256099820137
1772458657625069600,8.920069580078126,0.218263179063797,-0.04577367752790451,0.1385924518108368
1772458657635137800,8.9301376953125,0.15483839809894562,0.008322312496602535,0.202032670378685
1772458657645206800,8.940206787109375,0.10425091534852982,0.0535653755068779,0.2452496588230133
1772458657655274800,8.950274658203124,0.06845962256193161,0.11390434205532074,0.28660109639167786
1772458657665342500,8.960342529296875,0.05070783570408821,0.1580030769109726,0.31853821873664856
1772458657675410700,8.97041064453125,0.052309196442365646,0.16865599155426025,0.338188111782074
1772458657685479700,8.980479736328125,0.0694303885102272,0.164436936378479,0.36010271310806274
1772458657695547600,8.990547607421876,0.10571915656328201,0.16217005252838135,0.36947304010391235
1772458657705616000,9.000615966796875,0.15486054122447968,0.17210456728935242,0.39073866605758667
1772458657715683600,9.01068359375,0.19447453320026398,0.20510779321193695,0.3997851610183716
1772458657725752600,9.020752685546874,0.22516858577728271,0.24567167460918427,0.4011441767215729
1772458657735820800,9.03082080078125,0.24284584820270538,0.23976744711399078,0.38956233859062195
1772458657745888800,9.040888671875,0.25286200642585754,0.15393708646297455,0.34148964285850525
1772458657755956700,9.050956787109374,0.25409266352653503,-0.002227220218628645,0.27123358845710754
1772458657766025700,9.061025634765626,0.22584253549575806,-0.18602560460567474,0.17379385232925415
1772458657776093700,9.07109375,0.15752020478248596,-0.3660140037536621,0.039612606167793274
1772458657786161700,9.08116162109375,0.043042782694101334,-0.5041764974594116,-0.12106335908174515
1772458657796229600,9.091229736328126,-0.08716635406017303,-0.5814915299415588,-0.27187442779541016
1772458657806298600,9.101298583984375,-0.18746089935302734,-0.6045255064964294,-0.3605992794036865
1772458657816366600,9.11136669921875,-0.2538132965564728,-0.5815536379814148,-0.3807380795478821
1772458657826434600,9.1214345703125,-0.27416783571243286,-0.5197305679321289,-0.3337292969226837
1772458657836502800,9.131502685546875,-0.2466254085302353,-0.4166249632835388,-0.23417127132415771
1772458657846571800,9.14157177734375,-0.19406355917453766,-0.23598770797252655,-0.08747956901788712
1772458657856639700,9.1516396484375,-0.13267183303833008,0.029664473608136177,0.10484647005796432
1772458657866707500,9.16170751953125,-0.10713201761245728,0.3328455686569214,0.30114486813545227
1772458657876775700,9.171775634765625,-0.14846108853816986,0.6059298515319824,0.45880746841430664
1772458657886844700,9.1818447265625,-0.22285287082195282,0.7992534637451172,0.5442970395088196
1772458657896912600,9.19191259765625,-0.28590190410614014,0.8873782157897949,0.5718826055526733
1772458657906980900,9.20198095703125,-0.3257603049278259,0.8677182793617249,0.5442994832992554
1772458657917048600,9.212048583984375,-0.3524038791656494,0.8078376650810242,0.47256773710250854
1772458657927117600,9.22211767578125,-0.370604932308197,0.7483649849891663,0.3909072279930115
1772458657937185800,9.232185791015626,-0.3581884801387787,0.665833055973053,0.3132723569869995
1772458657947253800,9.242253662109375,-0.3129439651966095,0.5746826529502869,0.23081478476524353
1772458657957321700,9.25232177734375,-0.24394755065441132,0.5172337293624878,0.18143072724342346
1772458657967390700,9.262390625,-0.16108664870262146,0.43360692262649536,0.17045317590236664
1772458657977458700,9.272458740234375,-0.07721678167581558,0.3458315432071686,0.18397776782512665
1772458657987526700,9.282526611328125,-0.006538027431815863,0.24776135385036469,0.22447246313095093
1772458657997594600,9.2925947265625,0.04537230730056763,0.10926046967506409,0.2819107472896576
1772458658007663600,9.30266357421875,0.06746923923492432,-0.057223476469516754,0.3385356366634369
1772458658017731600,9.312731689453125,0.05303091183304787,-0.23603130877017975,0.39357465505599976
1772458658027799600,9.322799560546875,0.01762295886874199,-0.4180191159248352,0.43738284707069397
1772458658037867800,9.33286767578125,-0.03412838652729988,-0.5523356199264526,0.4577845335006714
1772458658047936800,9.342936767578125,-0.0997767522931099,-0.5849077701568604,0.44796785712242126
1772458658058004700,9.353004638671875,-0.17235374450683594,-0.5158120393753052,0.4228513240814209
1772458658068072700,9.36307275390625,-0.2317468672990799,-0.40159475803375244,0.37904712557792664
1772458658078140700,9.373140625,-0.2757833003997803,-0.24344825744628906,0.3372778296470642
1772458658088209700,9.383209716796875,-0.29641100764274597,-0.07387252151966095,0.28840136528015137
1772458658098277600,9.393277587890625,-0.30496376752853394,0.0838278979063034,0.23004034161567688
1772458658108345900,9.403345947265626,-0.30036288499832153,0.22143122553825378,0.1476554572582245
1772458658118413600,9.41341357421875,-0.2859535813331604,0.33059951663017273,0.04331732913851738
1772458658128482600,9.423482666015625,-0.2702898383140564,0.4079870581626892,-0.060718536376953125
1772458658138550800,9.43355078125,-0.25535455346107483,0.44846606254577637,-0.14657965302467346
1772458658148618800,9.44361865234375,-0.23759101331233978,0.45300623774528503,-0.20555773377418518
1772458658158686700,9.453686767578125,-0.23036904633045197,0.4234723150730133,-0.24701383709907532
1772458658168755700,9.463755615234374,-0.23287370800971985,0.3685203194618225,-0.2688852846622467
1772458658178823700,9.47382373046875,-0.24108874797821045,0.3126645088195801,-0.278683602809906
1772458658188891600,9.4838916015625,-0.24914617836475372,0.2654861509799957,-0.28791573643684387
1772458658198959600,9.493959716796875,-0.25791940093040466,0.22046726942062378,-0.29488709568977356
1772458658209028600,9.504028564453124,-0.2638320326805115,0.19072577357292175,-0.31224876642227173
1772458658219096600,9.5140966796875,-0.2613190710544586,0.17752768099308014,-0.3299476206302643
1772458658229164500,9.52416455078125,-0.23624765872955322,0.1928953230381012,-0.34856924414634705
1772458658239232800,9.534232666015624,-0.19792583584785461,0.21491780877113342,-0.3640645742416382
1772458658249301800,9.5443017578125,-0.15042448043823242,0.22229327261447906,-0.3798312842845917
1772458658259369700,9.55436962890625,-0.10630922019481659,0.20937934517860413,-0.3913896679878235
1772458658269437700,9.564437744140625,-0.06351861357688904,0.14558084309101105,-0.4015067517757416
1772458658279506700,9.574506591796874,-0.027215730398893356,0.0632484182715416,-0.39463767409324646
1772458658289574700,9.58457470703125,0.008696301840245724,-0.03734377399086952,-0.38073408603668213
1772458658299642600,9.594642578125,0.04217329993844032,-0.10954207926988602,-0.35958540439605713
1772458658309710800,9.6047109375,0.07187563925981522,-0.14721675217151642,-0.3268176019191742
1772458658319779600,9.614779541015626,0.09061896800994873,-0.1758582442998886,-0.30261746048927307
1772458658329847600,9.62484765625,0.11074107140302658,-0.21404524147510529,-0.2913690507411957
1772458658339915800,9.634915771484375,0.1313430219888687,-0.28012093901634216,-0.29776063561439514
1772458658349983700,9.644983642578126,0.15587669610977173,-0.38731610774993896,-0.3239816129207611
1772458658360052500,9.655052490234375,0.18365612626075745,-0.5081713795661926,-0.3677314817905426
1772458658370120700,9.66512060546875,0.1956900954246521,-0.6128948926925659,-0.41574135422706604
1772458658380188700,9.675188720703124,0.2000632882118225,-0.7022807002067566,-0.47159263491630554
1772458658390256600,9.685256591796875,0.19593124091625214,-0.7734607458114624,-0.5231884717941284
1772458658400326000,9.695325927734375,0.1995193064212799,-0.803377091884613,-0.5638573169708252
1772458658410393600,9.7053935546875,0.20746058225631714,-0.7779190540313721,-0.5852180123329163
1772458658420461600,9.715461669921876,0.2277892827987671,-0.705669105052948,-0.5908753275871277
1772458658430529500,9.725529541015625,0.24567396938800812,-0.6567946076393127,-0.604079008102417
1772458658440598800,9.735598876953125,0.25270843505859375,-0.6286916136741638,-0.6314619183540344
1772458658450666800,9.745666748046874,0.24020852148532867,-0.6089361906051636,-0.6635921597480774
1772458658460734700,9.755734619140625,0.21605311334133148,-0.584385871887207,-0.6970164179801941
1772458658470802700,9.765802734375,0.18198654055595398,-0.5302708148956299,-0.7264654040336609
1772458658480871700,9.77587158203125,0.1443888247013092,-0.41921594738960266,-0.7293607592582703
1772458658490939600,9.785939697265626,0.09761147946119308,-0.2873165011405945,-0.7052637338638306
1772458658501008000,9.7960078125,0.05990670993924141,-0.18581463396549225,-0.6558111906051636
1772458658511075800,9.806075927734375,0.029555033892393112,-0.13303112983703613,-0.5774996280670166
1772458658521144600,9.81614453125,0.016153739765286446,-0.10896334052085876,-0.4769708812236786
1772458658531212500,9.826212646484375,0.019695378839969635,-0.07007800042629242,-0.3458373546600342
1772458658541280800,9.83628076171875,0.034194160252809525,-0.006375454366207123,-0.18553608655929565
1772458658551348700,9.8463486328125,0.06412951648235321,0.0459301695227623,-0.013971004635095596
1772458658561417500,9.85641748046875,0.09458835422992706,0.0706336498260498,0.1596074402332306
1772458658571485400,9.8664853515625,0.11835222691297531,0.061809174716472626,0.31376317143440247
1772458658581553700,9.8765537109375,0.1313100904226303,0.018970360979437828,0.4455324113368988
1772458658591621600,9.88662158203125,0.1324443519115448,-0.048983875662088394,0.5480478405952454
1772458658601690600,9.896690673828125,0.12670683860778809,-0.09807658940553665,0.6294971704483032
1772458658611758600,9.906758544921875,0.11209890991449356,-0.12790408730506897,0.6864254474639893
1772458658621826600,9.91682666015625,0.09433989226818085,-0.1517481654882431,0.7138434648513794
1772458658631894500,9.92689453125,0.07800384610891342,-0.16572639346122742,0.7176501750946045
1772458658641963800,9.9369638671875,0.05893081799149513,-0.17892181873321533,0.6902055144309998
1772458658652031700,9.94703173828125,0.033981893211603165,-0.21050192415714264,0.6296023726463318
1772458658662099700,9.957099609375,0.006356923840939999,-0.24802131950855255,0.5414501428604126
1772458658672168700,9.967168701171875,-0.03448477014899254,-0.27125978469848633,0.43352046608924866
1772458658682236700,9.977236572265625,-0.09231558442115784,-0.2620747983455658,0.31722503900527954
1772458658692304600,9.9873046875,-0.15991604328155518,-0.2348111867904663,0.2053120732307434
1772458658702372600,9.99737255859375,-0.22517921030521393,-0.19546937942504883,0.10536710917949677
1772458658712441600,10.007441650390625,-0.2867088317871094,-0.15558908879756927,0.01637837290763855
1772458658722509600,10.017509521484374,-0.3352758586406708,-0.1254333108663559,-0.06932161748409271
1772458658732577500,10.02757763671875,-0.37670227885246277,-0.08100056648254395,-0.13415147364139557
1772458658742645800,10.037645751953125,-0.4036233723163605,-0.02758793905377388,-0.165127232670784
1772458658752714800,10.04771484375,-0.4219740331172943,0.023067370057106018,-0.16750997304916382
1772458658762782500,10.057782470703126,-0.42932674288749695,0.053029000759124756,-0.1551979035139084
1772458658772850700,10.0678505859375,-0.42395052313804626,0.06926938146352768,-0.13968124985694885
1772458658782918700,10.077918701171875,-0.4124123752117157,0.08228744566440582,-0.11255642771720886
1772458658792987600,10.087987548828124,-0.38398098945617676,0.09081102162599564,-0.08626383543014526
1772458658803055600,10.0980556640625,-0.35468676686286926,0.08687060326337814,-0.0669681653380394
1772458658813123600,10.10812353515625,-0.3384522497653961,0.08220671117305756,-0.058550719171762466
1772458658823191600,10.118191650390624,-0.3311708867549896,0.07554055750370026,-0.05416608974337578
1772458658833260500,10.128260498046876,-0.33979931473731995,0.07204626500606537,-0.05704311281442642
1772458658843328800,10.138328857421875,-0.349655419588089,0.07264654338359833,-0.06165650486946106
1772458658853396700,10.148396728515625,-0.36012306809425354,0.06968498975038528,-0.07629910111427307
1772458658863464700,10.158464599609376,-0.3752000033855438,0.07949820160865784,-0.10064545273780823
1772458658873533700,10.16853369140625,-0.3895966410636902,0.11351250857114792,-0.13072292506694794
1772458658883601700,10.1786015625,-0.40842491388320923,0.15817691385746002,-0.18831698596477509
1772458658893669600,10.188669677734374,-0.41852065920829773,0.2097361981868744,-0.24804262816905975
1772458658903737600,10.198737548828126,-0.42162561416625977,0.24664148688316345,-0.31064900755882263
1772458658913806600,10.208806640625,-0.4197615683078766,0.26763132214546204,-0.3740178644657135
1772458658923874600,10.21887451171875,-0.41484883427619934,0.27160289883613586,-0.43331262469291687
1772458658933942500,10.228942626953126,-0.4066932201385498,0.27721652388572693,-0.4863305389881134
1772458658944011800,10.23901171875,-0.39100560545921326,0.26673272252082825,-0.5212587118148804
1772458658954079700,10.249079833984375,-0.36096620559692383,0.2550096809864044,-0.5362182259559631
1772458658964147500,10.2591474609375,-0.3218078911304474,0.23868371546268463,-0.5337758660316467
1772458658974215700,10.269215576171876,-0.27623113989830017,0.21177397668361664,-0.5232635736465454
1772458658984284700,10.27928466796875,-0.22510723769664764,0.16571193933486938,-0.5025728940963745
1772458658994352600,10.2893525390625,-0.1772395819425583,0.10150225460529327,-0.48166921734809875
1772458659004420600,10.299420654296876,-0.12569968402385712,0.018654242157936096,-0.45984914898872375
1772458659014488600,10.309488525390625,-0.07546363770961761,-0.08335337042808533,-0.44088929891586304
1772458659024557600,10.3195576171875,-0.03181442618370056,-0.20304355025291443,-0.4000374972820282
1772458659034625500,10.32962548828125,0.022544052451848984,-0.3162015378475189,-0.3407107889652252
1772458659044693800,10.33969384765625,0.07312547415494919,-0.36982908844947815,-0.2394760251045227
1772458659054761700,10.34976171875,0.11580666899681091,-0.3697095811367035,-0.1095513179898262
1772458659064830500,10.35983056640625,0.16191478073596954,-0.3219050467014313,0.04903033375740051
1772458659074898700,10.369898681640626,0.2190302014350891,-0.23725862801074982,0.1988547146320343
1772458659084966700,10.379966552734375,0.28790485858917236,-0.1259147971868515,0.3290742337703705
1772458659095034600,10.39003466796875,0.3439142107963562,-0.017391590401530266,0.41189640760421753
1772458659105103600,10.400103515625,0.37880080938339233,0.048195406794548035,0.4243035316467285
1772458659115171600,10.410171630859375,0.39240238070487976,0.05413319170475006,0.36985868215560913
1772458659125239600,10.420239501953125,0.39401811361312866,0.030158884823322296,0.27237871289253235
1772458659135307500,10.4303076171875,0.38116371631622314,-0.015002205967903137,0.13734741508960724
1772458659145376800,10.440376708984376,0.34817326068878174,-0.06182350963354111,0.0034543287474662066
1772458659155444700,10.45044482421875,0.30344274640083313,-0.08925934135913849,-0.0886007621884346
1772458659165512400,10.460512451171875,0.2605685293674469,-0.09436116367578506,-0.10546203702688217
1772458659175580700,10.47058056640625,0.23123452067375183,-0.06421776115894318,-0.03113747388124466
1772458659185649700,10.480649658203125,0.22685815393924713,-0.005411434452980757,0.11822964251041412
1772458659195717600,10.490717529296875,0.25848379731178284,0.0034461680334061384,0.30099040269851685
1772458659205785900,10.500785888671874,0.3066374957561493,-0.08063915371894836,0.45686548948287964
1772458659215854600,10.5108544921875,0.34937676787376404,-0.19724324345588684,0.5524114370346069
1772458659225922600,10.520922607421875,0.3724122941493988,-0.2615860104560852,0.6149775981903076
1772458659235990500,10.530990478515625,0.3654378652572632,-0.25044894218444824,0.6423354744911194
1772458659246058800,10.541058837890626,0.3479137420654297,-0.1619979292154312,0.6610684394836426
1772458659256127500,10.55112744140625,0.31718432903289795,0.0007440038025379181,0.7040334343910217
1772458659266195500,10.561195556640625,0.27392578125,0.18758100271224976,0.751230776309967
1772458659276263700,10.571263671875,0.21525436639785767,0.33072203397750854,0.778799831867218
1772458659286331600,10.58133154296875,0.1738390177488327,0.4148782193660736,0.7581904530525208
1772458659296400600,10.591400634765625,0.1602439135313034,0.41490378975868225,0.6940189003944397
1772458659306468600,10.601468505859375,0.16978894174098969,0.35711801052093506,0.6117751598358154
1772458659316536600,10.61153662109375,0.18136510252952576,0.2720676064491272,0.5259577631950378
1772458659326604500,10.6216044921875,0.1819470077753067,0.18126952648162842,0.46635618805885315
1772458659336673800,10.631673828125,0.1688680797815323,0.10237894207239151,0.42867353558540344
1772458659346741800,10.64174169921875,0.1543501317501068,0.03421613574028015,0.41533589363098145
1772458659356809700,10.651809814453125,0.14466463029384613,-0.027004539966583252,0.4022970497608185
1772458659366877400,10.66187744140625,0.13284924626350403,-0.0734735056757927,0.3818863034248352
1772458659376946700,10.67194677734375,0.12556326389312744,-0.07354983687400818,0.3703007698059082
1772458659387014700,10.6820146484375,0.11349594593048096,-0.038274139165878296,0.35357052087783813
1772458659397082600,10.69208251953125,0.0901125967502594,0.018344134092330933,0.3320276737213135
1772458659407151600,10.702151611328125,0.061606913805007935,0.08652212470769882,0.29885348677635193
1772458659417219600,10.712219482421874,0.04207848384976387,0.1713811606168747,0.2581939399242401
1772458659427287600,10.72228759765625,0.03515426814556122,0.26474305987358093,0.21386508643627167
1772458659437355500,10.73235546875,0.040596283972263336,0.35378018021583557,0.1691567301750183
1772458659447424800,10.7424248046875,0.06180703267455101,0.4232945144176483,0.12159828096628189
1772458659457492500,10.752492431640626,0.07457443326711655,0.4555891156196594,0.06905889511108398
1772458659467560400,10.762560546875,0.08609659969806671,0.45721736550331116,0.015940286219120026
1772458659477628700,10.772628662109375,0.0892505794763565,0.44251272082328796,-0.027085477486252785
1772458659487697700,10.78269775390625,0.0905400812625885,0.4280368685722351,-0.05312533676624298
1772458659497765600,10.792765625,0.10301624983549118,0.406952828168869,-0.07727673649787903
1772458659507833600,10.80283349609375,0.11715976893901825,0.3707897663116455,-0.09487251192331314
1772458659517901600,10.812901611328124,0.13334111869335175,0.3489046096801758,-0.10234188288450241
1772458659527970600,10.822970458984376,0.15424400568008423,0.3170151114463806,-0.12865684926509857
1772458659538038800,10.833038818359375,0.17305290699005127,0.27632278203964233,-0.15529459714889526
1772458659548106800,10.843106689453125,0.18318650126457214,0.2416585385799408,-0.18084390461444855
1772458659558174700,10.8531748046875,0.19118686020374298,0.2227710783481598,-0.20476172864437103
1772458659568243200,10.8632431640625,0.20702813565731049,0.21986930072307587,-0.22099769115447998
1772458659578311200,10.873311279296875,0.22290733456611633,0.23176732659339905,-0.23767468333244324
1772458659588379100,10.883379150390626,0.2381848245859146,0.24736519157886505,-0.24836967885494232
1772458659598448400,10.893448486328126,0.24987098574638367,0.2577313780784607,-0.2644519507884979
1772458659608516000,10.90351611328125,0.2585030794143677,0.2567795515060425,-0.2847156822681427
1772458659618584000,10.913583984375,0.2557941973209381,0.2577054798603058,-0.2995806634426117
1772458659628652000,10.923652099609376,0.24784091114997864,0.2518896758556366,-0.30469098687171936
1772458659638721300,10.93372119140625,0.23803818225860596,0.2551068365573883,-0.30911609530448914
1772458659648789200,10.943789306640625,0.23427914083003998,0.26381272077560425,-0.29869595170021057
1772458659658857200,10.953857177734376,0.2353229969739914,0.24511726200580597,-0.28267917037010193
1772458659668925200,10.96392529296875,0.2448243498802185,0.19593028724193573,-0.2638927102088928
1772458659678994200,10.973994140625,0.2576904892921448,0.12444427609443665,-0.24192535877227783
1772458659689062100,10.984062255859374,0.26224690675735474,0.057535551488399506,-0.20787231624126434
1772458659699130400,10.99413037109375,0.2717339098453522,0.015216637402772903,-0.1768834888935089
1772458659709198300,11.0041982421875,0.27660083770751953,-0.0202444177120924,-0.1327679604291916
1772458659719267000,11.01426708984375,0.27315181493759155,-0.06067578122019768,-0.08993474394083023
1772458659729335000,11.0243349609375,0.26426059007644653,-0.12318043410778046,-0.06591595709323883
1772458659739403300,11.0344033203125,0.24255810678005219,-0.1903674453496933,-0.05498768389225006
1772458659749472300,11.04447216796875,0.22020727396011353,-0.23400786519050598,-0.06791067123413086
1772458659759540000,11.0545400390625,0.1991894394159317,-0.25633540749549866,-0.09631035476922989
1772458659769608200,11.064608154296875,0.1797313243150711,-0.25962868332862854,-0.1401667594909668
1772458659779676200,11.07467626953125,0.15601308643817902,-0.2365819215774536,-0.2040432244539261
1772458659789745200,11.0847451171875,0.13052664697170258,-0.19045384228229523,-0.2634439468383789
1772458659799813400,11.0948134765625,0.11056922376155853,-0.10696018487215042,-0.2946633994579315
1772458659809881000,11.104881103515625,0.09150338917970657,-0.014660879969596863,-0.3141060769557953
1772458659819949000,11.114948974609375,0.09802558273077011,0.031015504151582718,-0.3127310872077942
1772458659830018300,11.125018310546874,0.10626327246427536,0.023170627653598785,-0.3293907344341278
1772458659840086300,11.135086181640625,0.10254134237766266,-0.009904110804200172,-0.36540040373802185
1772458659850154200,11.145154296875,0.07841736823320389,-0.07944803684949875,-0.3966057300567627
1772458659860223200,11.15522314453125,0.04867103323340416,-0.20803631842136383,-0.4200623333454132
1772458659870291200,11.165291259765626,0.003438574029132724,-0.34997400641441345,-0.46244654059410095
1772458659880359200,11.175359130859375,-0.04268977418541908,-0.46995314955711365,-0.5022211074829102
1772458659890427100,11.18542724609375,-0.09430369734764099,-0.4992806911468506,-0.5390920639038086
1772458659900496100,11.19549609375,-0.13844218850135803,-0.43735241889953613,-0.5533548593521118
1772458659910564000,11.205564208984375,-0.15977251529693604,-0.3428373634815216,-0.539368748664856
1772458659920632000,11.215632080078125,-0.15581585466861725,-0.2435222864151001,-0.4929810166358948
1772458659930700000,11.225699951171874,-0.11763464659452438,-0.09918428957462311,-0.4215505123138428
1772458659940769300,11.235769287109376,-0.053429339081048965,0.060408785939216614,-0.34475797414779663
1772458659950837200,11.245837158203125,0.019064567983150482,0.19040007889270782,-0.2963009774684906
1772458659960905000,11.255905029296875,0.06967442482709885,0.2900409698486328,-0.2622532546520233
1772458659970973200,11.26597314453125,0.10954540967941284,0.40909677743911743,-0.221815288066864
1772458659981042200,11.276042236328125,0.14382301270961761,0.5323155522346497,-0.18208172917366028
1772458659991110100,11.286110107421875,0.17838098108768463,0.6072981953620911,-0.14795945584774017
1772458660001178400,11.296178466796874,0.2130984365940094,0.5834831595420837,-0.12345463782548904
1772458660011247000,11.3062470703125,0.23295629024505615,0.4700447916984558,-0.053546130657196045
1772458660021315000,11.316315185546875,0.21890118718147278,0.2743241786956787,0.05265061557292938
1772458660031383300,11.32638330078125,0.22200243175029755,0.05471700802445412,0.1800794154405594
1772458660041451300,11.336451171875,0.2648824453353882,-0.1627790480852127,0.3252459168434143
1772458660051520000,11.34652001953125,0.329001247882843,-0.3387812376022339,0.45367658138275146
1772458660061588200,11.356588134765625,0.3609479069709778,-0.46559634804725647,0.5583146214485168
1772458660071656200,11.36665625,0.3558215796947479,-0.5199198126792908,0.651856541633606
1772458660081724200,11.37672412109375,0.3406546413898468,-0.5641494393348694,0.7164957523345947
1772458660091793200,11.386793212890625,0.340152382850647,-0.6317154169082642,0.7392098307609558
