time,seconds_elapsed,z,y,x
1772562357511747600,0.06174755859375,-0.1352466748356819,-0.20192279453128575,-0.6406865522399544
1772562357521815600,0.071815673828125,-0.1477694718003273,-0.1778697187706828,-0.6634051645264029
1772562357531882500,0.081882568359375,-0.0781827253550291,-0.11670885536521673,-0.5251414799571037
1772562357541949400,0.091949462890625,0.024486791002750394,-0.04849105918556452,-0.33751503140162675
1772562357552016400,0.102016357421875,0.11869184587597846,-0.013156418693065643,-0.16773907763957976
1772562357562083600,0.11208349609375,0.2638409060448408,0.0879316736921668,-0.006939042015559971
1772562357572151300,0.1221513671875,0.3071493018954992,0.12766513366550206,0.17463051765374837
1772562357582218500,0.132218505859375,0.17114216408133506,0.1349374627560377,0.21896913333497942
1772562357592285400,0.142285400390625,0.08268471294939518,0.15352584336996078,0.1140474906688556
1772562357602352400,0.152352294921875,0.08677285904586314,0.13017302483320237,-0.010347096893377601
1772562357612420600,0.162420654296875,0.07352174780666827,0.06664280194789171,-0.08333053657226264
1772562357622487600,0.172487548828125,0.02378419569134712,0.04574146821647882,-0.09772073484398425
1772562357632554500,0.182554443359375,-0.015627192720770833,0.04695552018135786,-0.059372482151351866
1772562357642621400,0.192621337890625,-0.04421615834534168,0.05942103400081396,-0.007137742925435305
1772562357652689400,0.202689453125,-0.10737082591652869,0.09679799397587775,0.03575253711100668
1772562357662756400,0.21275634765625,-0.0842389566540718,0.10463146408051252,0.07343173143565654
1772562357672823600,0.222823486328125,-0.06428337934017181,0.11675912424772977,0.1268923591947183
1772562357682890500,0.232890380859375,-0.0276759424328804,0.11162848336100578,0.13097754614911972
1772562357692957400,0.24295751953125,0.040372926920652384,0.08190817561894655,0.142349346447736
1772562357703025700,0.253025634765625,0.03946574894785881,0.060245502126216884,0.09715692694876342
1772562357713092600,0.263092529296875,0.007969371443986892,0.053690673655271526,0.016228410016931594
1772562357723159600,0.27315966796875,-0.005554711517691612,0.054658349643647665,-0.01990271461550146
1772562357733226500,0.2832265625,-0.028041268613934515,0.0853764362514019,0.014120879811048507
1772562357743294500,0.29329443359375,0.011586977419257164,0.0735232091113925,0.012046850015968084
1772562357753361400,0.303361328125,0.07668634931743144,0.078365680706501,0.016691205223090946
1772562357763428400,0.313428466796875,0.036248540467023846,0.043993747766315934,0.014676869725994765
1772562357773495600,0.32349560546875,-0.07592880894839764,0.08681669818758964,-0.017469861445389687
1772562357783563500,0.3335634765625,-0.08783727340698241,0.09381488651186227,-0.0853366887629032
1772562357793630700,0.343630615234375,-0.019992986714839935,0.0975105261594057,-0.09847951732203364
1772562357803697700,0.35369775390625,0.003335281902551651,0.07996113320440053,-0.09734788294360042
1772562357813764600,0.3637646484375,-0.09377192415297031,0.07869213618189096,-0.08490962245725095
1772562357823831600,0.37383154296875,-0.2603705995857715,0.11789981871545314,-0.10687493215836584
1772562357833899500,0.3838994140625,-0.4230442105293274,0.126204997985065,-0.15082783645763992
1772562357843966500,0.393966552734375,-0.5177063615202904,0.18890929144024848,-0.20286657818742096
1772562357854033400,0.404033447265625,-0.6196732825666665,0.21090338884443044,-0.3199363027542829
1772562357864100400,0.414100341796875,-0.6336509545147418,0.23970891982913015,-0.41282596418000755
1772562357874168300,0.424168212890625,-0.6362058996945619,0.3097913408368826,-0.319870470976457
1772562357884235300,0.4342353515625,-0.9055074092328548,0.4635410560905933,-0.11191336471699177
1772562357894302700,0.444302734375,-1.572659066811204,0.667435150694847,-0.11048362417481838
1772562357904369700,0.45436962890625,-2.319291672861576,0.9532640166640282,-0.31988172302283346
1772562357914437600,0.464437744140625,-2.6709634225726124,1.2416244469374418,-0.5751918243486434
1772562357924504600,0.474504638671875,-2.816205421721935,1.4969658201843499,-0.8535842567067593
1772562357934571500,0.484571533203125,-2.146722106325626,1.5242536400824784,-0.8214586413886398
1772562357944638500,0.494638427734375,-1.0793430501818657,1.0993480195954441,-0.7016692825995385
1772562357954705400,0.504705322265625,-0.058463879406452174,0.5028139128148555,-0.5339423337891698
1772562357964773400,0.5147734375,0.8176262966841459,0.0001958148330450058,-0.3880113294623792
1772562357974840300,0.52484033203125,1.0764537584811449,-0.29216917490661143,-0.19533245635554194
1772562357984907300,0.5349072265625,0.9289584274470806,-0.23651363091915845,-0.0666589493650943
1772562357994974700,0.544974609375,0.8081523658961057,-0.06458148550391196,-0.08089059607423842
1772562358005042400,0.55504248046875,0.815936443901062,0.14639409179389476,-0.16018004056215285
1772562358015109600,0.565109619140625,1.0204822804123164,0.2159878525018692,-0.119408396647498
1772562358025176600,0.575176513671875,1.1814859123170376,0.05773381156623363,0.034475539445132014
1772562358035243500,0.585243408203125,1.1013649123758078,-0.11847089660167694,0.11498948422670363
1772562358045311500,0.5953115234375,1.0600438909500838,-0.09921148485839366,0.2139808965936303
1772562358055378400,0.60537841796875,1.1890379351317881,0.09170447022914886,0.2186329601831734
1772562358065445400,0.6154453125,1.4888094017356632,0.20313596971333026,0.32221915299445386
1772562358075512300,0.62551220703125,1.8529992722362278,-0.1497305427402258,0.47839653378650543
1772562358085579500,0.63557958984375,2.5770097121119497,-0.550740031594038,0.7429691151067614
1772562358095647500,0.6456474609375,2.6304426116138697,-0.33802257906496525,0.8125439519185572
1772562358105714400,0.65571435546875,1.9796265872865915,-0.08098316972851753,0.4375628574863076
1772562358115781600,0.66578173828125,1.4650363119602203,-0.08251870873272418,0.08800766153782606
1772562358125848600,0.6758486328125,1.3422218331962823,-0.2671791105568409,0.10005853014178573
1772562358135916500,0.68591650390625,1.482196705597639,-0.24686639036834238,0.031910949654132124
1772562358145983500,0.6959833984375,1.7650246361851691,-0.08183423359990119,-0.005313888499140739
1772562358156050400,0.706050537109375,1.9319249249130486,-0.006137479841709137,0.19169030046090482
1772562358166117400,0.716117431640625,1.622887032791972,0.021206454157829284,0.3179343883473426
1772562358176185600,0.726185546875,0.962915642106533,0.02490706224143505,0.17790230586603284
1772562358186252500,0.73625244140625,0.19677111085653304,0.002419336101412773,-0.18072466981038451
1772562358196319500,0.746319580078125,-0.0006628478229045867,-0.014462825116515159,-0.5100869725577533
1772562358206386700,0.75638671875,0.12814356483221054,-0.08408288930952548,-0.7360989370763301
1772562358216453600,0.76645361328125,0.4473334331333637,-0.2222203171506524,-0.6672479575596749
1772562358226521600,0.776521484375,0.561032877549529,-0.27234949893206356,-0.4075922282449901
1772562358236588500,0.786588623046875,0.026045710882544516,-0.17742869700491426,-0.16507796867154537
1772562358246655500,0.796655517578125,-0.59350073043406,0.08931699057072401,-0.060030982592701905
1772562358256722400,0.806722412109375,-0.7332856332212686,0.34805180564820765,0.038757600678503513
1772562358266790400,0.816790283203125,-0.4532108007341623,0.41251697129607195,0.1937720751710236
1772562358276857600,0.826857666015625,-0.2417816344499588,0.3498167694941163,0.3366211147692054
1772562358286924500,0.836924560546875,-0.3661293141305446,0.28564211122542615,0.36011714116893706
1772562358296991500,0.846991455078125,-0.5709498759299516,0.2153898866087198,0.3032612084157765
1772562358307059500,0.8570595703125,-0.5609843622326851,0.16121376752406358,0.183844336200878
1772562358317126400,0.86712646484375,-0.29986615915000436,0.13020809614658355,-0.028145386575534937
1772562358327193600,0.877193603515625,0.019324293673038482,0.06805149970203637,-0.15281758550275115
1772562358337260500,0.887260498046875,-0.044482115805149075,0.017174714423716066,-0.23983656479679047
1772562358347327500,0.897327392578125,-0.46305064222514625,-0.0020583938345313073,-0.31810408235844223
1772562358357395500,0.9073955078125,-0.5888122803568839,0.05739771147966385,-0.2960924127649516
1772562358367462400,0.91746240234375,-0.5186386739343405,0.124601069919765,-0.24511790273319928
1772562358377529300,0.927529296875,-0.42212592664062976,0.1996852447375655,-0.19079108659885824
1772562358387596500,0.937596435546875,-0.34911855809688563,0.18267858035713433,-0.07527323111649602
1772562358397664500,0.94766455078125,-0.25918051301836964,0.06751403182446956,0.028271825966797767
1772562358407731500,0.9577314453125,-0.1921498807966709,-0.004968143801391125,0.11372797639090568
1772562358417798000,0.9677978515625,-0.3317074045687914,0.032059272083640095,0.07057688999380916
1772562358427864800,0.97786474609375,-0.35186405741274357,0.12177081492990255,0.0628973683418706
1772562358437933000,0.98793310546875,-0.292958863979578,0.18612579820156097,0.13651128794401884
1772562358448000000,0.998,-0.2356236963421106,0.211922502759099,0.18512232024744152
1772562358458067000,1.00806689453125,-0.20905834549963473,0.13670564147233963,0.1882930592380464
1772562358468134000,1.0181337890625,-0.2323258238404989,0.018078969787061215,0.06504402498174458
1772562358478200800,1.028200927734375,-0.3158931648433208,0.023316870440542696,-0.11344152413234114
1772562358488268800,1.038268798828125,-0.3552162904500961,0.09268909735232592,-0.25289145934414115
1772562358498335700,1.048335693359375,-0.2973147211015224,0.0763505414918065,-0.2538420015346259
1772562358508403000,1.05840283203125,-0.16014672281444073,0.04986848501861095,-0.17675094387382267
1772562358518470000,1.068469970703125,0.002933715364336967,0.032708383642137046,-0.0401677962699905
1772562358528538000,1.0785380859375,0.18662497989535332,0.02374503272473812,0.10145451454482972
1772562358538605000,1.08860498046875,0.28855507606267927,-0.0307955357581377,0.21026673490870743
1772562358548672000,1.098672119140625,0.18334288948476313,-0.025854572224617,0.16222930124215781
1772562358558739000,1.108739013671875,0.05255202501416206,0.045484863106906415,0.018985344042256474
1772562358568807000,1.118806884765625,-0.11027356162071228,0.1557867740392685,-0.12596793782617896
1772562358578873900,1.128873779296875,-0.18408815489411354,0.20103782839030027,-0.17156407928783446
1772562358588940800,1.13894091796875,-0.08846037374138832,0.1869543579801917,-0.10695658255983144
1772562358599007700,1.1490078125,0.09171206901371479,0.12901157983839512,-0.05625120832566172
1772562358609075000,1.159074951171875,0.2250678155362606,0.0690434333488345,0.01997662010192871
1772562358619142700,1.169142578125,0.20972703854143618,0.05149404039382934,0.060035366506874556
1772562358629209900,1.1792099609375,0.13230945234000682,0.07789046441018581,0.024558541064709425
1772562358639277000,1.189277099609375,0.05121230084300041,0.08899667257517575,-0.05465597502347082
1772562358649344000,1.199343994140625,0.020908347994089124,0.04069324491620063,-0.09721830174718052
1772562358659412000,1.209411865234375,0.13586743708252905,0.006605974136292934,-0.1626965899603441
1772562358669479000,1.21947900390625,0.24186580560207366,-0.05967442423999309,-0.14472842360399663
1772562358679545900,1.2295458984375,0.19596914682388306,-0.0987175638616085,-0.10506726168189197
1772562358689612800,1.23961279296875,0.03782908765673637,-0.0433832146525383,-0.10076602082401513
1772562358699680800,1.2496806640625,-0.017678864553570747,0.04803279402405023,-0.12542166558764875
1772562358709747700,1.259747802734375,-0.03285129924416542,0.044758010137081146,-0.13893077017590402
1772562358719814700,1.269814697265625,-0.008124269744753837,0.044838966418802736,-0.16234631521794943
1772562358729881900,1.2798818359375,0.0922258637547493,-0.016515081471204757,-0.15609364803135395
1772562358739949000,1.289948974609375,0.1327595341950655,-0.10165741670578718,-0.14337043312378228
1772562358750017000,1.30001708984375,0.11733633961379528,-0.11729951473474502,-0.1483089489718899
1772562358760084000,1.310083984375,0.06483166087269783,-0.05483078360110521,-0.1643983158443123
1772562358770151000,1.32015087890625,-0.003502455163002014,-0.0014399696752429008,-0.20826452824082226
1772562358780217900,1.3302177734375,-0.08301496781706809,0.009064180943369865,-0.2057279589679092
1772562358790285800,1.340285888671875,-0.0058329439371824264,0.009148644356429576,-0.1978596367456019
1772562358800352800,1.350352783203125,0.11576631381809711,-0.008147942881286143,-0.14365045564156026
1772562358810419700,1.360419677734375,0.06326455768644809,-0.04952069449424743,-0.13451499956026672
1772562358820486700,1.370486572265625,-0.048697103151679036,-0.015610826107859611,-0.14985471710916606
1772562358830555000,1.380554931640625,-0.07867197017669678,-0.0048722822114825245,-0.19195768269281832
1772562358840621800,1.390621826171875,-0.0056026423126459115,0.026245325107872485,-0.20478662299718706
1772562358850689000,1.40068896484375,0.07589023050367832,0.061163493753969664,-0.1347139927310869
1772562358860756000,1.410755859375,0.07707973254919051,0.024967852517962453,-0.035827465510740876
1772562358870823000,1.420822998046875,0.060840545409917825,-0.013801438598334789,0.010171046206727624
1772562358880891000,1.430890869140625,0.09348784651458263,0.0305275324717164,0.002451375207491219
1772562358890957800,1.440957763671875,0.10953004977703094,0.0709343616619706,-0.008172383202798663
1772562358901024800,1.451024658203125,0.03824117558896541,0.036274843952059745,-0.009142470343969762
1772562358911091700,1.461091796875,-0.04563362392783165,0.020247838258743284,-0.022136391951702535
1772562358921160000,1.471159912109375,-0.028391981747746466,0.044828445024788374,-0.05805442182272672
1772562358931227000,1.481226806640625,0.09108487702608108,0.051446401859819885,-0.0890732449427247
1772562358941294000,1.491294189453125,0.17805355090498923,0.01555032809227705,-0.07590747389942407
1772562358951361000,1.501361083984375,0.15558745207488536,-0.015124796156585216,-0.03920030294470489
1772562358961429000,1.511428955078125,0.1503133110642433,-0.003169569946825504,-0.0184474743058905
1772562358971496000,1.521495849609375,0.16872399702370167,0.01761602845042944,0.004686952239833772
1772562358981563000,1.53156298828125,0.10115618918538093,0.004914952309429645,-0.017285189060866832
1772562358991629800,1.5416298828125,0.008929156386852264,0.0459843370616436,-0.01759045561775565
1772562359001697800,1.55169775390625,0.08721534211635588,0.09790361713021993,-0.03131568717472255
1772562359011764700,1.5617646484375,0.22375381032824515,0.10620382796376943,0.02569415749851614
1772562359021832000,1.57183203125,0.21061609633564948,0.04710311195850372,0.07748626752346753
1772562359031899000,1.58189892578125,0.1271907941520214,-0.0008767828345298766,0.07446180513575673
1772562359041966000,1.591966064453125,0.09376666345596313,0.00390869787633419,0.009442512736469507
1772562359052033800,1.60203369140625,0.07420739198327064,0.03264145588576794,-0.03638915451411158
1772562359062101000,1.61210107421875,0.014132570248842239,0.05022182850092649,-0.036870362159796055
1772562359072168000,1.62216796875,-0.011543722799420356,0.04392448192238808,-0.0031457872124388813
1772562359082235000,1.63223486328125,0.04076981728374958,0.04193944558501243,-0.011089330095425247
1772562359092302800,1.642302734375,0.11608546276986598,0.0319938056319952,-0.048530331750027834
1772562359102369800,1.652369873046875,0.10615034421086311,-0.024821722045540808,-0.08590184836499393
1772562359112436700,1.662436767578125,0.051587563896179196,-0.047453825092315674,-0.12209113292545079
1772562359122503700,1.672503662109375,0.042400633355975145,-0.02403378653824329,-0.1463551480229944
1772562359132572000,1.682572021484375,0.04453998347222805,0.011587854202091694,-0.16464465528819708
1772562359142638800,1.692638916015625,-0.04155599922537803,0.021476211009919643,-0.133518353205733
1772562359152705800,1.702705810546875,-0.021043957072496414,0.06048018766492605,-0.11177318906132132
1772562359162773000,1.71277294921875,0.0686404055058956,0.06860328836590052,-0.08374598550535738
1772562359172840000,1.72283984375,0.14766367333829403,0.03931348099559545,-0.063450289516896
1772562359182908000,1.732907958984375,0.16637188093960284,-0.02012654996663332,-0.08035601427350193
1772562359192974800,1.742974853515625,0.1298047760426998,-0.01567453899383545,-0.09710369892418384
1772562359203041800,1.753041748046875,0.09779869545102118,-0.003873334302008152,-0.15404277991615234
1772562359213108700,1.763108642578125,0.1344318513214588,-0.004150397677719593,-0.15402502506375312
1772562359223177000,1.773177001953125,0.1140016422331333,-0.0414160062327981,-0.17137988182734698
1772562359233244000,1.783243896484375,0.12569383359253405,-0.044426001703739164,-0.1696167811449617
1772562359243310800,1.793310791015625,0.14899579872488974,-0.05078472308069467,-0.17870255286563186
1772562359253377800,1.803377685546875,0.15741408298015594,-0.06369710388481617,-0.17513740772996098
1772562359263445800,1.81344580078125,0.0885568198531866,-0.041133682160079475,-0.18492599395774303
1772562359273513000,1.823512939453125,-0.020500936236977577,-0.018087737615406514,-0.15738445502687246
1772562359283580000,1.833579833984375,-0.032680618852376934,-0.020220073468983173,-0.18912863327935336
1772562359293646800,1.843646728515625,-0.027144027513265608,-0.07084726790040731,-0.20169545204881578
1772562359303713800,1.8537138671875,-0.02250292370915413,-0.09405833987891674,-0.23872034718319773
1772562359313782000,1.863781982421875,0.000741173756122589,-0.08850216705650091,-0.29045992330331355
1772562359323849000,1.873848876953125,-0.006072013390064239,-0.07057868009209632,-0.2928852872867137
1772562359333916000,1.883916015625,-0.034084055909514424,-0.04726823939234018,-0.24163068167194723
1772562359343982800,1.89398291015625,-0.001146247425675392,-0.022877017718553543,-0.16944164377376436
1772562359354050800,1.90405078125,0.05570084443390369,0.0040182957306504246,-0.09955617011021822
1772562359364117800,1.91411767578125,0.1198100362509489,0.03874649476259947,-0.053873154082708055
1772562359374185000,1.92418505859375,0.13802607642114162,0.024860008229315278,-0.0450682451300323
1772562359384252000,1.934251953125,0.10600830539166926,0.008302256660163402,-0.08023520090542734
1772562359394320000,1.94431982421875,0.13948738114535808,0.026684593307971953,-0.09319087286200374
1772562359404386800,1.95438671875,0.1729389843702316,0.04846680152714252,-0.06094678226336837
1772562359414454000,1.9644541015625,0.13920038089752196,0.057983402413129805,0.014081461116112769
1772562359424521500,1.974521484375,0.11393033056259154,0.09476415006071329,0.09361118063330649
1772562359434588400,1.98458837890625,0.08963526273965836,0.13265724286437033,0.10872600338514894
1772562359444656400,1.994656494140625,0.025279402685165403,0.1453074656009674,0.08199881304446607
1772562359454723300,2.004723388671875,-0.018604747226834296,0.14845365467220545,0.05506503074839711
1772562359464790300,2.014790283203125,0.04678980822563171,0.14027034821659326,0.016521474679373205
1772562359474857200,2.024857177734375,0.09812602770924568,0.09686199912279844,0.006185885560698807
1772562359484925200,2.03492529296875,0.011985621348023414,0.05451309595406055,-0.0011306845303624869
1772562359494992400,2.044992431640625,-0.02635316939651966,0.07638911993652582,0.011443075436539947
1772562359505059600,2.0550595703125,-0.046347909677028655,0.1080026940792799,0.021081841397471726
1772562359515126500,2.06512646484375,0.03518003445267677,0.08556845169216394,0.061160205818340176
1772562359525194500,2.075194580078125,0.016869886258244513,0.08371113338768482,0.049528475941903884
1772562359535261400,2.085261474609375,0.002052256354689598,0.08085165230333805,0.04479724616892636
1772562359545328400,2.095328369140625,0.1052010806620121,0.055905427095293996,0.026682657079212364
1772562359555395300,2.105395263671875,0.20299568445980548,-0.02851677717119455,0.0289397152910009
1772562359565463300,2.11546337890625,0.13726210631132124,-0.009567454290390014,0.03523972875066101
1772562359575530200,2.1255302734375,0.06365034213364124,0.05144143342375755,0.025885296156443655
1772562359585597200,2.13559716796875,0.0284819981187582,0.06931202115714549,0.010712130813486874
1772562359595664400,2.145664306640625,0.026934184154868125,0.0405512060970068,0.029545206903479993
1772562359605731600,2.155731689453125,0.03880465469062328,0.026034020444750783,0.01826568799819797
1772562359615799600,2.165799560546875,0.007902735948562622,0.010998656137287616,-0.0047121232137084
1772562359625866500,2.175866455078125,-0.016349077254533766,-0.009305296222865581,-0.046030770019255575
1772562359635933400,2.185933349609375,-0.020589783564209936,0.010415595552325248,-0.07788483838699757
1772562359646000400,2.19600048828125,-0.04474398161172866,0.0177528065726161,-0.07248381959367543
1772562359656068400,2.206068359375,-0.07806757454276085,0.03105009504109621,-0.09293488880693912
1772562359666135300,2.21613525390625,-0.03526946630179882,0.035146424444019796,-0.11271046991143376
1772562359676202200,2.2262021484375,0.05797229649722576,0.022592647819221018,-0.10249638828057796
1772562359686269200,2.236269287109375,0.04384849407672882,0.008023147457838059,-0.124499874567613
1772562359696337400,2.24633740234375,0.030109891581535337,0.05384206482470035,-0.10042783837821334
1772562359706404400,2.256404296875,0.09852174902856349,0.06582388678044081,-0.08855926753859966
1772562359716471600,2.266471435546875,0.16695114213228224,0.06114975748956203,-0.06741334792897105
1772562359726538500,2.27653857421875,0.1911918494194746,0.019855331809818744,-0.05692191066145896
1772562359736606500,2.2866064453125,0.20450258189141748,0.011149462784826755,-0.039493805998563766
1772562359746673400,2.29667333984375,0.15498714809417724,0.027698446525633334,-0.03104300771318376
1772562359756740400,2.306740234375,0.1175964518547058,0.06181903505325317,-0.0330489772407338
1772562359766807300,2.316807373046875,0.14335866962075233,0.08954904576092958,-0.041503026929125185
1772562359776874200,2.326874267578125,0.11095803675353526,0.07737433158159256,-0.03895341551154852
1772562359786942500,2.3369423828125,0.07225158174037932,0.056827510376274586,-0.04809592238813638
1772562359797009400,2.347009521484375,0.10424889450371265,0.06309007790237665,-0.06363393898811191
1772562359807076400,2.357076416015625,0.09351590356528758,0.07225655017644167,-0.04904288438204676
1772562359817143600,2.3671435546875,0.0197200149923563,0.051263446508347986,-0.05089114259723573
1772562359827211300,2.377211181640625,0.018878303471207617,0.06340104354768991,-0.021927388843521474
1772562359837278500,2.387278564453125,0.042138183027505875,0.042436581452190876,-0.037364648482762275
1772562359847345400,2.397345458984375,-0.017710428735613824,0.030600597707927224,-0.07744166119676082
1772562359857412400,2.407412353515625,-0.03757482063472271,0.0490276502802968,-0.04724964428972453
1772562359867480300,2.417480224609375,0.052505263262987135,0.07987170135527849,-0.025454941915161906
1772562359877547300,2.42754736328125,0.118424134850502,0.037834932875633234,-0.0003371229998767376
1772562359887614500,2.437614501953125,0.10524550432562828,0.02064239053428173,0.03143160517197102
1772562359897681400,2.447681396484375,0.12083236503601073,0.022218553809821604,0.018448314556106925
1772562359907749400,2.457749267578125,0.08897358396053313,0.011342355008423328,0.018169716810435055
1772562359917816300,2.46781640625,0.021485271099209783,0.006692191115021705,-0.013315372114442288
1772562359927883300,2.47788330078125,0.021181904238462446,0.024798341169953345,-0.057823024219647044
1772562359937950500,2.487950439453125,0.030124504628777502,0.02778437124341726,-0.04000935430526733
1772562359948017400,2.498017333984375,0.04287117347717285,0.026157062302529812,-0.01616283396743238
1772562359958085400,2.50808544921875,0.06161269882619381,0.03598872048705816,-0.015210355548188089
1772562359968152300,2.51815234375,0.011844751572608947,0.06905453926473856,-0.019433745396882293
1772562359978219300,2.52821923828125,-0.030785014364123342,0.08253449082374573,0.007007175348326564
1772562359988286200,2.5382861328125,0.009688450321555138,0.09819353998750448,0.023849516012519598
1772562359998354400,2.5483544921875,0.07963350868523121,0.09324819253981113,0.02646996417660266
1772562360008421400,2.55842138671875,0.09621581017374992,0.0731803870230913,0.01730740089267492
1772562360018488300,2.56848828125,0.06962006419301033,0.05487959117889404,-0.03338712315391749
1772562360028555500,2.578555419921875,0.020967969226837156,0.06892711349278688,-0.05945325576998293
1772562360038623200,2.588623291015625,-0.041418052059412,0.06254442671835422,-0.08999905455075204
1772562360048690400,2.5986904296875,-0.047348611152172086,0.07938800949156284,-0.1149210586329922
1772562360058757400,2.60875732421875,0.0746229870468378,0.061166124102473254,-0.09431918277218937
1772562360068824300,2.61882421875,0.21248656638264654,0.01859101096242666,-0.08194174909498542
1772562360078892500,2.628892578125,0.2513829910099506,-0.029335400077700614,-0.05280435580741614
1772562360088959500,2.63895947265625,0.23462007225751874,-0.03843523685634136,-0.029667445043660697
1772562360099026400,2.6490263671875,0.18594342737197875,-0.006121405489742756,-0.07700191807262599
1772562360109093400,2.65909326171875,0.0904044935464859,0.01656622713655233,-0.09087609311360866
1772562360119161300,2.669161376953125,0.04178922345936298,0.0007908581167459487,-0.0889686155244708
1772562360129228300,2.679228271484375,-0.011531447839736938,-0.0033458032965660092,-0.099216453294456
1772562360139295200,2.689295166015625,0.020304536882042885,0.03085135759860277,-0.09705218793265522
1772562360149362400,2.699362548828125,0.10940379304885864,0.01982230632305145,-0.04191993716694414
1772562360159429400,2.709429443359375,0.08332067276537418,0.00670329703092575,0.002986431932263076
1772562360169497600,2.71949755859375,-0.03710369599163532,0.03007978870421648,-0.004691884143278003
1772562360179564500,2.729564453125,-0.12512450927197932,0.039753333717584605,-0.09731124072764068
1772562360189631500,2.739631591796875,-0.12433949637413025,0.034224048902094364,-0.15645192341711373
1772562360199698400,2.749698486328125,-0.06125789403915405,0.009549041850864887,-0.14285251019690184
1772562360209766400,2.759766357421875,0.008866612544655799,0.0026391163319349287,-0.12040328943636268
1772562360219833300,2.769833251953125,0.06548924799859523,-0.007382511466741562,-0.09729958682246506
1772562360229900300,2.779900390625,0.006337970849871635,0.02840747157782316,-0.1116009377669543
1772562360239967200,2.78996728515625,-0.04322480922043323,0.06175269181877374,-0.0711165863610804
1772562360250035200,2.80003515625,-0.05145546194911003,0.09197568838596343,-0.06531169947460293
1772562360260102400,2.810102294921875,-0.04524140973985195,0.10074176316559313,-0.037643246228434145
1772562360270169300,2.82016943359375,0.06016600714921951,0.0983496073320508,-0.012366254696063696
1772562360280236500,2.830236572265625,0.19327099378108978,0.0628150603532791,0.009258461406454444
1772562360290304500,2.840304443359375,0.1932908675253391,0.01865384706556797,-0.010663505898788572
1772562360300371500,2.850371337890625,0.06920154651999473,0.004166472029685974,-0.07164356937725097
1772562360310438400,2.8604384765625,-0.014791910940408706,0.03400280736684799,-0.11263028081469237
1772562360320505300,2.87050537109375,-0.024601357293128966,0.04752776711136102,-0.12899967020489275
1772562360330572300,2.880572265625,0.034540567505359644,0.013235036887228489,-0.13013788045458494
1772562360340640300,2.89064013671875,0.11619476836323737,0.018190321207046507,-0.0989828272016719
1772562360350707200,2.900707275390625,0.1445703834980726,0.002810381245613098,-0.04318159113321453
1772562360360774400,2.9107744140625,0.15629706164896487,0.008439619304239749,-0.008252974158339203
1772562360370841300,2.92084130859375,0.15970014809072017,0.0535635401442647,-0.012379589101672172
1772562360380909600,2.93090966796875,0.1633364587664604,0.07103431490510702,-0.030247802214883265
1772562360390976500,2.9409765625,0.15505670619904993,0.0665954556748271,-0.01706778345052153
1772562360401043500,2.95104345703125,0.183514738920331,0.037922903420031066,-0.011519172880053519
1772562360411110400,2.9611103515625,0.1350157886892557,0.0436640774205327,-0.07425583423487842
1772562360421178000,2.97117822265625,0.015449498066306114,0.07072656413018703,-0.1263819254545495
1772562360431245000,2.9812451171875,0.011574117937684059,0.0850491039931774,-0.11513334967680275
1772562360441312000,2.99131201171875,0.06807751092612743,0.07622457702457905,-0.09778046567458659
1772562360451379000,3.00137890625,0.11791034010946749,0.06560965950787068,-0.02594184864927083
1772562360461447000,3.011447021484375,0.11470949824154376,0.07643938881903886,0.029893728080205618
1772562360471514000,3.02151416015625,0.10907587626874446,0.114686701887846,0.09807988701257854
1772562360481581000,3.0315810546875,0.12218144155740737,0.12453355764150618,0.09359397377017885
1772562360491648000,3.04164794921875,0.1289642335653305,0.07673866402655839,0.03999992888979614
1772562360501715000,3.05171484375,0.08674830912649631,0.0680441931784153,0.004540492973849177
1772562360511783200,3.061783203125,0.046669396716356275,0.08639233529567718,-0.03667684888169169
1772562360521850000,3.07185009765625,0.03299859876036644,0.08386866203695535,-0.05373403787296265
1772562360531917000,3.0819169921875,0.011464812344312666,0.05896978310197591,-0.026357005321420726
1772562360541984000,3.09198388671875,0.023187983363866804,0.05150631535351276,-0.04819441432654857
1772562360552052000,3.102052001953125,0.0515700282394886,0.061328328926861284,-0.08135711760744452
1772562360562119000,3.112118896484375,0.0066571198016405105,0.0618003303527832,-0.105579850846529
1772562360572186000,3.12218603515625,-0.10019055902361869,0.06581891834437847,-0.08995700550731271
1772562360582253000,3.132253173828125,-0.12804711872041225,0.09273702814728021,-0.07390322140492499
1772562360592321300,3.1423212890625,-0.021852935367822644,0.08875175790339708,-0.08247209311202168
1772562360602388200,3.15238818359375,0.10625848076045513,0.06526566837579012,-0.042835627239756285
1772562360612455200,3.162455078125,0.1902197895169258,0.026222236493229866,-0.0342303690450266
1772562360622522000,3.172522216796875,0.20228724392950534,-0.024860592751204967,-0.05771075948420912
1772562360632590000,3.182590087890625,0.18833119929134845,-0.05444383011013269,-0.10365038062129169
1772562360642657000,3.192656982421875,0.09924772521555424,-0.02968669773340225,-0.14830989881996065
1772562360652724000,3.202723876953125,0.045053778213262556,0.013467676599323748,-0.1553616439623758
1772562360662791000,3.212791015625,0.04711304883062839,0.014168518345057963,-0.12440488976053893
1772562360672858000,3.222858154296875,0.022814473876357075,0.026726678884029388,-0.04957845256347209
1772562360682925800,3.23292578125,0.030556466305255887,0.0427405328348279,-0.03847556886672973
1772562360692993000,3.242992919921875,0.015981412985920904,-0.0030187632992863655,-0.056205834813974793
1772562360703060200,3.253060302734375,0.03580021217763424,-0.02346621578335762,-0.13601762267556042
1772562360713127200,3.263127197265625,0.02539104636609554,-0.05397416677176952,-0.2023564732408151
1772562360723195100,3.273195068359375,0.010966215172410011,-0.04557575626075268,-0.22284597476832568
1772562360733262000,3.283261962890625,0.029521862560510634,-0.02610562437623739,-0.20614680543448774
1772562360743329000,3.2933291015625,0.08210369819104671,-0.02126753669530153,-0.1654886683642864
1772562360753396000,3.30339599609375,0.054659810948371884,-0.015662848556041716,-0.12259879018664359
1772562360763464000,3.3134638671875,0.08208031731545924,0.037105157296359534,-0.09952190251443535
1772562360773531000,3.32353076171875,0.0953624082148075,0.08307605035454034,-0.0800675527209416
1772562360783597800,3.333597900390625,0.19951076495349407,0.08768179058432579,-0.03696951168533415
1772562360793665000,3.3436650390625,0.2710731953859329,0.057444180969893927,0.011445888448134064
1772562360803733000,3.35373291015625,0.26535598678290845,0.03342822234928608,0.022075784338265656
1772562360813800200,3.36380029296875,0.22982465467453,0.011384148323535919,0.008868767969124019
1772562360823867100,3.3738671875,0.08715104470849036,0.039789281813800335,-0.0449771327804774
1772562360833934000,3.38393408203125,-0.005251344656944275,0.04334083681553602,-0.10605671111065894
1772562360844002000,3.394001953125,0.0033685996502637863,0.01835661768466234,-0.154284918108955
1772562360854069000,3.404069091796875,0.07921732909977436,0.019169979894161224,-0.13290102502498774
1772562360864136000,3.414135986328125,0.1312865390330553,0.0016287702456116676,-0.04825293958075344
1772562360874203000,3.424202880859375,0.12967325861752033,-0.010766016425192355,0.029875059912353754
1772562360884270000,3.43427001953125,0.060437225306034084,0.001329202777147293,0.024734993610158563
1772562360894338000,3.444338134765625,-0.06461304968595505,0.02302840888798237,-0.026085458371043205
1772562360904405000,3.454405029296875,-0.1614940457701683,0.039891280883550644,-0.09833769769854843
1772562360914472200,3.46447216796875,-0.13105214575529098,0.038626667775213716,-0.13602620784081518
1772562360924539100,3.4745390625,-0.043431145447492596,0.007732055556774139,-0.1268985697397962
1772562360934607000,3.484607177734375,0.0451607457190752,-0.0366579980507493,-0.09579572159815579
1772562360944674000,3.494674072265625,0.12131459559500217,-0.06657265932112932,-0.06830353823434561
1772562360954741000,3.504740966796875,0.13444354175925255,-0.08808774103671312,-0.06841565683931111
1772562360964808000,3.514807861328125,0.08462181849181652,-0.04885024788677692,-0.06564414629936217
1772562360974876000,3.5248759765625,0.09336568143963814,0.016943536016345025,-0.054208267788589
1772562360984943000,3.534943115234375,0.15995266154706478,0.05427694911062717,-0.029885690904222426
1772562360995010000,3.545010009765625,0.1136181958734989,0.02361030042916536,-0.04019048302583396
1772562361005077200,3.5550771484375,0.059822892799973486,0.00923515359610319,-0.06603811405301094
1772562361015145000,3.56514501953125,0.1018541083216667,-0.021094225955009458,-0.08939064032882452
1772562361025212200,3.575212158203125,0.11769406701028347,-0.020396014557778834,-0.11612871738970279
1772562361035279000,3.585279052734375,0.09283259747624396,-0.032087329134345054,-0.11121117126438766
1772562361045346000,3.595345947265625,0.07963876938223838,-0.029262042580544947,-0.1022557479251176
1772562361055414000,3.6054140625,0.08198971642255783,-0.026634908947348594,-0.10049516799338161
1772562361065481000,3.61548095703125,0.04678454752862453,-0.012664835783839225,-0.09506316953990608
1772562361075548000,3.6255478515625,0.027287819898128507,-0.011169336529076099,-0.10695413487441838
1772562361085615000,3.635614990234375,0.06700023708343505,-0.0056903205960989,-0.14038564515933394
1772562361095682000,3.64568212890625,0.11349778436422348,-0.035033027197420595,-0.18133410694561897
1772562361105750000,3.65575,0.0915244374871254,-0.054715632788836954,-0.15201901900358497
1772562361115817000,3.66581689453125,0.07928571816086769,-0.03903437179327011,-0.11697075770441442
1772562361125884200,3.67588427734375,0.09399754960238933,-0.06699497638642787,-0.09157540048938244
1772562361135951000,3.685951171875,0.08479542149305343,-0.05958353108614683,-0.08641980782449245
1772562361146019000,3.69601904296875,0.08403262042701244,-0.05967763911038637,-0.10016714161541312
1772562361156086000,3.7060859375,0.1592459745824337,-0.055307168941199775,-0.09956139427460729
1772562361166153000,3.716153076171875,0.21217618525922297,-0.07443243291079997,-0.12040347209945321
1772562361176220000,3.726219970703125,0.11890753445327282,-0.0718368634596467,-0.14322371812947093
1772562361186288000,3.7362880859375,0.04453296920955181,-0.02271890454739332,-0.13125106586087495
1772562361196355000,3.74635498046875,0.08419044133722782,0.004831657940149307,-0.11793569374643266
1772562361206422000,3.756422119140625,0.08724339916706085,0.0033019641548395155,-0.07073087497912348
1772562361216489000,3.766489013671875,0.04123275862038135,0.012258593070507048,-0.02803447354696691
1772562361226557000,3.776556884765625,-0.0033230069428682326,0.027052257576584814,-0.029274390605464575
1772562361236624100,3.7866240234375,0.0080126260638237,0.047941316348314285,-0.03885057619158178
1772562361246691000,3.796691162109375,0.019985387930274007,0.04196604133099317,-0.04858991645015776
1772562361256758000,3.806758056640625,0.012674772655963897,0.05126695363968611,-0.04126892591230571
1772562361266825000,3.816824951171875,0.05845043540298939,0.053553603272140024,-0.030048297587409612
1772562361276893200,3.82689306640625,0.11588321819603442,0.054278994937241073,-0.01882949589341879
1772562361286960000,3.836960205078125,0.17044541398882865,0.05202361722588539,-0.024187113936431706
1772562361297027000,3.847027099609375,0.1597597693234682,0.06660334672033787,0.011752872038073837
1772562361307094000,3.857093994140625,0.18030045304894446,0.08460632866173982,0.02296341736037284
1772562361317162000,3.867161865234375,0.15318272902071475,0.0902864201247692,0.03363594681583345
1772562361327229000,3.87722900390625,0.11707096667587756,0.08841419651210307,0.021713307701423764
1772562361337296100,3.887296142578125,0.15731296069324016,0.07281739892959595,0.011375124766863882
1772562361347363000,3.897363037109375,0.17938450724780558,0.07630845591574907,0.019089315873384475
1772562361357431000,3.90743115234375,0.13718378037810325,0.06601297961175441,0.03212579798121005
1772562361367498000,3.917498046875,0.12849544700980187,0.09597703298181295,0.06764313809685409
1772562361377565200,3.927565185546875,0.09870236629247665,0.10557926632463932,0.0411891752069816
1772562361387632000,3.937632080078125,0.04878302786946297,0.09409604154080152,0.03357742156162858
1772562361397700000,3.9477001953125,0.06012976679205894,0.08868424562513828,-0.010000402347557245
1772562361407767000,3.95776708984375,0.05203121601045131,0.058168403591215605,-0.06862078748997301
1772562361417833700,3.967833740234375,0.00888356367945671,0.02163315513730049,-0.13053952005803585
1772562361427901000,3.97790087890625,0.0017465514063835143,0.01925415104627609,-0.11881576451659202
1772562361437968100,3.987968017578125,0.038972996994853015,0.03893324950635433,-0.10134495322313158
1772562361448035800,3.998035888671875,0.12707915047109125,0.057876142646372315,-0.047755803713575004
1772562361458103000,4.00810302734375,0.1607961266338825,0.03981792338639498,0.015796959797106682
1772562361468170000,4.018169921875,0.20051848069131373,0.03620733167380094,0.03139934687018394
1772562361478237000,4.02823681640625,0.24030922380983827,0.024320202264189718,-0.006387472547404468
1772562361488305000,4.038304931640625,0.16832243048548698,0.016881868956983088,-0.07020535326767713
1772562361498371800,4.048371826171875,0.040643560555577274,0.015196984609961509,-0.12230298557784408
1772562361508438800,4.058438720703125,0.02933715364336967,0.025275895553827286,-0.1963751338088885
1772562361518505700,4.068505615234375,0.07227262452840805,0.003863689690828323,-0.16884700234886257
1772562361528574000,4.078573974609375,0.05583879159986972,-0.01923603086769581,-0.1471863746827468
1772562361538641000,4.088640869140625,0.03062953154146671,-0.009211772720515727,-0.07554061334840953
1772562361548707800,4.098707763671875,0.02791734997332096,-0.022706629587709904,-0.09206643540933727
1772562361558775000,4.108775146484375,-0.0444376921415329,0.0038180969834327697,-0.11521525580659508
1772562361568843000,4.118843017578125,-0.09810907657444476,0.025983459301292894,-0.14267481554243713
1772562361578910000,4.128909912109375,-0.0026449615508317946,0.02152823345810175,-0.16449487155396492
1772562361588977000,4.138976806640625,0.008446925827860831,-0.014495558342337608,-0.14869013030920178
1772562361599043800,4.1490439453125,-0.06953706208467483,-0.024047230541706082,-0.1451817568620667
1772562361609112000,4.159112060546875,-0.0678653294801712,-0.009157996706664562,-0.15746621502619235
1772562361619179000,4.169178955078125,-0.030310382589697836,-0.022579496076703072,-0.15673790075164287
1772562361629246000,4.179245849609375,0.03104921825826168,-0.029181670820713042,-0.15277718042712657
1772562361639313000,4.18931298828125,0.09009937312006949,-0.026771979330480096,-0.14135368647389113
1772562361649380000,4.199380126953125,0.11862637942433357,-0.008406301556527614,-0.08350103430096059
1772562361659447800,4.20944775390625,0.09553133504092692,0.0045043256819248196,-0.054035760765895245
1772562361669515000,4.219514892578125,0.0011439093381166458,0.05276303741633892,-0.04820288989394903
1772562361679582000,4.22958203125,0.0482236404210329,0.05911328322589397,-0.06172858029082417
1772562361689649000,4.23964892578125,0.19294775317609308,0.03803834649324417,-0.04151194088794291
1772562361699716900,4.249716796875,0.30426351732611656,0.010182371318340301,0.007431099848821759
1772562361709784000,4.2597841796875,0.3434089482784271,-0.0002636193722486496,0.03515044303201139
1772562361719851000,4.26985107421875,0.3104085959523916,0.014414894321560859,0.03846566852722317
1772562361729918000,4.27991796875,0.20272037464976309,0.08496113344877958,0.048149515738897024
1772562361739986000,4.28998583984375,0.035083588340878484,0.14510259067863224,0.043016171438433226
1772562361750052900,4.300052978515625,-0.07000935577154159,0.17733137411028146,0.06006773440651595
1772562361760119800,4.310119873046875,-0.06689677670896053,0.18131722887605428,0.08105831732396036
1772562361770187000,4.32018701171875,-0.04897592009305954,0.15653846918940542,0.09307287250552326
1772562361780254700,4.330254638671875,-0.05726970118582248,0.1505772226974368,0.12434340536426752
1772562361790322000,4.340322021484375,-0.04873451255261898,0.15658844581097364,0.12868903335314244
1772562361800388900,4.350388916015625,-0.06517009904682636,0.1383750359892845,0.09144570969510823
1772562361810455800,4.360455810546875,-0.11421207011342048,0.12776216429919005,0.053005175609141586
1772562361820523000,4.37052294921875,-0.13422200796306133,0.15456453876793383,0.010843830901756881
1772562361830591000,4.380591064453125,-0.12641338003873825,0.1535173678025603,-0.02020184369254857
1772562361840658000,4.390657958984375,-0.055094110712409015,0.1256353814035654,0.006726824036985635
1772562361850724900,4.400724853515625,0.06853928321897983,0.10871288817524909,0.033883016912080344
1772562361860791800,4.410791748046875,0.13781564854085446,0.06737988405078649,0.034412082287482916
1772562361870859800,4.42085986328125,0.18416589630544183,0.050667818702757356,0.03126870622783899
1772562361880926700,4.4309267578125,0.1907990507096052,0.034897710379958154,0.013888495827279985
1772562361890994000,4.440993896484375,0.12888766119778156,0.03202069363892078,0.017290340160019693
1772562361901060900,4.451060791015625,0.09363982220590114,0.06045446870177984,-0.016030476292036473
1772562361911129000,4.461129150390625,0.1450853472828865,0.02019669259339571,-0.06594992431290447
1772562361921196000,4.471196044921875,0.18084873458147047,-0.011490239046514033,-0.09070325729735196
1772562361931263000,4.481262939453125,0.1452151111423969,-0.023216624936461448,-0.0998794107152149
1772562361941330000,4.491329833984375,0.13222118953466414,-0.03407207321077585,-0.10977945796083659
1772562361951398000,4.50139794921875,0.07224106034636497,-0.023227438591420648,-0.141917859695293
1772562361961464800,4.51146484375,0.02011398274600506,0.009269932648539543,-0.12830379689522087
1772562361971531800,4.52153173828125,-0.008353402325510979,0.030086510705947873,-0.10577939200662076
1772562361981599000,4.531598876953125,0.007379004335403442,0.03538052546083927,-0.0976712331464514
1772562361991666000,4.541666015625,0.025123335340619085,0.02606032392978668,-0.09288999021928757
1772562362001734100,4.551734130859375,-0.002088496711850166,-0.016389993786811826,-0.09978449897337704
1772562362011801000,4.561801025390625,0.02047989344894886,-0.010518179143965243,-0.14150244729481637
1772562362021868000,4.571867919921875,0.04236906917393207,-0.016893267133831977,-0.17614789994675664
1772562362031935000,4.58193505859375,0.08827332673668861,-0.019148644845187662,-0.17258227988705038
1772562362042003000,4.5920029296875,0.15946107863783834,-0.030110476103425023,-0.11026187118291854
1772562362052070000,4.60206982421875,0.21896248439848423,-0.024657763655483722,-0.04343315474148839
1772562362062136800,4.61213671875,0.15548808335363865,-0.021107085436582563,-0.01129592205081135
1772562362072203800,4.622203857421875,0.10597557216584681,0.006285656140744686,-0.02852196480296552
1772562362082271700,4.632271728515625,0.08149462638199328,0.0318500132471323,-0.06998191977534443
1772562362092338700,4.642338623046875,0.026632570859789848,0.038105566510558124,-0.08192783016748725
1772562362102406100,4.65240625,0.03158931648433208,0.049913785465061665,-0.06454495288580656
1772562362112473000,4.66247314453125,0.017567805394530296,0.06307137320190667,-0.01753989447429776
1772562362122541000,4.672541015625,0.004156535157561302,0.07397241418361664,-0.0050691930230706925
1772562362132608000,4.68260791015625,0.0005196399599313736,0.07964724494963885,-0.012908252618275582
1772562362142675000,4.692675048828125,0.05707388635277748,0.08751023340970278,0.009778284029476343
1772562362152740900,4.702740966796875,0.09598960020244121,0.09912322205305099,0.0336869098180905
1772562362162808000,4.71280810546875,0.11022913795709609,0.0950768692716956,0.04568352748416364
1772562362172875800,4.722875732421875,0.1226549042880535,0.09554974748045206,0.06919113472383469
1772562362182943000,4.73294287109375,0.09700842185616493,0.13633067068010568,0.09132153532616794
1772562362193010000,4.743010009765625,0.0783089820832014,0.14046470174491404,0.08756795494630933
1772562362203076900,4.753076904296875,0.08620879542231559,0.10683365029990673,0.05410396716389805
1772562362213143800,4.763143798828125,0.05717851577103138,0.06876666223406791,0.023986878656595944
1772562362223212000,4.7732119140625,0.08333177868127822,0.046694238896667954,0.006907185572572052
1772562362233279000,4.783279052734375,0.15445406413078308,0.04333674516230821,0.011764927802048623
1772562362243346000,4.793345947265625,0.19761925211846829,0.0311965177744627,0.018562223259359596
1772562362253412900,4.803412841796875,0.24349077645540235,0.022024784803390502,0.05456486267391592
1772562362263480800,4.813480712890625,0.23915128594636917,0.025671616873145103,0.061055466802231964
1772562362273547800,4.8235478515625,0.14922726939320563,0.03312923940271139,0.043877099116705356
1772562362283615000,4.833614990234375,0.025507950744032858,0.02855652465969324,0.03206935508623719
1772562362293682000,4.843681884765625,-0.05222177014648914,0.055844344557821744,-0.03208378547038883
1772562362303750000,4.85375,-0.06834639099538325,0.07136778464317321,-0.05279496692456305
1772562362313817000,4.863817138671875,-0.06607552345395087,0.04593494496196508,-0.03264419583212584
1772562362323884000,4.873884033203125,-0.03291150499880314,0.023631927739083767,-0.02843899922724813
1772562362333951000,4.883950927734375,-0.04516600641608238,0.001911386579275131,-0.007334251878224313
1772562362344019000,4.89401904296875,-0.0633861382395029,0.001613280415534973,-0.049433271939121184
1772562362354086000,4.9040859375,-0.059494976019859314,-0.010626900215446948,-0.07647716354615985
1772562362364152800,4.91415283203125,-0.017206570866703987,-0.016533786171674728,-0.1054590374784544
1772562362374219800,4.9242197265625,-0.03253624194562435,-0.019148060323297977,-0.1436184165354818
1772562362384287000,4.934286865234375,-0.043371524214744564,0.00042173254340887066,-0.12771171275358648
1772562362394355000,4.94435498046875,0.04067044856250286,0.03448211531639099,-0.12282394071202725
1772562362404422000,4.954421875,0.12647709292471407,0.017295418193936346,-0.06610825667977333
1772562362414489000,4.964489013671875,0.18312836995124815,-0.008196165937185288,-0.029510135590098796
1772562362424555800,4.9745556640625,0.17916355797350406,-0.018498948764801026,-0.021276267991028726
1772562362434623700,4.984623779296875,0.20202128646969794,-0.004344458945095539,-0.05217807713523507
1772562362444690700,4.994690673828125,0.20093115314543247,0.024394436544179915,-0.07146375583093613
1772562362454757600,5.004757568359375,0.18849486542046068,0.010705518409609795,-0.07462207373138517
1772562362464824600,5.014824462890625,0.13819617229104042,0.034896833597123623,-0.05356741260178387
1772562362474892800,5.024892822265625,0.10840601418316363,0.05162497329711914,-0.06636340048462153
1772562362484959700,5.034959716796875,0.06020341655015945,0.04409457779228687,-0.09957998937722295
1772562362495027000,5.04502685546875,0.03592471534013748,0.032254210133850575,-0.09433408808037638
1772562362505094000,5.055093994140625,0.0062421092599630355,0.0390194664850831,-0.10803776539266109
1772562362515161900,5.065161865234375,-0.004851531684398651,0.04268558777719736,-0.06777531310915946
1772562362525228800,5.075228759765625,-0.014915829581022262,0.046181028677523134,-0.03724032798334956
1772562362535295700,5.085295654296875,0.01369768596291542,0.05102642288208008,-0.008490436176024376
1772562362545362700,5.09536279296875,0.005789689317345619,0.03631079204827547,-0.010714980357699095
1772562362555430700,5.1054306640625,-0.004364624950289726,0.035413550947606565,-0.030700989342480896
1772562362565497600,5.11549755859375,-0.005464110624790191,0.034255320823192596,-0.03434318176973611
1772562362575564800,5.125564697265625,0.033038346248865126,0.036976854741573334,-0.06608352409731597
1772562362585631700,5.1356318359375,0.10798574294447898,-0.0013853168785572052,-0.06033193830065429
1772562362595699000,5.145698974609375,0.11370821224451065,-0.010854571491479873,-0.03305898717809468
1772562362605766700,5.1557666015625,0.1072837321549654,-0.0025908932760357857,-0.026068434171006082
1772562362615833900,5.165833740234375,0.11714929260909557,0.01419131469875574,-0.04533475057911127
1772562362625900800,5.17590087890625,0.06050736793279647,0.044836920592188835,-0.021745858264155683
1772562362635967700,5.1859677734375,-0.008920388558506966,0.05937485677152872,0.0016638050263747572
1772562362646035700,5.19603564453125,-0.003420622098445892,0.08391951544135809,0.0031422435484826563
1772562362656102700,5.2061025390625,0.030113398712873458,0.09656564652472734,0.010816321840323507
1772562362666169600,5.216169677734375,0.03499883266687393,0.08443418696522713,0.017530067200027404
1772562362676236500,5.226236572265625,0.03939677536487579,0.08263970476388931,0.007867737700417637
1772562362686304800,5.2363046875,0.09422843574881554,0.06747048494368792,0.02705547244697809
1772562362696371700,5.246371826171875,0.06768529673814773,0.05842705452740192,0.02648549053929746
1772562362706438700,5.256438720703125,0.019074118304252624,0.07689794624149798,0.010329415106214582
1772562362716505900,5.266505859375,0.07186345920562744,0.08461480422914028,-0.015653130879625676
1772562362726573800,5.27657373046875,0.08892799125313758,0.09229396055489777,-0.0162885427063331
1772562362736640800,5.286640869140625,0.05737608416974544,0.09204641553461551,0.034566688327305015
1772562362746707700,5.296707763671875,-0.0032739071041345594,0.11275076538920402,0.06667060327026993
1772562362756774700,5.306774658203125,0.02455108841061592,0.12898702991902827,0.06700491325855255
1772562362766841600,5.316841552734375,0.11719780792593955,0.10329027860462665,0.06958776935860514
1772562362776909800,5.326909912109375,0.16779285365343094,0.042058395789563656,0.04643960654847323
1772562362786976800,5.336976806640625,0.1984188780635595,0.027061317665874957,-0.0032281682662665843
1772562362797043700,5.347043701171875,0.22053426375985144,-0.007593231607973575,-0.030988318383879956
1772562362807111000,5.35711083984375,0.14127894073724745,-0.016875146955251694,-0.024803528801724314
1772562362817178600,5.3671787109375,0.034953239959478376,0.03082125472128391,-0.02468308075983077
1772562362827245800,5.377245849609375,0.029574469530582428,0.07047814232707023,-0.02062094588745385
1772562362837312800,5.387312744140625,0.02797171050906181,0.03664280048161745,-0.008871434850245713
1772562362847379700,5.397379638671875,-0.01194178220629692,0.03758709559440612,0.02098086524102837
1772562362857448000,5.407447998046875,-0.018544541472196578,0.01921937199383974,0.008263787813298404
1772562362867515000,5.417514892578125,-0.015633622461557386,0.008688917890191078,-0.004721402498707175
1772562362877581800,5.427581787109375,-0.0770148506194353,-0.0015744097098708153,-0.04816716099344193
1772562362887648800,5.437648681640625,-0.14579904851019382,0.012760112851858138,-0.0908966975102201
1772562362897716700,5.447716796875,-0.21697043379843234,0.039167935045063496,-0.1323531453512609
1772562362907783700,5.45778369140625,-0.22209552172720431,0.05195815077424049,-0.17950239800643175
1772562362917850600,5.4678505859375,-0.09758125330805778,0.061302902224659915,-0.1931239865258336
1772562362927917800,5.477917724609375,0.033092122262716295,0.033761107565462585,-0.13770875410027802
1772562362937984800,5.48798486328125,0.08027180658876895,0.005915946045517921,-0.061865723739191886
1772562362948052700,5.498052734375,0.08051555221676826,0.006937398047745227,-0.03846548586413264
1772562362958119700,5.50811962890625,0.05805179147422313,0.02188800668120384,-0.03872910523638129
1772562362968187000,5.518186767578125,0.087267364564538,0.04447802415192127,-0.06344904740788042
1772562362978253800,5.52825390625,0.08901859214603901,0.020855156502127645,-0.06764182292260229
1772562362988321800,5.53832177734375,0.1727431695371866,0.006914893954992294,-0.035043986982852215
1772562362998388700,5.548388671875,0.21696166597008704,-0.0032549101427197455,-0.0008715586701408028
1772562363008455700,5.55845556640625,0.22538345735669135,-0.03969166665822267,0.011683204335346817
1772562363018522600,5.568522705078125,0.16533377006351946,-0.031005379116535184,-0.03950187970716506
1772562363028590600,5.578590576171875,0.09505085804760456,-0.00459580335766077,-0.07696739474851638
1772562363038657800,5.58865771484375,0.08890519489943981,-0.01704991900026798,-0.13596983801107854
1772562363048724700,5.598724853515625,0.12430325601696968,0.0007213000118732452,-0.11899382449723779
1772562363058791700,5.608791748046875,0.18244798647165297,0.00883037218749523,-0.050149165123514826
1772562363068860000,5.61885986328125,0.19386136088967323,0.013240297584235667,0.01729139960594475
1772562363078926800,5.6289267578125,0.12932371452748775,0.03960924907177686,0.04989573835171759
1772562363088993800,5.638993896484375,0.03940203606188297,0.09865297419279813,0.040011180936172605
1772562363099060700,5.649060791015625,0.056468321675062175,0.11903379118144511,-0.016376768979057668
1772562363109128700,5.659128662109375,-0.000180032742023468,0.12218261060118675,-0.06533946426436305
1772562363119195600,5.669195556640625,-0.011214052453637123,0.11405512598603963,-0.08805895333364605
1772562363129262600,5.6792626953125,0.00935585736632347,0.1086103045836091,-0.08179229415431619
1772562363139329800,5.689329833984375,0.036709143716096876,0.10701660565137862,-0.040682029402442275
1772562363149396700,5.699396728515625,0.06961012732088566,0.1264218556061387,0.0028508228538557884
1772562363159465000,5.70946484375,0.13229250120520591,0.12749182292521,0.09372728129364549
1772562363169532000,5.719531982421875,0.13598200337290764,0.11445961513370274,0.13110226850733162
1772562363179598800,5.729598876953125,0.08837211093604565,0.09453414069712161,0.10630242950003593
1772562363189665800,5.739665771484375,0.08060498406589031,0.043614977581799025,0.00816938752811402
1772562363199733800,5.749733642578125,0.060139703664183614,0.030811025588214396,-0.055900275996141134
1772562363209800700,5.75980078125,0.048750879165530205,0.034438568435609336,-0.07664831886198371
1772562363219867600,5.76986767578125,0.03285246828794479,-0.006191840377449989,-0.08114004079066217
1772562363229934600,5.7799345703125,0.01424012227654457,-0.0011333879441022873,-0.05686663681026548
1772562363240002600,5.79000244140625,0.031706805384159084,-0.009410510163009166,-0.005008183550834655
1772562363250069800,5.80006982421875,0.06745441059172153,-0.028490765947103498,0.026810448177345094
1772562363260137000,5.810136962890625,0.10174480272829532,-0.0224649297863245,0.0013572232952341436
1772562363270204000,5.820203857421875,0.05992050795555114,-0.027668051387369632,-0.04806373715158552
1772562363280272000,5.83027197265625,0.028982348856329915,-0.020941958002746106,-0.11600088975895195
1772562363290338800,5.8403388671875,0.08299977024793624,-0.00829056622236967,-0.13327884536143392
1772562363300405800,5.85040576171875,0.1121107139199972,-0.03454349011480808,-0.099513463479653
1772562363310472700,5.86047265625,0.12336159125268459,-0.0377908014729619,-0.030968773433193562
1772562363320540700,5.870540771484375,0.16611176869869232,-0.03874707928448915,-0.038848639962822194
1772562363330607600,5.880607666015625,0.13849895462989806,-0.025915070240199563,-0.05895180905386805
1772562363340674600,5.890674560546875,0.119783732765913,-0.016823124507069586,-0.06683905517235397
1772562363350741800,5.90074169921875,0.08525485569834709,-0.036569735245406625,-0.11154131653420626
1772562363360809000,5.91080908203125,0.0013186813831329346,-0.041759120582044125,-0.12278039383124559
1772562363370876700,5.920876708984375,-0.08718027080297469,-0.003427344100177288,-0.12942954952213911
1772562363380944000,5.93094384765625,-0.07469839037060737,0.008865735761821269,-0.12461005694381892
1772562363391010800,5.9410107421875,-0.01910042178928852,0.026359014615416527,-0.07648001309037208
1772562363401077800,5.951077880859375,0.047431028738617896,0.021918694080412388,-0.002860467465035617
1772562363411145700,5.961145751953125,0.06282733531296253,0.009902385333180427,0.03703888712711632
1772562363421212700,5.971212646484375,0.03787760297358036,0.009068564857542514,0.001248429158516228
1772562363431279900,5.98127978515625,-0.03263677971065044,0.019658347932994365,-0.08459978932309896
1772562363441346800,5.991346923828125,-0.08856383411586284,0.03650602235943079,-0.14996457069180905
1772562363451414800,6.001414794921875,-0.024696049839258192,0.036385903111100196,-0.15866780936829744
1772562363461481700,6.011481689453125,0.06338906084895134,0.017231120786070822,-0.08906897062640637
1772562363471548700,6.021548583984375,0.135757546967268,0.020174773022532462,0.015217296745628118
1772562363481616100,6.0316162109375,0.19724515810906887,0.04211597119569778,0.040741906363517044
1772562363491683800,6.041683837890625,0.21327099475860595,0.05851093341857195,0.052175227591022846
1772562363501751000,6.0517509765625,0.13876140495836733,0.059903849081695076,0.033141623960249125
1772562363511818000,6.06181787109375,0.007088496956229209,0.08987433219254017,-0.036352293102443214
1772562363521885000,6.071885009765625,0.003245265531539917,0.09249269799739122,-0.07732504907976835
1772562363531951900,6.081951904296875,0.08922375932931899,0.057493573069572444,-0.10094086593426764
1772562363542019800,6.092019775390625,0.1435994926393032,0.018262801921367644,-0.054942756075598294
1772562363552086800,6.102086669921875,0.09487140982747078,0.004641688326001167,-0.02211936775166541
1772562363562153700,6.11215380859375,0.0029933365970849987,0.026021453224122523,-0.031705051818490024
1772562363572221000,6.122220947265625,-0.07049333989620209,0.04227349984496832,-0.05849248444642871
1772562363582289000,6.132288818359375,-0.008981763356924057,0.043271863232553005,-0.09082195177357644
1772562363592355800,6.14235595703125,0.02840484122931957,0.030296061803400515,-0.07240231532268225
1772562363602423000,6.152423095703125,0.10604571479260921,0.007866787852346896,-0.05291194436773657
1772562363612490000,6.162489990234375,0.12379822910428047,-0.015136194333434104,-0.053063225939311086
1772562363622558000,6.172557861328125,0.08123568318486213,0.0006084872871637344,-0.09191705353390425
1772562363632625000,6.182625,0.07387713711559772,0.0031298224583268166,-0.11958572597578167
1772562363642691800,6.19269189453125,0.14162497769594193,-0.024698972448706627,-0.14306425325144081
1772562363652758800,6.2027587890625,0.1888034929782152,-0.04562485609948635,-0.11532280783429741
1772562363662827000,6.212826904296875,0.18232874400615692,-0.03933189343512058,-0.10168152823373675
1772562363672894000,6.22289404296875,0.15801964765787124,-0.01549275268614292,-0.12333751625735312
1772562363682961000,6.2329609375,0.12260814253687857,0.029578853444755075,-0.12424688618723302
1772562363693028000,6.243028076171875,0.08067161956131458,0.0491126982152462,-0.1147232710385695
1772562363703095800,6.253095703125,0.098878891903162,0.05918254906982183,-0.10378591663446277
1772562363713163000,6.2631630859375,0.13088380345106124,0.03871551510244608,-0.11412380730807781
1772562363723230000,6.27322998046875,0.09108604606986045,-0.005771569138765335,-0.15290000308919696
1772562363733297000,6.283296875,0.027644378250837324,0.005850771854817867,-0.17639705240223555
1772562363743363800,6.29336376953125,-0.05095744929909706,0.03516162201315164,-0.19469393925629555
1772562363753431800,6.303431884765625,-0.06652502078711986,0.032899230039119716,-0.1747284981355071
1772562363763499000,6.3134990234375,-0.03320435046553612,0.02068243028372526,-0.15824494431372732
1772562363773566000,6.32356591796875,-0.03975274919569492,0.016949381235241888,-0.10780596593078225
1772562363783633000,6.3336328125,-0.011992635610699652,-0.0009732289463281631,-0.07196830781958997
1772562363793700900,6.343700927734375,-0.012988076388835906,-0.01504004048258066,-0.10668383003305643
1772562363803767800,6.353767822265625,-0.016432663884758947,-0.006063537822663783,-0.13249171357173473
1772562363813835000,6.3638349609375,-0.0024777882903814314,-0.004734919567406177,-0.17570209240801632
1772562363823902000,6.37390185546875,0.012666589349508284,-0.019534137031435965,-0.1589967855943367
1772562363833970000,6.383969970703125,0.06541442919671535,0.009914368031919002,-0.11471293230764568
1772562363844036900,6.394036865234375,0.170944595682621,-0.009005728754401206,-0.05385543576292693
1772562363854103800,6.404103759765625,0.24643150608241557,-0.0056093643143773075,0.012449183739162982
1772562363864171000,6.4141708984375,0.296285962575674,0.012529811227321623,0.05375237724725157
1772562363874239000,6.424239013671875,0.34418227073848245,0.014135200597345828,0.06952033014558255
1772562363884306000,6.434305908203125,0.2941723314225673,0.04522942704111337,0.07753642680812627
1772562363894372900,6.444372802734375,0.17663199366927146,0.07633534392267464,0.08815762793514877
1772562363904439800,6.454439697265625,0.11517477766573428,0.12618307841420173,0.090079791636765
1772562363914507800,6.4645078125,0.10673486610054969,0.1501093129247427,0.11244089572243392
1772562363924575000,6.474574951171875,0.10365385122001171,0.14541910928189752,0.15481789247449487
1772562363934642000,6.484641845703125,0.09614683659076691,0.12978081064522265,0.18592183659467845
1772562363944708900,6.494708984375,0.04527063583433628,0.14902210220992565,0.2024455762963742
1772562363954775800,6.50477587890625,-0.03296060483753681,0.15322539911866187,0.17186353715844452
1772562363964844000,6.514843994140625,-0.1061070895910263,0.15894582259207962,0.12796769680865108
1772562363974911000,6.524910888671875,-0.12823124311566353,0.15421294885128736,0.08688994608689099
1772562363984978000,6.53497802734375,-0.09555237782895565,0.15024199939370153,0.07755246462747455
1772562363995044900,6.545044921875,-0.0025350714355707165,0.1364873225465417,0.07974986507389693
1772562364005112800,6.55511279296875,0.03461012561023235,0.09832301158607006,0.12258655175957828
1772562364015179800,6.5651796875,0.04195464315414429,0.0900777458101511,0.12379125137422232
1772562364025247000,6.5752470703125,0.02997954320013523,0.1062684176325798,0.12214304577577859
1772562364035314000,6.58531396484375,0.02930500493943691,0.088045070938766,0.06770217480771243
1772562364045382100,6.595382080078125,-0.001513327172398567,0.07676409072875977,0.03146733407247811
1772562364055449000,6.605448974609375,0.012095511463284492,0.056688101905584334,-0.007355988785997033
1772562364065516000,6.61551611328125,0.08488309977650642,0.030901334220170974,-0.05400879969373345
1772562364075583000,6.6255830078125,0.12513327710032462,-0.011816986782848834,-0.04402881907969713
1772562364085651000,6.63565087890625,0.1026607485294342,-0.0260530174061656,-0.025769926148466765
1772562364095718000,6.6457177734375,0.0944435398042202,-0.0028898762226104734,0.011003624573349953
1772562364105784800,6.655784912109375,0.08297872745990753,-0.006220481950044631,-0.023037834303453564
1772562364115851800,6.665851806640625,0.05709609818458557,-0.004793079495429993,-0.07867310268785804
1772562364125919700,6.675919677734375,0.06673427962362766,-0.015474340246617794,-0.11688578283470123
1772562364135986700,6.685986572265625,0.10501286461353301,-0.05009235690236091,-0.16955237413924187
1772562364146054100,6.69605419921875,0.10531564695239067,-0.07918634943962097,-0.18369659829325974
1772562364156121000,6.70612109375,0.08360942657887935,-0.07421908242106437,-0.17561130885202436
1772562364166189000,6.71618896484375,0.044211482170224185,-0.06324059228897094,-0.19217563629243523
1772562364176256000,6.726256103515625,-0.018507132071256635,-0.04505962343215942,-0.18146876617595553
1772562364186323000,6.736322998046875,-0.0230967979490757,-0.006023498073220252,-0.15358371103703974
1772562364196390000,6.746389892578125,0.021404607078433037,0.019514555548131463,-0.16016151852477342
1772562364206456800,6.756456787109375,0.10784253508150576,-0.0011538462102413177,-0.12801065916754303
1772562364216524800,6.76652490234375,0.17969605741500855,-0.014928689062595367,-0.13573252212386577
1772562364226591700,6.776591796875,0.14082593627274034,-0.014726444488763809,-0.11588062438014894
1772562364236658700,6.78665869140625,0.10525193406641482,0.022772388300299644,-0.11131755424831062
1772562364246726000,6.796725830078125,0.1269856269687414,0.026857319526374338,-0.0998949005452916
1772562364256793900,6.8067939453125,0.1310942313313484,0.0173693602129817,-0.06323503933101893
1772562364266861000,6.816861083984375,0.11561959882378578,0.031713819646835326,-0.046817792211100454
1772562364276928000,6.826927978515625,0.09887246216237544,0.046806759360432625,-0.05134111485444009
1772562364286995000,6.836994873046875,0.06380114878118037,0.03493190491050482,-0.02785564638134092
1772562364297063000,6.84706298828125,0.011643091520667075,0.05553980865329504,-0.024266645446047185
1772562364307129900,6.8571298828125,-0.0014753332495689392,0.06648644234240055,-0.02249821100141853
1772562364317196800,6.86719677734375,0.020743512821197508,0.07076338900923729,-0.006231989724747836
1772562364327263700,6.877263671875,0.0531038136780262,0.05991670856326818,-0.0032184505898505446
1772562364337332000,6.88733203125,0.05801321302950382,0.044127895539999004,0.01641026938986033
1772562364347399000,6.89739892578125,0.07129530392885208,0.0646931291848421,0.029451719933748243
1772562364357465900,6.9074658203125,-0.006204115337133408,0.10389379745572805,0.05584949565697461
1772562364367533000,6.917532958984375,-0.05111410116553306,0.09871464125216006,0.052084151774086054
1772562364377600000,6.92760009765625,-0.012877017229795455,0.06283785670697689,0.017911212004721164
1772562364387668000,6.93766796875,0.09016425504982471,0.02930851207077503,-0.014966171528771518
1772562364397735000,6.94773486328125,0.15937164678871632,0.017482757459580896,-0.03557670562006533
1772562364407801900,6.9578017578125,0.16416355724036694,0.014696049350500106,-0.031573936252109705
1772562364417868800,6.967868896484375,0.13851882837414742,0.020353636720776558,0.036269583255052563
1772562364427937300,6.977937255859375,0.11304594894349575,0.018953414534032344,0.0611083660332486
1772562364438004200,6.988004150390625,0.05801145946383476,0.027826456819474696,0.0501962191356346
1772562364448071200,6.9980712890625,0.02383914074897766,0.038920682285726066,0.05346347730327397
1772562364458138000,7.00813818359375,-0.015223288094997406,0.030540976475179192,0.010387903827801347
1772562364468206000,7.0182060546875,-0.08102233269512653,0.024496727874875068,-0.023434103612042963
1772562364478273300,7.028273193359375,-0.10130056609213352,0.029766777232289314,-0.049244982825405896
1772562364488340200,7.03834033203125,-0.10802315234541893,0.04174918370991945,-0.0894789396667853
1772562364498407400,7.048407470703125,-0.11339081685841083,0.0071270754009485245,-0.1252377603881061
1772562364508475400,7.058475341796875,-0.07573650124669075,0.00015957447588443754,-0.1283512162335217
1772562364518542300,7.068542236328125,0.011732523369789123,-0.01682517033368349,-0.13919946758206933
1772562364528609300,7.078609375,0.056148588201403615,-0.005178571681678294,-0.10525646411105989
1772562364538676200,7.08867626953125,0.07841419602334498,-0.009637889178097247,-0.09963146383613347
1772562364548744200,7.098744140625,0.08275134844481945,0.012101356682181357,-0.13337346484232693
1772562364558811100,7.10881103515625,0.11742284885346889,0.03809416833370924,-0.1359346205672249
1772562364568878000,7.118878173828125,0.1713058302104473,0.05013648830503225,-0.09832911253329366
1772562364578945300,7.1289453125,0.26329905425310135,0.04373948074430227,-0.057844797660037875
1772562364589013200,7.13901318359375,0.32627310456037517,0.048397243422269816,-0.007625453377142548
1772562364599080400,7.14908056640625,0.27494039220809935,0.03824965115636587,-0.029398199648223815
1772562364609147400,7.1591474609375,0.2141489466369152,0.04373860396146774,-0.09199004570487886
1772562364619214300,7.16921435546875,0.14226327559947965,0.03233721224218607,-0.11975341069288552
1772562364629282300,7.1792822265625,0.13615911350548265,0.026552491360902784,-0.13476101021058856
1772562364639349200,7.189349365234375,0.17380290772318838,0.03260550778955221,-0.13949183812476693
1772562364649416200,7.199416259765625,0.15567922201156614,0.036056525026261804,-0.11400821810439228
1772562364659483100,7.209483154296875,0.14247896417677403,0.038571138195693494,-0.05458977791946381
1772562364669550000,7.219550048828125,0.16709025834202765,0.05910831478983163,-0.003712956108525395
1772562364679618300,7.229618408203125,0.16877777303755281,0.061685471801459786,0.0033934783631935713
1772562364689685200,7.239685302734375,0.1651005458295345,0.0318041282787919,0.0012351678181439637
1772562364699752400,7.24975244140625,0.1361708039432764,0.023529928669333455,-0.0377084569517523
1772562364709819400,7.2598193359375,0.06957154887616634,0.021781623697280882,-0.08809855469167233
1772562364719887400,7.269887451171875,0.0015495675295591354,-0.007388064424693584,-0.16553057127725332
1772562364729954300,7.279954345703125,-0.03686111940741539,-0.02240706211924553,-0.16699655217658727
1772562364740021200,7.290021240234375,-0.044511926421523094,-0.013309271167218684,-0.14065923793632537
1772562364750088200,7.300088134765625,0.04346446319520473,0.019186054246127605,-0.039304786232486365
1772562364760156200,7.31015625,0.07643325133919715,0.021483809794485567,0.04129983250722289
1772562364770223000,7.32022314453125,0.04430559019446373,0.014800386507809161,0.08933167668320238
1772562364780290300,7.330290283203125,0.03747194478213787,0.05789280152022838,0.0767845855275169
1772562364790357200,7.340357177734375,0.047342181411385534,0.04986527014821768,0.03643854661379009
1772562364800425200,7.35042529296875,0.02040975082218647,0.04609130456745624,0.009695135790668427
1772562364810492200,7.3604921875,0.03297521788477897,0.06345189695209265,0.002660889772325754
1772562364820559400,7.370559326171875,0.0002782324194908142,0.06412409712523222,-0.004353519034385681
1772562364830626300,7.380626220703125,-0.06579612199068069,0.07772124532312154,-0.02866867979727685
1772562364840693200,7.390693359375,-0.0960199953407049,0.07902034522294998,-0.06750354696307331
1772562364850761200,7.40076123046875,-0.06277063668966293,0.08781944548934698,-0.07245404550991952
1772562364860828200,7.410828125,0.027462591943144796,0.0888707081079483,-0.047799496724829076
1772562364870895000,7.42089501953125,0.09069675449132919,0.10193740269094705,-0.010952296244911848
1772562364880962000,7.430962158203125,0.07029167984426021,0.0944827027708292,0.01755764932669699
1772562364891030300,7.4410302734375,0.05066285026669502,0.10978110192865133,-0.0019495266325771808
1772562364901097200,7.45109716796875,0.07028817271292209,0.09407441423088311,-0.02545976422075182
1772562364911164200,7.4611640625,0.16168343086242676,0.071200319121778,-0.06371931571662426
1772562364921231400,7.4712314453125,0.29758827734589577,0.02945405802130699,-0.10059749585669488
1772562364931299300,7.48129931640625,0.3827057704001665,-0.0315144976824522,-0.07624613126926123
1772562364941366300,7.4913662109375,0.36023265730738635,-0.030240239962935445,-0.0352450625129044
1772562364951433200,7.50143310546875,0.2759656436026096,-0.037055472935736175,-0.015095496996864676
1772562364961500200,7.511500244140625,0.1855266632646322,-0.012939853332936763,-0.04153579668756574
1772562364971568400,7.521568359375,0.10998656137287616,-0.005489829587936401,-0.0625226532779634
1772562364981635300,7.53163525390625,0.07815057665109634,0.007938684044778347,-0.054748256416805086
1772562364991702300,7.541702392578125,0.05812894836366176,-0.017579203571379185,-0.05812149570956826
1772562365001769200,7.551769287109375,0.025159575697779653,-0.022676526710391044,-0.0410501685950905
1772562365011837200,7.561837158203125,-0.06042670391201973,-0.004917874918878078,-0.05250741868745535
1772562365021904100,7.571904052734375,-0.16245850688815117,-0.0148836808770895,-0.10341105544008314
1772562365031971300,7.581971435546875,-0.1750263120383024,-0.0004904138654470443,-0.14113573287427425
1772562365042038300,7.592038330078125,-0.13969430189430712,-0.017761574400961398,-0.15134250798150897
1772562365052106200,7.602106201171875,-0.07861936320662498,-0.04759761747717857,-0.11017251239903271
1772562365062173400,7.61217333984375,-0.014795418071746825,-0.03773644093722105,-0.056186326395906504
1772562365072240400,7.622240478515625,-0.01413549285829067,0.010025719451904296,-0.029267778201587498
1772562365082307300,7.632307373046875,-0.01781681171953678,0.05199351434856653,0.011288067537918686
1772562365092374300,7.642374267578125,0.016503391033411027,0.04398088828474283,0.03587853811085224
1772562365102442200,7.652442138671875,0.09588204817473887,0.06029869361817836,0.052855099613964555
1772562365112509200,7.66250927734375,0.12614099283814428,0.05149141004532575,0.060021301448903976
1772562365122576100,7.672576171875,0.0928051249474287,0.02591711606681347,0.058945635041408234
1772562365132643300,7.682643310546875,0.05557108057439327,0.05777940427362919,0.038661775621213014
1772562365142711000,7.6927109375,0.013999299257993697,0.09600684359818697,0.020901260666176674
1772562365152778200,7.7027783203125,0.01435118143558502,0.11979162381142378,0.025250724579952654
1772562365162845200,7.71284521484375,0.024191022926568984,0.07454992181062697,0.01630589569993317
1772562365172912400,7.722912353515625,0.044127895539999004,0.05903086563944816,-0.005851137180998921
1772562365182980400,7.73298046875,0.058659109717607495,0.06599982786923647,0.005204363710060715
1772562365193047300,7.74304736328125,0.04477379222810268,0.0414767965093255,-0.016006510894559324
1772562365203114200,7.7531142578125,-0.031605683097243306,0.04770195463448763,-0.04238017508983612
1772562365213181200,7.76318115234375,-0.02621288414299488,0.06387713662683964,-0.044481823544204234
1772562365223249200,7.773249267578125,0.0373398428350687,0.08952741845101117,-0.07559406056869775
1772562365233316000,7.783316162109375,0.10803016660809517,0.0565393410846591,-0.057093248640373344
1772562365243383300,7.79338330078125,0.22269816379547117,0.006840659675002097,-0.011251607985049485
1772562365253450200,7.8034501953125,0.22912089031934738,-0.02301876427680254,-0.014551635911129414
1772562365263517200,7.81351708984375,0.15728665720820426,0.004233107525110244,-0.04354183928035199
1772562365273585400,7.82358544921875,0.05566869572997093,0.030208091259002683,-0.06608820027243345
1772562365283652400,7.83365234375,0.014733458751440047,0.07496785496175289,-0.11591518423687666
1772562365293719300,7.84371923828125,0.06623977410495281,0.06383768139928579,-0.11540138949584215
1772562365303786200,7.8537861328125,0.16972411397695542,0.04339285926371812,-0.06235628373511135
1772562365313854200,7.863854248046875,0.19643617981374262,0.041137773813307285,-0.018214834593795238
1772562365323921200,7.873921142578125,0.2177384955614805,0.026077275064587593,0.0033318843690678477
1772562365333988000,7.883988037109375,0.15847206760048865,0.018191197989881037,-0.03619860037807375
1772562365344055300,7.89405517578125,0.07898001321256161,0.021774901695549485,-0.08199216410797089
1772562365354123300,7.904123291015625,0.04609247361123561,0.04753536589592695,-0.14325743773598223
1772562365364190500,7.9141904296875,0.03226443926692009,0.03057517100572586,-0.1321116647455841
1772562365374257400,7.92425732421875,0.05769640216529369,0.022618366782367227,-0.07534476198274642
1772562365384324400,7.934324462890625,0.06867839942872524,0.028237667968869208,-0.03382317648362368
1772562365394392300,7.944392333984375,0.05367781417369842,0.013211071489751338,-0.017222206827253103
1772562365404459300,7.954459228515625,0.03134849346578121,0.037672435790300364,-0.04673731085341423
1772562365414526200,7.964526123046875,-0.013020809614658355,0.02171937211602926,-0.08279529718440025
1772562365424592400,7.97459228515625,-0.041402854490280146,0.033682197110354896,-0.08267736989315598
1772562365434660400,7.984660400390625,0.026176059263944625,0.03139788556545973,-0.05983615414034575
1772562365444727300,7.994727294921875,0.07544424030184746,-0.006988251452147961,-0.02560125505067408
1772562365454794500,8.00479443359375,0.11501637223362922,-0.02372223637104034,-0.016058496810123325
1772562365464861400,8.014861328125,0.1536725583642721,-0.015096154583990573,-0.031449506154842675
1772562365474928400,8.024928466796876,0.16895137603878974,0.00652034167945385,-0.04896291448101401
1772562365484996400,8.034996337890625,0.14247662608921527,0.017678572292625903,-0.016829188921675085
1772562365495063300,8.045063232421874,0.10594693059325218,0.03264437849521637,0.01054893960841
1772562365505130500,8.055130615234376,0.07336860307157039,0.04830459670275449,0.006291610957495868
1772562365515197400,8.065197509765625,0.06500643291771412,0.028876550394296645,-0.013934417328238486
1772562365525265400,8.075265380859374,0.04878653500080108,0.03753185827583074,-0.023635690598748624
1772562365535332400,8.085332275390625,0.03671381989121437,0.03264788562655449,-0.042696109171211714
1772562365545399600,8.095399658203124,-0.006265490135550498,0.046726095339655875,-0.04623783689867705
1772562365555466500,8.105466552734375,-0.016600421667098998,0.06702332569807767,-0.0496372700786218
1772562365565534500,8.115534423828125,0.02863280476629734,0.07030746193528174,-0.05383143383283168
1772562365575601400,8.125601318359376,0.01090659393966198,0.05583353090286255,-0.030444713026471434
1772562365585668400,8.13566845703125,0.008002689191699027,0.041810558508336544,-0.055667197892628605
1772562365595735300,8.1457353515625,0.06834113029837607,0.014040215790271758,-0.0836172080265358
1772562365605803500,8.155803466796876,0.10802081425786017,0.010066635984182358,-0.10784231588579714
1772562365615870500,8.165870361328125,0.13053075222969054,0.0045811903104186055,-0.0979061013482511
1772562365625937400,8.1759375,0.1739461155861616,0.034759470953047274,-0.0707952819848433
1772562365636004400,8.18600439453125,0.20627485226094722,0.053169572390615934,-0.04212367957811802
1772562365646072300,8.196072265625,0.23069383872449398,0.06266337692290544,0.009468925819359719
1772562365656139300,8.20613916015625,0.2564092947393656,0.06638941170871257,0.04930328888390213
1772562365666206500,8.21620654296875,0.22816811963915823,0.034110943916440005,0.023750403019599617
1772562365676273400,8.2262734375,0.1599602603316307,0.0017576573222875594,-0.026413557814247906
1772562365686340400,8.23634033203125,0.09818272633254528,-0.001815232728421688,-0.08204429615400731
1772562365696408600,8.24640869140625,0.04531798210740089,0.003980009546875953,-0.11567607825137674
1772562365706475500,8.2564755859375,0.022546178328990935,-0.011146247914433478,-0.08768993735816329
1772562365716542500,8.26654248046875,0.00029576807618141173,-0.0034632921963930127,-0.0975266735766083
1772562365726609400,8.276609375,-0.006883914294838905,-0.017969079671800135,-0.059930992816947394
1772562365736677400,8.286677490234375,-0.08778875809013843,0.02882657377272844,-0.04448412509914487
1772562365746744300,8.296744384765624,-0.1924988403648138,0.052662791912257666,-0.04717442362904548
1772562365756811300,8.306811279296875,-0.1686228747367859,0.026074060194194316,-0.05196074459012597
1772562365766878500,8.31687841796875,-0.09709083944261074,0.0183387897670269,-0.06185111069194972
1772562365776946400,8.326946533203126,-0.04090893349349498,0.007825579059123993,-0.06295841434672475
1772562365787013600,8.337013671875,0.03145429192781448,0.016195055736601353,-0.05026336608771234
1772562365797080600,8.34708056640625,0.09136135587990284,0.014530629655718802,-0.026559432558342814
1772562365807147500,8.3571474609375,0.10039338811933994,0.008871288719773293,-0.00628028584588319
1772562365817215500,8.367215576171875,0.11389409020543098,0.00986263784468174,-0.010272314624115824
1772562365827282400,8.377282470703125,0.13353577926456928,0.020410335344076155,-0.0132094640545547
1772562365837349400,8.387349365234375,0.11092764161527156,0.018621406100690362,-0.041708157579787075
1772562365847416300,8.397416259765626,0.05621288560926914,0.013457739727199077,-0.06899239728134125
1772562365857484300,8.407484375,0.0410650008380413,0.05615443342030048,-0.07200147943682968
1772562365867551200,8.41755126953125,0.06981354093849658,0.07307604986578226,-0.05713716084733605
1772562365877618400,8.427618408203125,0.0760433752387762,0.06210165138691663,-0.035431123136915266
1772562365887685400,8.437685302734375,0.08640285668969154,0.04938011697977781,-0.049901437440142034
1772562365897752600,8.447752685546876,0.10951543672978878,0.039704233878850935,-0.09489336593095213
1772562365907820500,8.457820556640625,0.06363222195506095,0.03977291520088911,-0.14162095910795033
1772562365917887500,8.467887451171874,0.0368213719189167,0.0819321410164237,-0.14073201091159135
1772562365927954400,8.477954345703125,0.12397066306173801,0.0849970815449953,-0.10234554510042071
1772562365938021400,8.488021484375,0.28673429037630555,0.05128945773243904,-0.0573218332318589
1772562365948089300,8.49808935546875,0.3432049501389265,0.021144787098467347,-0.033965653694234786
1772562365958156300,8.50815625,0.2642576701521873,0.029665654945373533,-0.059888578447327014
1772562365968223200,8.51822314453125,0.18733868112266064,0.04542524187415838,-0.1186070536693558
1772562365978290400,8.52829052734375,0.05762450597286224,0.04052139548063278,-0.18857213190775363
1772562365988358400,8.5383583984375,0.04691840304136276,0.0654147214576602,-0.1700819509712979
1772562365998425600,8.548425537109376,0.170260120549798,0.04763678044378757,-0.13927443251442162
1772562366008492500,8.558492431640625,0.2316770045429468,0.002495323947072029,-0.10337200207132846
1772562366018559500,8.5685595703125,0.20436580376923083,-0.029600773015618323,-0.09469152321591973
1772562366028627500,8.57862744140625,0.1253045420140028,-0.027658406776189803,-0.1548938803201541
1772562366038694400,8.5886943359375,0.06805763718187809,-0.03152881846874952,-0.15979180842954666
1772562366048761300,8.59876123046875,0.03981938469111919,-0.01681786381006241,-0.12744045806415377
1772562366058828300,8.608828369140625,0.01879354779720306,-0.042187282866239545,-0.1258364204009995
1772562366068896500,8.618896484375,-0.06954407634735107,-0.04101180934607982,-0.07697320343479513
1772562366078963500,8.62896337890625,-0.11941314588785171,-0.020396014557778834,-0.06242010621894151
1772562366089030400,8.639030517578124,-0.13870353729128837,-0.026091595850884913,-0.09400565984360873
1772562366099097600,8.64909765625,-0.09893792861402034,-0.0215738261654973,-0.10168814063761383
1772562366109164500,8.65916455078125,-0.02506079149842262,-0.047131753531098365,-0.08243409918919205
1772562366119232500,8.669232421875,0.01153612401485443,-0.06427110438048839,-0.0569437206344679
1772562366129299500,8.679299560546875,0.020280571484565732,-0.04535334568172693,-0.05450096712484955
1772562366139366400,8.689366455078124,0.03427461004555225,-0.037088206161558626,-0.07473452112991362
1772562366149433300,8.699433349609375,0.030603228056430815,-0.023212825544178483,-0.07458780613560229
1772562366159501300,8.709501220703125,0.07217325580716133,-0.00995674586892128,-0.09240560423582792
1772562366169568300,8.719568359375,0.08196165937185287,0.020666648192703724,-0.048136108268052334
1772562366179635500,8.729635498046875,0.12077858902215957,0.06624708062857389,0.04095744881033897
1772562366189702400,8.739702392578126,0.18395196129381655,0.09259966550320387,0.06772577487900852
1772562366199770400,8.749770263671875,0.20552549519836902,0.07908055097758769,0.07452409324962646
1772562366209837300,8.75983740234375,0.09215221399664879,0.08458236326426267,0.05285104449335486
1772562366219904500,8.769904541015626,0.02591653154492378,0.10424012667536735,0.024829540025815368
1772562366229971500,8.779971435546875,0.039271687680482864,0.11859247715473174,-0.020112156115099786
1772562366240039400,8.790039306640624,0.04238192865550518,0.10231558835357427,-0.023778971526958046
1772562366250106400,8.8001064453125,0.041298809593915936,0.11649550487548112,-0.007963124366290868
1772562366260173300,8.81017333984375,0.03412321887612343,0.12088847913742065,0.014154307156614959
1772562366270240300,8.820240234375,0.032850714722275735,0.15505729072093963,0.042355990496650335
1772562366280308500,8.83030859375,-0.024296821388602254,0.16043781471550464,0.054785811948217446
1772562366290375400,8.84037548828125,0.022224106767773626,0.16227438249289988,0.06238729992788285
1772562366300442400,8.8504423828125,0.13658230735361576,0.14087737419903276,0.06652155018839985
1772562366310509600,8.860509521484374,0.2186971114605665,0.08093874606490135,0.09376896501090377
1772562366320576500,8.870576416015625,0.24308219565451145,0.057421384616196156,0.13674228368829935
1772562366330644500,8.88064453125,0.27516601765751836,0.05576455731987953,0.13979867558423428
1772562366340711400,8.89071142578125,0.2661854233443737,0.020224749644100665,0.10431958511974662
1772562366350778400,8.9007783203125,0.18157704885601997,0.00424509022384882,0.037199338385835286
1772562366360845300,8.91084521484375,0.07689911528527736,-0.0003618190497159958,-0.03326941505838185
1772562366370913500,8.92091357421875,0.019400281518697736,-0.012538286794722079,-0.06056096128355711
1772562366380980500,8.93098046875,0.026138065341114996,0.015828852772712707,-0.019549005807004867
1772562366391047400,8.94104736328125,0.05445931994020939,0.01717033050954342,0.020477774557098746
1772562366401114400,8.9511142578125,0.11517127053439616,0.02445435003787279,0.08672083659768104
1772562366411182300,8.961182373046874,0.11103694720864295,0.022129706482589242,0.10817056145947426
1772562366421249300,8.971249267578125,0.05251169300377369,0.04757599016726017,0.06427092171739786
1772562366431317200,8.981317138671875,0.0033428806871175763,0.058065819999575614,0.01644983421526849
1772562366441384200,8.99138427734375,-0.036927170380949975,0.05346183333545923,-0.03895341551154852
1772562366451452200,9.0014521484375,-0.0648673167079687,0.045887306427955625,-0.09405724390037357
1772562366461519400,9.011519287109374,-0.07157412087023257,0.054200961264967915,-0.10308434423636645
1772562366471586300,9.02158642578125,-0.08001169434785843,0.04959639007896185,-0.08699621947295963
1772562366481653200,9.0316533203125,-0.055178281864523886,0.043701486821472645,-0.06529781707972288
1772562366491720200,9.04172021484375,-0.02409925298988819,0.06012216800749302,-0.024787308319285512
1772562366501789400,9.05178955078125,0.03459083638787269,0.07563771704733371,-0.014080657398514449
1772562366511856400,9.0618564453125,0.039192777225375175,0.0770505064547062,-0.0037438627034425734
1772562366521923300,9.07192333984375,-0.015063129097223281,0.06731558664292096,-0.009550612753443419
1772562366531990300,9.081990234375,0.01241407589316368,0.08821662811338901,-0.048623709121905265
1772562366542057200,9.09205712890625,0.12892273251116276,0.061138651573657984,-0.04927168816924095
1772562366552125200,9.102125244140625,0.1991167971998453,0.011327157439291477,-0.0640686040783301
1772562366562192100,9.112192138671874,0.2588239546656608,-0.021405776122212408,-0.06487718051485716
1772562366572259000,9.122259033203125,0.29133330860435963,-0.032443595226109026,-0.07600742714256048
1772562366582326300,9.132326171875,0.26261750172972675,-0.023448095604777335,-0.06266838189158588
1772562366592394200,9.142394287109376,0.19312720139622688,0.005147884282469749,-0.051623073600977655
1772562366602461400,9.15246142578125,0.16167057138085364,0.022357962280511855,-0.0489668965363875
1772562366612528400,9.1625283203125,0.15859715528488158,0.005955401273071766,-0.06450513233207165
1772562366622595300,9.17259521484375,0.10224690703153609,0.01643207936286926,-0.04428670283090323
1772562366632663300,9.182663330078125,0.03820961140692234,0.02715484116822481,-0.037005678977258503
1772562366642730200,9.192730224609376,-0.082953593018651,0.025797873601317405,-0.036712723912671205
1772562366652797200,9.202797119140625,-0.18697043233215807,0.03813537712693214,-0.04047664302345365
1772562366662864100,9.212864013671876,-0.16995733821094036,0.03304769859910011,-0.05322933975383639
1772562366672932400,9.222932373046875,-0.10032032288312911,0.02377250525355339,-0.03682060473393649
1772562366682999300,9.232999267578125,-0.03400456093251705,0.01976268509030342,0.010501958661526442
1772562366693066200,9.243066162109375,0.022469605961441992,-0.015719254918396472,0.02018993405904621
1772562366703133400,9.253133544921875,-0.011293547430634498,0.0027840777605772017,0.012211539058387278
1772562366713200400,9.263200439453126,-0.020123335096240043,0.03914659999608993,-0.006368548651225865
1772562366723268400,9.273268310546875,0.015937573844194412,0.0543561518266797,0.010841492814198135
1772562366733335300,9.283335205078124,0.05839139869213104,0.02440992637425661,0.045316813063621515
1772562366743402200,9.29340234375,0.12756313459575175,0.02460895607769489,0.07133771829847246
1772562366753469200,9.30346923828125,0.14159107542634009,0.03290478299707174,0.1123152600487694
1772562366763537400,9.313537353515626,0.13064882565140723,0.04047317242473364,0.13014124145545064
1772562366773604400,9.323604248046875,0.060925301083922384,0.049537645629048346,0.11338504470475018
1772562366783671300,9.33367138671875,-0.014988894817233084,0.06772796683609485,0.06965688907206058
1772562366793738200,9.34373828125,-0.09118190765976905,0.10907266139835119,0.0077076152352616185
1772562366803806200,9.35380615234375,-0.07855974197387695,0.08412672845125198,-0.02217186512388289
1772562366813873400,9.363873291015626,-0.024977789390087126,0.04058481610566377,-0.01908164402358234
1772562366823940400,9.3739404296875,-0.0017868834167718887,0.026935353198647496,-0.028908808696083723
1772562366834007300,9.38400732421875,0.006591653349995613,0.04657587321400642,0.026162578727863726
1772562366844075300,9.3940751953125,-0.0020201076507568357,0.08609422913193703,0.0998200086781755
1772562366854142200,9.40414208984375,-0.014151274949312209,0.11377923165410757,0.09588566490393131
1772562366864209200,9.414209228515626,-0.07104337499439715,0.1113835686892271,0.04941062171589583
1772562366874276400,9.4242763671875,-0.06686638157069683,0.10788725100606679,-0.02940510431304574
1772562366884344300,9.43434423828125,-0.012288988208770751,0.08734832084625958,-0.0809708217035979
1772562366894411300,9.444411376953125,0.08743044617176056,0.054126434724032876,-0.07851049600467086
1772562366904478200,9.454478271484374,0.19934476073682306,0.019678513938188553,-0.050287404550425706
1772562366914545400,9.46454541015625,0.22530980759859084,0.0029871991172432896,0.009333061012625694
1772562366924612400,9.4746123046875,0.2423953824341297,0.021466858659684656,0.02511862263288349
1772562366934680300,9.484680419921874,0.2164239058315754,0.02398468669950962,-0.004927373399585485
1772562366944747300,9.494747314453125,0.18437515514194963,0.0017076807007193565,-0.023181480557844043
1772562366954814200,9.504814208984374,0.202541510951519,-0.004332768507301807,-0.051746846111118794
1772562366964881200,9.514881103515625,0.18816636411845683,-0.020857494589686394,-0.0676384619217366
1772562366974949400,9.524949462890625,0.1683171697884798,-0.008690671455860137,-0.09356412662118672
1772562366985016300,9.535016357421876,0.10236965662837028,0.002716565482318401,-0.08431618660874664
1772562366995083300,9.545083251953125,0.0901776990532875,0.00549596706777811,-0.11606390852518379
1772562367005150200,9.555150146484374,0.06536942101120949,-0.014509879128634929,-0.08975863339100032
1772562367015218200,9.56521826171875,0.013782441636919975,-0.013744155453145503,-0.05908628562111407
1772562367025285000,9.57528515625,-0.016108254235982895,-0.008992577011883258,-0.05308390340115875
1772562367035352300,9.585352294921876,0.004202712386846542,0.0121495797380805,-0.06776172297522426
1772562367045419300,9.595419189453125,0.06699965256154537,0.026116730292141437,-0.11150387060064822
1772562367055487500,9.605487548828124,0.076174308142066,0.035514965495467184,-0.1015813557948917
1772562367065554400,9.615554443359375,0.017609890970587728,0.054845688909292215,-0.06867942234203218
1772562367075621400,9.625621337890625,-0.00609247165620327,0.043837388160824775,-0.057436326457001266
1772562367085688300,9.635688232421876,0.024192191970348356,0.03388970238119363,-0.08543759185411036
1772562367095756300,9.64575634765625,0.057197220471501345,0.013669044390320777,-0.11480316787436604
1772562367105823200,9.6558232421875,0.08803133467435836,0.017371698300540445,-0.1418072389276698
1772562367115890200,9.66589013671875,0.08205050669908523,0.055173897950351235,-0.11667513575870543
1772562367125957400,9.675957275390624,0.09844985283613204,0.05373538957983255,-0.08354604248646647
1772562367136025000,9.686025146484376,0.11281973897218704,0.05266746808737516,-0.054382089985534544
1772562367146092300,9.69609228515625,0.09618073886036872,0.0639478637754917,-0.041287740210629996
1772562367156159500,9.706159423828124,0.09143325207233428,0.059138709928095334,-0.03289740340821445
1772562367166226400,9.716226318359375,0.07336275785267353,0.06601268735080958,-0.052610367605276404
1772562367176293400,9.72629345703125,0.04640168569087982,0.06309153920710087,-0.08689988295901566
1772562367186361300,9.736361328125,0.013277414724230765,0.05764905589222908,-0.08573160636462271
1772562367196428300,9.74642822265625,0.007366144853830337,0.06686433574408292,-0.10743048368189483
1772562367206495200,9.7564951171875,0.01749532468020916,0.04169453091323375,-0.12932820803951472
1772562367216562200,9.766562255859375,0.058597150397300714,0.015104045629501342,-0.12264244666527956
1772562367226630100,9.776630126953124,0.07908814976215361,0.01084200427085161,-0.12434640103895217
1772562367236697000,9.786697021484375,0.0656692807406187,0.023079554553329943,-0.1424113423006609
1772562367246764300,9.796764404296875,0.1360878018349409,0.022164193274080753,-0.15718918818309902
1772562367256831500,9.80683154296875,0.21191958014965057,0.0290396320015192,-0.13179350217450408
1772562367266899500,9.8168994140625,0.24166414555013177,0.04047726407796144,-0.08438377195224166
1772562367276966400,9.82696630859375,0.26041911490261554,0.037577158722281456,-0.05132785351406782
1772562367287033300,9.837033447265625,0.20987959875464438,0.036979192829132077,-0.024186200620979068
1772562367297100300,9.847100341796875,0.17154431514143942,0.01945376527160406,-0.04827683191299438
1772562367307168300,9.857168212890626,0.16257365770041943,0.017380466128885746,-0.0575743101555854
1772562367317235200,9.867235107421875,0.15142565622031687,0.027219138576090336,-0.05719641675390303
1772562367327302100,9.87730224609375,0.09512450780570507,0.029831951422989368,-0.046346631035394964
1772562367337369000,9.887369140625,0.0745446611136198,0.028530513435602187,-0.02337689353208989
1772562367347436300,9.897436279296874,0.05594342101812362,-0.005784720881283283,-0.0432961574235931
1772562367357504300,9.907504150390626,0.02589139710366726,-0.02994680997431278,-0.08451737173665315
1772562367367571500,9.917571533203125,0.022944822257757187,-0.05084405205249786,-0.09001067192330955
1772562367377638400,9.927638427734376,-0.005809563061594963,-0.04228665158748626,-0.06443743739072233
1772562367387705300,9.937705322265625,-0.06505319466888904,-0.0326364874497056,-0.022564408105425534
1772562367397773300,9.947773193359374,-0.10479892960190772,-0.01874006404429674,-0.03625464141424745
1772562367407840300,9.95784033203125,-0.06545768381655216,-0.017478665806353093,-0.032743345357663926
1772562367417907200,9.9679072265625,-0.04159107053875923,-0.017029168473184107,-0.055362990781664845
1772562367427974000,9.977973876953126,-0.008204349243640899,-0.007421966694295406,-0.03503562101330608
1772562367438041900,9.988041748046875,0.07445289117693901,-0.007902735948562622,0.030631650433316827
1772562367448108800,9.99810888671875,0.0954278746664524,0.001584346581995487,0.07325988200008869
1772562367458176000,10.008176025390625,0.07208440847992896,0.03531359770447016,0.0843564455538988
1772562367468243000,10.018242919921875,0.037488311395049094,0.06503653579503298,0.07681472493745387
1772562367478311000,10.028310791015626,0.014295651856064795,0.10311316847205161,0.063889046260342
1772562367488377900,10.0383779296875,0.06244388895332813,0.11060118613988161,0.054025458567589515
1772562367498444800,10.04844482421875,0.12176292388439178,0.06990940252840519,0.0541023231960833
1772562367508512000,10.058511962890625,0.12522972321212292,0.054715632788836954,0.03521693239696324
1772562367518580000,10.068580078125,0.12287176190912723,0.0519271711140871,0.004292217301204801
1772562367528647000,10.07864697265625,0.03487783663570881,0.05738923591226339,-0.007015577850490808
1772562367538713900,10.0887138671875,0.02397942600250244,0.06745587189644575,-0.0023990604983642697
1772562367548780800,10.09878076171875,0.04460603444576263,0.09175415458977222,-0.008746310633234678
1772562367558848800,10.108848876953125,0.11353577828705311,0.10663754320591688,0.011121551864594221
1772562367568916000,10.118916015625,0.16756547463834284,0.051394087150692935,0.0444086852427572
1772562367578983000,10.12898291015625,0.21944529947936534,0.02523293319493532,0.062148778464272615
1772562367589049900,10.1390498046875,0.22313421712517736,0.026897651536762712,0.006670308076776564
1772562367599116800,10.14911669921875,0.1469575708955526,0.03182780141532421,-0.0676122315019369
1772562367609185000,10.15918505859375,0.05894669448733329,0.03258884891569614,-0.10028864910323172
1772562367619252000,10.169251953125,0.017409399962425232,0.037167701138556004,-0.09604008828066289
1772562367629319000,10.17931884765625,0.03352408393919468,0.05684504603296518,-0.06603511837832629
1772562367639385900,10.1893857421875,0.09858370834887027,0.03731090900152922,-0.024466990323737264
1772562367649453800,10.199453857421876,0.16585282550156116,0.028843232646584508,0.018479294216260312
1772562367659520800,10.209520751953125,0.18405425262451172,0.00502542694658041,-0.009681070732697843
1772562367669588000,10.219587890625,0.1923456956297159,0.004171732726693153,-0.044651992479339236
1772562367679655000,10.229655029296875,0.1495546016514301,-0.025227672497928143,-0.061232138543389734
1772562367689723100,10.23972314453125,0.1004863270998001,-0.027347733391821383,-0.09790317873880267
1772562367699790000,10.2497900390625,0.03679682199954987,-0.0079842767521739,-0.10325305186677723
1772562367709857000,10.25985693359375,-0.008910451686382293,0.010785305647552012,-0.09346062971409409
1772562367719924000,10.269924072265624,-0.03347381505668163,0.009407587553560734,-0.09020550037566571
1772562367729992000,10.279991943359375,0.006321604236960411,0.001649228511750698,-0.03174896402545273
1772562367740059000,10.290058837890625,0.04020166200697422,0.011777823816239832,0.022930647601932287
1772562367750125800,10.300125732421876,-0.04051262765228748,0.03813186999559402,0.0012413052979856729
1772562367760192800,10.31019287109375,-0.14330606265068052,0.048321547837555406,-0.043363669701851904
1772562367770260700,10.3202607421875,-0.11174188060760497,0.03614566461443901,-0.11842081038225441
1772562367780327700,10.33032763671875,-0.0482411760777235,0.026424773328006267,-0.1476202360553667
1772562367790395100,10.34039501953125,0.032768297135829925,0.023809330132603643,-0.11744352631531656
1772562367800462000,10.350462158203126,0.09058686437606811,-0.001482347512245178,-0.08508676912244409
1772562367810530000,10.360530029296875,0.10758183831870555,0.018439327532052994,-0.0260084841446951
1772562367820597000,10.370596923828124,0.10900164198875427,0.05928863979279995,-0.010171776859089732
1772562367830664000,10.380663818359375,0.14654080678820608,0.07647825952470302,0.012023176879435778
1772562367840731000,10.39073095703125,0.15465397061705588,0.04938391637206077,0.034670294832251966
1772562367850797800,10.4007978515625,0.17963994331359862,0.026490532040596006,0.0462706066571176
1772562367860865800,10.41086572265625,0.1696159774273634,-0.003376782956719398,-0.0002883519547060132
1772562367870932700,10.4209326171875,0.08756897785961627,-0.03275865252465009,-0.05702960881963372
1772562367880999700,10.430999755859375,0.0003717559218406677,-0.009874328282475472,-0.112139757351391
1772562367891067100,10.441067138671874,-0.014763269367814063,0.0012993921607732772,-0.15449362895619123
1772562367901134800,10.451134765625,0.0009866729497909545,-0.023351064971089363,-0.12282394071202725
1772562367911202000,10.4612021484375,0.0240291103631258,-0.05177081150859594,-0.099889493717812
1772562367921269000,10.47126904296875,0.013687164568901062,-0.039675592306256294,-0.07404449303913861
1772562367931336000,10.4813359375,-0.008711129721999169,-0.017938100011646748,-0.04400174840968102
1772562367941404000,10.49140380859375,-0.006671148326992988,-0.010722761805355549,-0.05029708569422364
1772562367951470800,10.501470947265625,-0.044618893927335736,0.03119564099162817,-0.048863582292385396
1772562367961537800,10.511537841796875,0.0071843585461378095,0.006143909582495689,-0.07402319452278315
1772562367971604700,10.521604736328126,0.07100771915912628,-0.060359191633760925,-0.07982040955945849
1772562367981673000,10.5316728515625,0.07087211008071899,-0.06755787096619606,-0.10665884172227233
1772562367991740000,10.541739990234374,0.022825579792261123,-0.03648030339628458,-0.165750534170866
1772562368001806800,10.551806884765625,-0.005361234772205352,0.00997457378655672,-0.1314264224277809
1772562368011874000,10.5618740234375,-0.009844517666101456,0.02187280911207199,-0.1098794477365911
1772562368021942000,10.57194189453125,0.03939443727731704,0.026831016041338442,-0.0618239669566974
1772562368032009000,10.582009033203125,0.08737024041712284,0.045782384748756885,-0.004814085750840604
1772562368042076000,10.592075927734374,0.07037409743070602,0.06636427726745606,-0.029453838825598357
1772562368052142800,10.602142822265625,0.038973581516742704,0.06800123081952333,-0.039602892396226524
1772562368062210800,10.6122109375,0.041163785037398336,0.09107903180718421,-0.07280271281711757
1772562368072278000,10.622278076171876,0.07546060691475867,0.08587678698897361,-0.0747863974476233
1772562368082345000,10.632344970703125,0.16427636996507644,0.06327595586329698,-0.044464945474639535
1772562368092412000,10.642411865234376,0.19520108506083486,0.047016602718830104,-0.016530279040336607
1772562368102479000,10.65247900390625,0.20047697963714597,0.042048166656494135,-0.027867190688662228
1772562368112546800,10.662546875,0.20125322470664977,0.04461567905694246,-0.07330510938130319
1772562368122614000,10.672614013671875,0.14653379252552987,0.05676204392462968,-0.0449899557294324
1772562368132681000,10.682680908203125,0.10292086077034472,0.0922886998578906,-0.013856456721201537
1772562368142748000,10.692747802734376,0.09674597152769565,0.09957213486433028,0.009179916277527808
1772562368152815900,10.70281591796875,0.09661036244928836,0.08668868789374828,-0.004483648220077157
1772562368162882800,10.7128828125,0.10929916363060474,0.08017945213019848,-0.04263751085177064
1772562368172950000,10.722949951171875,0.11943886485099792,0.07721709519326686,-0.035168636275827884
1772562368183017000,10.733016845703125,0.10931260763406753,0.048535482849180696,-0.02684646933879703
1772562368193085000,10.7430849609375,0.07350655023753642,0.04539250864833593,-0.007021313471533358
1772562368203152000,10.75315185546875,0.07923135762512683,0.08573211782127618,0.010281411246024072
1772562368213218800,10.76321875,0.13494564606249332,0.07611848630160092,-0.01474650089610368
1772562368223286000,10.7732861328125,0.18905542191267014,0.013561492362618445,-0.06316277781240642
1772562368233353700,10.783353759765625,0.17908698560595512,-0.0007835515931248664,-0.04635207439549267
1772562368243421000,10.7934208984375,0.06282733531296253,0.00960340238660574,-0.0500430013353005
1772562368253487900,10.80348779296875,0.04059329167306423,0.017962942191958427,-0.05480389559417963
1772562368263554800,10.813554931640626,0.034651626664400095,0.005018704944849014,-0.03504354859143495
1772562368273623000,10.823623046875,-0.020519640937447545,0.025050562365353107,-0.03252893542200327
1772562368283690000,10.83368994140625,-0.02228723513185978,0.014404080666601657,-0.033022527625225485
1772562368293757000,10.8437568359375,-0.0027098434805870055,0.013396364928781986,-0.03547835981212556
1772562368303824000,10.853823974609375,-0.013292612293362616,0.0009179916277527809,-0.054386656562797724
1772562368313891800,10.863891845703124,-0.019335399588942526,-0.021823417012393473,-0.10775043635126202
1772562368323958800,10.873958740234375,0.0028927988320589064,-0.007175882978737354,-0.12185210000518709
1772562368334026000,10.88402587890625,0.05293897850513458,0.007721826423704624,-0.10495751769710332
1772562368344093000,10.894093017578125,0.1103162317186594,0.020502689802646634,-0.08164488504026085
1772562368354161200,10.9041611328125,0.14343991816341875,0.03586626315116882,-0.0633962577747181
1772562368364228000,10.91422802734375,0.14958090513646602,0.03940554319322109,-0.07027191569786519
1772562368374295000,10.924294921875,0.1545534328520298,0.05342471619546413,-0.06224135211855173
1772562368384362000,10.934362060546874,0.18988193586468696,0.06776449945420027,-0.006027955052629113
1772562368394429000,10.944428955078125,0.17855565520823,0.06801964325904845,0.043128691902197897
1772562368404497000,10.954496826171875,0.1799117459923029,0.08920710045546293,0.037106070611812175
1772562368414563800,10.964563720703126,0.21132687495350835,0.07214081484228373,0.05409578385744244
1772562368424630500,10.974630615234375,0.20234101994335651,0.04959025259912014,0.002322122804634273
1772562368434697500,10.984697509765626,0.1390951669573784,0.02378594925701618,-0.05482625355646014
1772562368444765400,10.994765380859375,0.06486088696718216,0.0013186813831329346,-0.08727974912207573
1772562368454832400,11.004832275390624,0.014990063861012457,0.02349018118083477,-0.09325246685612947
1772562368464899300,11.0148994140625,-0.02102174524068832,0.01968172880858183,-0.0867414409942925
1772562368474966300,11.02496630859375,-0.022051088288426397,0.009013619799911976,-0.13232190996278076
1772562368485034500,11.035034423828124,-0.004008651119470596,-0.006718202339112758,-0.09508903463352471
1772562368495101400,11.045101318359375,-0.04932663322687149,-0.01852525224983692,-0.12309822760876267
1772562368505168400,11.05516845703125,-0.010032733714580536,-0.0022197218760848045,-0.08546586810052394
1772562368515235300,11.0652353515625,-0.01622691217958927,-0.03138239573538303,-0.04901793260388076
1772562368525303300,11.07530322265625,-0.025920623198151586,-0.010696166059374809,-0.11589436064455658
1772562368535370200,11.085370361328126,0.07499065131545066,-0.03253098124861717,-0.162753726975061
1772562368545437400,11.0954375,0.1668739852428436,-0.0865133313268423,-0.0960395402913913
1772562368555504400,11.10550439453125,0.2403951485276222,-0.10147212326675653,-0.03583042465280741
1772562368565572400,11.115572265625,0.2899175965875387,-0.0662099634885788,0.0059565337842330335
1772562368575639600,11.1256396484375,0.3487731056600809,-0.05365647912472486,0.0332731048528105
1772562368585706500,11.13570654296875,0.42364100737869737,-0.1626288950189948,-0.045739385857246816
1772562368595773400,11.1457734375,0.6393745928585529,-0.3671814535319805,-0.1883294091930613
1772562368605840400,11.15584033203125,0.340402752199769,-0.030785452755540607,-0.09723298785965889
1772562368615908400,11.165908447265625,0.0958423006862402,0.06058262512609362,0.007810637218318879
1772562368625975300,11.175975341796875,-0.0254886615216732,0.10066446014568209,0.04735376225132495
1772562368636042200,11.186042236328126,0.02709375863075256,0.12760828891173004,0.05794774657785892
1772562368646109400,11.196109375,0.08552841194272041,0.12453823381662368,0.12948239395422861
1772562368656177400,11.206177490234374,0.1830962212473154,0.1224482758000493,0.19648465859796851
1772562368666244400,11.216244384765625,0.18637363548278807,0.07017053768262267,0.20051778657156974
1772562368676311300,11.226311279296874,0.16993395733535288,0.04898761053085327,0.20397415583683176
1772562368686378500,11.23637841796875,0.13538520652353764,0.11185147846192121,0.17944659443227573
1772562368696446500,11.246446533203125,-0.11478782417476177,0.17007731132879852,0.1185594334016554
1772562368706513400,11.256513427734374,-0.26090543711483477,0.18088702076524496,0.07213478696029633
1772562368716580400,11.266580322265625,-0.2716132936120033,0.1660996398694813,0.058096233404148365
1772562368726647300,11.276647216796874,-0.3074719579786062,0.1919493897885084,0.0698609602767974
1772562368736715300,11.28671533203125,-0.2763414911776781,0.18599924921244382,0.08720929596805944
1772562368746782200,11.2967822265625,-0.20024492444694042,0.1798442337140441,0.12063024832634255
1772562368756849400,11.306849365234376,-0.2087637464672327,0.14747282694131136,0.19220066113583742
1772562368766916400,11.316916259765625,-0.27088439481556414,0.15230302357673645,0.1314685262701474
1772562368776984600,11.326984619140624,-0.16033026268780232,0.1419287829481065,0.08740553092621266
1772562368787051500,11.337051513671875,-0.06946282780468463,0.05332154808193445,0.06214149020696059
1772562368797118500,11.347118408203125,0.002797521764039993,0.007333119367063045,0.028712829466257243
1772562368807185400,11.357185302734376,0.030248423269391058,-0.016691899342834948,-0.028765966159291563
1772562368817253400,11.36725341796875,-0.05411795915663242,-0.02986146977841854,-0.04441942583248019
1772562368827320300,11.3773203125,-0.23007599908709525,0.008764467344433069,-0.06392926867287606
1772562368837387300,11.38738720703125,-0.28194588705599305,0.08493073831051588,-0.10436677612918428
1772562368847454200,11.3974541015625,-0.21214345203340051,0.09161459998860955,-0.131093391081132
1772562368857522400,11.4075224609375,-0.09843582431077956,0.033977672925591465,-0.10768643120434135
1772562368867589400,11.41758935546875,-0.009206219762563705,-0.02346095508635044,-0.1346110620795749
1772562368877656600,11.427656494140624,0.016812603113055227,-0.02221037050336599,-0.16679525745082646
1772562368887723500,11.4377236328125,0.09671206925809382,-0.04416457428857684,-0.19338265572832897
1772562368897791500,11.44779150390625,0.2246095503747463,-0.0739681763999164,-0.20068127003759145
1772562368907858400,11.4578583984375,0.3176613435596227,-0.09384659682437776,-0.17965375264324246
1772562368917925400,11.46792529296875,0.3480459604293108,-0.06410203142389655,-0.1545240788933821
1772562368927992300,11.477992431640626,0.15608721829056738,0.023822189614176748,-0.1995092488498427
1772562368938059300,11.488059326171875,0.130162503439188,0.012973024950176477,-0.2106638992664404
1772562368948127200,11.498127197265624,-0.11613923878371715,0.09094970633909105,-0.13447485021296887
1772562368958194200,11.508194091796875,-0.16135726764798164,0.036250001771748065,0.02253730090279132
1772562368968261400,11.518261474609375,-0.07890811702013015,0.04439239169508218,-0.020109324837196615
1772562368978328600,11.52832861328125,-0.03315115897357464,0.21957579399123786,-0.06455019531650469
1772562368988396300,11.538396240234375,0.051930093723535534,0.16518471698164938,-0.004508499533543363
1772562368998463500,11.54846337890625,0.39952947942912576,0.019726883124560116,-0.0028158520051743833
1772562369008530400,11.558530517578125,0.7294932552009821,-0.06201002758070826,-0.0022505554057657717
1772562369018597400,11.568597412109375,0.7675649194419384,0.1091483569830656,-0.012516604685876518
1772562369028665300,11.578665283203126,0.5296662639051676,0.0754169139035046,0.07673393305251375
1772562369038732300,11.588732177734375,0.5727934579700231,-0.034464871920645235,0.2458860923604108
