time,seconds_elapsed,z,y,x
1772458048305407700,0.06940771484375,0.17207798362672327,0.07489069807231426,-0.34494865200109776
1772458048315476700,0.079476806640625,0.11927753680944442,0.022012802104651927,-0.39613720664232965
1772458048325545000,0.089544921875,0.09435235438942909,0.036922494205832476,-0.46515214454904197
1772458048335613700,0.09961376953125,0.2179652900546789,0.10638502974957227,-0.45062268393710253
1772458048345681700,0.109681640625,0.483135398876667,0.11056231543421745,-0.3365224036350846
1772458048355750000,0.11975,0.7320815181285143,0.1193280979529023,-0.2788292894054204
1772458048365818600,0.129818603515625,0.7150280919969082,0.13957067551463842,-0.3758654029861092
1772458048375886600,0.139886474609375,0.5019815536439418,0.1952756116017699,-0.5227260163132101
1772458048385954600,0.14995458984375,0.24515666384100912,0.18372282871305942,-0.7031719422474503
1772458048396023300,0.160023193359375,-0.050177697098255154,0.1847743835926056,-0.8934230036854743
1772458048406091300,0.17009130859375,-0.16151333499252796,0.22285656922757624,-1.0105034688420593
1772458048416160300,0.18016015625,-0.08422375908493995,0.244243056127429,-0.9427421842582523
1772458048426228200,0.190228271484375,0.12225684488117694,0.2062774826094508,-0.7545819576196372
1772458048436296200,0.200296142578125,0.3480009522438049,0.13913257635831833,-0.5401707798499613
1772458048446365200,0.210365234375,0.3871744402468204,0.05910685348510742,-0.49664428426921364
1772458048456433400,0.220433349609375,0.3829489315062761,-0.015435469540953635,-0.4276050887040794
1772458048466501000,0.230501220703125,0.4967682029098272,-0.04693389287143945,-0.3222061473824084
1772458048476570000,0.240570068359375,0.7361188108205795,-0.1351657185539603,-0.1287812782138586
1772458048486638300,0.250638427734375,0.8277700895577669,-0.22907558987289667,0.016465835501998663
1772458048496707300,0.260707275390625,0.811663588887453,-0.2499786771699786,0.0367707377102226
1772458048506775000,0.270775146484375,0.8289940783947706,-0.25424685600847,0.05970671907439828
1772458048516843300,0.28084326171875,0.7937304573118686,-0.2439879123225808,0.07724997454956173
1772458048526912300,0.290912353515625,0.701350279778242,-0.21818507028520107,0.04696940257623791
1772458048536980200,0.300980224609375,0.5964069732695818,-0.16768910101801157,0.01848535863086581
1772458048547048400,0.31104833984375,0.5078045607089996,-0.13481558994203804,0.035490050249919296
1772458048557117200,0.3211171875,0.3880442088186741,-0.17397738750725983,0.09976612306647002
1772458048567185200,0.33118505859375,0.16483634193539617,-0.18636223730593918,0.16197510728538037
1772458048577253400,0.34125341796875,-0.0665928253263235,-0.18584668899923562,0.23952443010769783
1772458048587322000,0.351322021484375,-0.15322890625,-0.2124485724598169,0.36690453628674147
1772458048597390000,0.36139013671875,-0.1353553959071636,-0.27456220654547214,0.5352719018924981
1772458048607459300,0.371459228515625,-0.09354337609410285,-0.4055854184672236,0.6137530256722122
1772458048617527300,0.38152734375,-0.08202887938916682,-0.5036348738089204,0.6673892657265067
1772458048627595300,0.39159521484375,-0.04863514383137226,-0.5947755726754665,0.6734384096976369
1772458048637664300,0.401664306640625,0.033791794964671135,-0.6767763950139284,0.7402901051558554
1772458048647732200,0.411732177734375,0.16039280652999877,-0.714353261475265,0.7550006944883614
1772458048657800200,0.42180029296875,0.22890286365449428,-0.7328875738143921,0.6861660815846174
1772458048667869400,0.431869384765625,0.19972177735567093,-0.7520823958888649,0.49404981079660354
1772458048677937200,0.441937255859375,0.01507189692556858,-0.7440840906113386,0.30634141957871613
1772458048688006100,0.452006103515625,-0.2668424259483814,-0.7541711848616599,0.09331468190476298
1772458048698074400,0.462074462890625,-0.44628480086326594,-0.7433730197325349,-0.07221512218751013
1772458048708142300,0.472142333984375,-0.5230594129860401,-0.7199187866479158,-0.1343980951823294
1772458048718211000,0.482211181640625,-0.5259855295658111,-0.719924047344923,-0.14660795374028385
1772458048728279300,0.492279296875,-0.47278585429787634,-0.7106584986105561,-0.13255948157832026
1772458048738347300,0.50234716796875,-0.4106038311511278,-0.7171455225422978,-0.1609101814676076
1772458048748416300,0.512416259765625,-0.41994215286076064,-0.7063555407196282,-0.2154781494140625
1772458048758484200,0.522484130859375,-0.46954760302901266,-0.6815145294517279,-0.2362500115469098
1772458048768552200,0.53255224609375,-0.41882337796390057,-0.6794491213545203,-0.23887217674404382
1772458048778621200,0.54262109375,-0.28651860179901123,-0.6932754021331667,-0.24755123082734642
1772458048788689200,0.552689208984375,-0.12915361865758895,-0.6966296809971332,-0.21914207874909042
1772458048798758100,0.562758056640625,-0.04756897590458393,-0.7201825521506369,-0.21821948401145635
1772458048808826000,0.572826171875,0.026613866159319877,-0.7216790743187069,-0.2227948291029781
1772458048818894000,0.58289404296875,0.16227087536156176,-0.6997662254571915,-0.20924736526571214
1772458048828963300,0.59296337890625,0.20067454803586005,-0.6871371916390955,-0.18134046362116932
1772458048839031300,0.60303125,0.253389070135355,-0.6848780145354568,-0.17179544035829603
1772458048849099300,0.613099365234375,0.27933190516531464,-0.6657961513161659,-0.15653481592759488
1772458048859168300,0.623168212890625,0.24480302809774873,-0.6626204438894987,-0.1863981123369187
1772458048869236200,0.633236328125,0.22304712336361407,-0.658059711845219,-0.14840828116051852
1772458048879305200,0.64330517578125,0.32575112651288507,-0.6752306268766523,-0.12374686424322426
1772458048889373200,0.653373291015625,0.4878624273985624,-0.7074412901297211,-0.08396174714788794
1772458048899441200,0.663441162109375,0.5762018051087856,-0.746220518118143,-0.04178893119841814
1772458048909510100,0.67351025390625,0.5865875900447368,-0.7533949397921562,-0.0064151277393102646
1772458048919578400,0.683578369140625,0.4941127199649811,-0.7697355414792895,-0.0038205812014639375
1772458048929646300,0.693646240234375,0.38820962851345536,-0.7437392226964235,0.027036913876980543
1772458048939715000,0.703715087890625,0.30636253543198105,-0.7046934527263045,0.060731239816546434
1772458048949783300,0.713783203125,0.25961773539185523,-0.6611001024544239,0.11602204214483498
1772458048959851300,0.723851318359375,0.22565467551350593,-0.6240566122174263,0.14092588951587676
1772458048969920300,0.733920166015625,0.06563304038345813,-0.5648685101896525,0.17314583205394446
1772458048979988200,0.74398828125,-0.09693301853239536,-0.4914201198801398,0.22687807982861993
1772458048990057200,0.75405712890625,-0.23457097241878508,-0.4684177222162485,0.28946057353504
1772458049000125200,0.764125244140625,-0.3654898471832275,-0.47731180728971956,0.34828868314400313
1772458049010193400,0.774193359375,-0.44782209343314167,-0.6147577457353472,0.4316019032552838
1772458049020262100,0.78426220703125,-0.380002356660366,-0.732050246207416,0.44990101859904824
1772458049030330000,0.794330078125,-0.20794483129978178,-0.7534463777184486,0.35851113074440505
1772458049040398000,0.804398193359375,-0.16610884608924387,-0.7780141250029206,0.19339279352985322
1772458049050467300,0.81446728515625,-0.27670097213983536,-0.837604085829854,-0.00885101311672479
1772458049060535300,0.824535400390625,-0.43569209517836566,-0.8865697767898439,-0.23984032765645533
1772458049070603000,0.83460302734375,-0.5852583872675895,-0.8787316305100917,-0.4558766589425504
1772458049080672300,0.84467236328125,-0.6992565223693847,-0.8221969656005501,-0.598177709269151
1772458049090740200,0.854740234375,-0.7395563840538263,-0.7622448934629559,-0.6458567944847047
1772458049100809200,0.864809326171875,-0.6829425164282321,-0.6836632319182158,-0.6771130796223879
1772458049110877200,0.874877197265625,-0.6299123525083065,-0.6564204202055931,-0.6457010194011032
1772458049120945200,0.884945068359375,-0.50079146707654,-0.6386585535436868,-0.5435893926544114
1772458049131014400,0.895014404296875,-0.34779461601674555,-0.6403893228590488,-0.42211642815992234
1772458049141082400,0.905082275390625,-0.28495559026598927,-0.6386012703984976,-0.3065859323916957
1772458049151150300,0.915150390625,-0.16971417710483072,-0.6275795256465673,-0.18083083359859883
1772458049161219000,0.925218994140625,0.06639233431816101,-0.6691442927002906,0.028339338245056567
1772458049171287300,0.935287353515625,0.32444939626455305,-0.7036006890535355,0.19598825338315218
1772458049181355300,0.945355224609375,0.5019587572902441,-0.7524369084149599,0.3127618810802698
1772458049191424300,0.95542431640625,0.6254805075407028,-0.777398038931191,0.34004246752001344
1772458049201492200,0.9654921875,0.6524480094432831,-0.7186699556306004,0.364595163365826
1772458049211561200,0.975561279296875,0.5596481451928615,-0.6202472830623388,0.38030893839150665
1772458049221629200,0.985629150390625,0.4588882618486881,-0.504827298463881,0.3799668834881857
1772458049231697400,0.995697509765625,0.28111002075374125,-0.3867179286509752,0.38705395567230877
1772458049241766100,1.00576611328125,0.08289981700479984,-0.2614674549117684,0.30025185226565226
1772458049251834000,1.015834228515625,-0.10598141738474369,-0.1618336529880762,0.12853477437319233
1772458049261902300,1.02590234375,-0.34840076521635055,-0.023762276120483875,0.0038008353213779627
1772458049271971300,1.035971435546875,-0.6258949335604905,0.14836276151835917,-0.06654661156442016
1772458049282039000,1.0460390625,-0.896200651705265,0.3284308671161532,-0.09550863001877441
1772458049292107300,1.056107177734375,-0.9797527951389551,0.4674105910003185,-0.0736305784760043
1772458049302176300,1.06617626953125,-0.9770201553046702,0.5806073465913534,-0.07180122589068487
1772458049312244200,1.076244140625,-1.010693292325735,0.6709963503077626,-0.147529890890792
1772458049322313200,1.086313232421875,-1.0782225217193364,0.7760451630175114,-0.22435513722226022
1772458049332381200,1.096381103515625,-1.055617891201377,0.9282146233424544,-0.25756303135175257
1772458049342449200,1.10644921875,-0.9097948772937059,1.0533949544548988,-0.2806822237957269
1772458049352518400,1.116518310546875,-0.7132710191965103,1.121565988883376,-0.3298795680871233
1772458049362586400,1.12658642578125,-0.5171756156444549,1.1499921651616691,-0.37229828508906065
1772458049372654000,1.136654052734375,-0.2622591898113489,1.1718646820127963,-0.3997932083992287
1772458049382723300,1.146723388671875,0.0041249709755182265,1.172184415486455,-0.406073165451549
1772458049392791300,1.156791259765625,0.234696060103178,1.117336388489604,-0.39681156223993747
1772458049402859300,1.166859375,0.4929992057651281,1.06556206984967,-0.3629007074728608
1772458049412928000,1.176927978515625,0.7109399459004402,0.9850216754525899,-0.32246713640615343
1772458049422996000,1.186995849609375,0.8918237517952918,0.8849515279382467,-0.34582075866051015
1772458049433065200,1.197065185546875,1.0522031143218278,0.8038722043588757,-0.3835795575600117
1772458049443133200,1.20713330078125,1.1795680959969759,0.7220677813753485,-0.3791167329322547
1772458049453201200,1.217201171875,1.3148860825031996,0.644014527618885,-0.34799430330730974
1772458049463270100,1.227270263671875,1.4483815297573803,0.5903153783962131,-0.3854158330764621
1772458049473338000,1.237338134765625,1.5372878937005996,0.5298883822232484,-0.46605281971581275
1772458049483406000,1.247406005859375,1.7255729157626627,0.43293022924959657,-0.5624204594504087
1772458049493475000,1.25747509765625,1.8240718684375286,0.2909530771151185,-0.7149041733562946
1772458049503543000,1.26754296875,1.7987503801763056,0.17798954575806855,-0.9068725601062179
1772458049513611000,1.277611083984375,1.7147019776582717,0.08802724302113056,-1.0608329955011606
1772458049523680300,1.28768017578125,1.6332108584076166,-0.01563391472250223,-1.0737076746433973
1772458049533748200,1.297748291015625,1.5088853905588389,-0.10533376713097095,-1.045734795090556
1772458049543817000,1.30781689453125,1.2439146037012339,-0.08808744877576828,-0.9580812076874077
1772458049553885200,1.31788525390625,0.8684984057873487,0.008219839073717594,-0.8721068055428564
1772458049563953200,1.327953125,0.5473205785393714,0.06646306146681308,-0.6646773033540696
1772458049574022100,1.338022216796875,0.35929333063066005,0.08952391131967305,-0.49513234533630307
1772458049584090000,1.348090087890625,0.26219547692537304,0.061815820182859894,-0.29170674502663313
1772458049594158000,1.358157958984375,0.2643131997317076,0.03646802843660116,-0.03546418515630066
1772458049604227000,1.36822705078125,0.3807528827667236,-0.021121990744769573,0.16899170804917812
1772458049614295000,1.378294921875,0.49600247923433777,-0.13006518054455518,0.2790425668299198
1772458049624363300,1.38836328125,0.5439917263776064,-0.21826135039180516,0.34795609018877144
1772458049634432000,1.398431884765625,0.6469511655926704,-0.3075488226071,0.4062815840378403
1772458049644500000,1.4085,0.7780798837155103,-0.453653283804655,0.4325702368307858
1772458049654568200,1.418568115234375,0.7930880677551031,-0.6054930737838149,0.3608580226641148
1772458049664637200,1.42863720703125,0.7903343851327895,-0.7117898407280445,0.2121191213097423
1772458049674705200,1.438705078125,0.7972942872732878,-0.7808104777231812,0.07783091624267399
1772458049684774100,1.448774169921875,0.7346399704396724,-0.892638575309515,-0.007734466709569096
1772458049694842000,1.458842041015625,0.6691472153097391,-0.9406313295841217,-0.09954721961878239
1772458049704910000,1.46891015625,0.5418272418200969,-0.9478805700600147,-0.2112866890735924
1772458049714979000,1.47897900390625,0.36623452807068824,-0.9737579386383295,-0.2969493949204683
1772458049725047000,1.489047119140625,0.15276070421636104,-0.9866276493445039,-0.39969891771189864
1772458049735115000,1.499114990234375,-0.10324293233156204,-0.9339452759489416,-0.4556750719558447
1772458049745184300,1.509184326171875,-0.294124400627613,-0.873570594485104,-0.4630974039763212
1772458049755252200,1.519252197265625,-0.38784313328862186,-0.8052990222916007,-0.40552696627825496
1772458049765320000,1.52931982421875,-0.40083763941824435,-0.7872168376341462,-0.29170820633135736
1772458049775389200,1.53938916015625,-0.36811025881469245,-0.7719722144901752,-0.18955306923650203
1772458049785457200,1.54945703125,-0.4322808254301548,-0.7753028202176093,-0.15585830490551889
1772458049795526100,1.559526123046875,-0.6590852555006742,-0.7107458846330642,-0.16326112850792704
1772458049805594000,1.569593994140625,-0.8752946417987346,-0.6562155452832579,-0.20619944893717765
1772458049815662000,1.579662109375,-0.9576549450993538,-0.6200885853692889,-0.21434052368625997
1772458049825731000,1.58973095703125,-0.9071791418373584,-0.5832184058725833,-0.21093451463505625
1772458049835799300,1.59979931640625,-0.8862193559169769,-0.5433014060258865,-0.20874737985432146
1772458049845867300,1.6098671875,-0.8900000434994697,-0.4970680626392364,-0.22227000151127577
1772458049855936000,1.61993603515625,-0.9377087201356887,-0.42830052362233395,-0.2882354887194931
1772458049866004000,1.63000390625,-1.0413286690860986,-0.34441549497246743,-0.36163748260401185
1772458049876072200,1.640072265625,-1.0378875887215138,-0.3051476066842675,-0.3579286912139505
1772458049886141200,1.65014111328125,-0.9922492886185645,-0.3922378611162305,-0.33636750533431764
1772458049896209000,1.660208984375,-0.8614104933530091,-0.5831897642999887,-0.2577138745319098
1772458049906278100,1.670278076171875,-0.5819815575540065,-0.6887465265318751,-0.22059826890677212
1772458049916346000,1.68034619140625,-0.3329085970520973,-0.6873521495640278,-0.3528444467522204
1772458049926414000,1.6904140625,-0.4099889141231775,-0.7118129293426871,-0.5698431567970663
1772458049936483000,1.700483154296875,-0.6658060881882906,-0.7465238849788903,-0.8018950590670109
1772458049946551000,1.710551025390625,-0.8528717975884675,-0.7079512854784726,-0.9969777784451842
1772458049956619000,1.720618896484375,-0.9334837959170341,-0.597973199672997,-1.0759527501564472
1772458049966688300,1.730688232421875,-0.8706126214623451,-0.4531465033262968,-1.0161780804123728
1772458049976756000,1.740755859375,-0.8112772199183702,-0.26269962705522776,-0.9223773685563356
1772458049986824000,1.750823974609375,-0.8032166630595922,-0.12048135964125394,-0.7976701348483562
1772458049996893200,1.76089306640625,-0.7297568745732307,-0.016419512142241,-0.6522655655484646
1772458050006961200,1.770961181640625,-0.5808668743103742,0.0412505865380168,-0.489532771763578
1772458050017030000,1.78102978515625,-0.40187516577243804,0.08452595690190792,-0.36570750852189954
1772458050027098000,1.79109814453125,-0.19122107551395892,0.08909107286036014,-0.2711797245003283
1772458050037166000,1.801166015625,-0.05952420211434364,0.08804945485293865,-0.1693534540336579
1772458050047235000,1.811235107421875,-0.05851356376707553,0.07499795783907175,-0.1406339938972145
1772458050057303300,1.82130322265625,-0.06164718561768531,0.09824263982623815,-0.16155563976429402
1772458050067371000,1.83137109375,-0.028222470399737357,0.1208773732215166,-0.22094920123629272
1772458050077440000,1.84143994140625,-0.08762216935157775,0.15056085608452557,-0.3070895345322788
1772458050087508200,1.85150830078125,-0.17666589593887327,0.18745704680532216,-0.3538202329818159
1772458050097576200,1.861576171875,-0.21400749233961103,0.23411387630105018,-0.4203785715166479
1772458050107645000,1.87164501953125,-0.23592764772474764,0.2992693623006344,-0.4369781164009124
1772458050117713200,1.881713134765625,-0.27871815718114373,0.38039077145606276,-0.4520862536836415
1772458050127781000,1.891781005859375,-0.41773499820530413,0.5049892110273242,-0.5298880899623036
1772458050137850000,1.90185009765625,-0.4857195701509714,0.6493070810690522,-0.5922489402746781
1772458050147918300,1.91191845703125,-0.41134208229780195,0.7511363472104072,-0.5627772735314444
1772458050157987000,1.921987060546875,-0.18584698126018045,0.8108806218162179,-0.45803464069403704
1772458050168055000,1.932054931640625,0.14545885677039622,0.8870724656149744,-0.29912666589431464
1772458050178123000,1.942123046875,0.6183844117999077,0.9456976730629801,-0.055038800328597426
1772458050188192300,1.952192138671875,1.0716571718543768,0.9277025821670889,0.18456848575696347
1772458050198260000,1.962260009765625,1.4747154099315405,0.9017761137500405,0.42237800170555706
1772458050208328000,1.972327880859375,1.8297259486764668,0.8384013736873864,0.6559918195299804
1772458050218397200,1.982397216796875,2.0239222406089303,0.702624245236814,0.8442072104219347
1772458050228465200,1.992465087890625,2.0698925491452216,0.5462684391379357,1.012961894844845
1772458050238533000,2.002533203125,2.0557751764655112,0.4108233191207051,1.1648712429288774
1772458050248602000,2.01260205078125,1.9669681812435387,0.3350418096885085,1.1994778614077717
1772458050258670000,2.022670166015625,1.8258084829717873,0.30466099221110343,1.142355751999095
1772458050268738000,2.032738037109375,1.6685510518580675,0.3451397175937891,0.9831462369695305
1772458050278807000,2.04280712890625,1.5273422537475823,0.3933317938327789,0.7842945935118943
1772458050288875000,2.052875,1.3682774809509515,0.4680295996814966,0.5187675610110163
1772458050298944000,2.062944091796875,1.1128203723698853,0.5821797104746103,0.266034762827307
1772458050309012200,2.07301220703125,0.819332516080141,0.6675088004529476,0.02849288483895361
1772458050319080200,2.083080078125,0.29433307494223115,0.7068254963189363,-0.22684220479764042
1772458050329149000,2.09314892578125,-0.4294786274909973,0.8364923251956701,-0.513574047488533
1772458050339217200,2.103217041015625,-1.1785597957372664,1.083449316456914,-0.8045524417079984
1772458050349285000,2.11328515625,-1.7043343129009008,1.2834107477873562,-0.9718662796728312
1772458050359354000,2.12335400390625,-1.945188311111927,1.4407058805629611,-0.9770405405055731
1772458050369422000,2.133422119140625,-1.8684809190064668,1.5052490798830984,-0.8421184214491396
1772458050379490000,2.143489990234375,-1.5476479596734045,1.482258080396056,-0.6128995506480336
1772458050389559000,2.15355908203125,-1.0396522603064775,1.37610393679291,-0.4096291409000754
1772458050399627300,2.163627197265625,-0.5651385593026876,1.2005477556616067,-0.25775464493371547
1772458050409696300,2.1736962890625,-0.10855974344015121,1.0924985920920967,-0.08859371779747306
1772458050419764200,2.18376416015625,0.27146424053013324,0.9612012394040822,-0.0019018150333315134
1772458050429832200,2.193832275390625,0.574971971052885,0.7346653971418738,-0.014414236734434961
1772458050439901400,2.2039013671875,0.8396966741949319,0.5305795793578029,-0.14286270279735325
1772458050449969400,2.213969482421875,0.9640653966635465,0.3117012661114335,-0.27731925016865133
1772458050460037000,2.224037109375,0.9995663336336612,0.07008388231247663,-0.4312986825250089
1772458050470106400,2.2341064453125,1.0521715501397848,-0.07756254763007163,-0.5078191737562417
1772458050480174300,2.24417431640625,1.1032622704297304,-0.18383067300170658,-0.5553437990624457
1772458050490242300,2.2542421875,1.1761837142556906,-0.2964011133879423,-0.5870375988345593
1772458050500311300,2.264311279296875,1.2862754895687103,-0.42453591039180755,-0.6289872735526413
1772458050510379300,2.274379150390625,1.3212158700466154,-0.5672054287046193,-0.693474066510424
1772458050520447200,2.284447265625,1.287053488203883,-0.7037795527517795,-0.7482135916315019
1772458050530516500,2.2945166015625,1.1538286745846271,-0.7932920658946037,-0.8693772344484925
1772458050540584400,2.30458447265625,0.902586553350091,-0.8200102692112327,-0.989278967570886
1772458050550653200,2.314653076171875,0.6325842020660638,-0.8132447205990553,-1.0842756112132221
1772458050560721400,2.324721435546875,0.33667174897789953,-0.8107458895206451,-1.1616435130540281
1772458050570789400,2.334789306640625,0.10919102708101272,-0.7767325607597827,-1.140908841126412
1772458050580858000,2.344858154296875,0.02189326737821102,-0.709034404540062,-1.0574022173348814
1772458050590926300,2.35492626953125,-0.00021335048973560332,-0.6707794926866889,-0.8755581150405108
1772458050600994300,2.364994384765625,-0.013373860836029051,-0.6482531881019473,-0.7195526567492634
1772458050611063300,2.375063232421875,-0.0981903251171112,-0.5903545413628221,-0.6617497985348105
1772458050621131500,2.385131591796875,-0.19528525621294973,-0.5637798381701111,-0.5659187498949467
1772458050631199200,2.39519921875,-0.1567886445581913,-0.5714166166588663,-0.43189920570142565
1772458050641268200,2.405268310546875,-0.04017068234682083,-0.5930258063986897,-0.2931228223696351
1772458050651336400,2.41533642578125,-0.054367550003528595,-0.6607765695884823,-0.22298735600039363
1772458050661405400,2.425405517578125,-0.12056406948864459,-0.6942980231791734,-0.15698358260840176
1772458050671473200,2.43547314453125,-0.11843348720073699,-0.7347416772484779,-0.13791282530501484
1772458050681541000,2.445541015625,-0.1968295630455017,-0.7672276503115892,-0.07183576748110354
1772458050691610400,2.4556103515625,-0.2516524556010961,-0.7486354703053831,0.000045300446450710294
1772458050701678300,2.46567822265625,-0.18239771758913992,-0.7275374449580907,0.10638269166201353
1772458050711746300,2.475746337890625,-0.19946751033365726,-0.729739631177485,0.20919621960036455
1772458050721815300,2.485815185546875,-0.2851753704965114,-0.7611991838023066,0.28534079019129277
1772458050731883300,2.49588330078125,-0.4576023136913776,-0.8438786360546946,0.42646264067068695
1772458050741951200,2.505951171875,-0.5314397033184767,-1.0252823741704225,0.6669113460164516
1772458050752020500,2.5160205078125,-0.2333236027061939,-1.1842422252878546,0.8464412530843168
1772458050762088200,2.526088134765625,0.1311860012680292,-1.2655346070960163,0.8710199601542205
1772458050772157400,2.536157470703125,0.17530805158913135,-1.3364347742274403,0.8268976175721734
1772458050782225400,2.546225341796875,0.0651332741677761,-1.368750066898763,0.7370854638956487
1772458050792293400,2.55629345703125,-0.10190963790118694,-1.4486439800858497,0.6018889483446255
1772458050802362000,2.566362060546875,-0.31316520118415353,-1.5307675520211457,0.43987701618019487
1772458050812430300,2.576430419921875,-0.4511702348172664,-1.4714923562318085,0.20823069903645663
1772458050822498300,2.586498291015625,-0.6447668072909116,-1.3590771064072846,-0.009337919850833713
1772458050832567300,2.5965673828125,-0.9579682488322258,-1.2138099728167056,-0.18202391584068536
1772458050842635500,2.606635498046875,-1.3054174124121665,-0.993632267409563,-0.31875564160235226
1772458050852703200,2.616703125,-1.5736369719326495,-0.7734975243613124,-0.39462976122144605
1772458050862772200,2.626772216796875,-1.7504618578255176,-0.506771564399451,-0.34987660992257297
1772458050872840400,2.63684033203125,-1.8189660697311163,-0.26787746808454393,-0.18000625587534158
1772458050882908400,2.646908447265625,-1.8821376884371042,-0.08299889346510171,-0.0040116102615371345
1772458050892977200,2.65697705078125,-1.876257398226857,0.07526347690746188,0.1895278251973912
1772458050903045400,2.66704541015625,-1.8083792092651128,0.1802669891707599,0.251342220608145
1772458050913114400,2.6771142578125,-1.6027327180355786,0.2745500777162611,0.24356051722336558
1772458050923182300,2.687182373046875,-1.2296908480376005,0.3480461065597832,0.2782234689993784
1772458050933250300,2.697250244140625,-0.7686275802373885,0.403017467675358,0.34632268030066043
1772458050943319300,2.7073193359375,-0.3986521120727062,0.47929245971292256,0.37838648242894557
1772458050953387300,2.71738720703125,-0.2412362755268812,0.6911316681027412,0.3882956262964755
1772458050963455200,2.727455322265625,-0.33334523490369317,0.901864668816328,0.3362621817963198
1772458050973524200,2.737524169921875,-0.43790158792138095,1.099310902455449,0.21567151656169442
1772458050983592200,2.74759228515625,-0.40744741294682024,1.2537103137895464,0.09375422409949824
1772458050993660200,2.75766015625,-0.3020557781487703,1.301645492658019,0.05074294803189113
1772458051003729400,2.7677294921875,-0.10463117181956767,1.3025842348128556,-0.02822363944351673
1772458051013797400,2.77779736328125,0.18620880030989645,1.2554133183151484,-0.10575800215872004
1772458051023865300,2.787865234375,0.5021744458675385,1.1565858643382787,-0.1269732789438218
1772458051033934300,2.797934326171875,0.6755354550421238,1.072201361733675,-0.1564274830956012
1772458051044002300,2.808002197265625,0.7695780128300189,0.9960445892482995,-0.2608034928440116
1772458051054071600,2.818071533203125,0.8335054183393716,0.9184691821366548,-0.3031284488815814
1772458051064139300,2.82813916015625,0.9853682969331741,0.8635942671328782,-0.294166321806889
1772458051074207200,2.838207275390625,1.1182488271594047,0.7569614001020789,-0.282345809626393
1772458051084276200,2.848276123046875,1.1716145066440105,0.7217866263464093,-0.33418899225145576
1772458051094344400,2.858344482421875,1.1199532929897307,0.7035092113777994,-0.3902241466736421
1772458051104412400,2.868412353515625,1.0900877315580844,0.6597466420188546,-0.49662879443913693
1772458051114481200,2.878481201171875,1.0512988589584826,0.6485220681712031,-0.6497540211189538
1772458051124549400,2.88854931640625,1.0126339049994946,0.6716250036001205,-0.8232740933127701
1772458051134617300,2.898617431640625,1.017056982138753,0.6217790226742624,-0.9395682303972541
1772458051144686300,2.908686279296875,0.9651093527585267,0.5916393204763531,-1.0740404137291013
1772458051154754300,2.91875439453125,0.9082008861005306,0.5935448618367314,-1.1419489978291093
1772458051164822300,2.928822265625,0.8145242390155791,0.5968047404155135,-1.136441559519246
1772458051174891300,2.938891357421875,0.7516115635067224,0.6549839576616883,-1.0360467831604183
1772458051184959500,2.94895947265625,0.7387526664555072,0.6517910068392753,-0.7709403141591697
1772458051195028200,2.9590283203125,0.787577195379138,0.5619856482297182,-0.4564079893402755
1772458051205096200,2.96909619140625,0.9118284289479255,0.4665907990500331,-0.1802710808239877
1772458051215164400,2.979164306640625,1.1601274824678898,0.3291042363330722,0.07851659695189446
1772458051225233400,2.9892333984375,1.4010107067734001,0.15118541772365568,0.28401082022916524
1772458051235301400,2.99930126953125,1.6067869618624449,-0.0013695347875356673,0.3709271793989464
1772458051245369300,3.009369384765625,1.6272575029611587,-0.15317133084386586,0.39380306460633874
1772458051255438300,3.019438232421875,1.57102474360764,-0.2578483876317739,0.4222957667822018
1772458051265506300,3.02950634765625,1.592821564874053,-0.3510752451226115,0.46659982260670513
1772458051275574300,3.03957421875,1.6050339807152747,-0.47719928682595486,0.49468471116665746
1772458051285643300,3.049643310546875,1.5426532201260328,-0.5886670266672969,0.4568675331434235
1772458051295711200,3.059711181640625,1.3194336628049612,-0.6947150795474648,0.35662754548750814
1772458051305779200,3.069779296875,1.0382429780304432,-0.7347893157824873,0.1993259464384988
1772458051315848400,3.079848388671875,0.8238140454083681,-0.7549553209766745,0.04062061807140708
1772458051325916400,3.08991650390625,0.7405944949299097,-0.8207040966942906,-0.0599425005916506
1772458051335985400,3.0999853515625,0.6482581565380096,-0.904190189154446,-0.14135127532109618
1772458051346053400,3.110053466796875,0.40667233692109583,-0.9893772403135895,-0.2547832279074937
1772458051356121300,3.120121337890625,0.12447978162765502,-1.0258499449253082,-0.33406087235976006
1772458051366190300,3.1301904296875,-0.10563421138226985,-1.0099909892752765,-0.326710071205534
1772458051376258300,3.14025830078125,-0.2871656675308943,-1.0049901122480631,-0.3272920723445713
1772458051386326300,3.150326171875,-0.4363467596948147,-1.0457041076913476,-0.2572095782715827
1772458051396395300,3.160395263671875,-0.5087327814698219,-1.0516329132184385,-0.1423574566889554
1772458051406463000,3.170462890625,-0.5835942534476518,-1.0842881053686142,-0.0906711816586554
1772458051416531200,3.18053125,-0.673683105173707,-1.0482391791269183,-0.06519548921640962
1772458051426600000,3.190599853515625,-0.7841349459707736,-1.003110289850831,-0.062476293385587627
1772458051436668000,3.20066796875,-0.9555828150004148,-0.9082394645452498,-0.07562865695804358
1772458051446736100,3.210736083984375,-1.0700468140482902,-0.7525202027842403,-0.09070106534026563
1772458051456804900,3.220804931640625,-1.1257149252563714,-0.6087471071437001,-0.06451338870376348
1772458051466872800,3.230872802734375,-1.2052771222710608,-0.5251794738799334,-0.019219335461221634
1772458051476940800,3.24094091796875,-1.337125386840105,-0.42372605531364677,0.04660422252565622
1772458051487010000,3.251010009765625,-1.465516204431653,-0.41428748809993265,0.16925766550898552
1772458051497078000,3.261078125,-1.3403151227921246,-0.43009938973784445,0.31101036123782394
1772458051507147000,3.27114697265625,-0.9663467855989932,-0.30668080760091543,0.3057502122199163
1772458051517215000,3.281215087890625,-0.8393231647074222,-0.2196408220514655,0.1992517121585086
1772458051527283000,3.291282958984375,-0.9487895015984773,-0.18605419427007436,0.0925641192657873
1772458051537352200,3.301352294921875,-0.9855331321060657,-0.2056239871367812,-0.010989340319670736
1772458051547420000,3.311419921875,-0.9832967513561248,-0.23123364468961952,-0.11157828754372894
1772458051557487900,3.32148779296875,-0.9777660052359104,-0.1968780783623457,-0.21990301665160802
1772458051567557000,3.33155712890625,-0.9377297629237175,-0.17232815899550913,-0.2782702307505533
1772458051577625000,3.341625,-0.8963719166189431,-0.17277707180678845,-0.3381453286617994
1772458051587693000,3.351693115234375,-0.7514028891921043,-0.17186024922281504,-0.44373581050019706
1772458051597761800,3.36176171875,-0.547545034945011,-0.1915700350821018,-0.5380808948986232
1772458051607830000,3.371830078125,-0.41556817556023595,-0.17426643358170985,-0.5873003048913553
1772458051617899000,3.38189892578125,-0.3987573260128498,-0.04361702340841293,-0.5797889428805559
1772458051627967000,3.391967041015625,-0.4527659795761108,0.16602350589334963,-0.4681241826297715
1772458051638035000,3.402034912109375,-0.5327718287050723,0.45492783378511664,-0.33914003878757354
1772458051648104000,3.41210400390625,-0.40094226883649825,0.7200459201589227,-0.31411504925489425
1772458051658172000,3.422171875,-0.14205109415352343,0.8481883159473538,-0.30143395645599813
1772458051668240100,3.432240234375,0.0689677377641201,0.9368719770506024,-0.24403951464565468
1772458051678308900,3.442308837890625,0.20591127964556216,1.0360963213905692,-0.21642410676097495
1772458051688376800,3.452376953125,0.1739542988926172,1.0814835693418978,-0.19538067941144108
1772458051698445000,3.462445068359375,-0.023985855743288993,1.116845682363212,-0.19212531261099502
1772458051708514000,3.47251416015625,-0.3849924200326204,1.226909108364582,-0.2270067111769691
1772458051718582000,3.48258203125,-0.8370593114286661,1.3829212155923247,-0.32443105689026414
1772458051728650000,3.49264990234375,-1.0165578004449605,1.4839081856906413,-0.3479865583922714
1772458051738719000,3.502718994140625,-0.7381804195255041,1.4931567832902073,-0.27214588438505305
1772458051748787000,3.512786865234375,-0.11867372569739817,1.389129130321741,-0.1454370833300054
1772458051758856000,3.52285595703125,0.5221744468450545,1.3349255387082695,0.08008762739459052
1772458051768924000,3.532923828125,1.1699749227434395,1.2852867707923055,0.352177507276088
1772458051778991900,3.542991943359375,1.6495850701034067,1.1896654193803666,0.6064730612644925
1772458051789061000,3.55306103515625,1.9656459927290677,1.0324944975063204,0.8047614082835615
1772458051799129000,3.563129150390625,2.19608205730021,0.8668748962387443,0.9699917179726064
1772458051809197000,3.573197021484375,2.3391350219726563,0.634516046911478,1.0907071786306797
1772458051819266000,3.58326611328125,2.3144155912578106,0.4100944203242659,1.1436815207101405
1772458051829334000,3.593333984375,2.1819921571493146,0.22953239372968673,1.1908701189950108
1772458051839402000,3.603402099609375,2.1275813525259495,0.1401665955811739,1.186355418049544
1772458051849471000,3.613470947265625,2.1426859826773406,0.12461276035755872,1.1612912655502556
1772458051859539000,3.6235390625,2.0921575724452732,0.15095745418667791,1.1634038737900554
1772458051869607000,3.63360693359375,2.0002087720662356,0.17972499124854802,1.0856102938830852
1772458051879676000,3.643676025390625,1.8371540528506038,0.22914310215115546,0.8968792816191912
1772458051889744100,3.653744140625,1.553352308794856,0.25845892074555155,0.6240627496972679
1772458051899812000,3.66381201171875,1.266475395077467,0.27855945948809385,0.36960137415528294
1772458051909880800,3.673880859375,0.8530670278996229,0.3157169314935803,0.14035397137943653
1772458051919949000,3.683948974609375,0.35067864702045914,0.44930970164239403,-0.01151040505170822
1772458051930018000,3.69401806640625,0.006028174248337745,0.5250432802796363,-0.03406217287126928
1772458051940085800,3.704085693359375,-0.27383623035848137,0.5697945684149861,0.053456536105833945
1772458051950154000,3.714154052734375,-0.4432119692891836,0.6181766142681241,0.2147415422352031
1772458051960223000,3.724222900390625,-0.5581880095124244,0.6942267115086317,0.40033279516864567
1772458051970291000,3.734291015625,-0.669632368478179,0.722063105200231,0.5714789413053541
1772458051980359200,3.744359130859375,-0.765223324751854,0.7521361719027161,0.7310579472344368
1772458051990428000,3.754427978515625,-0.7119412318974733,0.7797574615389108,0.8535929514698684
1772458052000495900,3.764495849609375,-0.500254291459918,0.7639440985962748,0.9981222723051905
1772458052010564000,3.774564208984375,-0.29182255342602725,0.6612637685835361,1.0753338145405054
1772458052020633000,3.784633056640625,-0.16540215912461279,0.5715779447004199,0.997715883461386
1772458052030700800,3.79470068359375,-0.13381634977161883,0.47321460110396146,0.8700039149794727
1772458052040769000,3.80476904296875,-0.19331717101037502,0.33642727269753814,0.7366354551058262
1772458052050838000,3.814838134765625,-0.2611193721264601,0.24535335545688866,0.5698350465558469
1772458052060906000,3.824906005859375,-0.3655307637155056,0.1539892230980098,0.44614853419773276
1772458052070975000,3.83497509765625,-0.44871290479302406,0.06012143735513091,0.45289851991459723
1772458052081043000,3.84504296875,-0.5006985280960798,-0.015038579177856445,0.49203752112612126
1772458052091111000,3.85511083984375,-0.5312672693610191,-0.07127966796830296,0.5306629467923194
1772458052101180200,3.86518017578125,-0.5704752441555261,-0.13966010736376047,0.5715605551742017
1772458052111248100,3.875248046875,-0.6052168871909379,-0.19461364056169986,0.5699087693791837
1772458052121315800,3.88531591796875,-0.6654968761086464,-0.2443571840263903,0.5021790855100378
1772458052131385000,3.895385009765625,-0.743305507454276,-0.28329481744691726,0.37196163701321927
1772458052141453000,3.905453125,-0.9603677111893891,-0.35541868115440006,0.14817721235100179
1772458052151521000,3.91552099609375,-1.3968325443059204,-0.4868335227422416,-0.05005845463275909
1772458052161590000,3.925590087890625,-1.9582500372588634,-0.74468760946244,-0.21628911873707546
1772458052171658000,3.935657958984375,-2.2432202405720947,-0.9967100674197077,-0.22986781796282155
1772458052181726000,3.945725830078125,-2.061498814809322,-0.9410700132623314,-0.4142074086010456
1772458052191795000,3.955794921875,-2.0586557003378867,-0.7593772290721535,-0.7154509935840964
1772458052201863200,3.96586328125,-2.391712181428075,-0.5622264712482691,-0.9173292913865297
1772458052211931000,3.975930908203125,-2.632643921050429,-0.29422435387074947,-1.0591374436296521
1772458052221998800,3.985998779296875,-2.636098445418477,-0.09703267951458693,-1.1531439071908594
1772458052232068000,3.996068115234375,-2.3333996931910512,0.06107873807996511,-1.2139183285620063
1772458052242136000,4.006135986328125,-1.8429367279052733,0.21713673027604818,-1.1084401845242828
1772458052252204000,4.0162041015625,-1.3087567859679459,0.24415683914870023,-0.8735206178635359
1772458052262273000,4.02627294921875,-0.797030667901039,0.21762422153204677,-0.5704526304649189
1772458052272341000,4.036341064453125,-0.2524351304113865,0.18467180000096559,-0.24475085951909423
1772458052282409000,4.046408935546875,0.2701929054200649,0.15311317091584203,-0.0211953528085025
1772458052292478200,4.056478271484375,0.6191150641620159,0.10808072775155306,0.0634782689357875
1772458052302546000,4.0665458984375,0.7902852852940558,0.0866381267502904,0.0940655002720654
1772458052312614000,4.07661376953125,0.7349404146909714,0.208763161945343,0.06348520556665026
1772458052322683100,4.08668310546875,0.43728783993721004,0.47259296207427975,-0.056536939065018665
1772458052332751000,4.096751220703125,0.0921340938180685,0.7561740491166711,-0.2933932002762332
1772458052342819800,4.10681982421875,-0.1734451803267002,0.990655589686334,-0.5796045992895961
1772458052352887800,4.1168876953125,-0.33706747029721734,1.1613389040842652,-0.8361046410523355
1772458052362956000,4.1269560546875,-0.3583838145703077,1.294610771715641,-0.976838807388395
1772458052373025000,4.13702490234375,-0.16672084050774574,1.3648007447510957,-1.0360847770832478
1772458052383093000,4.147093017578125,0.18822306274175643,1.3738824613511562,-0.9652296181373298
1772458052393161000,4.157160888671875,0.6195511174917221,1.293662969471514,-0.8269807658109813
1772458052403230000,4.16722998046875,1.0144020837157963,1.1832166816323995,-0.676716627650708
1772458052413298000,4.1772978515625,1.313236561730504,1.0788707564949989,-0.5271120128450915
1772458052423366000,4.187365966796875,1.5032073449224232,0.96332217708081,-0.3621668037077412
1772458052433435000,4.197434814453125,1.6283733552485704,0.8601879658207296,-0.2688507335634902
1772458052443502800,4.2075029296875,1.6913807233035563,0.7604989265784621,-0.20369970454331487
1772458052453570800,4.21757080078125,1.7543442522168158,0.645210167144239,-0.19459762100866063
1772458052463640000,4.22764013671875,1.7998112874060868,0.5320540358245373,-0.23083288186900316
1772458052473708000,4.2377080078125,1.841495881447196,0.4013222080647945,-0.30989242659118027
1772458052483775700,4.247775634765625,1.8131454007536172,0.3406944286227226,-0.3861097701573744
1772458052493845000,4.257844970703125,1.7245903344660996,0.3146384886071086,-0.4849161813462153
1772458052503913000,4.267912841796875,1.6095844836264848,0.26542233001738785,-0.6418424442768097
1772458052513981000,4.27798095703125,1.541006037440896,0.17387626522034405,-0.7656844394575804
1772458052524050000,4.2880498046875,1.350864573857188,0.04821779520213604,-0.8536875709507614
1772458052534118000,4.298117919921875,1.053297339299321,-0.07368103002160788,-0.8467568218395114
1772458052544187000,4.308186767578125,0.7154857726365328,-0.13709317948520183,-0.8096805253114551
1772458052554255000,4.318255126953125,0.39895840154290196,-0.12858195624947547,-0.6993065720561892
1772458052564323000,4.328322998046875,0.22654548687338827,-0.060869771504402155,-0.47362438748124985
1772458052574393000,4.33839306640625,0.23971710313558578,-0.04139642474949359,0.08430783890550955
1772458052584461800,4.3484619140625,0.2235118182659149,-0.07359744339138269,0.23700943334577604
1772458052594529800,4.35852978515625,0.24038988783061502,-0.07329203070402145,0.3966416855657473
1772458052604598000,4.368597900390625,0.2526385440289974,-0.11016659411489962,0.5807650944363325
1772458052614667000,4.3786669921875,0.349255920740962,-0.17575082692056893,0.6635829322461039
1772458052624735000,4.38873486328125,0.47524143075644965,-0.2601157480418682,0.7296012456201016
1772458052634803000,4.398802978515625,0.5697270561367273,-0.3704895551666617,0.737909055238217
1772458052644872000,4.408871826171875,0.5870879407823085,-0.4790478373020887,0.6921507820174098
1772458052654940000,4.41893994140625,0.46475335448980326,-0.564720041629672,0.5796833270816132
1772458052665007900,4.4290078125,0.2452273909896612,-0.610060235568881,0.39710378665216267
1772458052675076900,4.439076904296875,0.127217682158947,-0.6750348120436072,0.28602024208912624
1772458052685144800,4.449144775390625,0.17087854470908642,-0.7368292971774936,0.24016694752862675
1772458052695212800,4.459212890625,0.281052737608552,-0.809923467221856,0.24284886182267218
1772458052705282000,4.469281982421875,0.29736440546214576,-0.861006004205346,0.30348164623342455
1772458052715350000,4.47935009765625,0.3227233031243086,-0.882539498360455,0.32484427733365445
1772458052725419000,4.4894189453125,0.3355027051985264,-0.8780880719095469,0.35260530423410236
1772458052735487000,4.499487060546875,0.25518939755558967,-0.9124841163776815,0.362142472984083
1772458052745555000,4.509554931640625,0.10175824673175811,-0.9051553809247911,0.33871954835318024
1772458052755624000,4.5196240234375,-0.07680442273914813,-0.8528326346218585,0.29119479518281294
1772458052765692000,4.52969189453125,-0.3497410739094019,-0.7969744076691567,0.2782557455674745
1772458052775760000,4.539759765625,-0.4959183080822229,-0.7788317249961197,0.26506330571295694
1772458052785828900,4.549828857421875,-0.4567266999006271,-0.7877046211510896,0.29206726716840636
1772458052795897000,4.55989697265625,-0.37065702068805695,-0.8402012627162039,0.3123574284652248
1772458052805965000,4.569965087890625,-0.3473223223298788,-0.8576211840726434,0.26675419967565683
1772458052816033800,4.58003369140625,-0.35423546271920203,-0.8611641173765063,0.18343900680299846
1772458052826102000,4.59010205078125,-0.3432791844189167,-0.8642235049471259,0.12401819199789314
1772458052836170000,4.600169921875,-0.40037528260350225,-0.8408134032651782,0.04172652892011683
1772458052846239000,4.610239013671875,-0.3663286360949278,-0.76709554836452,-0.0025468874542391856
1772458052856307000,4.620306884765625,-0.2942407204836607,-0.6874702229857445,-0.017402287518337833
1772458052866376000,4.6303759765625,-0.24929157168865201,-0.6286939166292548,-0.052900135198934
1772458052876444000,4.64044384765625,-0.2244230878919363,-0.5370528670251369,-0.07475589271150529
1772458052886512000,4.65051220703125,-0.2172200246453285,-0.4486182122468948,-0.12341076415665447
1772458052896580900,4.660580810546875,-0.3211678903758526,-0.3765709209069609,-0.14080831841765903
1772458052906648800,4.67064892578125,-0.4924123457878828,-0.42924160386472937,-0.09590497239260003
1772458052916717000,4.680717041015625,-0.6180301915347576,-0.6813108235731721,0.09418266951148398
1772458052926786000,4.6907861328125,-0.3242886527448892,-0.6902715441420674,0.1124704871430993
1772458052936853800,4.700853759765625,-0.02791208927631378,-0.4851975921034813,-0.12693170482441782
1772458052946921700,4.710921630859375,-0.30035891110301016,-0.507164216978848,-0.3427805141817778
1772458052956991000,4.720990966796875,-0.6521013879626989,-0.5621218418300151,-0.4837020563161
1772458052967059000,4.731058837890625,-0.7939239340573548,-0.550960104085505,-0.6134153181504458
1772458052977127000,4.741126953125,-0.9207277747184037,-0.4303896048560738,-0.7343434717111289
1772458052987196000,4.75119580078125,-1.147491288256645,-0.14831746107190846,-0.8594719265058636
1772458052997264000,4.761263916015625,-1.5896142932653425,0.12734919958412647,-0.9276992942314595
1772458053007331800,4.771331787109375,-2.0289123039811847,0.40250206549912687,-0.9354979852836579
1772458053017401000,4.781401123046875,-2.272064057740569,0.6384414036616682,-0.8338829464148729
1772458053027468800,4.79146875,-2.213385658800602,0.8525468034178018,-0.6832718945130706
1772458053037536800,4.801536865234375,-1.8224252702742814,1.035597139696777,-0.4654211707487702
1772458053047606000,4.81160595703125,-1.2423621135622263,1.1536021723523735,-0.21425671786032616
1772458053057674000,4.821674072265625,-0.47863925650119776,1.2855740633010864,0.032368849489465355
1772458053067742000,4.831741943359375,0.27820728504955766,1.3515303442895412,0.20055696780448778
1772458053077811000,4.84181103515625,0.6345698229253292,1.3709998916521668,0.3031915955119766
1772458053087879000,4.85187890625,0.613092735132575,1.521936303050816,0.29080577759891746
1772458053097948000,4.861947998046875,0.4873527243107557,1.7201970679432153,0.17984659006791187
1772458053108016000,4.87201611328125,0.250710790836811,1.8678551883235572,0.020764354679826645
1772458053118083800,4.882083740234375,-0.03510696921646595,1.9971569832801819,-0.11812999247582628
1772458053128152800,4.89215283203125,-0.23993162266910076,2.14496152639389,-0.20637166369892657
1772458053138221000,4.902220947265625,-0.14824235000908373,2.2338173291936516,-0.23827410125304013
1772458053148289000,4.9122890625,0.21542320435643195,2.17739372344315,-0.15115319595448673
1772458053158357800,4.922357666015625,0.7783575316131115,2.0285659747615457,-0.022248181763105092
1772458053168426000,4.932426025390625,1.3682844952136277,1.7976845045104621,0.2331730152543634
1772458053178494000,4.942493896484375,2.0106956792891024,1.576452321614325,0.5811909551655874
1772458053188563000,4.95256298828125,2.658455823177099,1.3465093012571334,0.9763776196174323
1772458053198631200,4.962631103515625,3.018023294574022,1.0369248811691998,1.301015085799992
1772458053208699000,4.972698974609375,3.0315041229158637,0.7173726092964411,1.4879253123775125
1772458053218768000,4.982767822265625,2.833214424189925,0.47654871396273374,1.6363064863353967
1772458053228836000,4.992836181640625,2.62911808501184,0.2787418303176761,1.7820061661243438
1772458053238904800,5.00290478515625,2.456962944495678,0.10918255151361227,1.8456066777668891
1772458053248972800,5.012972900390625,2.2787603405088186,0.01756663635075092,1.7422452336221932
1772458053259040800,5.023040771484375,2.0170289739638565,0.04834142158180475,1.4964908961489796
1772458053269110000,5.033110107421875,1.7229238625586032,0.17706483212858437,1.2208147370122373
1772458053279178000,5.043177978515625,1.3549299235999583,0.27648382225781676,0.9479339076824486
1772458053289246000,5.053245849609375,0.8350199145555496,0.4352946202933788,0.7104191368967294
1772458053299315000,5.06331494140625,0.059656888583302495,0.5949266715839505,0.5150829907467589
1772458053309383000,5.0733828125,-1.0559592519849539,0.7074243389949202,0.30279848627485334
1772458053319451000,5.083450927734375,-2.278121458083391,1.041717668403685,0.07522029535286127
1772458053329519900,5.093519775390625,-3.270890386661887,1.4037757875725627,-0.02334923834018409
1772458053339587800,5.103587890625,-3.747501936727762,1.6153008154466748,0.03305301409503445
1772458053349655800,5.11365576171875,-3.5311744770079847,1.7136054145932196,0.2514355979800224
1772458053359725000,5.12372509765625,-2.721259777614474,1.6493547684788703,0.5593932936489582
1772458053369793000,5.13379296875,-1.6429367181301116,1.465184195998311,0.8310865206293762
1772458053379861000,5.143861083984375,-0.7499334011614323,1.2134443543747067,1.0448376270551234
1772458053389930000,5.153929931640625,-0.20057576383650302,0.9764496619403362,1.1565136758849024
1772458053399998000,5.163998046875,0.1949427263855934,0.7694783518478274,1.1534852679744363
1772458053410066000,5.17406591796875,0.5418880320966244,0.5717018633410335,1.0765988660402595
1772458053420134700,5.184134765625,0.8353934240430593,0.28690234041959045,1.0117750962130725
1772458053430203000,5.194202880859375,1.0186293460220097,-0.0320201091170311,0.9485454637095332
1772458053440272000,5.20427197265625,1.075004144194722,-0.24058891753405331,0.8949814851738512
1772458053450339800,5.21433984375,1.102671903321147,-0.38064474621713157,0.9193406312089413
1772458053460408000,5.224407958984375,1.1199053621947765,-0.46697073827832936,0.9698704296804964
1772458053470476800,5.234476806640625,1.0868424660265446,-0.5013599146142602,0.9741839820306748
1772458053480544800,5.244544677734375,0.9613374330043792,-0.45472062077522274,0.9086703302431851
1772458053490612700,5.25461279296875,0.7275017891228198,-0.33202801482528443,0.7807963761325926
1772458053500682000,5.264681884765625,0.37682489566802974,-0.23380729456990956,0.5778605321012437
1772458053510749700,5.274749755859375,0.0026847090393304824,-0.10329320121407508,0.28692396772950884
1772458053520817700,5.284817626953125,-0.3945604588449001,-0.0058536944642662994,-0.07278846509605645
1772458053530887000,5.294886962890625,-0.8387965104848146,0.04498801950067281,-0.35906931261643765
1772458053540955000,5.304954833984375,-1.2131710903912782,0.0345274157628417,-0.5685575009007007
1772458053551022800,5.31502294921875,-1.4905764114081859,0.006209376034140586,-0.7353900581546128
1772458053561091800,5.325091796875,-1.7541694801717995,-0.002682370951771736,-0.8185959454338997
1772458053571159800,5.335159912109375,-1.9469588279157877,0.06616203269362449,-0.8310214195039123
1772458053581227800,5.345227783203125,-2.030471223860979,0.1037692942932248,-0.7593010220307856
1772458053591297000,5.355297119140625,-1.8927192882061004,0.11920359479039906,-0.6650000325024128
1772458053601364700,5.36536474609375,-1.4986773002773524,0.07674684733301401,-0.6143308255601674
1772458053611433700,5.375433837890625,-0.935438437116146,-0.07442278829962015,-0.5076355608176439
1772458053621502000,5.385501953125,-0.3321767756462097,-0.24521628507375715,-0.43438415438495576
1772458053631570000,5.39556982421875,0.11727613385915756,-0.4105249206960201,-0.3385306747175753
1772458053641638700,5.405638671875,0.4175578880727291,-0.48978199728429317,-0.21375234853476285
1772458053651707000,5.415706787109375,0.7994932586222887,-0.5588949887380004,-0.09143040252812207
1772458053661774800,5.42577490234375,1.1458476127028465,-0.6744280783221125,0.03334324747957289
1772458053671843800,5.43584375,1.3453326586931944,-0.7941574505522847,0.1348712656520307
1772458053681912000,5.445912109375,1.4512562084108591,-0.8908303568437695,0.26201164479106664
1772458053691979800,5.455979736328125,1.4892536383718251,-0.9380056572556495,0.4361678229313343
1772458053702048800,5.466048828125,1.4987591333419084,-0.980748820438981,0.6620590106144547
1772458053712117000,5.476116943359375,1.49649937171638,-1.102184704326093,0.8949149958088993
1772458053722185000,5.48618505859375,1.439350082039833,-1.2286664734259247,1.1696261823710052
1772458053732253700,5.496253662109375,1.2944330770611763,-1.3402867734804749,1.3690271302744745
1772458053742322000,5.506322021484375,1.156723226982355,-1.298022041463852,1.4281778229013085
1772458053752390000,5.516389892578125,1.0263906276732682,-1.164841651508212,1.3089137300953269
1772458053762459000,5.526458984375,0.8090928616166114,-1.0810033846095204,1.1053756093218923
1772458053772526800,5.53652685546875,0.5018962134480476,-0.9706643565371632,0.8545617965020239
1772458053782594800,5.5465947265625,0.09650339494347572,-0.8322893205478787,0.6011197540704161
1772458053792663800,5.556663818359375,-0.6172451786369085,-0.7034995667666196,0.43176060094833374
1772458053802731800,5.566731689453125,-1.5685083768725394,-0.42897126249074935,0.28466376771256324
1772458053812800800,5.57680078125,-2.4646610977828503,-0.030997488071024416,0.18764139039628205
1772458053822868700,5.58686865234375,-3.0083225692927837,0.3312909327223897,0.2738978974178433
1772458053832936700,5.596936767578125,-3.1919670720726248,0.5621399620085954,0.4565713632084429
1772458053843006000,5.607005859375,-3.077925682350993,0.6822498579889535,0.6429026208542287
1772458053853074000,5.617073974609375,-2.6987691288650035,0.783837716589868,0.7795545593779534
1772458053863142000,5.627141845703125,-2.205104152667522,0.8045446967929601,0.8782439931236207
1772458053873211000,5.6372109375,-1.6951088039159774,0.7791834610432385,0.912574425009638
1772458053883278800,5.64727880859375,-1.326743109035492,0.7760843259841204,0.9608784371905028
1772458053893346800,5.657346923828125,-1.0763380231469868,0.76805621009022,1.0123997309174388
1772458053903415800,5.667415771484375,-0.9195838653802871,0.7930287387832998,1.0178061930708586
1772458053913483800,5.67748388671875,-0.7485106748819351,0.8043070886448025,0.9399566451929509
1772458053923551700,5.6875517578125,-0.5444932461589574,0.7796902415215968,0.808294916171953
1772458053933621000,5.69762109375,-0.32011458193063735,0.7249699325576424,0.65703694466874
1772458053943689000,5.70768896484375,-0.11131167249679565,0.657817427521944,0.5081853036548942
1772458053953757000,5.7177568359375,0.023335867401957512,0.6577765109896659,0.34375900382511315
1772458053963826000,5.727825927734375,0.14984160189926624,0.684818831694126,0.2534897540308535
1772458053973894000,5.737893798828125,0.25278525902330873,0.7103063241720199,0.21267280966974794
1772458053983961900,5.7479619140625,0.3037807022452354,0.7392199917063117,0.20429730511028318
1772458053994030800,5.75803076171875,0.3787508952945471,0.7560577292606234,0.20315065582580863
1772458054004098800,5.768098876953125,0.529894811964035,0.7347866854339837,0.18821904415376484
1772458054014167800,5.778167724609375,0.6718617349654435,0.7214166239902376,0.17416783204544334
1772458054024236000,5.788236083984375,0.7465104409754276,0.7400669639244675,0.1778034851340577
1772458054034304000,5.798303955078125,0.7021978365182876,0.7724898086234927,0.1569554524924606
1772458054044372700,5.808372802734375,0.4812187516003847,0.8458917294427752,0.10688944474090821
1772458054054441000,5.81844091796875,0.22465455856025218,0.942917102433741,0.01841486894423142
1772458054064509000,5.828509033203125,0.046070261779427524,1.0875301560297608,-0.11083159736227244
1772458054074578000,5.838577880859375,-0.02968494416773319,1.2373910471513867,-0.14120445072893054
1772458054084645600,5.848645751953125,-0.03944762876927852,1.3177429332390427,-0.08040842031417414
1772458054094713900,5.8587138671875,0.037137598261237144,1.3620505692601204,-0.04027019719853997
1772458054104782800,5.868782958984375,0.21588439212739466,1.3921210056141018,0.031012064585648477
1772458054114850800,5.878850830078125,0.49561669478714465,1.3689417900785803,0.13490767040597273
1772458054124919000,5.8889189453125,0.7295388479083776,1.3097034191682935,0.2364317247893661
1772458054134987800,5.89898779296875,0.910952815157175,1.2512822098597884,0.3388386446882039
1772458054145055700,5.9090556640625,1.0604957263708115,1.1561810829296708,0.4349111739337444
1772458054155124000,5.9191240234375,1.2009347091525793,1.067264489853382,0.5613344543119893
1772458054165193000,5.92919287109375,1.3626900362074374,0.936762671457231,0.6805950765192508
1772458054175260700,5.9392607421875,1.4768886623173951,0.7687807249724864,0.7901417851701379
1772458054185330000,5.949329833984375,1.5727414843976497,0.6727291654497385,0.9074698684122413
1772458054195398000,5.95939794921875,1.7046394333273172,0.6027277007237076,1.0652248737845569
1772458054205465900,5.9694658203125,1.8027970252186059,0.5554825499460101,1.1371209931507706
1772458054215534800,5.979534912109375,1.8379916727185248,0.4907341834425926,1.168109494197741
1772458054225602800,5.989602783203125,1.8939327556490897,0.3942518312871456,1.097300439415872
1772458054235670800,5.9996708984375,1.908531189844012,0.2932762593656778,0.926495836725831
1772458054245740000,6.009739990234375,1.7608441356301308,0.24899726491719482,0.7302111211467534
1772458054255808000,6.01980810546875,1.4544646490633486,0.2583440621942282,0.545648919000104
1772458054265875700,6.029875732421875,1.0372153885483741,0.3124193512529135,0.4322156877720728
1772458054275945000,6.039945068359375,0.7063742454200983,0.37919483966976403,0.42612117028925567
1772458054286013000,6.050012939453125,0.5172293916583061,0.45543695235103365,0.42117275410164146
1772458054296081000,6.060080810546875,0.4092728748083114,0.5322264697819948,0.47297786973863837
1772458054306150000,6.07014990234375,0.22008593547046182,0.5245405914545059,0.5925831406651064
1772458054316217900,6.0802177734375,-0.0756599288791418,0.49552492485046384,0.6688958708971738
1772458054326285800,6.090285888671875,-0.3379588661789894,0.4620259753525257,0.6807898684389889
1772458054336355000,6.10035498046875,-0.5829179616212844,0.4576566742271185,0.6951922686051577
1772458054346422800,6.1104228515625,-0.7057838783115148,0.4035328698515892,0.7106270805589854
1772458054356490800,6.12049072265625,-0.6067027418345212,0.2818476873785257,0.668800959155336
1772458054366559700,6.130559814453125,-0.4624690429449081,0.09892243878394365,0.5665765927491709
1772458054376628000,6.1406279296875,-0.4168471094548702,-0.06284720905721188,0.44612380161527543
1772458054386696700,6.15069677734375,-0.4608189376503229,-0.18533844721615314,0.36592071288116274
1772458054396764700,6.1607646484375,-0.5225520479857921,-0.27176731512993574,0.3229759627111256
1772458054406833200,6.170833251953125,-0.6396767906755209,-0.3217506586998701,0.25916001821961254
1772458054416902100,6.180902099609375,-0.7426689631164074,-0.35995617845356465,0.18536840396299958
1772458054426970000,6.19097021484375,-0.788078715160489,-0.3440522146180272,0.13295421651694922
1772458054437038000,6.2010380859375,-0.8109048794746399,-0.296099500092864,0.1258048927515745
1772458054447107000,6.211107177734375,-0.8553425716161728,-0.21477555410265922,0.11638448224905877
1772458054457175000,6.221175048828125,-0.8866261831521988,-0.12132482472807168,0.146611132078059
1772458054467243300,6.2312431640625,-0.890594502261281,-0.0349675607457757,0.19463599852398036
1772458054477312000,6.24131201171875,-0.8154173884630203,0.04638005838096142,0.27339984823521224
1772458054487380000,6.2513798828125,-0.6952098773270845,0.09719079268574714,0.3409771545542404
1772458054497448200,6.2614482421875,-0.5511491969168186,0.10558774189203977,0.3603876286733895
1772458054507517200,6.27151708984375,-0.5037590847104787,0.18210633342713117,0.3664321330020204
1772458054517585200,6.281585205078125,-0.5214326885670423,0.2713222017109394,0.3616888474650681
1772458054527653000,6.291653076171875,-0.5565285518676042,0.3363812415987253,0.3422363243024796
1772458054537722000,6.30172216796875,-0.6067261227101087,0.41187721208781003,0.3105205318942666
1772458054547790000,6.3117900390625,-0.6870265708714723,0.47321109397262334,0.2328664700558409
1772458054557858000,6.321858154296875,-0.7764677723437547,0.6155459735035896,0.20962690263520925
1772458054567927000,6.331927001953125,-0.8242360702127218,0.7580798827379942,0.17073562910705803
1772458054577995000,6.3419951171875,-0.7530377969175577,0.8752741835325956,0.1407681416708976
1772458054588063000,6.35206298828125,-0.7065776590377092,0.9491665182173251,0.08693411402218043
1772458054598132200,6.36213232421875,-0.7489221782922745,0.9148889855623245,0.075448587683402
1772458054608200200,6.3722001953125,-0.580882071879506,0.8782084834188222,0.07837744420953094
1772458054618269200,6.382269287109375,-0.22016776853501796,0.8109525180086493,-0.0014475319271907209
1772458054628337200,6.392337158203125,-0.034811201140284534,0.7590627562955021,-0.06681870650406926
1772458054638405000,6.402405029296875,-0.03035597529709339,0.664570701174438,-0.08350034018121659
1772458054648474000,6.41247412109375,-0.04330956489443779,0.5833145597234368,-0.1382886728800833
1772458054658542000,6.4225419921875,-0.09430033194124698,0.47718642734438177,-0.17947068769391625
1772458054668610000,6.432610107421875,-0.18841829305291175,0.4357788966789841,-0.18300383025612682
1772458054678679300,6.44267919921875,-0.11651157922744751,0.4482750978976488,-0.20734127591606227
1772458054688747300,6.452747314453125,-0.05081482595801353,0.41548751153945923,-0.23649752003457397
1772458054698815200,6.462815185546875,-0.0198071087539196,0.3932426542446017,-0.26503464587405323
1772458054708884000,6.472884033203125,0.07275660865306854,0.3934647725626826,-0.27895521734002976
1772458054718952200,6.4829521484375,0.20927578764259813,0.38236703996509314,-0.24506683013308792
1772458054729020200,6.493020263671875,0.24165654676556586,0.42143356046229596,-0.19039584020357578
1772458054739089000,6.5030888671875,0.13585983829796314,0.47461628459542987,-0.1128032627614215
1772458054749157000,6.5131572265625,-0.005652326673269271,0.554583847540617,0.0017007395032793283
1772458054759225000,6.52322509765625,-0.03720774088799953,0.6144812668815255,0.17200298216175286
1772458054769294000,6.533294189453125,-0.009326631271839142,0.6407482192993164,0.30965006920266896
1772458054779362300,6.5433623046875,0.0675777447104454,0.6463976233631372,0.4227630920330062
1772458054789430000,6.553429931640625,0.22043431051671503,0.6286869023665785,0.5519306296180934
1772458054799499000,6.5634990234375,0.35392917324900625,0.6185276196628808,0.6081001510096714
1772458054809567200,6.573567138671875,0.5063619606852531,0.6700996937289834,0.6412994234412909
1772458054819636200,6.58363623046875,0.8143412836641073,0.709440939514339,0.6694109077472239
1772458054829704000,6.593703857421875,1.090742980596423,0.7084712176993488,0.6709995651781558
1772458054839772200,6.603772216796875,1.121422781020403,0.7309358552247286,0.6929138022791594
1772458054849841200,6.613841064453125,0.9312094212442636,0.8389706980079412,0.7251286302506923
1772458054859909000,6.6239091796875,0.6516343549728393,0.9909890594244003,0.7470608413998037
1772458054869977000,6.63397705078125,0.34908757843673227,1.1586170779049396,0.7923512779131531
1772458054880046000,6.644046142578125,0.04177344136834144,1.2662892248556017,0.7680823674447834
1772458054890114000,6.654114013671875,-0.21413082645833492,1.3927183869853614,0.7892142950616776
1772458054900182000,6.66418212890625,-0.3287257584095001,1.401357912775874,0.9027743310071528
1772458054910251300,6.674251220703125,-0.3100584673404693,1.3827028966665267,1.01473116953969
1772458054920319000,6.684319091796875,-0.10369944392740726,1.3356924314275382,1.0485932532615958
1772458054930387000,6.694386962890625,0.19636428362131117,1.2154869661182164,1.110922429794073
1772458054940456200,6.704456298828125,0.4088660475730896,1.053004786093533,1.2413001834191382
1772458054950524200,6.714524169921875,0.5476636928886175,0.8832260193198919,1.3865166097357868
1772458054960592100,6.724592041015625,0.6926362274467944,0.6859782308623195,1.526755101509392
1772458054970661000,6.7346611328125,0.7755319527983665,0.5555886406689882,1.712303099822998
1772458054980729000,6.74472900390625,0.7900105600059032,0.49706280194222924,1.8333035149022936
1772458054990797000,6.754797119140625,0.7832926499277353,0.4438853385061025,1.9487883814305067
1772458055000866000,6.764865966796875,0.7572709044426679,0.4164125174298882,1.9911086430266498
1772458055010934000,6.77493408203125,0.754691409343481,0.42452071282267567,1.9602856347396969
1772458055021003000,6.7850029296875,0.7675392004787921,0.4479217544153332,1.8373565896853803
1772458055031071200,6.7950712890625,0.7957938195824623,0.4270195439010858,1.6762494974061846
1772458055041139200,6.80513916015625,0.7133078440755606,0.3800052792698145,1.4286153375357389
1772458055051208000,6.8152080078125,0.4305652536839247,0.35820436635017394,1.1576942639715968
1772458055061276200,6.825276123046875,0.057632104757428165,0.39329701478034257,0.8642563112381845
1772458055071344000,6.83534423828125,-0.4113964428335428,0.46103871788084505,0.5304632960343734
1772458055081413000,6.8454130859375,-0.9167015879422425,0.49180181267410517,0.24027207013722507
1772458055091481000,6.855481201171875,-1.3297060504943132,0.48359892473518845,0.051731977335549885
1772458055101549000,6.865549072265625,-1.5667466278970241,0.5299079637065529,-0.03153027977347374
1772458055111618000,6.8756181640625,-1.5422639285475015,0.5713330300286412,0.06115677175223827
1772458055121686300,6.885686279296875,-1.3644541232705116,0.5993807283833622,0.3308577289368957
1772458055131754200,6.895754150390625,-1.1613321820825337,0.6265101428493857,0.5942221765764057
1772458055141823000,6.905822998046875,-0.9352157342761754,0.6364277257516979,0.7539393488671631
1772458055151891000,6.915890869140625,-0.7927695033252239,0.6617518443614244,0.9079605014733969
1772458055161959200,6.925959228515625,-0.7437666952252387,0.6645990504860878,1.0472257643006742
1772458055172028200,6.936028076171875,-0.7494932561784983,0.6753066147223115,1.0864505440995096
1772458055182096100,6.94609619140625,-0.7635264577060937,0.6830532833263278,0.9986042106032371
1772458055192164000,6.9561640625,-0.8161345968216657,0.6492723020166158,0.9003435967288911
1772458055202233000,6.966233154296875,-0.8825666786283254,0.5882593226492404,0.748020261016488
1772458055212301000,6.976301025390625,-0.9137328012645244,0.5332075897738338,0.5886995406974107
1772458055222369300,6.986369384765625,-0.8956833498328923,0.5160933733657003,0.501825632429868
1772458055232438000,6.99643798828125,-0.855418559461832,0.4861863108798861,0.42551151395831255
1772458055242506000,7.006506103515625,-0.7812930005431175,0.4378942813977599,0.41519598124697804
1772458055252575200,7.0165751953125,-0.6428530826240778,0.3934183030724525,0.38227684093099085
1772458055262643200,7.026643310546875,-0.4441927970200777,0.3823565185710788,0.37854112500138576
1772458055272711000,7.0367109375,-0.29600071589350696,0.3424091235861182,0.4175014451777562
1772458055282780200,7.0467802734375,-0.22278350399136543,0.3159095314562321,0.4510992884729057
1772458055292848000,7.05684814453125,-0.1963935097157955,0.2731500016599893,0.4925670979581773
1772458055302916000,7.066916015625,-0.1875572923094034,0.16596476144343614,0.6062643869498744
1772458055312985000,7.076985107421875,-0.1726741959542036,-0.004870528645813465,0.7672410943150519
1772458055323053000,7.087052978515625,0.03220598707795143,-0.11467764179855584,0.8258012737028301
1772458055333121000,7.09712109375,0.28826398416161536,-0.029394436788558957,0.6435282054066658
1772458055343190300,7.107190185546875,0.3623702538579702,0.043102644145488735,0.40780046416819093
1772458055353258200,7.11725830078125,0.4290577717304229,-0.008919219514727591,0.13444069221504032
1772458055363326000,7.127325927734375,0.589461099654436,-0.08957710281163453,-0.12508684414271265
1772458055373395200,7.137395263671875,0.6876794818222522,-0.13804127399027347,-0.33427137330528345
1772458055383463200,7.147463134765625,0.6604857699483633,-0.060702890504896634,-0.4286017715912312
1772458055393531100,7.15753125,0.5640899270325899,0.0514917023062706,-0.40689679332673545
1772458055403600100,7.16760009765625,0.43441666841506954,0.1819654636517167,-0.31562406557835637
1772458055413668000,7.177668212890625,0.32625323081612584,0.36319472198337316,-0.27923721261918544
1772458055423736000,7.187736083984375,0.20561375800371168,0.5074465410515666,-0.2885459063755348
1772458055433805300,7.197805419921875,0.08757716116607189,0.615101444606483,-0.20295246637258677
1772458055443873300,7.207873291015625,0.08819850793480873,0.7144687045484781,-0.046720761577412485
1772458055453941000,7.21794091796875,0.09828969383835792,0.8237260748639702,0.12457798130512236
1772458055464010000,7.228010009765625,0.02503039636015892,0.9341413830429315,0.2609090173114091
1772458055474078200,7.238078125,-0.11331132188141345,1.1020029180184006,0.3061345718950033
1772458055484146200,7.248146240234375,-0.2542828041046858,1.1778256362438202,0.27425723224952814
1772458055494215000,7.25821484375,-0.30107027424275873,1.1298071630060673,0.2115155293934047
1772458055504283100,7.268283203125,-0.2700456059038639,1.0826835927814245,0.05056428526304662
1772458055514352000,7.27835205078125,-0.3333522491663694,1.0115367574125527,-0.11380896920524537
1772458055524420000,7.288420166015625,-0.4254378276675939,0.9572457797765731,-0.3121469640523195
1772458055534488300,7.29848828125,-0.45610535313189027,0.8925333613693713,-0.5127863677095622
1772458055544557000,7.30855712890625,-0.5556231274604797,0.8201660442948341,-0.6508100329779088
1772458055554625000,7.318625,-0.6660913348704576,0.7850345251590013,-0.7693913311515003
1772458055564693200,7.328693359375,-0.8594704652011393,0.7343453714072704,-0.8907768730908632
1772458055574762000,7.338761962890625,-1.0801771629184485,0.7434741420194506,-1.0134503359489142
1772458055584830000,7.348829833984375,-1.0940993052870034,0.7708040474936365,-1.1058677767530083
1772458055594898200,7.358898193359375,-0.791512196740508,0.7427396902650595,-1.1358503886930644
1772458055604967200,7.36896728515625,-0.35557752497792244,0.6567685029909014,-1.095926301518455
1772458055615035100,7.37903515625,0.016729016482830046,0.53616117888242,-1.0214718029063194
1772458055625103000,7.38910302734375,0.35375907737910744,0.39977994705885644,-0.8820274571850896
1772458055635172000,7.399172119140625,0.7062526648670434,0.2314347202196717,-0.7446729964151978
1772458055645240000,7.409239990234375,1.0391267751276492,0.055583063273131846,-0.6322272053219378
1772458055655308000,7.41930810546875,1.2739473383933304,-0.09340075275301933,-0.5476978874191641
1772458055665377000,7.429376953125,1.4252490759730339,-0.2563628252491355,-0.5066253608617931
1772458055675445000,7.439445068359375,1.5402145948022603,-0.35177024164944887,-0.5756926134776323
1772458055685513000,7.449512939453125,1.4990011254042386,-0.37150720777660606,-0.6823229962904006
1772458055695582200,7.459582275390625,1.3257061672031878,-0.31903233965188266,-0.769931502442807
1772458055705650200,7.469650146484375,1.1455161887913943,-0.25241730249375105,-0.8184039299931377
1772458055715718100,7.47971826171875,1.0142033462733029,-0.16040712731629608,-0.8095612097807228
1772458055725787100,7.489787109375,0.8405249417126178,-0.0705555914774537,-0.7993211899910122
1772458055735855000,7.499855224609375,0.5336643936306238,0.02057517051696777,-0.7382896520536393
1772458055745923000,7.509923095703125,0.23091303443312644,0.1852402475386858,-0.6920194837879389
1772458055755992000,7.519991943359375,-0.0384510189473629,0.2707964242711663,-0.590795051671937
1772458055766060000,7.53006005859375,-0.31482465882897376,0.3320136940389871,-0.4630568527702242
1772458055776129000,7.54012890625,-0.5438081865042448,0.381444079901278,-0.3090199180729687
1772458055786197200,7.550197265625,-0.6557569878607988,0.398920992141962,-0.13519494464844464
1772458055796265200,7.56026513671875,-0.6647966188848018,0.35942309449017046,-0.016222016808763146
1772458055806334000,7.570333984375,-0.5632961463063955,0.28716479074805973,0.04489318082407116
1772458055816402200,7.580402099609375,-0.34467969886660577,0.16384119341820477,0.060227674208581446
1772458055826470100,7.59047021484375,-0.049050154373049736,-0.006921031434834003,0.07410057060793042
1772458055836539100,7.6005390625,0.20568565419614313,-0.1747048249989748,0.11971585516147315
1772458055846607000,7.610607177734375,0.44470016202032564,-0.32645576765090223,0.19987536048218607
1772458055856675000,7.620675048828125,0.6414823787927627,-0.4380383660435676,0.26470672909393905
1772458055866744000,7.630744140625,0.8153922540217637,-0.5313464720770716,0.2613261467449367
1772458055876812300,7.640812255859375,0.9750275201827288,-0.6549570696547627,0.30237945714518427
1772458055886880300,7.65088037109375,1.0023778839230537,-0.8096089944452047,0.3095456955127418
1772458055896949000,7.660948974609375,0.879216199156642,-0.8084899272873998,0.31682850946467367
1772458055907017000,7.671016845703125,0.7383955235809088,-0.7971256527081132,0.333329927736707
1772458055917085200,7.681085205078125,0.7107552369832992,-0.8114777109265326,0.370335789377056
1772458055927154200,7.691154296875,0.7044885778039693,-0.7982254306435584,0.40806923463959244
1772458055937222000,7.701221923828125,0.6469055728852748,-0.8088210589379071,0.3820494619159028
1772458055947290000,7.7112900390625,0.5769494086056948,-0.7923062697276473,0.34490148839112367
1772458055957359000,7.721359130859375,0.49270928290784355,-0.7948901487410068,0.3128833155028522
1772458055967427000,7.731427001953125,0.4163847526401281,-0.8124804582282901,0.3014133885920048
1772458055977495300,7.741495361328125,0.3380295933276415,-0.7903145113885403,0.31496724563743916
1772458055987564000,7.75156396484375,0.30902970881462094,-0.7813847704797983,0.36196200185064226
1772458055997632000,7.761632080078125,0.33308570718467234,-0.8092626652255653,0.41411980338282883
1772458056007701200,7.771701171875,0.2967097409456968,-0.7867848759576678,0.43729185852520164
1772458056017769200,7.781769287109375,0.1607359208792448,-0.7806751609057188,0.4074519429914653
1772458056027837000,7.7918369140625,-0.10654431196451186,-0.7636199812084435,0.30415063153617083
1772458056037905200,7.8019052734375,-0.43779812754690645,-0.7311129653573035,0.21537213175632058
1772458056047974100,7.81197412109375,-0.6927367652118206,-0.7024827909395098,0.11551529819909483
1772458056058042000,7.8220419921875,-1.0386369457840918,-0.6953127531796693,0.02753525532055646
1772458056068111000,7.832111083984375,-1.4557067580789327,-0.6369374288395047,-0.07014492831733077
1772458056078179000,7.842178955078125,-1.7248633061885832,-0.5907482168555259,-0.15594879620056598
1772458056088247000,7.8522470703125,-1.9493045142591,-0.5133706704035401,-0.2500927685363218
1772458056098316300,7.86231640625,-2.006755417230725,-0.4928299866780638,-0.261581327082403
1772458056108384300,7.87238427734375,-1.9328765265494583,-0.6026455753982066,-0.13453322933670134
1772458056118452000,7.882451904296875,-1.6158534808933733,-0.8418743104949593,0.12215813374705611
1772458056128521200,7.892521240234375,-0.8339607608914374,-0.9280278685986996,0.2066102216951549
1772458056138589200,7.902589111328125,-0.2543698978662491,-0.8295996430724859,0.11227299180962144
1772458056148657200,7.9126572265625,-0.2564911278039217,-0.7798793343529105,-0.06978636067062616
1772458056158726100,7.92272607421875,-0.4531225379288196,-0.6895481983035803,-0.40459143899381156
1772458056168794000,7.932794189453125,-0.7233569444030523,-0.5917693765968084,-0.7169148555915802
1772458056178862000,7.942862060546875,-0.8886153111428022,-0.4040568937256932,-0.9095618722554296
1772458056188931300,7.952931396484375,-0.9300544059902429,-0.1498690744280815,-1.035346964327991
1772458056198999000,7.9629990234375,-0.9132733670592308,0.057060442349314684,-1.0149423280723393
1772458056209067000,7.97306689453125,-0.7890425917565822,0.15056465547680853,-0.9234525235071778
1772458056219134200,7.98313427734375,-0.8087947554528713,0.19949059894829987,-0.9512777382176368
1772458056229202000,7.993201904296875,-0.5974819090247154,0.28860739077180625,-0.8499882780414074
1772458056239271200,8.003271240234374,-0.22060265282094477,0.3490112983301282,-0.7292816582769155
1772458056249339100,8.013339111328126,0.19865560942888258,0.33738340437859293,-0.5575430626723915
1772458056259407000,8.023406982421875,0.5485147567600012,0.33555998834371564,-0.39480902677848934
1772458056269476000,8.03347607421875,0.819554634398222,0.3672510116368532,-0.33740634686276316
1772458056279544000,8.0435439453125,0.7561153046667576,0.3652420099020004,-0.34187004827335477
1772458056289613000,8.053613037109375,0.31733401130139827,0.45851650592684745,-0.455790222768113
1772458056299681300,8.063681396484375,-0.07938625592589378,0.6222510241001844,-0.6502315024375915
1772458056309749200,8.073749267578124,-0.24227672449052332,0.7902882079035043,-0.7311247288603335
1772458056319818000,8.08381787109375,-0.24988778401613235,0.9478943063244223,-0.7800585633773356
1772458056329886200,8.09388623046875,-0.2706540931910276,1.0990624806523321,-0.7741723548829555
1772458056339954200,8.1039541015625,-0.254621826800704,1.2696598703324795,-0.7264429277196526
1772458056350023000,8.11402294921875,-0.12558160538971425,1.4036962925955652,-0.6741258805051445
1772458056360091100,8.124091064453125,-0.019505495458841324,1.4472475572913883,-0.541368757462874
1772458056370159000,8.1341591796875,0.12376023518145084,1.4291148114904761,-0.398214670503512
1772458056380228000,8.14422802734375,0.4605921431571245,1.3475278306499123,-0.1930328741762787
1772458056390296300,8.15429638671875,0.9726093531250953,1.2242971723005174,0.043977454218640924
1772458056400364300,8.1643642578125,1.4049211582154035,1.06636403388232,0.28570881978608664
1772458056410433500,8.17443359375,1.5563345394760368,0.9103627403095365,0.4555912661299109
1772458056420501500,8.18450146484375,1.4658715937405824,0.7900660895854235,0.5374496843229979
1772458056430569500,8.194569580078126,1.2310340793401002,0.7712544216096401,0.48716063580475744
1772458056440638500,8.204638427734375,0.912321765422821,0.7392272982299327,0.3799563986267894
1772458056450706400,8.21470654296875,0.6234054548323154,0.7372866855561733,0.2231087173577398
1772458056460774400,8.2247744140625,0.3644055590778589,0.7740800004243851,0.06889693755023181
1772458056470843600,8.23484375,0.198257550022006,0.7964239341795444,-0.08431954760961234
1772458056480911600,8.24491162109375,0.1916355015337467,0.7782330284506082,-0.24737426682524383
1772458056490979300,8.254979248046874,0.008663198927044868,0.7442375276073813,-0.4523846521083265
1772458056501048300,8.26504833984375,-0.3728098148077726,0.743773709487915,-0.6196750361323357
1772458056511116500,8.275116455078125,-0.6181658006131648,0.8197796753257512,-0.7216809009496122
1772458056521184500,8.2851845703125,-0.8814046491116285,0.8632686884403228,-0.7682553128588944
1772458056531253200,8.295253173828126,-1.1244260544896125,0.8524068104252218,-0.7706709956984966
1772458056541321500,8.305321533203125,-1.1040209798425435,0.8734840852454304,-0.7012380515754223
1772458056551389400,8.315389404296875,-0.7570984704852104,0.8131824690178037,-0.5488199502516538
1772458056561458400,8.32545849609375,-0.24347265627682207,0.6832830004289746,-0.3247994518112391
1772458056571527400,8.33552734375,0.37681262070834637,0.5007537654146552,0.08726502647697926
1772458056581596400,8.345596435546875,0.5150742594510317,0.4368015177249908,0.2034075531963259
1772458056591664600,8.35566455078125,0.5614999105393886,0.39182051248699423,0.25496063030101357
1772458056601732600,8.365732666015624,0.5497802466511726,0.3109992553219199,0.2048996183849871
1772458056611801300,8.37580126953125,0.539374587970972,0.2822688354000449,0.10707118538282812
1772458056621869300,8.385869384765625,0.5547305625349283,0.23102058646082876,0.07125847904980183
1772458056631937500,8.3959375,0.6061684888273478,0.19146511340290306,0.041978389355912804
1772458056642006300,8.40600634765625,0.5986556289792061,0.16846242347806692,-0.02883351497016847
1772458056652074200,8.41607421875,0.5363619621515274,0.13996727361679076,-0.09111782944761217
1772458056662142500,8.426142578125,0.5021534030795097,0.11351502775996923,-0.07592062564194202
1772458056672211500,8.43621142578125,0.48318040706217286,0.08749591262340545,-0.005907178217172623
1772458056682279400,8.446279541015626,0.47350949239730833,0.05794745431691408,0.05012319043204188
1772458056692347600,8.45634765625,0.4226934973955154,0.010419102683663367,0.04996478499993682
1772458056702416400,8.46641650390625,0.39213235491514203,-0.01813976006358862,0.004415916746109724
1772458056712484400,8.476484375,0.43005905772745606,-0.0760433752387762,-0.03196574858129024
1772458056722552600,8.486552490234375,0.38676878205537796,-0.11524345898777245,-0.03331599414646625
1772458056732621300,8.496621337890625,0.3431646181285381,-0.12321253817081451,-0.009137538440525532
1772458056742689300,8.506689208984374,0.32985154756903645,-0.13992343447506428,-0.023495880269259212
1772458056752757500,8.516757568359376,0.2670604526132345,-0.18222294554412363,-0.039916415324807164
1772458056762826500,8.526826416015625,0.1779120966076851,-0.2120981515869498,-0.08190569140091537
1772458056772894500,8.53689453125,0.17601532307565212,-0.27523265315294265,-0.1404758076608181
1772458056782962700,8.546962646484374,0.24815643017888067,-0.3138110978722572,-0.13168942074552178
1772458056793031400,8.557031494140626,0.35070085885226726,-0.31430268078148366,-0.1243236412178725
1772458056803099400,8.567099365234375,0.4543582172036171,-0.34721944647729397,-0.08861848691254853
1772458056813167400,8.57716748046875,0.5285790531903505,-0.377633873963356,-0.05545220343507826
1772458056823236400,8.587236328125,0.5619593447446822,-0.4397954388439655,-0.01490421220846474
1772458056833304300,8.59730419921875,0.6279571267873049,-0.4762134906589985,0.016616057627648114
1772458056843373600,8.60737353515625,0.7065507710307836,-0.4870157474413514,0.1275930913425982
1772458056853441500,8.617441650390624,0.77164605127573,-0.45417146245986223,0.22656024605110286
1772458056863509500,8.627509521484376,0.7678279542922973,-0.44747547195255755,0.265014479868859
1772458056873578500,8.63757861328125,0.6172095228016377,-0.44097851114869113,0.21966617568843066
1772458056883646500,8.647646484375,0.41460663705170153,-0.41088089452683924,0.11436119626052677
1772458056893714400,8.65771435546875,0.1837538083732128,-0.420706122970581,0.05858867482990026
1772458056903783700,8.66778369140625,0.022114801174402236,-0.37846126469820734,0.05631809954941273
1772458056913851400,8.677851318359375,-0.010200491496920585,-0.3963420815646648,0.11907638821415603
1772458056923919400,8.68791943359375,-0.004874912559986114,-0.5393742957100272,0.3362929787933826
1772458056933988400,8.69798828125,0.10943185009956359,-0.642973786394298,0.6177173261933029
1772458056944056600,8.708056640625,0.4613040908187628,-0.5468026921451091,0.6684721655923873
1772458056954124500,8.71812451171875,0.458886508283019,-0.45715164731442925,0.6243393016163259
1772458056964193300,8.728193359375,0.08522212247252464,-0.5315820343986153,0.5672188727080821
1772458056974261500,8.738261474609375,-0.20697160235345363,-0.48673868406563997,0.4543502530928701
1772458056984329500,8.74832958984375,-0.41346798841059207,-0.37293957866728306,0.37137225628532466
1772458056994398500,8.7583984375,-0.5269400538116693,-0.3406716322690248,0.40834867263548075
1772458057004466400,8.768466552734376,-0.4397784877091646,-0.3699541331157088,0.5349444965690374
1772458057014534400,8.778534423828125,-0.12560849339663982,-0.4059568821281194,0.6144139007337391
1772458057024603400,8.788603271484375,0.08246785532832145,-0.4304837128803134,0.6423356346212327
1772458057034671600,8.798671630859374,0.0661404053837061,-0.48670565857887266,0.5963025995796546
1772458057044739600,8.808739501953125,-0.09406360057592392,-0.48615620800256726,0.44022645067237315
1772458057054808300,8.818808349609375,-0.3000345014542341,-0.4402995889738202,0.3031090135287493
1772458057064876500,8.82887646484375,-0.5399404051601886,-0.3969301105856895,0.18841938903145491
1772458057074944500,8.838944580078126,-0.769042590779066,-0.34217736065685744,0.12908022462781518
1772458057085013500,8.849013427734375,-0.8291782027900219,-0.27105858233869073,0.11766579076386988
1772458057095081200,8.859081298828125,-0.8894950165867805,-0.2545315181687474,0.14104947936292736
1772458057105149400,8.8691494140625,-1.0237123483747244,-0.1968491445288062,0.1443595902916044
1772458057115218400,8.879218505859376,-1.057450951847434,-0.09602233342826366,0.18071882459148764
1772458057125286400,8.889286376953125,-0.9102034580945968,-0.03754062610417604,0.19838289343472568
1772458057135354600,8.899354736328124,-0.7042495083510876,-0.014357611176371573,0.19890768449380994
1772458057145423400,8.90942333984375,-0.5437503188371658,0.043403965179622174,0.14207940693255514
1772458057155491300,8.9194912109375,-0.46153556148707864,0.11109539939761161,0.012354637323506175
1772458057165559600,8.9295595703125,-0.526166731351614,0.14814122772216795,-0.07878030765568837
1772458057175628500,8.939628662109374,-0.6728367174774408,0.26370763505399225,-0.22727727174665777
1772458057185696300,8.9496962890625,-0.8092267171293497,0.45426089430898425,-0.2529855308357626
1772458057195765500,8.959765625,-0.8732599211007356,0.6216621182963251,-0.17985250835204497
1772458057205833500,8.96983349609375,-0.7868079645723104,0.6734475428521632,-0.05792832035818137
1772458057215901400,8.9799013671875,-0.5988730711221695,0.6666513068407773,0.06319501328130718
1772458057225970400,8.989970458984375,-0.31555355762541293,0.6042012804076076,0.16083609331808985
1772458057236038400,9.000038330078125,0.04219838878214359,0.5556631672099233,0.24053733347728848
1772458057246106400,9.0101064453125,0.38168461065888404,0.4939996149793267,0.3044243704436347
1772458057256175600,9.020175537109376,0.5190343952536582,0.3635366672888398,0.30183353196652607
1772458057266243600,9.03024365234375,0.48463995822072026,0.29852409689128395,0.21791536823203786
1772458057276311300,9.040311279296875,0.4608528399199247,0.21656828273832796,0.10696518599139526
1772458057286380500,9.050380615234374,0.538863715839386,0.15184709650278091,0.0017230517997872084
1772458057296448500,9.060448486328125,0.6451759726136922,0.14705606283396483,-0.17215050087366252
1772458057306516500,9.0705166015625,0.6560819820314645,0.16951222479194403,-0.3891651026073843
1772458057316585500,9.08058544921875,0.483342319625616,0.20063684637397527,-0.643426060206443
1772458057326653400,9.0906533203125,0.22326924168169496,0.23005291047245263,-0.8151233008872717
1772458057336721400,9.100721435546875,-0.11729483855962752,0.2946729744210839,-0.936573432495445
1772458057346790700,9.110790771484375,-0.42210429933071136,0.3586813362121582,-1.027217799212411
1772458057356858400,9.1208583984375,-0.5580985776633024,0.4278130323663354,-1.066115612079203
1772458057366926300,9.13092626953125,-0.5488181236207484,0.5088374108880758,-0.9632274845346808
1772458057376995300,9.140995361328125,-0.41725042955875397,0.5719698666274547,-0.7725804095163941
1772458057387063600,9.1510634765625,-0.2630477098405361,0.5808043304681778,-0.5826937974765897
1772458057397131500,9.161131591796876,-0.11459200934171676,0.5672977831631899,-0.3905840294945985
1772458057407199700,9.17119970703125,0.11489654524624347,0.5084066182553768,-0.29622389365751295
1772458057417267700,9.181267822265625,0.37673838642835616,0.4036185023084283,-0.20751451359111814
1772458057427335700,9.191335693359376,0.6480149954319,0.28309681065678594,-0.17791074490081518
1772458057437405000,9.201405029296875,0.9708803373754024,0.14955752426087857,-0.13246992186503484
1772458057447473000,9.211472900390625,1.239824119517207,-0.010913023680448532,-0.09626496481141075
1772458057457540900,9.221540771484374,1.3809721273511648,-0.12794307382404804,-0.0936729390242137
1772458057467609900,9.23160986328125,1.4201917925834655,-0.19045242922902106,-0.17535108701325952
1772458057477677800,9.241677734375,1.3457926774203777,-0.20750848570913075,-0.2446285483136773
1772458057487745800,9.251745849609375,1.1987415830224752,-0.21340806514173744,-0.298924731847737
1772458057497814800,9.261814697265624,1.132955397903919,-0.21356997770518063,-0.3081126305023208
1772458057507882800,9.2718828125,1.0920686762422323,-0.1978814101859927,-0.3145585552386939
1772458057517951700,9.28195166015625,1.0032552512794732,-0.15678572194874285,-0.32871348344981666
1772458057528020000,9.29202001953125,0.8417840018630027,-0.17260785271972418,-0.33216205300111323
1772458057538088000,9.302087890625,0.8117132732480764,-0.22024200281500816,-0.3224972027508542
1772458057548156700,9.31215673828125,0.8439999243468046,-0.2861269721329212,-0.27740985106155275
1772458057558225000,9.322224853515625,0.9055717066407203,-0.42802609059512614,-0.24163086433503775
1772458057568292900,9.33229296875,0.8899328234821557,-0.5274854127347469,-0.24805475990269332
1772458057578361900,9.34236181640625,0.6091892979532479,-0.5439321051448583,-0.22322759449705482
1772458057588429800,9.352429931640625,0.31860359284579753,-0.5567193982645869,-0.14388349721245466
1772458057598497800,9.362497802734374,0.2563929281264543,-0.615832389229536,-0.010886135673522949
1772458057608566800,9.37256689453125,0.3270692233741283,-0.7036892441198229,0.10019899805840105
1772458057618634800,9.382634765625,0.31893618580102917,-0.7463602188497781,0.15528434094246477
1772458057628703000,9.392702880859375,0.16709610356092452,-0.7314353291794657,0.1555493120215833
1772458057638771700,9.402771728515624,-0.08116027986109256,-0.6763067316755652,0.10458835559114814
1772458057648839700,9.412839599609375,-0.35480011086463925,-0.5791939726620913,0.019897746179439128
1772458057658908000,9.422907958984375,-0.6644032356530427,-0.5338920649066567,-0.011830101992748678
1772458057668977000,9.432976806640625,-0.9830565128594636,-0.5964762391135097,0.020252222172915935
1772458057679044600,9.443044677734376,-1.0709557455867529,-0.6500915094450116,0.037935982097312804
1772458057689112800,9.45311279296875,-0.9284516469687223,-0.4839993222296238,-0.09480280157066881
1772458057699181800,9.463181884765625,-1.0058400070756672,-0.32566578631699084,-0.27209994461778547
1772458057709249800,9.473249755859374,-1.352267426392436,-0.27827918124198914,-0.45289713167510925
1772458057719318000,9.483318115234376,-1.6824655954420566,-0.20958295389562845,-0.5730363268151879
1772458057729386800,9.49338671875,-1.939761025366187,-0.1346194828480482,-0.6470880898453295
1772458057739454700,9.503454833984375,-2.0988731444358826,0.02100362506210804,-0.7192941519435495
1772458057749523000,9.51352294921875,-2.2105606645077467,0.17864917871057986,-0.7608127417679875
1772458057759592000,9.523592041015625,-2.255405768406391,0.3021063392922282,-0.677895316041261
1772458057769659600,9.53365966796875,-2.1486703177839517,0.4003171226754784,-0.5298452006686478
1772458057779728000,9.543727783203124,-1.7285189060866832,0.3872627030521631,-0.3065497285671532
1772458057789796900,9.553796875,-1.1328414161354303,0.3078793697357178,-0.09615911155045032
1772458057799864800,9.56386474609375,-0.5324643701910973,0.2058414292797446,0.03899360139146447
1772458057809932800,9.573932861328124,-0.07201543489694595,0.1095318033427,0.052125616295635696
1772458057820001800,9.584001708984376,0.2256242803752422,0.04673837029933929,0.03826455646455288
1772458057830069800,9.59406982421875,0.4457546395093202,0.06294511647373438,0.023747443877533077
1772458057840139000,9.604138916015625,0.5877057804197072,0.13899988988935946,0.01642674560062587
1772458057850207000,9.61420703125,0.6034907940506935,0.25441841318309305,-0.02929061108790338
1772458057860274700,9.624274658203126,0.5514005413293838,0.4419420954838395,-0.1193915185779333
1772458057870344000,9.634343994140625,0.30018998427689075,0.6360401877388357,-0.21758198982551694
1772458057880412000,9.644411865234375,0.016465981632471084,0.8702765213757753,-0.2861985760644078
1772458057890479900,9.65447998046875,-0.1200362462222576,1.0874763800159095,-0.3376626597113907
1772458057900548900,9.664548828125,-0.13563362832665443,1.2398188588202,-0.30950887063369154
1772458057910616800,9.674616943359375,-0.09975392117202281,1.312296358270943,-0.20819515279904008
1772458057920684800,9.684684814453124,0.05450958882272243,1.3290639531984925,-0.07366407888680696
1772458057930753800,9.69475390625,0.3696937286138534,1.3105606205195188,0.10710399167388678
1772458057940821800,9.70482177734375,0.804218533578515,1.2195341956824064,0.3142378719169646
1772458057950889700,9.7148896484375,1.2228355753153561,1.013104737381637,0.5381761719666421
1772458057960958700,9.724958740234374,1.4413134910672902,0.7991875536739825,0.6816878401920199
1772458057971027000,9.73502685546875,1.4910153873473404,0.6743012370720506,0.7282818335846066
1772458057981095000,9.745094970703125,1.4975719693839549,0.5285121254339814,0.7719474453750997
1772458057991163600,9.75516357421875,1.47631992251873,0.402872944638133,0.8285076831173152
1772458058001232000,9.76523193359375,1.4998872605890035,0.32259090891629455,0.8318177575133741
1772458058011299800,9.7752998046875,1.5305980406731365,0.24947949547618625,0.7826097822301089
1772458058021368800,9.785368896484375,1.55714936299026,0.21371786174327134,0.7017502388812601
1772458058031436800,9.795436767578124,1.5896142932653425,0.22322247993052005,0.5200368502944708
1772458058041504800,9.8055048828125,1.5862831030160187,0.21128741972595452,0.3322565628841519
1772458058051573800,9.81557373046875,1.499945712777972,0.2304705513626337,0.21896219213753937
1772458058061642000,9.82564208984375,1.1874264082819224,0.31037294011712074,0.13342150523513555
1772458058071710000,9.8357099609375,0.6455781236737966,0.45516661097705363,0.08314107841476798
1772458058081778700,9.84577880859375,-0.0854372265279293,0.5955354511320591,0.004534793885424733
1772458058091846700,9.8558466796875,-0.920199366930127,0.7378375974372029,-0.1162611115977168
1772458058101915000,9.865914794921874,-1.6017793628334998,0.8777554789543152,-0.1422662712741643
1772458058111983900,9.87598388671875,-1.9622925906479358,0.9289104966521262,-0.10162271071858703
1772458058122051800,9.8860517578125,-1.8918617945939302,0.8756234353616833,0.0062126639697700735
1772458058132119800,9.896119873046874,-1.441585878267884,0.7972276517778635,0.1644434701602906
1772458058142188800,9.906188720703126,-0.7738216417491436,0.6049851242616773,0.32868549946434794
1772458058152256800,9.9162568359375,-0.19281039053201673,0.40480975791960955,0.5153008347485214
1772458058162325800,9.92632568359375,0.14537468561828135,0.17439005996137857,0.5314743362404406
1772458058172393700,9.936393798828124,0.3040565965771675,0.010645897176861763,0.36345994879081844
1772458058182461700,9.946461669921876,0.31030162844657894,-0.049716217066347594,0.19444003756046294
1772458058192531000,9.956531005859375,0.29108839393258096,-0.08341799566000699,0.11993176293447613
1772458058202599000,9.966598876953125,0.32044542132019993,-0.09117313983142375,0.055391632354259486
1772458058212666600,9.97666650390625,0.4263859221726656,-0.15139906047433613,0.09561192599646746
1772458058222736000,9.98673583984375,0.5158434902578592,-0.20727643051892516,0.14668905615247785
1772458058232803800,9.996803955078125,0.6361766736000776,-0.2470961074709892,0.16520802479200064
1772458058242871800,10.006871826171874,0.7462298704683781,-0.3253700182408094,0.1628847694762051
1772458058252940800,10.01694091796875,0.8196282841563224,-0.4154989097163081,0.12752601745575665
1772458058263008800,10.0270087890625,0.8646902456760406,-0.49769730045348404,0.056325259942561386
1772458058273076700,10.03707666015625,0.904261208564043,-0.5683990224033594,0.0188093298882246
1772458058283146000,10.04714599609375,0.8376689677596092,-0.6031769057959318,-0.030562676850333807
1772458058293214000,10.0572138671875,0.6128881524711847,-0.5942825284615159,-0.1268499448250979
1772458058303281700,10.06728173828125,0.3743354169398546,-0.6056947338357568,-0.17678228886015712
1772458058313351000,10.077350830078124,0.23111703257262706,-0.6090890524491668,-0.2175460417293012
1772458058323419000,10.0874189453125,0.1353390292942524,-0.5977598491832613,-0.23095417016111314
1772458058333486800,10.09748681640625,0.10667115321457385,-0.5852800145775079,-0.1996203628078103
1772458058343555800,10.107555908203125,0.08417465924620628,-0.5504851800501346,-0.17118666081018744
1772458058353623800,10.117623779296874,-0.028912790751457213,-0.4691045354366302,-0.12314283393546938
1772458058363691800,10.12769189453125,-0.16317629976868628,-0.39734482886642214,-0.1376296975146979
1772458058373760800,10.1377607421875,-0.3025216420948505,-0.2917643934980035,-0.094562343878299
1772458058383829000,10.1478291015625,-0.4143552926391363,-0.23621903188675641,-0.013564341906830668
1772458058393896700,10.157896728515626,-0.40255438020825385,-0.20200871924906968,0.09631174482889474
1772458058403966500,10.167966552734375,-0.23879940376877784,-0.22908172735273838,0.2753426163334399
1772458058414034400,10.178034423828125,-0.06941723509728909,-0.32127631918638944,0.424375970589742
1772458058424102400,10.188102294921874,0.17484160312116145,-0.45378421670794483,0.5090333718515933
1772458058434171400,10.19817138671875,0.5185843133985996,-0.4909396428868174,0.5314923833537847
1772458058444239400,10.2082392578125,0.7587620197832584,-0.49326340965926646,0.515866286611557
1772458058454307300,10.218307373046875,0.7017156059592962,-0.49497021357715126,0.4439127379696816
1772458058464376600,10.22837646484375,0.4664385310977697,-0.4464481747314334,0.34640849542059005
1772458058474444300,10.2384443359375,0.1767915681451559,-0.3424085390642285,0.2597165926564485
1772458058484513300,10.24851318359375,-0.025009353572130202,-0.19388707985281944,0.21391484562009572
1772458058494581500,10.25858154296875,-0.1011398225724697,-0.0825268920391798,0.21856895503625273
1772458058504649500,10.2686494140625,-0.11027589970827102,-0.07028992627859115,0.23722981636449694
1772458058514718200,10.27871826171875,-0.06496200925409794,-0.04562339479476213,0.22321721923351287
1772458058524786400,10.288786376953125,0.023919220247864723,-0.023345804274082182,0.20971659021265804
1772458058534854400,10.2988544921875,0.07350947284698486,-0.014797171637415885,0.19933869632221757
1772458058544923400,10.30892333984375,0.04798164835870266,0.003960135802626609,0.2036344938199967
1772458058554991400,10.318991455078125,0.04443418501019478,0.034768238781392576,0.23991072601154445
1772458058565059300,10.329059326171874,0.08806289885640144,0.05505991618186235,0.3230579419061541
1772458058575128300,10.33912841796875,0.17940847264528273,0.038171909745037556,0.39909050348997116
1772458058585196300,10.3491962890625,0.29896365735232827,0.0131757079154253,0.47188013762980696
1772458058595264500,10.359264404296875,0.3534796759158373,0.0034378654941916464,0.5412048721380531
1772458058605333200,10.369333251953124,0.4426829769790172,0.006126958447694778,0.622534736412391
1772458058615401200,10.379401123046875,0.5199240375697612,-0.005763385832309722,0.6887434577919542
1772458058625469400,10.389469482421875,0.47183016100823877,0.008693009543418884,0.7002856462214142
1772458058635538400,10.399538330078125,0.38583237798810005,0.06750088008195161,0.7260128657393157
1772458058645606400,10.4096064453125,0.2533931617885828,0.0818166979432106,0.7165454377572983
1772458058655674400,10.41967431640625,0.07007365317940711,0.13063625843077897,0.6411170526117086
1772458058665743400,10.429743408203125,-0.14948504354655742,0.2312543952167034,0.5024193605393171
1772458058675811300,10.439811279296874,-0.4093500316977501,0.34443624549955126,0.3369350395565852
1772458058685879600,10.449879638671876,-0.7328507489353417,0.43219227036386726,0.15712595022115855
1772458058695948300,10.4599482421875,-1.118434705120325,0.5333966826051473,-0.03347502063307911
1772458058706016300,10.470016357421875,-1.449928174677491,0.611195961600542,-0.20825513935796916
1772458058716084200,10.480084228515626,-1.6431237651348114,0.6641194502755999,-0.28966738468613473
1772458058726153500,10.490153564453125,-1.7347914104849098,0.7026920497760176,-0.3222093622528016
1772458058736221400,10.500221435546875,-1.54584763225317,0.6274316416084766,-0.22536000341586768
1772458058746289200,10.5102890625,-1.1220382825702429,0.502025977307558,-0.08043594764191657
1772458058756358400,10.5203583984375,-0.5533341397404671,0.37566228162944315,0.03370780647564679
1772458058766426400,10.53042626953125,-0.0811848297804594,0.20904431697428225,0.14041070653535426
1772458058776494300,10.540494384765625,0.25059388645887376,0.029387714786827564,0.24606767773870378
1772458058786563300,10.550563232421876,0.43803252082467076,-0.12889789033085108,0.2450619712948799
1772458058796631300,10.56063134765625,0.46178281424641604,-0.18026801208406687,0.15403328143544495
1772458058806699300,10.57069921875,0.45897301752269265,-0.1675239735841751,-0.03996792631633579
1772458058816768500,10.5807685546875,0.40980303616225716,-0.08026157745569944,-0.22853110773265362
1772458058826836200,10.590836181640626,0.34224282710850235,0.07423164964169264,-0.4245861792743206
1772458058836905200,10.6009052734375,0.20905893002152443,0.17905746725052593,-0.5406828210253268
1772458058846973400,10.610973388671875,-0.08227613214850425,0.285142637270689,-0.6937910965703428
1772458058857041400,10.62104150390625,-0.5152127911388874,0.4165615705117583,-0.8214991925947368
1772458058867110100,10.631110107421875,-0.8900929824799299,0.5621960761100053,-0.8879317858580499
1772458058877178400,10.641178466796875,-1.0236053808689116,0.6679393008247018,-0.8585562729656696
1772458058887246300,10.651246337890624,-0.8697796777695417,0.7725500143781304,-0.7757146158888936
1772458058897315300,10.6613154296875,-0.4944768771022558,0.8016174111694097,-0.6337877326369286
1772458058907383600,10.671383544921875,-0.07445581378638744,0.7492617855101823,-0.4417532583808526
1772458058917451300,10.681451171875,0.288370951667428,0.5897852170422673,-0.31826504507381465
1772458058927520300,10.691520263671874,0.5861316629707813,0.430986109444499,-0.2828522247785702
1772458058937588500,10.70158837890625,0.8689467340767383,0.2887564438536763,-0.23220946745183318
1772458058947656400,10.711656494140625,1.0982307060033083,0.17950579553991555,-0.13586995783317835
1772458058957725200,10.72172509765625,1.2543179242938756,0.08031944512277842,-0.08587170895505696
1772458058967793400,10.73179345703125,1.3821967007100582,-0.004395312349498272,-0.08474285105559974
1772458058977861400,10.741861328125,1.4060919555604456,-0.09191051419526337,-0.07507964477315544
1772458058987930400,10.751930419921875,1.3952718708604572,-0.1461041689366102,-0.09084964349810033
1772458058997998600,10.76199853515625,1.3525520885527134,-0.17863105853199956,-0.09112670687381177
1772458059008066300,10.77206640625,1.1967413491159677,-0.18655162239819764,-0.13659969687983392
1772458059018135300,10.78213525390625,1.0209516514897345,-0.22154694793373345,-0.20284133414831013
1772458059028203300,10.792203369140625,0.8979764292061329,-0.27722090436071156,-0.2993403817102313
1772458059038271500,10.802271484375,0.8040437615334988,-0.3598749299108982,-0.3678081340629607
1772458059048340200,10.81234033203125,0.6918354324579239,-0.4286313630118966,-0.4118149970391765
1772458059058408200,10.822408203125,0.5728092400610446,-0.465947532710433,-0.41600269451998173
1772458059068476400,10.832476318359374,0.5636556272685528,-0.5170297774329782,-0.3837509686041623
1772458059078545400,10.84254541015625,0.6253174259334803,-0.5821072297602892,-0.3128962480496615
1772458059088613400,10.85261328125,0.671295917776227,-0.6612246056169271,-0.26564642109684644
1772458059098681300,10.862681396484374,0.5630857184261083,-0.6950865432083606,-0.21461232636496425
1772458059108750300,10.872750244140626,0.3789414494305849,-0.649165626771748,-0.18747173291780053
1772458059118818300,10.882818359375,0.1931429834872484,-0.5702043182596565,-0.1471566736642271
1772458059128886500,10.892886474609375,0.06412029773294925,-0.5552490334510803,-0.10904526193477213
1772458059138955300,10.902955322265624,-0.04378653475642204,-0.5241401939600706,-0.11807159508578478
1772458059149023200,10.913023193359376,-0.26509295193254945,-0.5171498966813087,-0.14019815976321695
1772458059159092500,10.923092529296875,-0.48516310531198975,-0.5751154711768031,-0.05646854087077081
1772458059169160400,10.933160400390625,-0.5191185664057731,-0.6566729336619377,0.05027567758001387
1772458059179228400,10.943228515625,-0.2207224798083305,-0.607717764095962,0.03698883744031191
1772458059189297400,10.95329736328125,0.19317337862551212,-0.3862424200937152,-0.128042880936712
1772458059199365400,10.963365478515625,0.22546470589935777,-0.21093436850458383,-0.2977839460484683
1772458059209433300,10.973433349609374,-0.28683482814133165,-0.11731032838970422,-0.46020102494768794
1772458059219502300,10.98350244140625,-1.0131921234041452,-0.009679682493209838,-0.6695228436890989
1772458059229570300,10.9935703125,-1.5495008940637112,0.21359715797305107,-0.781975210653618
1772458059239638300,11.00363818359375,-1.8237275850445032,0.4545537397757172,-0.8363309971541166
1772458059249707500,11.01370751953125,-1.9136293897658585,0.6830971224680542,-0.7857798636335879
1772458059259775500,11.023775390625,-1.8494418720155954,0.7504118323281407,-0.5987250044209882
1772458059269843500,11.033843505859375,-1.5105401720285414,0.7485948460340499,-0.32363439008723943
1772458059279912400,11.043912353515625,-0.9563555529385804,0.6170815125077963,-0.09314502442628145
1772458059289980400,11.05398046875,-0.3719254331886768,0.4822355274274945,0.09773421538006513
1772458059300048400,11.06404833984375,-0.01795417436361313,0.4070110673561692,0.23326536971293388
1772458059310117000,11.0741171875,0.16386545107662676,0.3425055696979165,0.2960364447940141
1772458059320185300,11.084185302734374,0.2948831100404262,0.22303514066487548,0.3625126580033451
1772458059330253300,11.09425341796875,0.36217619259059425,0.12659516634643078,0.3714372843455523
1772458059340322300,11.104322265625,0.35342473085820675,0.08593143978565931,0.32452929310034956
1772458059350390500,11.114390625,0.39673020409941673,0.12327362070828675,0.3318124723784625
1772458059360458500,11.12445849609375,0.48222646733820435,0.17127631185501813,0.2942925602687523
1772458059370527200,11.13452734375,0.5671516526907682,0.23600422009229657,0.32460107969492674
1772458059380595500,11.144595458984375,0.5352110385507345,0.3209676916286349,0.3327237420044839
1772458059390663400,11.154663330078124,0.4165256224155426,0.4344230981558561,0.27856238209754225
1772458059400732200,11.164732177734376,0.263327695825696,0.5703823051750659,0.27476952915322034
1772458059410800000,11.174800048828125,0.17985621641278265,0.7322109897270799,0.3267646509369835
1772458059420868400,11.184868408203124,0.06808394066691398,0.8768550229832529,0.397397107042931
1772458059430937300,11.194937255859376,-0.04610767118036747,1.0248200173556805,0.5271973530409857
1772458059441005300,11.20500537109375,-0.02590133397579193,1.1907628592282533,0.6680018446668982
1772458059451073500,11.215073486328125,0.05005845463275909,1.2580986118763684,0.8484497433625161
1772458059461142300,11.225142333984374,0.21441665766239165,1.219111586356163,0.9241964006770401
1772458059471210200,11.235210205078126,0.39333413192033767,1.190224222306907,0.8630667361274361
1772458059481278500,11.245278564453125,0.37498715884685513,1.1051833016201853,0.7292945177584886
1772458059491347200,11.25534716796875,0.16692600769102572,0.939834333987534,0.47826972906906157
1772458059501415200,11.265415283203126,-0.06545768381655216,0.8672238558068871,0.26073859264794735
1772458059511484400,11.275484375,-0.12117957103848456,0.7835051236346363,0.1735100257238373
1772458059521552400,11.285552490234375,0.016352584385871886,0.6328270709112286,0.1776862519625574
1772458059531620400,11.295620361328124,0.29984862349331376,0.4773690904349088,0.26194084457717837
1772458059541689300,11.305689453125,0.5361427664428949,0.33705344177186486,0.45619960728660225
1772458059551757300,11.31575732421875,0.6887339593112468,0.2316527468845248,0.7204794892705977
1772458059561825300,11.3258251953125,0.7488894450664519,0.11527385412603616,0.9984894981823861
1772458059571894500,11.33589453125,0.7979618112713098,0.0030517887860536572,1.2016191842854023
1772458059581962200,11.345962158203125,0.7688713258653879,-0.07236760933548211,1.3223467737726866
1772458059592030200,11.3560302734375,0.7694798131525517,-0.13806202451735733,1.3377666073530912
1772458059602099500,11.366099365234374,0.6902332579582929,-0.11628390795141458,1.221954554697126
1772458059612167400,11.37616748046875,0.5779191304206848,-0.03973988971412182,1.0239889733590184
1772458059622235400,11.3862353515625,0.9852391175955534,-0.17055822671353815,0.8553924021072685
1772458059632304400,11.396304443359375,0.9581266542643309,-0.14316314704865216,0.723598717269674
1772458059642372400,11.406372314453124,0.7084469600409269,0.012547639144957065,0.6023735900564119
1772458059652440300,11.4164404296875,0.16990940741598606,0.03744301094859838,0.3621486835291609
1772458059662509300,11.42650927734375,-0.5941892972201108,0.11305004059672355,0.05364318125173449
1772458059672577300,11.436577392578124,-1.3842811057686806,0.3116030664339661,-0.32083310546353455
1772458059682645200,11.446645263671876,-1.9503098919093607,0.6503560056000948,-0.47259544629231093
