time,seconds_elapsed,z,y,x
1772458048297857800,0.06185791015625,-0.8786163330078125,-0.4203948974609375,0.081787109375
1772458048307926500,0.071926513671875,-0.8856964111328125,-0.4222259521484375,0.0765380859375
1772458048317994800,0.081994873046875,-0.889862060546875,-0.4172821044921875,0.06939697265625
1772458048328062700,0.092062744140625,-0.87890625,-0.406768798828125,0.0704803466796875
1772458048338131700,0.102131591796875,-0.8536834716796875,-0.402679443359375,0.08111572265625
1772458048348200000,0.112199951171875,-0.830291748046875,-0.3978424072265625,0.08544921875
1772458048358268700,0.1222685546875,-0.8341217041015625,-0.3916015625,0.0738677978515625
1772458048368336600,0.132336669921875,-0.85791015625,-0.3816986083984375,0.057373046875
1772458048378404600,0.142404541015625,-0.886016845703125,-0.3787994384765625,0.0379180908203125
1772458048388473900,0.152473876953125,-0.91778564453125,-0.374969482421875,0.0182037353515625
1772458048398541300,0.162541259765625,-0.930511474609375,-0.3677978515625,0.006591796875
1772458048408609000,0.172609130859375,-0.92376708984375,-0.36279296875,0.0140380859375
1772458048418678300,0.18267822265625,-0.9037017822265625,-0.3642120361328125,0.033599853515625
1772458048428746200,0.192746337890625,-0.881591796875,-0.36883544921875,0.0556488037109375
1772458048438814200,0.202814208984375,-0.8784027099609375,-0.3749542236328125,0.060455322265625
1772458048448883200,0.21288330078125,-0.87957763671875,-0.380584716796875,0.068084716796875
1772458048458951200,0.222951171875,-0.8687591552734375,-0.3817291259765625,0.079345703125
1772458048469020200,0.233020263671875,-0.8452911376953125,-0.38836669921875,0.099273681640625
1772458048479088400,0.24308837890625,-0.8370361328125,-0.395263671875,0.114044189453125
1772458048489156400,0.25315625,-0.839935302734375,-0.39434814453125,0.1158447265625
1772458048499225000,0.26322509765625,-0.8396148681640625,-0.391326904296875,0.117584228515625
1772458048509293300,0.273293212890625,-0.8448333740234375,-0.38641357421875,0.1185150146484375
1772458048519361300,0.283361328125,-0.85601806640625,-0.3795166015625,0.114501953125
1772458048529430300,0.29343017578125,-0.86859130859375,-0.3697509765625,0.110687255859375
1772458048539498200,0.303498291015625,-0.87957763671875,-0.3614959716796875,0.11151123046875
1772458048549567200,0.313567138671875,-0.89373779296875,-0.3604736328125,0.117279052734375
1772458048559635200,0.32363525390625,-0.9183502197265625,-0.356781005859375,0.1232147216796875
1772458048569703400,0.333703369140625,-0.943634033203125,-0.35198974609375,0.1312408447265625
1772458048579772200,0.343772216796875,-0.9539947509765625,-0.3502044677734375,0.1447601318359375
1772458048589840100,0.353840087890625,-0.953582763671875,-0.3522491455078125,0.162628173828125
1772458048599908400,0.363908447265625,-0.9506378173828125,-0.3614959716796875,0.171417236328125
1772458048609977300,0.373977294921875,-0.9506988525390625,-0.367584228515625,0.1776275634765625
1772458048620045300,0.38404541015625,-0.948486328125,-0.3731536865234375,0.1786651611328125
1772458048630114300,0.3941142578125,-0.9412994384765625,-0.3779144287109375,0.1851959228515625
1772458048640182300,0.404182373046875,-0.929718017578125,-0.3780975341796875,0.185455322265625
1772458048650250200,0.414250244140625,-0.9241943359375,-0.376190185546875,0.17626953125
1772458048660319200,0.4243193359375,-0.9287567138671875,-0.3740692138671875,0.1539764404296875
1772458048670387200,0.43438720703125,-0.94921875,-0.368927001953125,0.1321563720703125
1772458048680455200,0.444455078125,-0.9795684814453125,-0.3654632568359375,0.108245849609375
1772458048690524400,0.4545244140625,-0.9994049072265625,-0.3597869873046875,0.0897674560546875
1772458048700592400,0.46459228515625,-1.008697509765625,-0.352813720703125,0.0823211669921875
1772458048710660000,0.47466015625,-1.0103912353515625,-0.3482818603515625,0.08026123046875
1772458048720729300,0.484729248046875,-1.0063018798828125,-0.3428802490234375,0.081024169921875
1772458048730797300,0.49479736328125,-1.0012054443359375,-0.339263916015625,0.0776519775390625
1772458048740866300,0.5048662109375,-1.0032501220703125,-0.334228515625,0.071990966796875
1772458048750934000,0.51493408203125,-1.0092315673828125,-0.32818603515625,0.070159912109375
1772458048761002200,0.525002197265625,-1.0048065185546875,-0.324981689453125,0.0704345703125
1772458048771071200,0.5350712890625,-0.9919281005859375,-0.3238677978515625,0.070098876953125
1772458048781139200,0.54513916015625,-0.97637939453125,-0.322174072265625,0.0733489990234375
1772458048791207400,0.55520751953125,-0.96844482421875,-0.3230438232421875,0.073577880859375
1772458048801276200,0.565276123046875,-0.9611663818359375,-0.322174072265625,0.0728912353515625
1772458048811344100,0.57534423828125,-0.9475250244140625,-0.3194732666015625,0.07354736328125
1772458048821412400,0.585412353515625,-0.9437103271484375,-0.31829833984375,0.0750579833984375
1772458048831481300,0.5954814453125,-0.9383544921875,-0.3187408447265625,0.0740203857421875
1772458048841549000,0.605549072265625,-0.935638427734375,-0.317962646484375,0.0731048583984375
1772458048851618300,0.615618408203125,-0.938995361328125,-0.31915283203125,0.067535400390625
1772458048861686300,0.625686279296875,-0.94097900390625,-0.32037353515625,0.0690765380859375
1772458048871754200,0.635754150390625,-0.9302825927734375,-0.323699951171875,0.069366455078125
1772458048881823200,0.6458232421875,-0.9135894775390625,-0.328277587890625,0.0712738037109375
1772458048891891200,0.65589111328125,-0.904510498046875,-0.3331298828125,0.073516845703125
1772458048901959200,0.665959228515625,-0.903472900390625,-0.3343658447265625,0.075164794921875
1772458048912028400,0.6760283203125,-0.912994384765625,-0.3361968994140625,0.0736846923828125
1772458048922096000,0.68609619140625,-0.9239349365234375,-0.33343505859375,0.0753631591796875
1772458048932165000,0.6961650390625,-0.932464599609375,-0.3291168212890625,0.077545166015625
1772458048942233300,0.7062333984375,-0.937469482421875,-0.3241119384765625,0.08197021484375
1772458048952301300,0.71630126953125,-0.9412078857421875,-0.31964111328125,0.083251953125
1772458048962370000,0.7263701171875,-0.9577789306640625,-0.3129730224609375,0.0853271484375
1772458048972438300,0.736438232421875,-0.97454833984375,-0.3050537109375,0.0896759033203125
1772458048982506200,0.74650634765625,-0.988677978515625,-0.3026123046875,0.0950469970703125
1772458048992575200,0.7565751953125,-1.0019989013671875,-0.303863525390625,0.100128173828125
1772458049002643500,0.7666435546875,-1.0102691650390625,-0.318634033203125,0.1074981689453125
1772458049012711200,0.776711181640625,-1.003204345703125,-0.3315887451171875,0.1075897216796875
1772458049022780200,0.7867802734375,-0.98553466796875,-0.3348541259765625,0.09564208984375
1772458049032848100,0.79684814453125,-0.981170654296875,-0.3384552001953125,0.0755157470703125
1772458049042917400,0.80691748046875,-0.99237060546875,-0.345550537109375,0.0513763427734375
1772458049052985000,0.816985107421875,-1.0084991455078125,-0.35150146484375,0.0244903564453125
1772458049063053000,0.827052978515625,-1.023651123046875,-0.3515777587890625,-0.000335693359375
1772458049073122300,0.837122314453125,-1.0351409912109375,-0.3466644287109375,-0.0169219970703125
1772458049083190300,0.847190185546875,-1.0390625,-0.341461181640625,-0.02313232421875
1772458049093258200,0.85725830078125,-1.03302001953125,-0.33453369140625,-0.0269622802734375
1772458049103327200,0.8673271484375,-1.0272369384765625,-0.3331298828125,-0.023834228515625
1772458049113395200,0.877395263671875,-1.0135955810546875,-0.3329925537109375,-0.01318359375
1772458049123463200,0.887463134765625,-0.9973907470703125,-0.3352508544921875,-0.00030517578125
1772458049133532200,0.8975322265625,-0.9902496337890625,-0.337554931640625,0.0121917724609375
1772458049143600000,0.90760009765625,-0.9776611328125,-0.339263916015625,0.025665283203125
1772458049153669000,0.917669189453125,-0.95269775390625,-0.3465423583984375,0.0472259521484375
1772458049163737300,0.9277373046875,-0.925506591796875,-0.353118896484375,0.0639495849609375
1772458049173805300,0.937805419921875,-0.9066009521484375,-0.360992431640625,0.07476806640625
1772458049183874000,0.9478740234375,-0.893310546875,-0.3661346435546875,0.0757293701171875
1772458049193942300,0.9579423828125,-0.889984130859375,-0.3624114990234375,0.0756988525390625
1772458049204010200,0.96801025390625,-0.8990020751953125,-0.354248046875,0.0741119384765625
1772458049214079200,0.978079345703125,-0.908935546875,-0.344024658203125,0.070343017578125
1772458049224147200,0.988147216796875,-0.92681884765625,-0.33319091796875,0.066986083984375
1772458049234215200,0.998215087890625,-0.946868896484375,-0.3213043212890625,0.0539703369140625
1772458049244284200,1.0082841796875,-0.9660491943359375,-0.3116912841796875,0.032501220703125
1772458049254352400,1.018352294921875,-0.990753173828125,-0.2978668212890625,0.016387939453125
1772458049264421000,1.028421142578125,-1.01904296875,-0.28045654296875,0.0068206787109375
1772458049274489000,1.038489013671875,-1.0465850830078125,-0.2622222900390625,0.002532958984375
1772458049284557300,1.048557373046875,-1.0550689697265625,-0.2481842041015625,0.00433349609375
1772458049294626300,1.058626220703125,-1.0547027587890625,-0.236907958984375,0.004913330078125
1772458049304694300,1.0686943359375,-1.0579376220703125,-0.228271484375,-0.001434326171875
1772458049314762200,1.07876220703125,-1.0644683837890625,-0.2185821533203125,-0.0068817138671875
1772458049324831200,1.088831298828125,-1.061614990234375,-0.204620361328125,-0.006927490234375
1772458049334899200,1.098899169921875,-1.0460052490234375,-0.19390869140625,-0.005126953125
1772458049344967200,1.10896728515625,-1.0250244140625,-0.1894989013671875,-0.0052337646484375
1772458049355036200,1.1190361328125,-1.0038909912109375,-0.1895751953125,-0.0039825439453125
1772458049365104000,1.129104248046875,-0.9765625,-0.19073486328125,-0.0007781982421875
1772458049375173400,1.13917333984375,-0.9478759765625,-0.1944732666015625,0.0048065185546875
1772458049385241300,1.149241455078125,-0.92266845703125,-0.2041778564453125,0.0119781494140625
1772458049395309300,1.159309326171875,-0.8945159912109375,-0.2137603759765625,0.0214996337890625
1772458049405378000,1.1693779296875,-0.8704071044921875,-0.2263641357421875,0.0313873291015625
1772458049415446000,1.179446044921875,-0.8500823974609375,-0.2408447265625,0.0344390869140625
1772458049425514200,1.18951416015625,-0.8319091796875,-0.253143310546875,0.035675048828125
1772458049435583200,1.199583251953125,-0.8172149658203125,-0.2651824951171875,0.040740966796875
1772458049445651000,1.20965087890625,-0.8018798828125,-0.27642822265625,0.0478515625
1772458049455719000,1.219718994140625,-0.786956787109375,-0.284698486328125,0.0471649169921875
1772458049465788200,1.2297880859375,-0.7769012451171875,-0.2929534912109375,0.041229248046875
1772458049475856100,1.239856201171875,-0.7571563720703125,-0.303955078125,0.0327606201171875
1772458049485925000,1.249925048828125,-0.7470703125,-0.3183746337890625,0.0178680419921875
1772458049495993000,1.2599931640625,-0.7501220703125,-0.32855224609375,-0.00140380859375
1772458049506061000,1.27006103515625,-0.75970458984375,-0.3349609375,-0.016998291015625
1772458049516130300,1.28013037109375,-0.7695465087890625,-0.341339111328125,-0.018310546875
1772458049526198300,1.2901982421875,-0.784149169921875,-0.3450927734375,-0.0153045654296875
1772458049536266000,1.300265869140625,-0.81329345703125,-0.337127685546875,-0.005706787109375
1772458049546335200,1.310335205078125,-0.85369873046875,-0.320770263671875,0.0044097900390625
1772458049556403200,1.3204033203125,-0.8884124755859375,-0.3084716796875,0.02740478515625
1772458049566471200,1.33047119140625,-0.9092864990234375,-0.3003692626953125,0.046661376953125
1772458049576540000,1.340539794921875,-0.9205780029296875,-0.2983856201171875,0.0690460205078125
1772458049586608000,1.350608154296875,-0.9214630126953125,-0.2972564697265625,0.0959930419921875
1772458049596676000,1.360676025390625,-0.91046142578125,-0.3004608154296875,0.1165618896484375
1772458049606745000,1.3707451171875,-0.899383544921875,-0.3098297119140625,0.1265411376953125
1772458049616813000,1.38081298828125,-0.8950042724609375,-0.317840576171875,0.13153076171875
1772458049626882000,1.390882080078125,-0.88494873046875,-0.3264312744140625,0.1346282958984375
1772458049636950000,1.400949951171875,-0.87200927734375,-0.3410186767578125,0.133819580078125
1772458049647018200,1.411018310546875,-0.870941162109375,-0.35614013671875,0.122711181640625
1772458049657087000,1.4210869140625,-0.8717498779296875,-0.36639404296875,0.103607177734375
1772458049667155000,1.431155029296875,-0.87164306640625,-0.37255859375,0.0859375
1772458049677223200,1.44122314453125,-0.87872314453125,-0.3827056884765625,0.0733795166015625
1772458049687292200,1.451292236328125,-0.8861846923828125,-0.385894775390625,0.060546875
1772458049697360100,1.461360107421875,-0.9000396728515625,-0.384429931640625,0.04632568359375
1772458049707428000,1.471427978515625,-0.9188995361328125,-0.38433837890625,0.03564453125
1772458049717497000,1.4814970703125,-0.941650390625,-0.3825225830078125,0.02435302734375
1772458049727565000,1.49156494140625,-0.968719482421875,-0.373748779296875,0.01910400390625
1772458049737634300,1.50163427734375,-0.9890899658203125,-0.3640899658203125,0.019866943359375
1772458049747702000,1.511701904296875,-0.9994659423828125,-0.3537139892578125,0.02789306640625
1772458049757770000,1.52177001953125,-1.00152587890625,-0.3486785888671875,0.041717529296875
1772458049767839200,1.531839111328125,-0.9988250732421875,-0.3443145751953125,0.054046630859375
1772458049777907200,1.5419072265625,-1.0058746337890625,-0.3423614501953125,0.0590972900390625
1772458049787975200,1.55197509765625,-1.0293121337890625,-0.3341827392578125,0.0599365234375
1772458049798044200,1.562044189453125,-1.05145263671875,-0.3278045654296875,0.057159423828125
1772458049808112000,1.572112060546875,-1.05975341796875,-0.32403564453125,0.05780029296875
1772458049818180000,1.58218017578125,-1.054351806640625,-0.3208465576171875,0.0593414306640625
1772458049828249300,1.592249267578125,-1.05181884765625,-0.3179473876953125,0.0604705810546875
1772458049838317000,1.602317138671875,-1.0516815185546875,-0.314910888671875,0.0598297119140625
1772458049848386000,1.612385986328125,-1.055877685546875,-0.31005859375,0.0539398193359375
1772458049858454300,1.622454345703125,-1.06561279296875,-0.30413818359375,0.0475616455078125
1772458049868522200,1.632522216796875,-1.06427001953125,-0.303192138671875,0.0493927001953125
1772458049878591000,1.642591064453125,-1.058502197265625,-0.3154296875,0.0532989501953125
1772458049888659000,1.652658935546875,-1.0440216064453125,-0.3383636474609375,0.0627899169921875
1772458049898727200,1.66272705078125,-1.014495849609375,-0.3524627685546875,0.067138671875
1772458049908796200,1.672796142578125,-0.988189697265625,-0.3555145263671875,0.0532073974609375
1772458049918864100,1.682864013671875,-0.9951934814453125,-0.3611602783203125,0.03009033203125
1772458049928932000,1.69293212890625,-1.020416259765625,-0.36785888671875,0.0053558349609375
1772458049939001000,1.7030009765625,-1.03857421875,-0.367156982421875,-0.0153961181640625
1772458049949069000,1.713069091796875,-1.0458221435546875,-0.3592376708984375,-0.0240631103515625
1772458049959137300,1.72313720703125,-1.03839111328125,-0.3478240966796875,-0.018402099609375
1772458049969206000,1.7332060546875,-1.031280517578125,-0.3317718505859375,-0.0090179443359375
1772458049979274000,1.74327392578125,-1.02935791015625,-0.320648193359375,0.0037841796875
1772458049989343200,1.75334326171875,-1.0207672119140625,-0.313323974609375,0.0188751220703125
1772458049999411200,1.7634111328125,-1.0045166015625,-0.31060791015625,0.0356903076171875
1772458050009479200,1.773479248046875,-0.9853057861328125,-0.30908203125,0.0482330322265625
1772458050019548200,1.783548095703125,-0.9629974365234375,-0.3112030029296875,0.0573577880859375
1772458050029616000,1.7936162109375,-0.9488677978515625,-0.3135986328125,0.0668487548828125
1772458050039684000,1.80368408203125,-0.94818115234375,-0.3169403076171875,0.068572998046875
1772458050049753000,1.813753173828125,-0.948028564453125,-0.31634521484375,0.0648193359375
1772458050059821000,1.823821044921875,-0.944244384765625,-0.3156280517578125,0.0566864013671875
1772458050069889000,1.833888916015625,-0.9499664306640625,-0.31414794921875,0.0454254150390625
1772458050079958300,1.843958251953125,-0.9587249755859375,-0.31195068359375,0.037811279296875
1772458050090026200,1.854026123046875,-0.9621734619140625,-0.3088836669921875,0.0279388427734375
1772458050100095000,1.864094970703125,-0.963958740234375,-0.3041534423828125,0.02313232421875
1772458050110163200,1.8741630859375,-0.9676971435546875,-0.298187255859375,0.018768310546875
1772458050120231200,1.884231201171875,-0.9809417724609375,-0.2884674072265625,0.008697509765625
1772458050130300200,1.894300048828125,-0.986572265625,-0.2775421142578125,0.001129150390625
1772458050140368100,1.9043681640625,-0.977294921875,-0.27178955078125,0.00384521484375
1772458050150436000,1.91443603515625,-0.9522552490234375,-0.271026611328125,0.0151824951171875
1772458050160505000,1.924505126953125,-0.916168212890625,-0.269012451171875,0.03289794921875
1772458050170573000,1.934572998046875,-0.865509033203125,-0.2689056396484375,0.0598907470703125
1772458050180641300,1.944641357421875,-0.816864013671875,-0.2764129638671875,0.0867156982421875
1772458050190710000,1.9547099609375,-0.7734832763671875,-0.284271240234375,0.1132965087890625
1772458050200778000,1.964778076171875,-0.7352752685546875,-0.295257568359375,0.1390838623046875
1772458050210847200,1.97484716796875,-0.71380615234375,-0.3128204345703125,0.159820556640625
1772458050220915200,1.984915283203125,-0.7078399658203125,-0.3316192626953125,0.1780242919921875
1772458050230983000,1.99498291015625,-0.708404541015625,-0.3474273681640625,0.1938934326171875
1772458050241052200,2.00505224609375,-0.717010498046875,-0.3562469482421875,0.1972503662109375
1772458050251120000,2.0151201171875,-0.7313690185546875,-0.35955810546875,0.1907501220703125
1772458050261188000,2.02518798828125,-0.747833251953125,-0.354644775390625,0.17333984375
1772458050271257000,2.035257080078125,-0.7631988525390625,-0.3477630615234375,0.1513671875
1772458050281325000,2.045324951171875,-0.78094482421875,-0.3369140625,0.1220855712890625
1772458050291393000,2.05539306640625,-0.8090667724609375,-0.32073974609375,0.093719482421875
1772458050301462300,2.065462158203125,-0.8415679931640625,-0.3061981201171875,0.0668182373046875
1772458050311530200,2.0755302734375,-0.89801025390625,-0.2952728271484375,0.038726806640625
1772458050321598000,2.085597900390625,-0.9748077392578125,-0.2744903564453125,0.009002685546875
1772458050331667200,2.095667236328125,-1.0540008544921875,-0.24163818359375,-0.0188751220703125
1772458050341735200,2.105735107421875,-1.11004638671875,-0.21392822265625,-0.0316925048828125
1772458050351804000,2.115803955078125,-1.1365509033203125,-0.1912384033203125,-0.0258636474609375
1772458050361872100,2.1258720703125,-1.130157470703125,-0.1788482666015625,-0.004302978515625
1772458050371940000,2.135940185546875,-1.098419189453125,-0.1762237548828125,0.0274658203125
1772458050382009000,2.146009033203125,-1.0472259521484375,-0.1828765869140625,0.0565338134765625
1772458050392077300,2.156077392578125,-0.9991607666015625,-0.19732666015625,0.0799102783203125
1772458050402145300,2.166145263671875,-0.9527130126953125,-0.205596923828125,0.10418701171875
1772458050412214300,2.17621435546875,-0.9139404296875,-0.2169189453125,0.1188201904296875
1772458050422282200,2.1862822265625,-0.8829193115234375,-0.2386016845703125,0.1217803955078125
1772458050432350500,2.1963505859375,-0.8558502197265625,-0.2585906982421875,0.1113128662109375
1772458050442419200,2.206419189453125,-0.843109130859375,-0.280609130859375,0.098785400390625
1772458050452487200,2.216487060546875,-0.839447021484375,-0.3054046630859375,0.0830078125
1772458050462556400,2.226556396484375,-0.8340911865234375,-0.3209075927734375,0.07403564453125
1772458050472624400,2.236624267578125,-0.8289794921875,-0.3322601318359375,0.0671539306640625
1772458050482692400,2.2466923828125,-0.82177734375,-0.3441162109375,0.0611572265625
1772458050492761300,2.25676123046875,-0.81097412109375,-0.3571929931640625,0.0535125732421875
1772458050502829300,2.266829345703125,-0.8080596923828125,-0.3712005615234375,0.043121337890625
1772458050512897300,2.276897216796875,-0.8124237060546875,-0.38397216796875,0.0333404541015625
1772458050522966300,2.28696630859375,-0.8270721435546875,-0.3913726806640625,0.0166473388671875
1772458050533034200,2.2970341796875,-0.853851318359375,-0.3919525146484375,0.0002288818359375
1772458050543102200,2.307102294921875,-0.882568359375,-0.38885498046875,-0.0133056640625
1772458050553171500,2.31717138671875,-0.91387939453125,-0.3861236572265625,-0.024566650390625
1772458050563239400,2.327239501953125,-0.938140869140625,-0.3802337646484375,-0.0254669189453125
1772458050573308200,2.33730810546875,-0.9480438232421875,-0.371002197265625,-0.019775390625
1772458050583376400,2.34737646484375,-0.951263427734375,-0.3648223876953125,-0.003997802734375
1772458050593444400,2.3574443359375,-0.953521728515625,-0.360321044921875,0.00927734375
1772458050603513300,2.367513427734375,-0.9630279541015625,-0.352264404296875,0.0128936767578125
1772458050613581300,2.377581298828125,-0.9737396240234375,-0.347412109375,0.020782470703125
1772458050623649300,2.387649169921875,-0.9706268310546875,-0.345947265625,0.032806396484375
1772458050633718300,2.39771826171875,-0.9595794677734375,-0.3457183837890625,0.0455169677734375
1772458050643786500,2.407786376953125,-0.961883544921875,-0.35003662109375,0.0515594482421875
1772458050653854500,2.4178544921875,-0.969482421875,-0.35076904296875,0.057525634765625
1772458050663923200,2.427923095703125,-0.9700775146484375,-0.352203369140625,0.05908203125
1772458050673991200,2.4379912109375,-0.9788055419921875,-0.35296630859375,0.065826416015625
1772458050684059400,2.448059326171875,-0.98504638671875,-0.3487548828125,0.0732879638671875
1772458050694128400,2.45812841796875,-0.978546142578125,-0.3446197509765625,0.0841217041015625
1772458050704196000,2.468196044921875,-0.9807281494140625,-0.34332275390625,0.09442138671875
1772458050714265300,2.478265380859375,-0.9897308349609375,-0.3456268310546875,0.10205078125
1772458050724333300,2.488333251953125,-1.0073394775390625,-0.3539276123046875,0.1165771484375
1772458050734401300,2.4984013671875,-1.0147552490234375,-0.3728485107421875,0.1410369873046875
1772458050744470300,2.50847021484375,-0.9842681884765625,-0.389617919921875,0.1584320068359375
1772458050754538200,2.518538330078125,-0.947113037109375,-0.3983612060546875,0.159027099609375
1772458050764606200,2.528606201171875,-0.9427490234375,-0.40582275390625,0.1517333984375
1772458050774675500,2.538675537109375,-0.954254150390625,-0.4090118408203125,0.1390533447265625
1772458050784743400,2.548743408203125,-0.9716949462890625,-0.4166259765625,0.1212615966796875
1772458050794811100,2.55881103515625,-0.9938201904296875,-0.4238433837890625,0.10040283203125
1772458050804880400,2.56888037109375,-1.0086669921875,-0.4159088134765625,0.072265625
1772458050814948400,2.5789482421875,-1.0293426513671875,-0.40185546875,0.045684814453125
1772458050825016300,2.589016357421875,-1.06231689453125,-0.3838653564453125,0.024322509765625
1772458050835085300,2.599085205078125,-1.09881591796875,-0.35784912109375,0.0077056884765625
1772458050845153300,2.6091533203125,-1.1272125244140625,-0.3316650390625,-0.00152587890625
1772458050855222300,2.61922216796875,-1.1461944580078125,-0.300872802734375,0.0025787353515625
1772458050865290500,2.62929052734375,-1.1539764404296875,-0.2733612060546875,0.0201416015625
1772458050875358500,2.6393583984375,-1.1609954833984375,-0.2521209716796875,0.0387420654296875
1772458050885427200,2.64942724609375,-1.1606903076171875,-0.23468017578125,0.05926513671875
1772458050895495400,2.659495361328125,-1.1537628173828125,-0.2238616943359375,0.066375732421875
1772458050905563400,2.6695634765625,-1.13250732421875,-0.2152862548828125,0.0661773681640625
1772458050915632000,2.679632080078125,-1.0939788818359375,-0.2097320556640625,0.0697021484375
1772458050925700400,2.689700439453125,-1.0463409423828125,-0.2067413330078125,0.07562255859375
1772458050935768300,2.699768310546875,-1.00787353515625,-0.202178955078125,0.0767059326171875
1772458050945837300,2.70983740234375,-0.9909210205078125,-0.1844482421875,0.0747528076171875
1772458050955905300,2.7199052734375,-0.9991912841796875,-0.1675872802734375,0.0662689208984375
1772458050965973500,2.729973388671875,-1.00848388671875,-0.15283203125,0.051025390625
1772458050976042200,2.740042236328125,-1.0037689208984375,-0.14312744140625,0.0361328125
1772458050986110200,2.750110107421875,-0.9912109375,-0.1447601318359375,0.0299072265625
1772458050996179500,2.760179443359375,-0.9691314697265625,-0.15142822265625,0.02056884765625
1772458051006247200,2.7702470703125,-0.9374542236328125,-0.1630401611328125,0.0116729736328125
1772458051016315100,2.780315185546875,-0.9031982421875,-0.1797943115234375,0.00860595703125
1772458051026384400,2.79038427734375,-0.883514404296875,-0.1948089599609375,0.00482177734375
1772458051036452400,2.800452392578125,-0.871978759765625,-0.2086334228515625,-0.00628662109375
1772458051046520300,2.810520263671875,-0.8636322021484375,-0.22210693359375,-0.0108795166015625
1772458051056589300,2.82058935546875,-0.84649658203125,-0.232635498046875,-0.0102691650390625
1772458051066657300,2.8306572265625,-0.8315277099609375,-0.2476959228515625,-0.009521484375
1772458051076725200,2.840725341796875,-0.824920654296875,-0.2546844482421875,-0.01531982421875
1772458051086794500,2.85079443359375,-0.8292999267578125,-0.259124755859375,-0.0215911865234375
1772458051096862200,2.8608623046875,-0.8317413330078125,-0.2653350830078125,-0.0330047607421875
1772458051106930200,2.87093017578125,-0.83538818359375,-0.2673797607421875,-0.04913330078125
1772458051116999400,2.88099951171875,-0.839324951171875,-0.2650604248046875,-0.0672149658203125
1772458051127067400,2.8910673828125,-0.83917236328125,-0.2693023681640625,-0.0791473388671875
1772458051137136000,2.90113623046875,-0.8450469970703125,-0.2707061767578125,-0.0923004150390625
1772458051147204400,2.911204345703125,-0.8516693115234375,-0.2680816650390625,-0.09765625
1772458051157272300,2.921272216796875,-0.8622283935546875,-0.2646636962890625,-0.0942230224609375
1772458051167341300,2.93134130859375,-0.8697509765625,-0.25518798828125,-0.0797882080078125
1772458051177409500,2.941409423828125,-0.872161865234375,-0.251800537109375,-0.047576904296875
1772458051187477200,2.951477294921875,-0.8681793212890625,-0.2573699951171875,-0.009857177734375
1772458051197546200,2.961546142578125,-0.8563690185546875,-0.2637939453125,0.023834228515625
1772458051207614500,2.971614501953125,-0.8318023681640625,-0.2747802734375,0.0552520751953125
1772458051217682400,2.981682373046875,-0.8079681396484375,-0.28997802734375,0.080474853515625
1772458051227751200,2.991751220703125,-0.7877349853515625,-0.302581787109375,0.0927886962890625
1772458051237819400,3.0018193359375,-0.786407470703125,-0.315155029296875,0.097808837890625
1772458051247888400,3.011888427734375,-0.7929229736328125,-0.322967529296875,0.102569580078125
1772458051257956400,3.021956298828125,-0.7915191650390625,-0.329681396484375,0.107818603515625
1772458051268024300,3.0320244140625,-0.7911529541015625,-0.33978271484375,0.1101531982421875
1772458051278093300,3.04209326171875,-0.7984466552734375,-0.3484039306640625,0.10467529296875
1772458051288161300,3.052161376953125,-0.8221435546875,-0.3565521240234375,0.092193603515625
1772458051298229200,3.062229248046875,-0.8517303466796875,-0.3580474853515625,0.073638916015625
1772458051308298200,3.07229833984375,-0.87451171875,-0.3574676513671875,0.05487060546875
1772458051318366200,3.0823662109375,-0.8839569091796875,-0.3613433837890625,0.0419769287109375
1772458051328434200,3.09243408203125,-0.894378662109375,-0.3667755126953125,0.031219482421875
1772458051338503400,3.10250341796875,-0.9200286865234375,-0.3722076416015625,0.0177001953125
1772458051348571400,3.1125712890625,-0.9497833251953125,-0.3726348876953125,0.00836181640625
1772458051358639400,3.122639404296875,-0.9741668701171875,-0.3677825927734375,0.008575439453125
1772458051368708400,3.132708251953125,-0.993499755859375,-0.3642425537109375,0.0086517333984375
1772458051378776300,3.1427763671875,-1.009429931640625,-0.3656463623046875,0.0163421630859375
1772458051388844300,3.15284423828125,-1.017425537109375,-0.363861083984375,0.028594970703125
1772458051398913000,3.1629130859375,-1.0255584716796875,-0.3652496337890625,0.0341949462890625
1772458051408981000,3.17298095703125,-1.0351104736328125,-0.3601837158203125,0.0367889404296875
1772458051419050000,3.183050048828125,-1.0465850830078125,-0.3548126220703125,0.036834716796875
1772458051429118000,3.193117919921875,-1.064117431640625,-0.345001220703125,0.035186767578125
1772458051439186200,3.203186279296875,-1.07568359375,-0.3295745849609375,0.0333709716796875
1772458051449255000,3.2132548828125,-1.08111572265625,-0.31585693359375,0.035980224609375
1772458051459323000,3.223322998046875,-1.088836669921875,-0.308746337890625,0.0410614013671875
1772458051469390800,3.233390869140625,-1.1016998291015625,-0.3003692626953125,0.0490875244140625
1772458051479460000,3.243460205078125,-1.1140289306640625,-0.301910400390625,0.063568115234375
1772458051489528000,3.253528076171875,-1.1004180908203125,-0.3063201904296875,0.0797882080078125
1772458051499595800,3.263595703125,-1.0614013671875,-0.2967529296875,0.080352783203125
1772458051509665000,3.2736650390625,-1.0474853515625,-0.291229248046875,0.07012939453125
1772458051519733000,3.28373291015625,-1.0575714111328125,-0.29156494140625,0.0595855712890625
1772458051529801000,3.293801025390625,-1.06011962890625,-0.2977447509765625,0.0490570068359375
1772458051539870000,3.303869873046875,-1.058563232421875,-0.3049774169921875,0.038482666015625
1772458051549938000,3.31393798828125,-1.0565338134765625,-0.3065338134765625,0.026763916015625
1772458051560007200,3.324007080078125,-1.0508575439453125,-0.3094635009765625,0.01983642578125
1772458051570075100,3.3340751953125,-1.0449676513671875,-0.3151397705078125,0.0124053955078125
1772458051580142800,3.344142822265625,-1.028533935546875,-0.320556640625,-0.0001373291015625
1772458051590211800,3.3542119140625,-1.0061798095703125,-0.3277587890625,-0.011962890625
1772458051600280000,3.364280029296875,-0.99127197265625,-0.3307647705078125,-0.019500732421875
1772458051610348000,3.37434814453125,-0.9881744384765625,-0.3219451904296875,-0.0214996337890625
1772458051620416800,3.384416748046875,-0.992279052734375,-0.3050384521484375,-0.012908935546875
1772458051630485000,3.394485107421875,-0.998992919921875,-0.2800750732421875,-0.0025177001953125
1772458051640553000,3.404552978515625,-0.984161376953125,-0.257293701171875,-0.0027923583984375
1772458051650622000,3.4146220703125,-0.95654296875,-0.2479248046875,-0.0044097900390625
1772458051660690200,3.424690185546875,-0.93408203125,-0.2417449951171875,-0.00152587890625
1772458051670758000,3.4347578125,-0.91949462890625,-0.233551025390625,-0.0016632080078125
1772458051680827000,3.444826904296875,-0.922393798828125,-0.230072021484375,-0.0022735595703125
1772458051690895000,3.45489501953125,-0.94232177734375,-0.2272796630859375,-0.0041351318359375
1772458051700964000,3.464964111328125,-0.978759765625,-0.217132568359375,-0.008758544921875
1772458051711031800,3.47503173828125,-1.0241546630859375,-0.203125,-0.018157958984375
1772458051721100000,3.48510009765625,-1.04132080078125,-0.1958160400390625,-0.0184173583984375
1772458051731169000,3.4951689453125,-1.0114288330078125,-0.19873046875,-0.0072784423828125
1772458051741237000,3.505237060546875,-0.94647216796875,-0.2137908935546875,0.0099029541015625
1772458051751305200,3.51530517578125,-0.879180908203125,-0.2240447998046875,0.0374298095703125
1772458051761374000,3.5253740234375,-0.811126708984375,-0.2338714599609375,0.06939697265625
1772458051771442000,3.53544189453125,-0.76025390625,-0.2482452392578125,0.0989990234375
1772458051781510000,3.545510009765625,-0.7261962890625,-0.268524169921875,0.1222076416015625
1772458051791579100,3.5555791015625,-0.7010955810546875,-0.28912353515625,0.1412353515625
1772458051801646800,3.565646728515625,-0.6852264404296875,-0.3157806396484375,0.1549835205078125
1772458051811714800,3.57571484375,-0.6868133544921875,-0.3408203125,0.161285400390625
1772458051821784000,3.5857841796875,-0.6997833251953125,-0.3604583740234375,0.166595458984375
1772458051831852000,3.59585205078125,-0.7052764892578125,-0.3697052001953125,0.1661224365234375
1772458051841921000,3.605921142578125,-0.704193115234375,-0.370269775390625,0.16290283203125
1772458051851989000,3.615989013671875,-0.7103271484375,-0.3653717041015625,0.161712646484375
1772458051862057000,3.626056884765625,-0.721221923828125,-0.3589630126953125,0.1517181396484375
1772458051872126200,3.636126220703125,-0.7398834228515625,-0.349151611328125,0.1300811767578125
1772458051882194000,3.64619384765625,-0.7713470458984375,-0.340057373046875,0.09991455078125
1772458051892262000,3.656261962890625,-0.803558349609375,-0.330596923828125,0.07208251953125
1772458051902331000,3.666330810546875,-0.8489837646484375,-0.318267822265625,0.0479583740234375
1772458051912399000,3.676399169921875,-0.903656005859375,-0.29522705078125,0.033294677734375
1772458051922467000,3.686467041015625,-0.9423065185546875,-0.277435302734375,0.0333404541015625
1772458051932535800,3.696535888671875,-0.974273681640625,-0.2624969482421875,0.0459136962890625
1772458051942604000,3.70660400390625,-0.994781494140625,-0.247222900390625,0.06689453125
1772458051952672000,3.716672119140625,-1.00946044921875,-0.2294769287109375,0.0908660888671875
1772458051962741000,3.726740966796875,-1.0234222412109375,-0.2173004150390625,0.113677978515625
1772458051972809000,3.73680908203125,-1.035400390625,-0.2056732177734375,0.135467529296875
1772458051982877000,3.746876953125,-1.0318756103515625,-0.1950836181640625,0.1532440185546875
1772458051992946000,3.75694580078125,-1.0119476318359375,-0.189666748046875,0.1725616455078125
1772458052003014100,3.76701416015625,-0.992156982421875,-0.193817138671875,0.1840667724609375
1772458052013083000,3.777082763671875,-0.980560302734375,-0.197357177734375,0.1788177490234375
1772458052023150800,3.78715087890625,-0.9784698486328125,-0.202545166015625,0.16754150390625
1772458052033219000,3.797218994140625,-0.985504150390625,-0.21246337890625,0.154815673828125
1772458052043288000,3.8072880859375,-0.99322509765625,-0.2185516357421875,0.1378631591796875
1772458052053356000,3.81735595703125,-1.0045013427734375,-0.225555419921875,0.1246490478515625
1772458052063423700,3.827423828125,-1.013458251953125,-0.233612060546875,0.1241302490234375
1772458052073493000,3.837492919921875,-1.01910400390625,-0.2404937744140625,0.126220703125
1772458052083561000,3.84756103515625,-1.0224609375,-0.2460784912109375,0.127532958984375
1772458052093629000,3.85762890625,-1.026611328125,-0.25347900390625,0.1282196044921875
1772458052103698000,3.867697998046875,-1.030242919921875,-0.2599945068359375,0.1235504150390625
1772458052113766000,3.877765869140625,-1.03643798828125,-0.2663726806640625,0.110870361328125
1772458052123833900,3.887833740234375,-1.04437255859375,-0.2719879150390625,0.090484619140625
1772458052133903000,3.897903076171875,-1.06640625,-0.281341552734375,0.0596160888671875
1772458052143971000,3.90797119140625,-1.110626220703125,-0.297210693359375,0.0312347412109375
1772458052154040000,3.9180400390625,-1.1673736572265625,-0.32647705078125,0.00640869140625
1772458052164108000,3.92810791015625,-1.1958160400390625,-0.3553314208984375,-0.003143310546875
1772458052174176000,3.938176025390625,-1.1766357421875,-0.3526611328125,-0.0305938720703125
1772458052184245000,3.948244873046875,-1.1756591796875,-0.336944580078125,-0.0695953369140625
1772458052194313000,3.95831298828125,-1.2088470458984375,-0.3197021484375,-0.09716796875
1772458052204381000,3.968380859375,-1.232513427734375,-0.2955474853515625,-0.116790771484375
1772458052214450000,3.978449951171875,-1.2318572998046875,-0.2789459228515625,-0.129669189453125
1772458052224515800,3.988515869140625,-1.1999053955078125,-0.2666015625,-0.137481689453125
1772458052234585000,3.998585205078125,-1.148773193359375,-0.2545928955078125,-0.126922607421875
1772458052244653000,4.008653076171875,-1.0932159423828125,-0.2556304931640625,-0.1019287109375
1772458052254721000,4.018720947265625,-1.0400543212890625,-0.261749267578125,-0.0690765380859375
1772458052264790000,4.0287900390625,-0.98370361328125,-0.2679290771484375,-0.0337066650390625
1772458052274858000,4.03885791015625,-0.9298095703125,-0.273193359375,-0.0092010498046875
1772458052284926000,4.048926025390625,-0.8938751220703125,-0.2789764404296875,0.000274658203125
1772458052294995000,4.058994873046875,-0.87628173828125,-0.2816162109375,0.003173828125
1772458052305063000,4.06906298828125,-0.8819122314453125,-0.2691802978515625,-0.0010223388671875
1772458052315132000,4.0791318359375,-0.9122467041015625,-0.2422943115234375,-0.01470947265625
1772458052325200100,4.0892001953125,-0.94732666015625,-0.213714599609375,-0.040191650390625
1772458052335268000,4.09926806640625,-0.97412109375,-0.1907196044921875,-0.07012939453125
1772458052345336800,4.1093369140625,-0.99029541015625,-0.17498779296875,-0.096160888671875
1772458052355405000,4.119405029296875,-0.9917144775390625,-0.16387939453125,-0.1095428466796875
1772458052365473000,4.12947314453125,-0.9712066650390625,-0.1598663330078125,-0.1138916015625
1772458052375542000,4.1395419921875,-0.93389892578125,-0.1625213623046875,-0.104522705078125
1772458052385610000,4.14960986328125,-0.88873291015625,-0.1744384765625,-0.0881500244140625
1772458052395678000,4.159677978515625,-0.8472747802734375,-0.1894073486328125,-0.070648193359375
1772458052405747000,4.169746826171875,-0.815643310546875,-0.203582763671875,-0.0534820556640625
1772458052415815000,4.17981494140625,-0.795196533203125,-0.218597412109375,-0.0351409912109375
1772458052425883100,4.189883056640625,-0.781463623046875,-0.23199462890625,-0.0246124267578125
1772458052435951900,4.199951904296875,-0.7741851806640625,-0.2446746826171875,-0.0175628662109375
1772458052446019800,4.210019775390625,-0.767059326171875,-0.2584991455078125,-0.016998291015625
1772458052456087800,4.220087890625,-0.7618865966796875,-0.2716064453125,-0.0218658447265625
1772458052466157000,4.230156982421875,-0.7573089599609375,-0.285888671875,-0.031890869140625
1772458052476225000,4.24022509765625,-0.760101318359375,-0.2923431396484375,-0.04229736328125
1772458052486294000,4.2502939453125,-0.7693023681640625,-0.294464111328125,-0.055419921875
1772458052496362000,4.260362060546875,-0.781524658203125,-0.2979736328125,-0.0745697021484375
1772458052506430000,4.270429931640625,-0.7893829345703125,-0.3046875,-0.0900421142578125
1772458052516499000,4.2804990234375,-0.8100128173828125,-0.313751220703125,-0.10107421875
1772458052526567000,4.29056689453125,-0.8419342041015625,-0.3214111328125,-0.1011962890625
1772458052536635000,4.300634765625,-0.878204345703125,-0.3223419189453125,-0.0967254638671875
1772458052546704100,4.3107041015625,-0.9124298095703125,-0.31549072265625,-0.08331298828125
1772458052556772000,4.320772216796875,-0.931976318359375,-0.30242919921875,-0.0572052001953125
1772458052566839800,4.33083984375,-0.9309539794921875,-0.29730224609375,-0.024932861328125
1772458052576908800,4.34090869140625,-0.932525634765625,-0.2943572998046875,0.0031585693359375
1772458052586978000,4.35097802734375,-0.9359130859375,-0.291900634765625,0.0222015380859375
1772458052597046000,4.3610458984375,-0.93572998046875,-0.2866363525390625,0.041778564453125
1772458052607113700,4.37111376953125,-0.9358062744140625,-0.2857666015625,0.063507080078125
1772458052617183000,4.381182861328125,-0.9270782470703125,-0.2884368896484375,0.0743560791015625
1772458052627251000,4.3912509765625,-0.9151763916015625,-0.293609619140625,0.0826568603515625
1772458052637319000,4.40131884765625,-0.9063262939453125,-0.302001953125,0.0839691162109375
1772458052647388000,4.411387939453125,-0.9051971435546875,-0.3107452392578125,0.078521728515625
1772458052657455900,4.421455810546875,-0.918182373046875,-0.3176422119140625,0.065216064453125
1772458052667523800,4.43152392578125,-0.940948486328125,-0.320892333984375,0.044281005859375
1772458052677593000,4.441593017578125,-0.9532623291015625,-0.3264923095703125,0.0307769775390625
1772458052687661000,4.4516611328125,-0.9490509033203125,-0.3318939208984375,0.024322509765625
1772458052697728800,4.461728759765625,-0.938079833984375,-0.338348388671875,0.023162841796875
1772458052707798000,4.471798095703125,-0.9367218017578125,-0.3423919677734375,0.0283050537109375
1772458052717866000,4.481865966796875,-0.9344940185546875,-0.3432159423828125,0.0298309326171875
1772458052727934700,4.491934814453125,-0.933624267578125,-0.341094970703125,0.0322723388671875
1772458052738003000,4.5020029296875,-0.9423065185546875,-0.3426971435546875,0.0330810546875
1772458052748071000,4.51207080078125,-0.958465576171875,-0.3399505615234375,0.0307464599609375
1772458052758140000,4.522139892578125,-0.9771575927734375,-0.3327178955078125,0.0260772705078125
1772458052768208100,4.5322080078125,-1.00537109375,-0.3255157470703125,0.0250701904296875
1772458052778275800,4.54227587890625,-1.0204925537109375,-0.32281494140625,0.02423095703125
1772458052788344800,4.5523447265625,-1.0165252685546875,-0.3236083984375,0.0274505615234375
1772458052798413000,4.5624130859375,-1.0076141357421875,-0.329498291015625,0.0296783447265625
1772458052808481000,4.57248095703125,-1.0049591064453125,-0.332366943359375,0.02490234375
1772458052818549800,4.5825498046875,-1.005279541015625,-0.3342437744140625,0.0162353515625
1772458052828618000,4.592617919921875,-1.003692626953125,-0.336395263671875,0.0101318359375
1772458052838686000,4.60268603515625,-1.0089874267578125,-0.3360595703125,0.002044677734375
1772458052848755000,4.6127548828125,-1.00494384765625,-0.33074951171875,-0.0016632080078125
1772458052858823200,4.6228232421875,-0.99700927734375,-0.324859619140625,-0.00189208984375
1772458052868892000,4.632891845703125,-0.991851806640625,-0.3210296630859375,-0.0037841796875
1772458052878959900,4.6429599609375,-0.9887542724609375,-0.3137664794921875,-0.0038909912109375
1772458052889027800,4.65302783203125,-0.987457275390625,-0.306793212890625,-0.006500244140625
1772458052899097000,4.66309716796875,-0.9974517822265625,-0.301605224609375,-0.00579833984375
1772458052909164800,4.673164794921875,-1.01422119140625,-0.3094024658203125,0.0014495849609375
1772458052919232800,4.683232666015625,-1.0261993408203125,-0.3379669189453125,0.0237579345703125
1772458052929302000,4.693302001953125,-0.9953155517578125,-0.342071533203125,0.0278472900390625
1772458052939370000,4.703369873046875,-0.96417236328125,-0.324371337890625,0.003936767578125
1772458052949438000,4.71343798828125,-0.9910430908203125,-0.329833984375,-0.0190277099609375
1772458052959507000,4.7235068359375,-1.0260009765625,-0.338653564453125,-0.035125732421875
1772458052969575000,4.733574951171875,-1.039581298828125,-0.340606689453125,-0.050567626953125
1772458052979643000,4.743642822265625,-1.05169677734375,-0.331146240234375,-0.0656585693359375
1772458052989712000,4.7537119140625,-1.0740814208984375,-0.3049163818359375,-0.0814971923828125
1772458052999779800,4.76377978515625,-1.1184539794921875,-0.2791900634765625,-0.0911865234375
1772458053009847800,4.773847900390625,-1.162506103515625,-0.253570556640625,-0.0936279296875
1772458053019917000,4.7839169921875,-1.186431884765625,-0.2323150634765625,-0.0832977294921875
1772458053029985000,4.793985107421875,-1.17938232421875,-0.2138671875,-0.066131591796875
1772458053040053000,4.804052978515625,-1.13824462890625,-0.1991424560546875,-0.0405120849609375
1772458053050122000,4.8141220703125,-1.0776519775390625,-0.1914520263671875,-0.0105133056640625
1772458053060190000,4.82418994140625,-0.99822998046875,-0.1825103759765625,0.019134521484375
1772458053070258000,4.8342578125,-0.919586181640625,-0.17999267578125,0.0398712158203125
1772458053080327000,4.844326904296875,-0.8820037841796875,-0.181549072265625,0.052581787109375
1772458053090395000,4.854394775390625,-0.8832244873046875,-0.168914794921875,0.05255126953125
1772458053100463900,4.8644638671875,-0.8953399658203125,-0.15069580078125,0.042022705078125
1772458053110532000,4.874531982421875,-0.9189453125,-0.1371002197265625,0.026580810546875
1772458053120600000,4.88460009765625,-0.94757080078125,-0.1253204345703125,0.0135955810546875
1772458053130668800,4.894668701171875,-0.9677276611328125,-0.1121673583984375,0.0066680908203125
1772458053140737000,4.904737060546875,-0.957275390625,-0.10595703125,0.006561279296875
1772458053150805000,4.914804931640625,-0.918670654296875,-0.115570068359375,0.01959228515625
1772458053160874000,4.9248740234375,-0.8593597412109375,-0.135467529296875,0.0377349853515625
1772458053170942000,4.93494189453125,-0.7970123291015625,-0.1642608642578125,0.0694732666015625
1772458053181010000,4.945010009765625,-0.72918701171875,-0.1921844482421875,0.11090087890625
1772458053191079000,4.955078857421875,-0.660919189453125,-0.22064208984375,0.156463623046875
1772458053201147000,4.96514697265625,-0.6223907470703125,-0.2563934326171875,0.193450927734375
1772458053211215000,4.975215087890625,-0.6196441650390625,-0.29205322265625,0.2150421142578125
1772458053221283800,4.985283935546875,-0.6390228271484375,-0.318450927734375,0.231842041015625
1772458053231351800,4.995351806640625,-0.6595306396484375,-0.3391876220703125,0.247833251953125
1772458053241421000,5.005421142578125,-0.6773529052734375,-0.3556976318359375,0.2548980712890625
1772458053251489000,5.015489013671875,-0.6964111328125,-0.362823486328125,0.244171142578125
1772458053261556700,5.025556640625,-0.7245941162109375,-0.356048583984375,0.2180633544921875
1772458053271626000,5.0356259765625,-0.75665283203125,-0.337921142578125,0.1878814697265625
1772458053281694000,5.04569384765625,-0.7967681884765625,-0.3215484619140625,0.1565093994140625
1772458053291762000,5.055761962890625,-0.8527679443359375,-0.29815673828125,0.1269989013671875
1772458053301831000,5.065830810546875,-0.935028076171875,-0.2740478515625,0.1002349853515625
1772458053311899000,5.07589892578125,-1.0519561767578125,-0.254547119140625,0.071075439453125
1772458053321966800,5.085966796875,-1.179443359375,-0.21282958984375,0.041290283203125
1772458053332036000,5.0960361328125,-1.282989501953125,-0.16937255859375,0.027191162109375
1772458053342104000,5.10610400390625,-1.3332366943359375,-0.1428070068359375,0.03240966796875
1772458053352171800,5.116171875,-1.3121490478515625,-0.12945556640625,0.0577239990234375
1772458053362241000,5.126240966796875,-1.22998046875,-0.1340179443359375,0.094940185546875
1772458053372309000,5.13630908203125,-1.1200714111328125,-0.151641845703125,0.129913330078125
1772458053382377000,5.146376953125,-1.0288543701171875,-0.1765594482421875,0.15936279296875
1772458053392446000,5.156446044921875,-0.972564697265625,-0.200164794921875,0.17828369140625
1772458053402513700,5.166513671875,-0.9318695068359375,-0.220855712890625,0.1853179931640625
1772458053412582000,5.176581787109375,-0.8960723876953125,-0.2406463623046875,0.1846466064453125
1772458053422651000,5.18665087890625,-0.8657379150390625,-0.2691650390625,0.1849517822265625
1772458053432718800,5.19671875,-0.84674072265625,-0.300811767578125,0.18505859375
1772458053442787800,5.206787841796875,-0.8408050537109375,-0.3207855224609375,0.1857452392578125
1772458053452855800,5.216855712890625,-0.8379364013671875,-0.3333587646484375,0.193878173828125
1772458053462923800,5.226923828125,-0.836334228515625,-0.3399505615234375,0.20391845703125
1772458053472993000,5.236992919921875,-0.840118408203125,-0.340728759765625,0.2081146240234375
1772458053483060700,5.247060791015625,-0.853607177734375,-0.33282470703125,0.203704833984375
1772458053493128700,5.257128662109375,-0.8784027099609375,-0.3169097900390625,0.1912384033203125
1772458053503198000,5.267197998046875,-0.915313720703125,-0.30340576171875,0.16949462890625
1772458053513266000,5.277265869140625,-0.9547576904296875,-0.2865753173828125,0.1374969482421875
1772458053523334000,5.287333984375,-0.996612548828125,-0.273162841796875,0.097686767578125
1772458053533403000,5.29740283203125,-1.043243408203125,-0.2645721435546875,0.065093994140625
1772458053543470800,5.307470947265625,-1.082672119140625,-0.2624053955078125,0.040374755859375
1772458053553538800,5.317538818359375,-1.1120758056640625,-0.2624053955078125,0.0201873779296875
1772458053563607800,5.32760791015625,-1.1398773193359375,-0.2609710693359375,0.0087890625
1772458053573675800,5.33767578125,-1.160186767578125,-0.252410888671875,0.0050506591796875
1772458053583743700,5.34774365234375,-1.16900634765625,-0.2480621337890625,0.0105743408203125
1772458053593813000,5.35781298828125,-1.1548919677734375,-0.247039794921875,0.0193023681640625
1772458053603881000,5.367880859375,-1.1143035888671875,-0.252838134765625,0.0245819091796875
1772458053613949700,5.37794970703125,-1.05621337890625,-0.2703399658203125,0.0364227294921875
1772458053624018000,5.388017822265625,-0.9939117431640625,-0.290130615234375,0.0453338623046875
1772458053634086000,5.3980859375,-0.9472198486328125,-0.3094940185546875,0.056854248046875
1772458053644155000,5.40815478515625,-0.9156646728515625,-0.3202056884765625,0.071624755859375
1772458053654222800,5.418222900390625,-0.8757171630859375,-0.3300628662109375,0.0861663818359375
1772458053664290800,5.428290771484375,-0.839385986328125,-0.344757080078125,0.10064697265625
1772458053674359800,5.43835986328125,-0.8180694580078125,-0.35986328125,0.1123046875
1772458053684428000,5.448427978515625,-0.8063507080078125,-0.3725433349609375,0.126129150390625
1772458053694496000,5.45849609375,-0.8016357421875,-0.3800506591796875,0.1442718505859375
1772458053704564700,5.468564697265625,-0.7999267578125,-0.38690185546875,0.167236328125
1772458053714632700,5.4786328125,-0.799560546875,-0.4014434814453125,0.1904449462890625
1772458053724701000,5.488700927734375,-0.804962158203125,-0.4160919189453125,0.2174224853515625
1772458053734770000,5.49877001953125,-0.8195037841796875,-0.4287567138671875,0.2362213134765625
1772458053744838000,5.508837890625,-0.8335418701171875,-0.4251556396484375,0.2401275634765625
1772458053754905900,5.51890576171875,-0.8471221923828125,-0.411529541015625,0.2251434326171875
1772458053764974800,5.528974853515625,-0.869903564453125,-0.40203857421875,0.2008514404296875
1772458053775042800,5.539042724609375,-0.9022064208984375,-0.3887939453125,0.1711883544921875
1772458053785111000,5.549111083984375,-0.9448699951171875,-0.371551513671875,0.14093017578125
1772458053795179800,5.5591796875,-1.0192413330078125,-0.3542633056640625,0.11932373046875
1772458053805247700,5.569247802734375,-1.1179046630859375,-0.3215179443359375,0.100799560546875
1772458053815317000,5.57931689453125,-1.21075439453125,-0.276336669921875,0.08892822265625
1772458053825385000,5.589385009765625,-1.26727294921875,-0.2356109619140625,0.097564697265625
1772458053835452700,5.59945263671875,-1.2866058349609375,-0.2095489501953125,0.117523193359375
1772458053845522000,5.60952197265625,-1.2751007080078125,-0.196197509765625,0.138946533203125
1772458053855590000,5.61958984375,-1.2361297607421875,-0.186065673828125,0.1560211181640625
1772458053865657900,5.629657958984375,-1.1851654052734375,-0.1852264404296875,0.1694183349609375
1772458053875726800,5.639726806640625,-1.13232421875,-0.18988037109375,0.17596435546875
1772458053885794800,5.649794921875,-1.0937957763671875,-0.1928863525390625,0.1832427978515625
1772458053895862800,5.65986279296875,-1.0671844482421875,-0.197021484375,0.18994140625
1772458053905932000,5.66993212890625,-1.0500030517578125,-0.1984710693359375,0.19091796875
1772458053916000000,5.68,-1.0312347412109375,-0.2020263671875,0.182281494140625
1772458053926067700,5.690067626953125,-1.0089874267578125,-0.20989990234375,0.1669769287109375
1772458053936137000,5.700136962890625,-0.98455810546875,-0.2214202880859375,0.148406982421875
1772458053946205000,5.710204833984375,-0.9616546630859375,-0.23455810546875,0.128875732421875
1772458053956273000,5.72027294921875,-0.946258544921875,-0.2410430908203125,0.1068115234375
1772458053966342000,5.730341796875,-0.9316558837890625,-0.2447662353515625,0.09173583984375
1772458053976409900,5.740409912109375,-0.9194488525390625,-0.24847412109375,0.0814208984375
1772458053986477800,5.750477783203125,-0.9125518798828125,-0.2515411376953125,0.074462890625
1772458053996546800,5.760546875,-0.9032440185546875,-0.2554931640625,0.068389892578125
1772458054006615000,5.770614990234375,-0.88623046875,-0.2629547119140625,0.060882568359375
1772458054016683800,5.780683837890625,-0.8702545166015625,-0.2691650390625,0.0532073974609375
1772458054026751700,5.790751708984375,-0.8612518310546875,-0.27166748046875,0.0468902587890625
1772458054036820000,5.800820068359375,-0.8644866943359375,-0.2723236083984375,0.0375823974609375
1772458054046888700,5.810888671875,-0.885772705078125,-0.268524169921875,0.0249786376953125
1772458054056956700,5.820956787109375,-0.9106292724609375,-0.26226806640625,0.0084686279296875
1772458054067025000,5.83102490234375,-0.927398681640625,-0.251312255859375,-0.0118865966796875
1772458054077094000,5.841093994140625,-0.9335174560546875,-0.2400665283203125,-0.0216064453125
1772458054087161900,5.851161865234375,-0.932769775390625,-0.236114501953125,-0.0211639404296875
1772458054097230000,5.86122998046875,-0.9231109619140625,-0.2360076904296875,-0.021759033203125
1772458054107298800,5.871298828125,-0.902984619140625,-0.2374267578125,-0.0179443359375
1772458054117366800,5.88136669921875,-0.8726043701171875,-0.2441558837890625,-0.009552001953125
1772458054127435000,5.89143505859375,-0.8470001220703125,-0.2543182373046875,-0.0002288818359375
1772458054137503700,5.901503662109375,-0.826904296875,-0.2640533447265625,0.01031494140625
1772458054147571700,5.91157177734375,-0.8102264404296875,-0.27716064453125,0.02130126953125
1772458054157639700,5.9216396484375,-0.794647216796875,-0.2892608642578125,0.036376953125
1772458054167709000,5.931708984375,-0.7770843505859375,-0.3051605224609375,0.051422119140625
1772458054177777000,5.94177685546875,-0.7645721435546875,-0.32440185546875,0.0659332275390625
1772458054187846000,5.951845947265625,-0.754119873046875,-0.335845947265625,0.0814361572265625
1772458054197913900,5.961913818359375,-0.740203857421875,-0.3441162109375,0.1009674072265625
1772458054207981800,5.97198193359375,-0.7299346923828125,-0.3495635986328125,0.1112213134765625
1772458054218051000,5.982051025390625,-0.726318359375,-0.3562469482421875,0.116485595703125
1772458054228118800,5.992118896484375,-0.72088623046875,-0.365478515625,0.1104736328125
1772458054238186800,6.002186767578125,-0.7200927734375,-0.37420654296875,0.093475341796875
1772458054248256000,6.012256103515625,-0.7363739013671875,-0.375946044921875,0.0734405517578125
1772458054258324000,6.022323974609375,-0.7693939208984375,-0.37091064453125,0.054718017578125
1772458054268392000,6.032391845703125,-0.814239501953125,-0.36004638671875,0.0439453125
1772458054278460700,6.042460693359375,-0.8507080078125,-0.3467559814453125,0.0452880859375
1772458054288529000,6.05252880859375,-0.8730926513671875,-0.331451416015625,0.0480194091796875
1772458054298596900,6.062596923828125,-0.8874664306640625,-0.315185546875,0.0575714111328125
1772458054308665900,6.072665771484375,-0.9102630615234375,-0.3068695068359375,0.0746612548828125
1772458054318733800,6.08273388671875,-0.9438934326171875,-0.3004608154296875,0.0876007080078125
1772458054328801800,6.0928017578125,-0.9739227294921875,-0.2946624755859375,0.0939788818359375
1772458054338870800,6.102870849609375,-1.00189208984375,-0.2863616943359375,0.1005096435546875
1772458054348939000,6.11293896484375,-1.017059326171875,-0.2838287353515625,0.1070404052734375
1772458054359007000,6.123007080078125,-1.0092620849609375,-0.2889251708984375,0.1073150634765625
1772458054369075700,6.13307568359375,-0.99658203125,-0.3009796142578125,0.1005859375
1772458054379144000,6.14314404296875,-0.9937286376953125,-0.311553955078125,0.090911865234375
1772458054389213000,6.153212890625,-0.9998016357421875,-0.3188323974609375,0.0841217041015625
1772458054399281000,6.163281005859375,-1.007476806640625,-0.3231964111328125,0.079925537109375
1772458054409349000,6.17334912109375,-1.0205841064453125,-0.32464599609375,0.0725555419921875
1772458054419418000,6.183418212890625,-1.03204345703125,-0.325653076171875,0.0633544921875
1772458054429486000,6.193486083984375,-1.0374298095703125,-0.32183837890625,0.0558929443359375
1772458054439554300,6.20355419921875,-1.04034423828125,-0.3153076171875,0.05291748046875
1772458054449623000,6.213623046875,-1.045318603515625,-0.305816650390625,0.0498199462890625
1772458054459691000,6.22369091796875,-1.048828125,-0.295440673828125,0.051116943359375
1772458054469759200,6.23375927734375,-1.0494384765625,-0.2860870361328125,0.0548248291015625
1772458054479828200,6.243828125,-1.0418853759765625,-0.2774658203125,0.0623931884765625
1772458054489896000,6.25389599609375,-1.0296783447265625,-0.2720947265625,0.069427490234375
1772458054499964000,6.2639638671875,-1.0150146484375,-0.271087646484375,0.0718994140625
1772458054510033200,6.274033203125,-1.01019287109375,-0.263153076171875,0.073272705078125
1772458054520101000,6.28410107421875,-1.011962890625,-0.2540435791015625,0.07373046875
1772458054530169000,6.294169189453125,-1.01544189453125,-0.24761962890625,0.072723388671875
1772458054540238000,6.304238037109375,-1.0203857421875,-0.240386962890625,0.0704345703125
1772458054550306000,6.31430615234375,-1.0283050537109375,-0.2349090576171875,0.0634918212890625
1772458054560374000,6.3243740234375,-1.03704833984375,-0.2215118408203125,0.062225341796875
1772458054570443300,6.334443359375,-1.041412353515625,-0.2084808349609375,0.05963134765625
1772458054580511000,6.344510986328125,-1.03350830078125,-0.1984405517578125,0.05816650390625
1772458054590579000,6.354578857421875,-1.027984619140625,-0.1932373046875,0.0544281005859375
1772458054600648200,6.364648193359375,-1.031341552734375,-0.199554443359375,0.0553131103515625
1772458054610716200,6.374716064453125,-1.0130615234375,-0.206634521484375,0.0578460693359375
1772458054620785000,6.384784912109375,-0.9750518798828125,-0.21710205078125,0.0515594482421875
1772458054630853000,6.39485302734375,-0.9549102783203125,-0.226104736328125,0.0460662841796875
1772458054640921000,6.404921142578125,-0.953216552734375,-0.239501953125,0.044921875
1772458054650990000,6.414989990234375,-0.9532928466796875,-0.251617431640625,0.0392913818359375
1772458054661058300,6.425058349609375,-0.9572296142578125,-0.266357421875,0.0345458984375
1772458054671126000,6.4351259765625,-0.96551513671875,-0.274627685546875,0.0334014892578125
1772458054681195000,6.445195068359375,-0.9568328857421875,-0.2774810791015625,0.02996826171875
1772458054691263200,6.45526318359375,-0.9488067626953125,-0.28485107421875,0.02587890625
1772458054701331200,6.465331298828125,-0.9443817138671875,-0.2909088134765625,0.0218353271484375
1772458054711400000,6.47539990234375,-0.9337921142578125,-0.2942962646484375,0.0193634033203125
1772458054721468200,6.48546826171875,-0.9188995361328125,-0.2982940673828125,0.02178955078125
1772458054731536100,6.4955361328125,-0.91485595703125,-0.2965087890625,0.0263519287109375
1772458054741605000,6.505605224609375,-0.92510986328125,-0.29266357421875,0.0334930419921875
1772458054751673300,6.51567333984375,-0.93914794921875,-0.2856292724609375,0.0448455810546875
1772458054761741000,6.525740966796875,-0.942047119140625,-0.2803802490234375,0.06231689453125
1772458054771810000,6.53581005859375,-0.93890380859375,-0.2784576416015625,0.07684326171875
1772458054781878000,6.5458779296875,-0.930755615234375,-0.2786102294921875,0.08917236328125
1772458054791946200,6.5559462890625,-0.914825439453125,-0.281219482421875,0.103302001953125
1772458054802015000,6.566014892578125,-0.9008331298828125,-0.2831573486328125,0.109954833984375
1772458054812083000,6.5760830078125,-0.884857177734375,-0.278961181640625,0.1140899658203125
1772458054822152200,6.586152099609375,-0.8530120849609375,-0.2761077880859375,0.1171417236328125
1772458054832220200,6.59622021484375,-0.824493408203125,-0.2772064208984375,0.116546630859375
1772458054842288000,6.6062880859375,-0.8212432861328125,-0.2754669189453125,0.1171112060546875
1772458054852357000,6.616357177734375,-0.84075927734375,-0.264404296875,0.1182861328125
1772458054862425000,6.626425048828125,-0.8696136474609375,-0.24822998046875,0.1184844970703125
1772458054872493000,6.6364931640625,-0.9009552001953125,-0.2300262451171875,0.121368408203125
1772458054882562000,6.64656201171875,-0.9328155517578125,-0.2177734375,0.117706298828125
1772458054892630000,6.656630126953125,-0.9593505859375,-0.2037200927734375,0.119598388671875
1772458054902698000,6.666697998046875,-0.9713134765625,-0.2019805908203125,0.1320953369140625
1772458054912767200,6.676767333984375,-0.969512939453125,-0.203338623046875,0.145721435546875
1772458054922835200,6.686835205078125,-0.9484100341796875,-0.2078704833984375,0.1525115966796875
1772458054932903200,6.696903076171875,-0.9176177978515625,-0.2201080322265625,0.162841796875
1772458054942972200,6.70697216796875,-0.895660400390625,-0.236846923828125,0.18023681640625
1772458054953040100,6.7170400390625,-0.881134033203125,-0.2545318603515625,0.1990203857421875
1772458054963108000,6.727108154296875,-0.8659515380859375,-0.275115966796875,0.216888427734375
1772458054973177000,6.737177001953125,-0.8571319580078125,-0.288848876953125,0.2388763427734375
1772458054983245000,6.7472451171875,-0.855377197265625,-0.295074462890625,0.2538299560546875
1772458054993313000,6.75731298828125,-0.8559112548828125,-0.3004913330078125,0.2677154541015625
1772458055003382300,6.76738232421875,-0.85858154296875,-0.302947998046875,0.2735137939453125
1772458055013450200,6.7774501953125,-0.859039306640625,-0.3014678955078125,0.2709808349609375
1772458055023519000,6.78751904296875,-0.858123779296875,-0.298126220703125,0.25787353515625
1772458055033587200,6.797587158203125,-0.8558502197265625,-0.299041748046875,0.2392578125
1772458055043655200,6.8076552734375,-0.865081787109375,-0.3023681640625,0.2099761962890625
1772458055053724200,6.81772412109375,-0.8949127197265625,-0.3028411865234375,0.176788330078125
1772458055063791900,6.8277919921875,-0.93408203125,-0.297149658203125,0.14044189453125
1772458055073860000,6.837860107421875,-0.9831390380859375,-0.287750244140625,0.0998992919921875
1772458055083929000,6.84792919921875,-1.035919189453125,-0.2818145751953125,0.064544677734375
1772458055093997000,6.8579970703125,-1.0792236328125,-0.279754638671875,0.0409698486328125
1772458055104065300,6.868065185546875,-1.104461669921875,-0.272216796875,0.030029296875
1772458055114134000,6.878134033203125,-1.1029205322265625,-0.2652740478515625,0.03887939453125
1772458055124202000,6.888201904296875,-1.085662841796875,-0.259765625,0.0671844482421875
1772458055134270200,6.898270263671875,-1.06573486328125,-0.2545013427734375,0.0956573486328125
1772458055144339200,6.908339111328125,-1.0433807373046875,-0.2511749267578125,0.11383056640625
1772458055154407000,6.918406982421875,-1.0294647216796875,-0.246551513671875,0.131256103515625
1772458055164475100,6.92847509765625,-1.02496337890625,-0.244598388671875,0.1467437744140625
1772458055174544100,6.938544189453125,-1.025909423828125,-0.2423095703125,0.1514739990234375
1772458055184612000,6.948612060546875,-1.0275421142578125,-0.240875244140625,0.142730712890625
1772458055194680300,6.958680419921875,-1.032928466796875,-0.2442779541015625,0.1325225830078125
1772458055204749000,6.9687490234375,-1.0395355224609375,-0.251068115234375,0.116546630859375
1772458055214817000,6.978817138671875,-1.0423431396484375,-0.25787353515625,0.0998077392578125
1772458055224885200,6.98888525390625,-1.0399169921875,-0.261444091796875,0.090545654296875
1772458055234954200,6.998954345703125,-1.0350189208984375,-0.26690673828125,0.08251953125
1772458055245022000,7.00902197265625,-1.026458740234375,-0.2748260498046875,0.0813751220703125
1772458055255091200,7.01909130859375,-1.0111541748046875,-0.2828521728515625,0.0780792236328125
1772458055265159200,7.0291591796875,-0.98956298828125,-0.287841796875,0.0778350830078125
1772458055275227100,7.03922705078125,-0.9730224609375,-0.2960052490234375,0.0818939208984375
1772458055285296000,7.049296142578125,-0.96405029296875,-0.3029632568359375,0.085357666015625
1772458055295364000,7.059364013671875,-0.9597625732421875,-0.311767578125,0.0896453857421875
1772458055305432000,7.06943212890625,-0.9571685791015625,-0.32733154296875,0.1013641357421875
1772458055315501300,7.079501220703125,-0.953857421875,-0.349578857421875,0.1179656982421875
1772458055325569300,7.0895693359375,-0.931121826171875,-0.3656768798828125,0.1239776611328125
1772458055335637000,7.099636962890625,-0.9032135009765625,-0.3617401123046875,0.1049346923828125
1772458055345706200,7.109706298828125,-0.8939666748046875,-0.358795166015625,0.080108642578125
1772458055355774200,7.119774169921875,-0.8856658935546875,-0.3679962158203125,0.0515289306640625
1772458055365842200,7.12984228515625,-0.8681488037109375,-0.379180908203125,0.02471923828125
1772458055375911000,7.139910888671875,-0.857452392578125,-0.38580322265625,0.0036163330078125
1772458055385979100,7.149979248046875,-0.8600616455078125,-0.3782196044921875,-0.004974365234375
1772458055396047000,7.160047119140625,-0.8701934814453125,-0.365814208984375,-0.00079345703125
1772458055406116000,7.1701162109375,-0.884124755859375,-0.35040283203125,0.01141357421875
1772458055416184000,7.18018408203125,-0.89617919921875,-0.328857421875,0.018951416015625
1772458055426252000,7.190251953125,-0.90972900390625,-0.310333251953125,0.0225830078125
1772458055436321000,7.200321044921875,-0.923126220703125,-0.2950592041015625,0.0364227294921875
1772458055446389200,7.21038916015625,-0.9244537353515625,-0.2803955078125,0.0576019287109375
1772458055456457200,7.220457275390625,-0.9248046875,-0.264678955078125,0.0799560546875
1772458055466526000,7.23052587890625,-0.9336090087890625,-0.24896240234375,0.0981292724609375
1772458055476594200,7.24059423828125,-0.9489593505859375,-0.2276763916015625,0.1063079833984375
1772458055486662100,7.250662109375,-0.9644317626953125,-0.2162628173828125,0.1058807373046875
1772458055496731100,7.260731201171875,-0.9701385498046875,-0.218048095703125,0.1015472412109375
1772458055506799000,7.270799072265625,-0.967803955078125,-0.22021484375,0.086334228515625
1772458055516868000,7.2808681640625,-0.97503662109375,-0.2251434326171875,0.07000732421875
1772458055526936000,7.29093603515625,-0.9851531982421875,-0.2286224365234375,0.049652099609375
1772458055537004000,7.301004150390625,-0.9889678955078125,-0.2333984375,0.0285186767578125
1772458055547073000,7.311072998046875,-0.999725341796875,-0.2393035888671875,0.0132293701171875
1772458055557141000,7.32114111328125,-1.0114593505859375,-0.241943359375,-0.0006256103515625
1772458055567209000,7.331208984375,-1.0314483642578125,-0.246826171875,-0.0151214599609375
1772458055577278200,7.3412783203125,-1.0538787841796875,-0.2465667724609375,-0.029571533203125
1772458055587346200,7.35134619140625,-1.0547943115234375,-0.2455596923828125,-0.0403594970703125
1772458055597414100,7.3614140625,-1.023040771484375,-0.251190185546875,-0.0441741943359375
1772458055607483100,7.371483154296875,-0.9774017333984375,-0.263427734375,-0.040435791015625
1772458055617551000,7.381551025390625,-0.9380645751953125,-0.27960205078125,-0.032806396484375
1772458055627619000,7.391619140625,-0.9022216796875,-0.2975311279296875,-0.01812744140625
1772458055637688000,7.40168798828125,-0.8647918701171875,-0.3186187744140625,-0.0033111572265625
1772458055647756000,7.411756103515625,-0.8294830322265625,-0.3400726318359375,0.009063720703125
1772458055657824000,7.421823974609375,-0.8043975830078125,-0.3581695556640625,0.018463134765625
1772458055667893200,7.431893310546875,-0.78814697265625,-0.3768768310546875,0.0231475830078125
1772458055677961200,7.441961181640625,-0.7760162353515625,-0.3876800537109375,0.016143798828125
1772458055688029000,7.45202880859375,-0.7802886962890625,-0.3896026611328125,0.00482177734375
1772458055698098200,7.46209814453125,-0.7984771728515625,-0.383026123046875,-0.00482177734375
1772458055708166100,7.472166259765625,-0.8177947998046875,-0.373870849609375,-0.010528564453125
1772458055718234000,7.482234130859375,-0.83251953125,-0.36102294921875,-0.010284423828125
1772458055728303000,7.49230322265625,-0.8519287109375,-0.3473358154296875,-0.00982666015625
1772458055738371000,7.50237109375,-0.88519287109375,-0.3326416015625,-0.0040130615234375
1772458055748439000,7.51243896484375,-0.918182373046875,-0.3098602294921875,0.000640869140625
1772458055758508300,7.52250830078125,-0.9477996826171875,-0.2948455810546875,0.011260986328125
1772458055768576300,7.532576171875,-0.978057861328125,-0.282318115234375,0.0249176025390625
1772458055778645000,7.54264501953125,-1.0032958984375,-0.2713623046875,0.0415191650390625
1772458055788713200,7.552713134765625,-1.0163116455078125,-0.264404296875,0.0602569580078125
1772458055798781200,7.56278125,-1.01849365234375,-0.2642669677734375,0.0732574462890625
1772458055808850200,7.57285009765625,-1.009033203125,-0.2686767578125,0.08001708984375
1772458055818918100,7.582918212890625,-0.9872894287109375,-0.2794952392578125,0.081573486328125
1772458055828986000,7.592986083984375,-0.9574127197265625,-0.2962188720703125,0.0822906494140625
1772458055839055000,7.60305517578125,-0.9315032958984375,-0.3134613037109375,0.0855560302734375
1772458055849123000,7.613123046875,-0.9070587158203125,-0.32965087890625,0.0917510986328125
1772458055859191300,7.62319140625,-0.8868560791015625,-0.342041015625,0.0959320068359375
1772458055869260000,7.633260009765625,-0.8689727783203125,-0.3526611328125,0.0928192138671875
1772458055879328000,7.643327880859375,-0.8525848388671875,-0.3663177490234375,0.09375
1772458055889396200,7.653396240234375,-0.849761962890625,-0.382965087890625,0.0906982421875
1772458055899465000,7.66346484375,-0.862335205078125,-0.383575439453125,0.0873870849609375
1772458055909533000,7.673532958984375,-0.8767242431640625,-0.383026123046875,0.0850830078125
1772458055919601200,7.68360107421875,-0.87957763671875,-0.3849945068359375,0.0850830078125
1772458055929670100,7.693670166015625,-0.8802947998046875,-0.3839263916015625,0.085418701171875
1772458055939738000,7.703738037109375,-0.8863067626953125,-0.3849945068359375,0.0796966552734375
1772458055949806300,7.713806396484375,-0.893646240234375,-0.3829803466796875,0.0734710693359375
1772458055959875000,7.723875,-0.9025115966796875,-0.3825836181640625,0.0685272216796875
1772458055969943000,7.733943115234375,-0.91064453125,-0.38336181640625,0.06658935546875
1772458055980011300,7.74401123046875,-0.9190521240234375,-0.3797454833984375,0.068206787109375
1772458055990080000,7.754080078125,-0.9224853515625,-0.3771820068359375,0.074066162109375
1772458056000148000,7.76414794921875,-0.920562744140625,-0.3781280517578125,0.08087158203125
1772458056010217200,7.77421728515625,-0.924835205078125,-0.3738250732421875,0.084625244140625
1772458056020285200,7.78428515625,-0.9392852783203125,-0.37115478515625,0.08258056640625
1772458056030353200,7.794353271484375,-0.9671173095703125,-0.367431640625,0.0726470947265625
1772458056040421000,7.804421142578125,-1.001434326171875,-0.362274169921875,0.063995361328125
1772458056050490000,7.814489990234375,-1.0279083251953125,-0.3577117919921875,0.0541534423828125
1772458056060558000,7.82455810546875,-1.0635528564453125,-0.3556671142578125,0.0456085205078125
1772458056070627300,7.83462744140625,-1.1062774658203125,-0.3489227294921875,0.036529541015625
1772458056080695000,7.844695068359375,-1.1336822509765625,-0.3441009521484375,0.029388427734375
1772458056090763000,7.854762939453125,-1.156219482421875,-0.33697509765625,0.022308349609375
1772458056100832300,7.864832275390625,-1.161376953125,-0.3366241455078125,0.024627685546875
1772458056110900200,7.874900146484375,-1.1527557373046875,-0.350616455078125,0.0419921875
1772458056120968200,7.88496826171875,-1.11895751953125,-0.378814697265625,0.073272705078125
1772458056131037000,7.895036865234375,-1.037567138671875,-0.3919525146484375,0.0865936279296875
1772458056141105200,7.905105224609375,-0.97686767578125,-0.3862762451171875,0.080169677734375
1772458056151173000,7.915173095703125,-0.9756011962890625,-0.385467529296875,0.0632476806640625
1772458056161242000,7.9252421875,-0.994232177734375,-0.3805084228515625,0.029632568359375
1772458056171310000,7.93531005859375,-1.0203704833984375,-0.37481689453125,-0.0021209716796875
1772458056181378000,7.9453779296875,-1.035736083984375,-0.3600616455078125,-0.0215301513671875
1772458056191447000,7.955447021484375,-1.0383758544921875,-0.338653564453125,-0.0336761474609375
1772458056201515300,7.965515380859375,-1.034942626953125,-0.322235107421875,-0.030242919921875
1772458056211583200,7.975583251953125,-1.0204010009765625,-0.31756591796875,-0.018829345703125
1772458056221651200,7.985651123046875,-0.9967803955078125,-0.313385009765625,-0.005096435546875
1772458056231719000,7.995718994140625,-0.9563140869140625,-0.3118896484375,0.0107269287109375
1772458056241788200,8.0057880859375,-0.91168212890625,-0.31732177734375,0.031341552734375
1772458056251856100,8.015856201171875,-0.874420166015625,-0.321136474609375,0.05010986328125
1772458056261925000,8.025925048828125,-0.845550537109375,-0.3208160400390625,0.05712890625
1772458056271993000,8.0359931640625,-0.8510284423828125,-0.323394775390625,0.057403564453125
1772458056282061000,8.04606103515625,-0.894866943359375,-0.315948486328125,0.046783447265625
1772458056292130000,8.056130126953125,-0.9344024658203125,-0.3011932373046875,0.02850341796875
1772458056302198300,8.0661982421875,-0.9500732421875,-0.285919189453125,0.0222320556640625
1772458056312266000,8.076265869140625,-0.9498443603515625,-0.271759033203125,0.019561767578125
1772458056322335000,8.0863349609375,-0.9508514404296875,-0.258392333984375,0.0228424072265625
1772458056332403200,8.0964033203125,-0.9479522705078125,-0.243316650390625,0.0306549072265625
1772458056342471200,8.10647119140625,-0.9333343505859375,-0.23236083984375,0.039093017578125
1772458056352540000,8.116539794921875,-0.9208221435546875,-0.2310943603515625,0.055938720703125
1772458056362608000,8.126608154296875,-0.904327392578125,-0.2364959716796875,0.0738983154296875
1772458056372676000,8.136676025390624,-0.868072509765625,-0.248504638671875,0.0976715087890625
1772458056382745000,8.1467451171875,-0.8141326904296875,-0.2646484375,0.12347412109375
1772458056392813300,8.156813232421875,-0.7686309814453125,-0.284027099609375,0.1482391357421875
1772458056402881000,8.166881103515625,-0.7521209716796875,-0.30279541015625,0.164276123046875
1772458056412950500,8.176950439453124,-0.7606048583984375,-0.31744384765625,0.1703033447265625
1772458056423018500,8.1870185546875,-0.7840728759765625,-0.3212738037109375,0.1623077392578125
1772458056433086500,8.19708642578125,-0.8162994384765625,-0.3260040283203125,0.1483306884765625
1772458056443155500,8.207155517578125,-0.8456268310546875,-0.3273162841796875,0.1293182373046875
1772458056453223400,8.217223388671876,-0.8720245361328125,-0.324371337890625,0.1106109619140625
1772458056463291400,8.22729150390625,-0.88916015625,-0.32244873046875,0.09185791015625
1772458056473360600,8.237360595703125,-0.890289306640625,-0.3240814208984375,0.07196044921875
1772458056483428400,8.247428466796874,-0.9095916748046875,-0.3267669677734375,0.0482177734375
1772458056493496300,8.257496337890625,-0.9492645263671875,-0.3255157470703125,0.029205322265625
1772458056503565600,8.267565673828125,-0.97509765625,-0.3160858154296875,0.0180511474609375
1772458056513633500,8.277633544921875,-1.0026397705078125,-0.3098602294921875,0.014129638671875
1772458056523701500,8.287701416015626,-1.02789306640625,-0.3092803955078125,0.0164337158203125
1772458056533770500,8.2977705078125,-1.0260772705078125,-0.305572509765625,0.027374267578125
1772458056543838500,8.30783837890625,-0.9908905029296875,-0.3101806640625,0.047210693359375
1772458056553907500,8.317907470703124,-0.9387359619140625,-0.321807861328125,0.0741729736328125
1772458056563975400,8.327975341796876,-0.901641845703125,-0.332427978515625,0.0977630615234375
1772458056574043400,8.33804345703125,-0.87579345703125,-0.3386993408203125,0.1197662353515625
1772458056584112400,8.3481123046875,-0.8621063232421875,-0.3434295654296875,0.13446044921875
1772458056594180400,8.358180419921876,-0.8578643798828125,-0.346221923828125,0.141845703125
1772458056604248600,8.36824853515625,-0.859619140625,-0.3526458740234375,0.1383514404296875
1772458056614317300,8.3783173828125,-0.8612823486328125,-0.353729248046875,0.12969970703125
1772458056624385300,8.38838525390625,-0.8603515625,-0.3570556640625,0.1272430419921875
1772458056634453500,8.39845361328125,-0.85577392578125,-0.3590850830078125,0.12548828125
1772458056644522500,8.4085224609375,-0.857269287109375,-0.3592376708984375,0.11956787109375
1772458056654590500,8.418590576171875,-0.8643951416015625,-0.3597869873046875,0.1146240234375
1772458056664658400,8.428658447265626,-0.868682861328125,-0.3600311279296875,0.11761474609375
1772458056674727400,8.4387275390625,-0.871429443359375,-0.360198974609375,0.126129150390625
1772458056684795400,8.44879541015625,-0.87322998046875,-0.3607635498046875,0.133026123046875
1772458056694863600,8.458863525390624,-0.87921142578125,-0.3632659912109375,0.133941650390625
1772458056704932400,8.468932373046876,-0.883087158203125,-0.364013671875,0.1299591064453125
1772458056715000300,8.479000244140625,-0.8799591064453125,-0.367950439453125,0.12646484375
1772458056725068300,8.489068359375,-0.88507080078125,-0.370269775390625,0.126007080078125
1772458056735137500,8.499137451171874,-0.89013671875,-0.369781494140625,0.1276397705078125
1772458056745205500,8.50920556640625,-0.8920440673828125,-0.370513916015625,0.124908447265625
1772458056755273200,8.519273193359375,-0.8989105224609375,-0.374176025390625,0.121673583984375
1772458056765342500,8.529342529296875,-0.9083251953125,-0.3769378662109375,0.1157989501953125
1772458056775410400,8.539410400390626,-0.90869140625,-0.3834686279296875,0.1082611083984375
1772458056785478400,8.549478515625,-0.901397705078125,-0.3878021240234375,0.107513427734375
1772458056795547400,8.55954736328125,-0.89093017578125,-0.3885040283203125,0.106414794921875
1772458056805615400,8.569615478515624,-0.88031005859375,-0.3926849365234375,0.1079559326171875
1772458056815683300,8.579683349609375,-0.8726806640625,-0.3967132568359375,0.1089630126953125
1772458056825752600,8.589752685546875,-0.8692169189453125,-0.4040069580078125,0.110565185546875
1772458056835820500,8.599820556640625,-0.8624725341796875,-0.4085693359375,0.11114501953125
1772458056845889300,8.60988916015625,-0.8545379638671875,-0.4103240966796875,0.119598388671875
1772458056855957500,8.61995751953125,-0.8481292724609375,-0.4073333740234375,0.126434326171875
1772458056866025500,8.630025390625,-0.8489227294921875,-0.406646728515625,0.126678466796875
1772458056876094500,8.640094482421874,-0.864837646484375,-0.4056243896484375,0.11810302734375
1772458056886162400,8.650162353515626,-0.8861846923828125,-0.40179443359375,0.103485107421875
1772458056896230400,8.66023046875,-0.910491943359375,-0.40167236328125,0.0943756103515625
1772458056906299400,8.67029931640625,-0.92779541015625,-0.3958892822265625,0.0914459228515625
1772458056916367600,8.68036767578125,-0.93194580078125,-0.39593505859375,0.0959320068359375
1772458056926435600,8.690435546875,-0.932281494140625,-0.4084930419921875,0.11688232421875
1772458056936504300,8.70050439453125,-0.9215545654296875,-0.4167938232421875,0.144744873046875
1772458056946572500,8.710572509765624,-0.88677978515625,-0.4043731689453125,0.148468017578125
1772458056956640500,8.720640625,-0.8883514404296875,-0.3922271728515625,0.1414947509765625
1772458056966709200,8.730709228515625,-0.927886962890625,-0.3965911865234375,0.1326446533203125
1772458056976777500,8.740777587890625,-0.9591522216796875,-0.38861083984375,0.1181793212890625
1772458056986845400,8.750845458984376,-0.9816436767578125,-0.37353515625,0.1072235107421875
1772458056996914400,8.76091455078125,-0.99456787109375,-0.3668212890625,0.109100341796875
1772458057006982400,8.770982421875,-0.9869537353515625,-0.366485595703125,0.1204833984375
1772458057017050600,8.781050537109374,-0.9561767578125,-0.3668975830078125,0.1267242431640625
1772458057027119400,8.791119384765626,-0.936279296875,-0.3660888671875,0.1267852783203125
1772458057037187300,8.801187255859375,-0.9393310546875,-0.368438720703125,0.1182708740234375
1772458057047255600,8.811255615234375,-0.9571075439453125,-0.3648681640625,0.09783935546875
1772458057057324300,8.82132421875,-0.9795684814453125,-0.3565521240234375,0.0790863037109375
1772458057067392300,8.831392333984375,-1.005462646484375,-0.3484344482421875,0.0627288818359375
1772458057077460500,8.84146044921875,-1.0301971435546875,-0.3391571044921875,0.052459716796875
1772458057087529500,8.851529541015625,-1.0376129150390625,-0.3283233642578125,0.047576904296875
1772458057097597400,8.861597412109376,-1.0449371337890625,-0.323272705078125,0.046630859375
1772458057107665700,8.871665771484375,-1.0596466064453125,-0.31439208984375,0.0440521240234375
1772458057117734400,8.881734375,-1.0639190673828125,-0.3016357421875,0.0452728271484375
1772458057127802400,8.89180224609375,-1.0495452880859375,-0.29376220703125,0.044830322265625
1772458057137870600,8.90187060546875,-1.0290374755859375,-0.289947509765625,0.042633056640625
1772458057147939300,8.911939208984375,-1.0130462646484375,-0.282989501953125,0.034393310546875
1772458057158007300,8.92200732421875,-1.0049285888671875,-0.2753753662109375,0.0184478759765625
1772458057168075500,8.932075439453126,-1.0116424560546875,-0.2713470458984375,0.0062103271484375
1772458057178144500,8.94214453125,-1.0265350341796875,-0.2599029541015625,-0.0117950439453125
1772458057188212500,8.95221240234375,-1.0401458740234375,-0.241546630859375,-0.0167999267578125
1772458057198281500,8.962281494140624,-1.046142578125,-0.226287841796875,-0.0109100341796875
1772458057208349400,8.972349365234376,-1.0365753173828125,-0.2234954833984375,0.0008392333984375
1772458057218417400,8.98241748046875,-1.0164794921875,-0.2272186279296875,0.0133056640625
1772458057228486700,8.992486572265625,-0.9865264892578125,-0.2369842529296875,0.0240631103515625
1772458057238554400,9.002554443359376,-0.94891357421875,-0.2454986572265625,0.0333099365234375
1772458057248622300,9.012622314453125,-0.913177490234375,-0.2552642822265625,0.0407257080078125
1772458057258691600,9.022691650390625,-0.8981170654296875,-0.271820068359375,0.0408935546875
1772458057268759600,9.032759521484374,-0.900634765625,-0.2814788818359375,0.0323638916015625
1772458057278827500,9.04282763671875,-0.9021453857421875,-0.2926177978515625,0.020782470703125
1772458057288896500,9.052896484375,-0.8933868408203125,-0.3016510009765625,0.0093841552734375
1772458057298964500,9.062964599609375,-0.8819122314453125,-0.3040618896484375,-0.00958251953125
1772458057309032400,9.073032470703126,-0.8803863525390625,-0.30303955078125,-0.0335845947265625
1772458057319101400,9.083101318359375,-0.8978424072265625,-0.3003692626953125,-0.061798095703125
1772458057329169400,9.09316943359375,-0.9244537353515625,-0.297119140625,-0.08154296875
1772458057339237400,9.1032373046875,-0.9594879150390625,-0.2896270751953125,-0.0955810546875
1772458057349306400,9.113306396484376,-0.9910125732421875,-0.2817840576171875,-0.105377197265625
1772458057359374600,9.12337451171875,-1.005401611328125,-0.2731781005859375,-0.108612060546875
1772458057369442600,9.133442626953125,-1.004974365234375,-0.2633514404296875,-0.09625244140625
1772458057379511300,9.14351123046875,-0.99200439453125,-0.2555389404296875,-0.074127197265625
1772458057389579500,9.15357958984375,-0.9765777587890625,-0.2536773681640625,-0.0517730712890625
1772458057399647500,9.1636474609375,-0.9615325927734375,-0.2546844482421875,-0.0291900634765625
1772458057409716000,9.173716064453124,-0.9380035400390625,-0.2609710693359375,-0.0167999267578125
1772458057419784000,9.183783935546876,-0.910980224609375,-0.27252197265625,-0.0053253173828125
1772458057429851600,9.1938515625,-0.882843017578125,-0.2861328125,-0.000213623046875
1772458057439921000,9.2039208984375,-0.8493804931640625,-0.30126953125,0.0061187744140625
1772458057449988900,9.21398876953125,-0.821441650390625,-0.319091796875,0.0110321044921875
1772458057460056800,9.224056884765625,-0.8066253662109375,-0.3322296142578125,0.012115478515625
1772458057470125800,9.234125732421875,-0.8023529052734375,-0.3393707275390625,0.0044097900390625
1772458057480193800,9.24419384765625,-0.809844970703125,-0.341339111328125,-0.0019378662109375
1772458057490261800,9.25426171875,-0.8249053955078125,-0.3416595458984375,-0.00628662109375
1772458057500331000,9.2643310546875,-0.831817626953125,-0.3409271240234375,-0.0053863525390625
1772458057510399000,9.27439892578125,-0.8363189697265625,-0.338134765625,-0.0036468505859375
1772458057520467700,9.2844677734375,-0.845794677734375,-0.332427978515625,-0.002288818359375
1772458057530536000,9.294535888671875,-0.8626861572265625,-0.332427978515625,0.0005645751953125
1772458057540604000,9.30460400390625,-0.8661346435546875,-0.335723876953125,0.0050811767578125
1772458057550673000,9.3146728515625,-0.8631591796875,-0.3410186767578125,0.0133056640625
1772458057560740600,9.32474072265625,-0.857177734375,-0.3541107177734375,0.0203399658203125
1772458057570808800,9.334808837890625,-0.8590850830078125,-0.3628692626953125,0.02252197265625
1772458057580877800,9.3448779296875,-0.8879852294921875,-0.3633270263671875,0.0274505615234375
1772458057590945800,9.35494580078125,-0.9177703857421875,-0.3637847900390625,0.0377655029296875
1772458057601014000,9.365013916015625,-0.92413330078125,-0.369415283203125,0.0532684326171875
1772458057611082800,9.375082763671875,-0.9168701171875,-0.3783111572265625,0.06591796875
1772458057621150700,9.385150634765624,-0.9176483154296875,-0.382720947265625,0.07208251953125
1772458057631219000,9.395218994140626,-0.9331207275390625,-0.3812408447265625,0.0720672607421875
1772458057641287700,9.40528759765625,-0.958465576171875,-0.3755950927734375,0.066497802734375
1772458057651355600,9.415355712890625,-0.986419677734375,-0.3656158447265625,0.0574188232421875
1772458057661423900,9.425423828125,-1.0180206298828125,-0.3609466552734375,0.0539398193359375
1772458057671492900,9.435492919921876,-1.05047607421875,-0.36737060546875,0.0576324462890625
1772458057681560800,9.445560791015625,-1.0593414306640625,-0.3729095458984375,0.060699462890625
1772458057691629000,9.455629150390624,-1.044769287109375,-0.3557891845703125,0.0488128662109375
1772458057701697800,9.46569775390625,-1.052734375,-0.3390960693359375,0.032379150390625
1772458057711765800,9.475765869140625,-1.0881805419921875,-0.33355712890625,0.0156097412109375
1772458057721833700,9.485833740234375,-1.121917724609375,-0.3260040283203125,0.0050201416015625
1772458057731902700,9.49590283203125,-1.1480712890625,-0.31829833984375,-0.001007080078125
1772458057741970700,9.505970703125,-1.1639556884765625,-0.30322265625,-0.0071258544921875
1772458057752038700,9.51603857421875,-1.1746368408203125,-0.28912353515625,-0.0103607177734375
1772458057762108000,9.52610791015625,-1.1780242919921875,-0.2799530029296875,-0.0009002685546875
1772458057772176000,9.53617578125,-1.1654052734375,-0.2749176025390625,0.015411376953125
1772458057782243800,9.546243896484375,-1.1203155517578125,-0.2826080322265625,0.0395355224609375
1772458057792312800,9.556312744140625,-1.0569610595703125,-0.2979888916015625,0.0622406005859375
1772458057802380800,9.566380859375,-0.992950439453125,-0.316070556640625,0.076904296875
1772458057812448800,9.57644873046875,-0.9432220458984375,-0.33343505859375,0.0786590576171875
1772458057822517800,9.586517822265625,-0.9102630615234375,-0.346832275390625,0.0772857666015625
1772458057832585700,9.596585693359375,-0.885467529296875,-0.35137939453125,0.0756683349609375
1772458057842654700,9.60665478515625,-0.8690032958984375,-0.34881591796875,0.0746307373046875
1772458057852723000,9.616722900390625,-0.86578369140625,-0.341217041015625,0.069580078125
1772458057862791000,9.626791015625,-0.869842529296875,-0.3253326416015625,0.0599365234375
1772458057872859600,9.636859619140624,-0.894439697265625,-0.3081512451171875,0.0495452880859375
1772458057882927900,9.646927978515626,-0.9224090576171875,-0.2866363525390625,0.0425872802734375
1772458057892995800,9.656995849609375,-0.9352874755859375,-0.26690673828125,0.0380401611328125
1772458057903064800,9.66706494140625,-0.9356842041015625,-0.2539825439453125,0.0424346923828125
1772458057913132800,9.6771328125,-0.9306640625,-0.2493896484375,0.05523681640625
1772458057923200800,9.68720068359375,-0.9133758544921875,-0.25067138671875,0.0725555419921875
1772458057933269800,9.697269775390625,-0.8795166015625,-0.2556304931640625,0.0956878662109375
1772458057943338000,9.707337890625,-0.8334197998046875,-0.267913818359375,0.12213134765625
1772458057953406000,9.717406005859376,-0.78900146484375,-0.291748046875,0.1502227783203125
1772458057963474700,9.727474609375,-0.765167236328125,-0.315948486328125,0.169708251953125
1772458057973543000,9.73754296875,-0.7587890625,-0.3305206298828125,0.1789703369140625
1772458057983611000,9.74761083984375,-0.757110595703125,-0.346527099609375,0.1877593994140625
1772458057993680000,9.757679931640626,-0.7585906982421875,-0.3596954345703125,0.1978607177734375
1772458058003747600,9.76774755859375,-0.755859375,-0.3673858642578125,0.2024993896484375
1772458058013815800,9.77781591796875,-0.752777099609375,-0.373504638671875,0.201568603515625
1772458058023884800,9.787884765625,-0.750518798828125,-0.375,0.1969451904296875
1772458058033952800,9.797952880859375,-0.7481231689453125,-0.37103271484375,0.1811981201171875
1772458058044021000,9.80802099609375,-0.7498931884765625,-0.368408203125,0.1636199951171875
1772458058054089700,9.81808984375,-0.7606658935546875,-0.3618316650390625,0.1520233154296875
1772458058064157700,9.82815771484375,-0.7950286865234375,-0.348358154296875,0.1414031982421875
1772458058074226000,9.838225830078125,-0.8531494140625,-0.3277130126953125,0.13299560546875
1772458058084295000,9.848294921875,-0.930694580078125,-0.30718994140625,0.1212310791015625
1772458058094362600,9.858362548828126,-1.0186614990234375,-0.2865142822265625,0.105743408203125
1772458058104430800,9.868430908203125,-1.0905609130859375,-0.26666259765625,0.1012420654296875
1772458058114499800,9.878499755859375,-1.1290740966796875,-0.25689697265625,0.105255126953125
1772458058124567800,9.88856787109375,-1.1229705810546875,-0.25897216796875,0.11773681640625
1772458058134636000,9.898635986328125,-1.07757568359375,-0.2646942138671875,0.136444091796875
1772458058144704800,9.908704833984375,-1.0096588134765625,-0.2828521728515625,0.1559600830078125
1772458058154772700,9.918772705078124,-0.950469970703125,-0.3023529052734375,0.177093505859375
1772458058164842000,9.928842041015624,-0.916046142578125,-0.3252716064453125,0.17987060546875
1772458058174910000,9.938909912109375,-0.8999786376953125,-0.341583251953125,0.1629486083984375
1772458058184977700,9.948977783203125,-0.89947509765625,-0.3475189208984375,0.14532470703125
1772458058195047000,9.959046875,-0.9015045166015625,-0.351043701171875,0.136962890625
1772458058205115000,9.969114990234376,-0.8984832763671875,-0.352294921875,0.1293182373046875
1772458058215182800,9.979182861328125,-0.8875579833984375,-0.3593292236328125,0.1318511962890625
1772458058225251800,9.989251953125,-0.8782196044921875,-0.366363525390625,0.134918212890625
1772458058235319800,9.99931982421875,-0.8656768798828125,-0.3720855712890625,0.13409423828125
1772458058245387800,10.0093876953125,-0.8541717529296875,-0.3818817138671875,0.13067626953125
1772458058255457000,10.01945703125,-0.846466064453125,-0.392791748046875,0.1235504150390625
1772458058265525000,10.02952490234375,-0.8417510986328125,-0.40264892578125,0.112548828125
1772458058275592700,10.0395927734375,-0.8377532958984375,-0.410919189453125,0.104827880859375
1772458058285662000,10.049661865234375,-0.8447723388671875,-0.4149932861328125,0.0958404541015625
1772458058295730000,10.05972998046875,-0.8680877685546875,-0.4140777587890625,0.082275390625
1772458058305798000,10.0697978515625,-0.8928985595703125,-0.414825439453125,0.0739288330078125
1772458058315866600,10.07986669921875,-0.908050537109375,-0.4144134521484375,0.0670928955078125
1772458058325934800,10.089934814453125,-0.91839599609375,-0.412261962890625,0.0635833740234375
1772458058336002800,10.1000029296875,-0.92193603515625,-0.4097900390625,0.0649871826171875
1772458058346071800,10.11007177734375,-0.924896240234375,-0.4048614501953125,0.0662384033203125
1772458058356139800,10.120139892578125,-0.937103271484375,-0.395111083984375,0.0696258544921875
1772458058366207700,10.130207763671875,-0.951446533203125,-0.3863372802734375,0.066864013671875
1772458058376276700,10.14027685546875,-0.9662322998046875,-0.3742218017578125,0.070343017578125
1772458058386345000,10.150344970703125,-0.9780731201171875,-0.367462158203125,0.0782012939453125
1772458058396413000,10.160412841796875,-0.97711181640625,-0.3632965087890625,0.0894775390625
1772458058406482400,10.170482421875,-0.9604644775390625,-0.3658447265625,0.1080474853515625
1772458058416550400,10.18055029296875,-0.943084716796875,-0.375457763671875,0.12359619140625
1772458058426618400,10.190618408203125,-0.91796875,-0.3894805908203125,0.132476806640625
1772458058436687400,10.200687255859375,-0.8827362060546875,-0.393829345703125,0.1344757080078125
1772458058446755300,10.21075537109375,-0.85821533203125,-0.3944244384765625,0.131683349609375
1772458058456823300,10.2208232421875,-0.86419677734375,-0.394622802734375,0.1222686767578125
1772458058466892300,10.230892333984375,-0.8885040283203125,-0.3893585205078125,0.10986328125
1772458058476960500,10.24096044921875,-0.918426513671875,-0.378173828125,0.098785400390625
1772458058487029200,10.251029296875,-0.9394073486328125,-0.3622589111328125,0.092529296875
1772458058497097200,10.26109716796875,-0.9475555419921875,-0.3500213623046875,0.0921630859375
1772458058507165400,10.27116552734375,-0.9488372802734375,-0.347869873046875,0.093780517578125
1772458058517234400,10.281234375,-0.94451904296875,-0.3445281982421875,0.092315673828125
1772458058527302100,10.29130224609375,-0.935699462890625,-0.34161376953125,0.090789794921875
1772458058537370400,10.301370361328125,-0.9308319091796875,-0.3403167724609375,0.0892486572265625
1772458058547439400,10.311439453125,-0.9335479736328125,-0.3382568359375,0.0888671875
1772458058557507300,10.32150732421875,-0.933929443359375,-0.3352508544921875,0.09161376953125
1772458058567575600,10.331575439453125,-0.929412841796875,-0.33355712890625,0.0991363525390625
1772458058577644300,10.341644287109375,-0.91998291015625,-0.3357696533203125,0.1060028076171875
1772458058587712300,10.351712158203124,-0.9076690673828125,-0.3388214111328125,0.1125640869140625
1772458058597780500,10.361780517578126,-0.902008056640625,-0.34027099609375,0.1186981201171875
1772458058607849500,10.371849365234375,-0.892852783203125,-0.3403778076171875,0.1258087158203125
1772458058617917200,10.381917236328125,-0.885009765625,-0.341796875,0.1309051513671875
1772458058627985400,10.3919853515625,-0.8900604248046875,-0.340301513671875,0.1298980712890625
1772458058638054400,10.402054443359376,-0.899078369140625,-0.3340606689453125,0.1298980712890625
1772458058648122400,10.412122314453125,-0.912933349609375,-0.332122802734375,0.125885009765625
1772458058658190300,10.4221904296875,-0.93206787109375,-0.3264312744140625,0.114837646484375
1772458058668259300,10.43225927734375,-0.9549713134765625,-0.3152313232421875,0.0972442626953125
1772458058678327300,10.442327392578125,-0.9820404052734375,-0.30255126953125,0.07696533203125
1772458058688395300,10.452395263671875,-1.015594482421875,-0.2924041748046875,0.0554962158203125
1772458058698464500,10.462464599609374,-1.0554046630859375,-0.2809906005859375,0.0335693359375
1772458058708532200,10.4725322265625,-1.0895233154296875,-0.2723236083984375,0.0143280029296875
1772458058718600200,10.48260009765625,-1.1092529296875,-0.2668609619140625,0.0058746337890625
1772458058728669400,10.49266943359375,-1.1182403564453125,-0.2638092041015625,0.0037689208984375
1772458058738737400,10.5027373046875,-1.0981903076171875,-0.273406982421875,0.016021728515625
1772458058748805400,10.512805419921875,-1.0538177490234375,-0.2890472412109375,0.0337677001953125
1772458058758874400,10.522874267578125,-0.994415283203125,-0.305450439453125,0.0482025146484375
1772458058768942300,10.5329423828125,-0.94476318359375,-0.3262481689453125,0.0611724853515625
1772458058779010300,10.54301025390625,-0.909454345703125,-0.3483734130859375,0.0730438232421875
1772458058789079600,10.55307958984375,-0.8890228271484375,-0.3679962158203125,0.0729827880859375
1772458058799147300,10.563147216796875,-0.885528564453125,-0.3761444091796875,0.0629425048828125
1772458058809215200,10.57321533203125,-0.8850555419921875,-0.376983642578125,0.0418853759765625
1772458058819284500,10.583284423828125,-0.889678955078125,-0.369293212890625,0.0210723876953125
1772458058829352400,10.5933525390625,-0.8965606689453125,-0.3537750244140625,-0.0007171630859375
1772458058839421200,10.603421142578124,-0.910491943359375,-0.3424224853515625,-0.0146484375
1772458058849489400,10.613489501953126,-0.940826416015625,-0.330230712890625,-0.03253173828125
1772458058859557400,10.623557373046875,-0.9857177734375,-0.315093994140625,-0.0474853515625
1772458058869626400,10.63362646484375,-1.0246124267578125,-0.2985992431640625,-0.0552825927734375
1772458058879694300,10.6436943359375,-1.0386962890625,-0.28656005859375,-0.05206298828125
1772458058889762300,10.65376220703125,-1.0232391357421875,-0.2751312255859375,-0.0420684814453125
1772458058899831300,10.663831298828125,-0.9850006103515625,-0.2718048095703125,-0.0250244140625
1772458058909899500,10.6738994140625,-0.9420623779296875,-0.277069091796875,-0.002349853515625
1772458058919967500,10.683967529296876,-0.90484619140625,-0.2935028076171875,0.0134735107421875
1772458058930036200,10.6940361328125,-0.8741607666015625,-0.31011962890625,0.020263671875
1772458058940104200,10.704104248046875,-0.84490966796875,-0.325286865234375,0.02838134765625
1772458058950172400,10.71417236328125,-0.8210601806640625,-0.3372955322265625,0.0406341552734375
1772458058960241400,10.724241455078126,-0.8046417236328125,-0.34844970703125,0.0475006103515625
1772458058970309400,10.734309326171875,-0.791107177734375,-0.35821533203125,0.04864501953125
1772458058980377300,10.74437744140625,-0.7882232666015625,-0.3682403564453125,0.050018310546875
1772458058990446300,10.7544462890625,-0.788970947265625,-0.37469482421875,0.048370361328125
1772458059000514300,10.764514404296875,-0.7930908203125,-0.378662109375,0.048095703125
1772458059010582500,10.77458251953125,-0.8088836669921875,-0.3797454833984375,0.04327392578125
1772458059020651300,10.7846513671875,-0.8268280029296875,-0.38323974609375,0.03668212890625
1772458059030719200,10.79471923828125,-0.8394775390625,-0.388519287109375,0.027557373046875
1772458059040787500,10.804787353515625,-0.8492431640625,-0.3962554931640625,0.0218505859375
1772458059050856400,10.8148564453125,-0.860931396484375,-0.4023284912109375,0.0191497802734375
1772458059060924400,10.82492431640625,-0.873321533203125,-0.4050750732421875,0.021026611328125
1772458059070992400,10.834992431640625,-0.8744659423828125,-0.4092559814453125,0.026947021484375
1772458059081061400,10.845061279296875,-0.8683624267578125,-0.4149322509765625,0.0366973876953125
1772458059091129300,10.85512939453125,-0.863861083984375,-0.422119140625,0.0435028076171875
1772458059101197300,10.865197265625,-0.875091552734375,-0.4248046875,0.049957275390625
1772458059111266300,10.875266357421875,-0.8940277099609375,-0.4195709228515625,0.053375244140625
1772458059121334300,10.885334228515624,-0.913055419921875,-0.4112548828125,0.0577239990234375
1772458059131402200,10.89540234375,-0.9262237548828125,-0.4097137451171875,0.0615386962890625
1772458059141471500,10.905471435546875,-0.9371795654296875,-0.40673828125,0.060272216796875
1772458059151539200,10.915539306640625,-0.959625244140625,-0.40643310546875,0.057586669921875
1772458059161608400,10.9256083984375,-0.981842041015625,-0.4129638671875,0.06597900390625
1772458059171676400,10.935676513671876,-0.9850006103515625,-0.4220123291015625,0.0771942138671875
1772458059181744400,10.945744384765625,-0.9543304443359375,-0.4175567626953125,0.076324462890625
1772458059191813400,10.9558134765625,-0.9121551513671875,-0.3949432373046875,0.0592498779296875
1772458059201881300,10.96588134765625,-0.909271240234375,-0.3763275146484375,0.040283203125
1772458059211949300,10.97594921875,-0.962188720703125,-0.3655853271484375,0.0207061767578125
1772458059222018300,10.986018310546875,-1.0369415283203125,-0.35345458984375,-0.004150390625
1772458059232086500,10.99608642578125,-1.0920867919921875,-0.330047607421875,-0.0188446044921875
1772458059242154200,11.006154296875,-1.1201324462890625,-0.3056793212890625,-0.0268707275390625
1772458059252223200,11.01622314453125,-1.1288909912109375,-0.28369140625,-0.0231475830078125
1772458059262291500,11.02629150390625,-1.1213836669921875,-0.279388427734375,-0.0042572021484375
1772458059272359400,11.036359375,-1.085357666015625,-0.28326416015625,0.024627685546875
1772458059282428200,11.04642822265625,-1.0270233154296875,-0.3011474609375,0.049468994140625
1772458059292496400,11.056496337890625,-0.9654388427734375,-0.3197479248046875,0.070098876953125
1772458059302564400,11.066564453125,-0.9273223876953125,-0.3323516845703125,0.0845947265625
1772458059312633300,11.07663330078125,-0.90679931640625,-0.34375,0.09130859375
1772458059322701600,11.08670166015625,-0.891571044921875,-0.360443115234375,0.098175048828125
1772458059332769300,11.096769287109375,-0.8829803466796875,-0.374420166015625,0.0990142822265625
1772458059342838300,11.10683837890625,-0.882293701171875,-0.3823089599609375,0.094146728515625
1772458059352906500,11.116906494140625,-0.87646484375,-0.3818206787109375,0.0947723388671875
1772458059362974500,11.126974365234375,-0.8665313720703125,-0.379791259765625,0.090606689453125
1772458059373043200,11.137043212890624,-0.856903076171875,-0.3755340576171875,0.0929107666015625
1772458059383111400,11.147111328125,-0.8594512939453125,-0.368682861328125,0.0924224853515625
1772458059393179400,11.157179443359375,-0.8711090087890625,-0.3583526611328125,0.0853118896484375
1772458059403248400,11.167248291015625,-0.8865203857421875,-0.3451690673828125,0.083465576171875
1772458059413316400,11.17731640625,-0.8950042724609375,-0.3289031982421875,0.087493896484375
1772458059423384300,11.18738427734375,-0.906494140625,-0.3140869140625,0.0936279296875
1772458059433453300,11.197453369140625,-0.9182891845703125,-0.2987518310546875,0.10614013671875
1772458059443521300,11.207521240234374,-0.9163970947265625,-0.281494140625,0.120147705078125
1772458059453589200,11.21758935546875,-0.9088287353515625,-0.27423095703125,0.1385040283203125
1772458059463658200,11.227658203125,-0.8922882080078125,-0.2776947021484375,0.146331787109375
1772458059473726200,11.237726318359375,-0.87432861328125,-0.279998779296875,0.140045166015625
1772458059483794200,11.247794189453124,-0.8764801025390625,-0.2880859375,0.1259765625
1772458059493863400,11.257863525390626,-0.8978271484375,-0.3047332763671875,0.0997161865234375
1772458059503931400,11.267931396484375,-0.921356201171875,-0.3125762939453125,0.07708740234375
1772458059514000400,11.27800048828125,-0.926513671875,-0.3222808837890625,0.0684051513671875
1772458059524068400,11.288068359375,-0.9116668701171875,-0.339385986328125,0.0698089599609375
1772458059534136300,11.29813623046875,-0.881744384765625,-0.357330322265625,0.07989501953125
1772458059544205300,11.308205322265625,-0.8565521240234375,-0.373870849609375,0.1013946533203125
1772458059554273300,11.318273193359374,-0.8398895263671875,-0.3868560791015625,0.1299285888671875
1772458059564341200,11.32834130859375,-0.83270263671875,-0.4008636474609375,0.1596221923828125
1772458059574410200,11.33841015625,-0.8267669677734375,-0.414215087890625,0.1813201904296875
1772458059584478500,11.348478515625,-0.8289794921875,-0.4234466552734375,0.1943817138671875
1772458059594546400,11.35854638671875,-0.8284149169921875,-0.43115234375,0.196563720703125
1772458059604615200,11.368615234375,-0.8362579345703125,-0.42938232421875,0.185211181640625
1772458059614683400,11.378683349609375,-0.8475341796875,-0.42193603515625,0.165191650390625
1772458059624751400,11.38875146484375,-0.8060760498046875,-0.4352874755859375,0.146759033203125
1772458059634820000,11.398820068359376,-0.8093719482421875,-0.4317626953125,0.130279541015625
1772458059644888300,11.408888427734375,-0.835845947265625,-0.414306640625,0.1130523681640625
1772458059654956300,11.418956298828125,-0.8922119140625,-0.4092864990234375,0.0825958251953125
1772458059665025300,11.429025390625,-0.9719390869140625,-0.39813232421875,0.045745849609375
1772458059675093500,11.439093505859375,-1.05450439453125,-0.3737030029296875,0.0045013427734375
1772458059685161500,11.449161376953125,-1.1141510009765625,-0.3347320556640625,-0.0103607177734375
