time,seconds_elapsed,z,y,x
1772458048297857800,0.06185791015625,0.0376025028526783,0.01432327926158905,-0.42144736647605896
1772458048307926500,0.071926513671875,0.03508182242512703,0.009198025800287724,-0.39949145913124084
1772458048317994800,0.081994873046875,0.036440033465623856,0.006042179651558399,-0.38042351603507996
1772458048328062700,0.092062744140625,0.03822807967662811,-0.016169382259249687,-0.37743809819221497
1772458048338131700,0.102131591796875,0.04700399562716484,-0.07181799411773682,-0.3979564309120178
1772458048348200000,0.112199951171875,0.060445498675107956,-0.13934217393398285,-0.42973592877388
1772458048358268700,0.1222685546875,0.06453105807304382,-0.16298332810401917,-0.46047359704971313
1772458048368336600,0.132336669921875,0.05961805582046509,-0.15171761810779572,-0.46750620007514954
1772458048378404600,0.142404541015625,0.04201562702655792,-0.11692768335342407,-0.45677340030670166
1772458048388473900,0.152473876953125,0.01194161456078291,-0.05699271336197853,-0.4151404798030853
1772458048398541300,0.162541259765625,-0.028533905744552612,0.010097375139594078,-0.36453935503959656
1772458048408609000,0.172609130859375,-0.05732747167348862,0.03428633511066437,-0.30726832151412964
1772458048418678300,0.18267822265625,-0.0676586702466011,0.01660214550793171,-0.2643469572067261
1772458048428746200,0.192746337890625,-0.07654404640197754,-0.012870525009930134,-0.2324737161397934
1772458048438814200,0.202814208984375,-0.08581317216157913,-0.00935275573283434,-0.21238656342029572
1772458048448883200,0.21288330078125,-0.09389054030179977,0.01859152689576149,-0.1960480660200119
1772458048458951200,0.222951171875,-0.09630949050188065,0.01895984262228012,-0.20382210612297058
1772458048469020200,0.233020263671875,-0.09157013148069382,-0.011842810548841953,-0.23086144030094147
1772458048479088400,0.24308837890625,-0.08913733065128326,-0.039390549063682556,-0.26653262972831726
1772458048489156400,0.25315625,-0.09175948053598404,-0.061528339982032776,-0.304880291223526
1772458048499225000,0.26322509765625,-0.09629803895950317,-0.09947572648525238,-0.34607645869255066
1772458048509293300,0.273293212890625,-0.09755345433950424,-0.13206535577774048,-0.3906804025173187
1772458048519361300,0.283361328125,-0.10182436555624008,-0.14227990806102753,-0.4333530366420746
1772458048529430300,0.29343017578125,-0.10456076264381409,-0.1401997208595276,-0.470644474029541
1772458048539498200,0.303498291015625,-0.1054566502571106,-0.1400817334651947,-0.5037111043930054
1772458048549567200,0.313567138671875,-0.10505424439907074,-0.13528113067150116,-0.5216980576515198
1772458048559635200,0.32363525390625,-0.10373838245868683,-0.09812257438898087,-0.5167688131332397
1772458048569703400,0.333703369140625,-0.09214723855257034,-0.0362837053835392,-0.4951399564743042
1772458048579772200,0.343772216796875,-0.06420828402042389,0.022826218977570534,-0.47019439935684204
1772458048589840100,0.353840087890625,-0.031199198216199875,0.05651227757334709,-0.4503471851348877
1772458048599908400,0.363908447265625,-0.00259418529458344,0.07894541323184967,-0.43610140681266785
1772458048609977300,0.373977294921875,0.021645907312631607,0.08630505949258804,-0.4181077778339386
1772458048620045300,0.38404541015625,0.040889110416173935,0.06687384098768234,-0.3981798589229584
1772458048630114300,0.3941142578125,0.057078201323747635,0.009778061881661415,-0.38331517577171326
1772458048640182300,0.404182373046875,0.07575175166130066,-0.08383897691965103,-0.38481345772743225
1772458048650250200,0.414250244140625,0.08388558030128479,-0.18617279827594757,-0.40001317858695984
1772458048660319200,0.4243193359375,0.08444350957870483,-0.25522536039352417,-0.4257281422615051
1772458048670387200,0.43438720703125,0.07967805117368698,-0.2685374617576599,-0.45481836795806885
1772458048680455200,0.444455078125,0.06617183238267899,-0.22690291702747345,-0.47163036465644836
1772458048690524400,0.4545244140625,0.05669550225138664,-0.16821244359016418,-0.4771990478038788
1772458048700592400,0.46459228515625,0.05428268015384674,-0.11212201416492462,-0.478934109210968
1772458048710660000,0.47466015625,0.05879940092563629,-0.07611767202615738,-0.47464561462402344
1772458048720729300,0.484729248046875,0.06452013552188873,-0.058336809277534485,-0.46630859375
1772458048730797300,0.49479736328125,0.06750154495239258,-0.0412752665579319,-0.4544215500354767
1772458048740866300,0.5048662109375,0.07514987885951996,-0.007502391003072262,-0.42332515120506287
1772458048750934000,0.51493408203125,0.08280912786722183,0.03975886479020119,-0.3806581199169159
1772458048761002200,0.525002197265625,0.09135494381189346,0.07251095026731491,-0.3258771598339081
1772458048771071200,0.5350712890625,0.10120651125907898,0.0846448466181755,-0.2790960967540741
1772458048781139200,0.54513916015625,0.10798852145671844,0.06297071278095245,-0.2322356402873993
1772458048791207400,0.55520751953125,0.11215636879205704,0.045166146010160446,-0.18180948495864868
1772458048801276200,0.565276123046875,0.11059628427028656,0.015368836000561714,-0.12803040444850922
1772458048811344100,0.57534423828125,0.11461925506591797,-0.03457768261432648,-0.07115007936954498
1772458048821412400,0.585412353515625,0.11542193591594696,-0.09568444639444351,-0.012383433058857918
1772458048831481300,0.5954814453125,0.11103969812393188,-0.1648310273885727,0.04704473912715912
1772458048841549000,0.605549072265625,0.09640803188085556,-0.22963692247867584,0.10367473214864731
1772458048851618300,0.615618408203125,0.08657563477754593,-0.24569284915924072,0.1451886147260666
1772458048861686300,0.625686279296875,0.07827456295490265,-0.22750160098075867,0.16962897777557373
1772458048871754200,0.635754150390625,0.06311425566673279,-0.21639861166477203,0.16539669036865234
1772458048881823200,0.6458232421875,0.04428091272711754,-0.2158374935388565,0.13913285732269287
1772458048891891200,0.65589111328125,0.024635039269924164,-0.2122507393360138,0.10354769974946976
1772458048901959200,0.665959228515625,0.000606668065302074,-0.2128387689590454,0.06024469807744026
1772458048912028400,0.6760283203125,-0.027704065665602684,-0.19868619740009308,0.028851089999079704
1772458048922096000,0.68609619140625,-0.049847185611724854,-0.17700646817684174,0.0021081583108752966
1772458048932165000,0.6961650390625,-0.06952288746833801,-0.154385045170784,-0.020021378993988037
1772458048942233300,0.7062333984375,-0.08470263332128525,-0.1488960087299347,-0.0436960831284523
1772458048952301300,0.71630126953125,-0.10301479697227478,-0.16277852654457092,-0.05854959785938263
1772458048962370000,0.7263701171875,-0.1122644916176796,-0.16368719935417175,-0.05499294400215149
1772458048972438300,0.736438232421875,-0.11057072132825851,-0.152349591255188,-0.037764955312013626
1772458048982506200,0.74650634765625,-0.09967892616987228,-0.136994868516922,-0.010932009667158127
1772458048992575200,0.7565751953125,-0.08623155951499939,-0.12118661403656006,0.03263144567608833
1772458049002643500,0.7666435546875,-0.07065313309431076,-0.12612544000148773,0.07602658867835999
1772458049012711200,0.776711181640625,-0.05494234338402748,-0.17966829240322113,0.10544812679290771
1772458049022780200,0.7867802734375,-0.04927993193268776,-0.26882481575012207,0.11307009309530258
1772458049032848100,0.79684814453125,-0.050946272909641266,-0.3466988205909729,0.11817910522222519
1772458049042917400,0.80691748046875,-0.06927041709423065,-0.38426539301872253,0.11604297906160355
1772458049052985000,0.816985107421875,-0.09795612096786499,-0.38556554913520813,0.10848333686590195
1772458049063053000,0.827052978515625,-0.13125255703926086,-0.34687352180480957,0.10170318931341171
1772458049073122300,0.837122314453125,-0.15481407940387726,-0.2785669267177582,0.09657793492078781
1772458049083190300,0.847190185546875,-0.17321093380451202,-0.20684611797332764,0.10078813135623932
1772458049093258200,0.85725830078125,-0.18577945232391357,-0.13915522396564484,0.11339925974607468
1772458049103327200,0.8673271484375,-0.19262830913066864,-0.0750737115740776,0.14296062290668488
1772458049113395200,0.877395263671875,-0.2008526772260666,-0.039922382682561874,0.18020039796829224
1772458049123463200,0.887463134765625,-0.2063044309616089,-0.01932176575064659,0.21379297971725464
1772458049133532200,0.8975322265625,-0.19859404861927032,0.012318718247115612,0.2583806812763214
1772458049143600000,0.90760009765625,-0.1888657957315445,0.017714282497763634,0.2982788383960724
1772458049153669000,0.917669189453125,-0.1684284210205078,-0.015592807903885841,0.3227572739124298
1772458049163737300,0.9277373046875,-0.15481966733932495,-0.07089068740606308,0.3323534429073334
1772458049173805300,0.937805419921875,-0.15467426180839539,-0.14074619114398956,0.31520986557006836
1772458049183874000,0.9478740234375,-0.15897206962108612,-0.2209526151418686,0.2860237658023834
1772458049193942300,0.9579423828125,-0.16496099531650543,-0.2975374162197113,0.2503691017627716
1772458049204010200,0.96801025390625,-0.17294088006019592,-0.37282469868659973,0.21247151494026184
1772458049214079200,0.978079345703125,-0.17887040972709656,-0.4361642599105835,0.1781178116798401
1772458049224147200,0.988147216796875,-0.18602126836776733,-0.4801919162273407,0.1433105617761612
1772458049234215200,0.998215087890625,-0.20344074070453644,-0.5010127425193787,0.11079762130975723
1772458049244284200,1.0082841796875,-0.23323644697666168,-0.4964049756526947,0.07581061124801636
1772458049254352400,1.018352294921875,-0.2671869695186615,-0.46102192997932434,0.04249472916126251
1772458049264421000,1.028421142578125,-0.28842219710350037,-0.37190937995910645,0.025123728439211845
1772458049274489000,1.038489013671875,-0.3020019233226776,-0.259237676858902,0.021581191569566727
1772458049284557300,1.048557373046875,-0.30381715297698975,-0.16441424190998077,0.016866331920027733
1772458049294626300,1.058626220703125,-0.3140420913696289,-0.08271592110395432,0.02978079952299595
1772458049304694300,1.0686943359375,-0.32368165254592896,0.010884338989853859,0.056357815861701965
1772458049314762200,1.07876220703125,-0.32772594690322876,0.11876553297042847,0.10166644304990768
1772458049324831200,1.088831298828125,-0.325882226228714,0.2200002670288086,0.15573233366012573
1772458049334899200,1.098899169921875,-0.3186165988445282,0.31008487939834595,0.2128254473209381
1772458049344967200,1.10896728515625,-0.31274592876434326,0.3887344300746918,0.2642974257469177
1772458049355036200,1.1190361328125,-0.3080611526966095,0.46340760588645935,0.30983802676200867
1772458049365104000,1.129104248046875,-0.30158114433288574,0.5165461897850037,0.3559620976448059
1772458049375173400,1.13917333984375,-0.29279592633247375,0.548282265663147,0.3998850882053375
1772458049385241300,1.149241455078125,-0.27736741304397583,0.561272382736206,0.43996113538742065
1772458049395309300,1.159309326171875,-0.2572304606437683,0.5520405173301697,0.46195006370544434
1772458049405378000,1.1693779296875,-0.23584794998168945,0.5282281637191772,0.48157674074172974
1772458049415446000,1.179446044921875,-0.21709316968917847,0.5014439225196838,0.4734131097793579
1772458049425514200,1.18951416015625,-0.19457800686359406,0.47657880187034607,0.4509109854698181
1772458049435583200,1.199583251953125,-0.1659948229789734,0.4432682394981384,0.41905373334884644
1772458049445651000,1.20965087890625,-0.12977956235408783,0.38862523436546326,0.3768990635871887
1772458049455719000,1.219718994140625,-0.0962599590420723,0.3167033791542053,0.32599779963493347
1772458049465788200,1.2297880859375,-0.07204090058803558,0.23770257830619812,0.2549031376838684
1772458049475856100,1.239856201171875,-0.057676613330841064,0.13989025354385376,0.15739335119724274
1772458049485925000,1.249925048828125,-0.05850991606712341,0.05495486035943031,0.035827506333589554
1772458049495993000,1.2599931640625,-0.0817265510559082,0.003352653468027711,-0.09803309291601181
1772458049506061000,1.27006103515625,-0.11408475786447525,-0.030534472316503525,-0.2416973114013672
1772458049516130300,1.28013037109375,-0.15884371101856232,-0.06203487515449524,-0.39133286476135254
1772458049526198300,1.2901982421875,-0.19717778265476227,-0.07027043402194977,-0.5257340669631958
1772458049536266000,1.300265869140625,-0.22274412214756012,-0.03197497874498367,-0.618887186050415
1772458049546335200,1.310335205078125,-0.22170282900333405,0.04475788399577141,-0.6644099354743958
1772458049556403200,1.3204033203125,-0.20836971700191498,0.11167646199464798,-0.659235954284668
1772458049566471200,1.33047119140625,-0.18147338926792145,0.14584136009216309,-0.607606828212738
1772458049576540000,1.340539794921875,-0.1507658064365387,0.13512612879276276,-0.5152026414871216
1772458049586608000,1.350608154296875,-0.1126202866435051,0.07426277548074722,-0.4030529260635376
1772458049596676000,1.360676025390625,-0.07002196460962296,-0.02919117547571659,-0.2931266725063324
1772458049606745000,1.3707451171875,-0.03519633784890175,-0.12451077252626419,-0.19690027832984924
1772458049616813000,1.38081298828125,-0.0010034791193902493,-0.19692744314670563,-0.11345039308071136
1772458049626882000,1.390882080078125,0.04224705696105957,-0.2697230875492096,-0.059234026819467545
1772458049636950000,1.400949951171875,0.07713047415018082,-0.33347782492637634,-0.041063278913497925
1772458049647018200,1.411018310546875,0.09948185086250305,-0.364693820476532,-0.03953143209218979
1772458049657087000,1.4210869140625,0.10720128566026688,-0.3787829875946045,-0.06149744987487793
1772458049667155000,1.431155029296875,0.1125664934515953,-0.38714054226875305,-0.084345243871212
1772458049677223200,1.44122314453125,0.10698637366294861,-0.3766431510448456,-0.1236143484711647
1772458049687292200,1.451292236328125,0.09095600247383118,-0.3501702547073364,-0.17138107120990753
1772458049697360100,1.461360107421875,0.06863578408956528,-0.30049431324005127,-0.21786469221115112
1772458049707428000,1.471427978515625,0.04254106804728508,-0.21988868713378906,-0.27220383286476135
1772458049717497000,1.4814970703125,0.019689815118908882,-0.1150301843881607,-0.3141917586326599
1772458049727565000,1.49156494140625,0.002141980454325676,0.012835371308028698,-0.3439174294471741
1772458049737634300,1.50163427734375,-0.0034296188969165087,0.13209065794944763,-0.36129242181777954
1772458049747702000,1.511701904296875,0.010028665885329247,0.2161344289779663,-0.3556310832500458
1772458049757770000,1.52177001953125,0.022424083203077316,0.23838940262794495,-0.3359987735748291
1772458049767839200,1.531839111328125,0.04334134981036186,0.21407288312911987,-0.3061271607875824
1772458049777907200,1.5419072265625,0.05992485210299492,0.18432404100894928,-0.25903743505477905
1772458049787975200,1.55197509765625,0.07940986752510071,0.17980678379535675,-0.19087381660938263
1772458049798044200,1.562044189453125,0.1030195951461792,0.1913159042596817,-0.10969746857881546
1772458049808112000,1.572112060546875,0.12418213486671448,0.18732887506484985,-0.032462600618600845
1772458049818180000,1.58218017578125,0.14406582713127136,0.16698846220970154,0.03551378473639488
1772458049828249300,1.592249267578125,0.16529308259487152,0.14303624629974365,0.09719845652580261
1772458049838317000,1.602317138671875,0.18295890092849731,0.1216617226600647,0.14786162972450256
1772458049848386000,1.612385986328125,0.20290464162826538,0.13039235770702362,0.20045986771583557
1772458049858454300,1.622454345703125,0.22787897288799286,0.16565127670764923,0.24836960434913635
1772458049868522200,1.632522216796875,0.25640809535980225,0.2082805037498474,0.28525838255882263
1772458049878591000,1.642591064453125,0.2847992479801178,0.2495776116847992,0.3194049000740051
1772458049888659000,1.652658935546875,0.3067415654659271,0.2555129826068878,0.33380380272865295
1772458049898727200,1.66272705078125,0.3268236517906189,0.17990851402282715,0.3215695023536682
1772458049908796200,1.672796142578125,0.33306050300598145,0.06911968439817429,0.3044581711292267
1772458049918864100,1.682864013671875,0.30947983264923096,-0.00908537395298481,0.3035638630390167
1772458049928932000,1.69293212890625,0.2556315064430237,-0.045937664806842804,0.31025320291519165
1772458049939001000,1.7030009765625,0.18184542655944824,-0.044558413326740265,0.3191574811935425
1772458049949069000,1.713069091796875,0.11965742707252502,-0.03369298204779625,0.33541154861450195
1772458049959137300,1.72313720703125,0.07600581645965576,-0.030052173882722855,0.34516778588294983
1772458049969206000,1.7332060546875,0.04926794767379761,-0.0129323098808527,0.352185994386673
1772458049979274000,1.74327392578125,0.03369884192943573,0.00936127733439207,0.3561682403087616
1772458049989343200,1.75334326171875,0.03389138728380203,0.03376781567931175,0.3479427993297577
1772458049999411200,1.7634111328125,0.05023813620209694,0.03965926170349121,0.3340988755226135
1772458050009479200,1.773479248046875,0.06832978874444962,0.020307933911681175,0.30910298228263855
1772458050019548200,1.783548095703125,0.09463276714086533,-0.016206666827201843,0.2784571945667267
1772458050029616000,1.7936162109375,0.12558801472187042,-0.04658907279372215,0.23905572295188904
1772458050039684000,1.80368408203125,0.15736432373523712,-0.06814922392368317,0.20929889380931854
1772458050049753000,1.813753173828125,0.19009776413440704,-0.09568870812654495,0.17936202883720398
1772458050059821000,1.823821044921875,0.21390989422798157,-0.13828836381435394,0.15389502048492432
1772458050069889000,1.833888916015625,0.23498214781284332,-0.17360427975654602,0.145102858543396
1772458050079958300,1.843958251953125,0.24857093393802643,-0.20795293152332306,0.14632073044776917
1772458050090026200,1.854026123046875,0.2525387704372406,-0.2365531474351883,0.15420182049274445
1772458050100095000,1.864094970703125,0.25109800696372986,-0.24794988334178925,0.1776014119386673
1772458050110163200,1.8741630859375,0.24769209325313568,-0.2286747246980667,0.21636639535427094
1772458050120231200,1.884231201171875,0.22923319041728973,-0.17393264174461365,0.2821933329105377
1772458050130300200,1.894300048828125,0.20541466772556305,-0.08309515565633774,0.36885392665863037
1772458050140368100,1.9043681640625,0.17147162556648254,0.005964149255305529,0.46165817975997925
1772458050150436000,1.91443603515625,0.13844949007034302,0.09371211379766464,0.5436891317367554
1772458050160505000,1.924505126953125,0.11411724984645844,0.18317914009094238,0.6038640737533569
1772458050170573000,1.934572998046875,0.1013236939907074,0.24889689683914185,0.6228755712509155
1772458050180641300,1.944641357421875,0.10453226417303085,0.2917093336582184,0.6143872737884521
1772458050190710000,1.9547099609375,0.11120960861444473,0.2986932098865509,0.5685425400733948
1772458050200778000,1.964778076171875,0.12130938470363617,0.2693744897842407,0.4998636245727539
1772458050210847200,1.97484716796875,0.1277984380722046,0.22870054841041565,0.4188199043273926
1772458050220915200,1.984915283203125,0.1307409703731537,0.17455795407295227,0.3246462643146515
1772458050230983000,1.99498291015625,0.1376393586397171,0.11121999472379684,0.23264841735363007
1772458050241052200,2.00505224609375,0.13880741596221924,0.049852777272462845,0.1356843262910843
1772458050251120000,2.0151201171875,0.13271942734718323,-0.009039567783474922,0.038903456181287766
1772458050261188000,2.02518798828125,0.11599904298782349,-0.06793084740638733,-0.060860686004161835
1772458050271257000,2.035257080078125,0.08877993375062943,-0.13617967069149017,-0.18483856320381165
1772458050281325000,2.045324951171875,0.052563875913619995,-0.20732656121253967,-0.3155275881290436
1772458050291393000,2.05539306640625,0.0100198769941926,-0.26995983719825745,-0.4515615999698639
1772458050301462300,2.065462158203125,-0.04459116980433464,-0.31894657015800476,-0.589520275592804
1772458050311530200,2.0755302734375,-0.1149074137210846,-0.30336707830429077,-0.7074796557426453
1772458050321598000,2.085597900390625,-0.18079029023647308,-0.18100866675376892,-0.7831094264984131
1772458050331667200,2.095667236328125,-0.23369425535202026,0.030612237751483917,-0.8053470849990845
1772458050341735200,2.105735107421875,-0.2681398391723633,0.2839510142803192,-0.7778046727180481
1772458050351804000,2.115803955078125,-0.27162352204322815,0.5251860022544861,-0.7062431573867798
1772458050361872100,2.1258720703125,-0.24843618273735046,0.7053067684173584,-0.6158331036567688
1772458050371940000,2.135940185546875,-0.21133993566036224,0.8067660331726074,-0.5224128365516663
1772458050382009000,2.146009033203125,-0.16752268373966217,0.8280692100524902,-0.4384569823741913
1772458050392077300,2.156077392578125,-0.10934779793024063,0.8112127184867859,-0.36883556842803955
1772458050402145300,2.166145263671875,-0.032054074108600616,0.7563952803611755,-0.3021199107170105
1772458050412214300,2.17621435546875,0.05228903889656067,0.6643425822257996,-0.24036972224712372
1772458050422282200,2.1862822265625,0.11623206734657288,0.5251433849334717,-0.1803969442844391
1772458050432350500,2.1963505859375,0.15479756891727448,0.36579129099845886,-0.12068167328834534
1772458050442419200,2.206419189453125,0.16947345435619354,0.21046695113182068,-0.06298429518938065
1772458050452487200,2.216487060546875,0.1722700297832489,0.07570887356996536,-0.01732412911951542
1772458050462556400,2.226556396484375,0.16682574152946472,-0.04484816640615463,0.0231788232922554
1772458050472624400,2.236624267578125,0.16630135476589203,-0.14220242202281952,0.039019305258989334
1772458050482692400,2.2466923828125,0.16603824496269226,-0.22222082316875458,0.02720259316265583
1772458050492761300,2.25676123046875,0.16074973344802856,-0.29161933064460754,-0.003462908323854208
1772458050502829300,2.266829345703125,0.14576785266399384,-0.34900858998298645,-0.05710349977016449
1772458050512897300,2.276897216796875,0.11473403871059418,-0.40217193961143494,-0.11300405114889145
1772458050522966300,2.28696630859375,0.0692262053489685,-0.43782126903533936,-0.1733454167842865
1772458050533034200,2.2970341796875,0.010324010625481606,-0.447029173374176,-0.2139008343219757
1772458050543102200,2.307102294921875,-0.05386243388056755,-0.4371680021286011,-0.24074523150920868
1772458050553171500,2.31717138671875,-0.12490145862102509,-0.4089092016220093,-0.24281717836856842
1772458050563239400,2.327239501953125,-0.19524486362934113,-0.3890068829059601,-0.23582583665847778
1772458050573308200,2.33730810546875,-0.2564951777458191,-0.38241076469421387,-0.21897096931934357
1772458050583376400,2.34737646484375,-0.30009937286376953,-0.38862869143486023,-0.20925068855285645
1772458050593444400,2.3574443359375,-0.33482274413108826,-0.39370229840278625,-0.2002452164888382
1772458050603513300,2.367513427734375,-0.3659313917160034,-0.3643249571323395,-0.19046208262443542
1772458050613581300,2.377581298828125,-0.38858476281166077,-0.32496076822280884,-0.18705511093139648
1772458050623649300,2.387649169921875,-0.4018097519874573,-0.300886332988739,-0.19168847799301147
1772458050633718300,2.39771826171875,-0.41228342056274414,-0.2845340073108673,-0.21194954216480255
1772458050643786500,2.407786376953125,-0.4166022837162018,-0.25312015414237976,-0.230239599943161
1772458050653854500,2.4178544921875,-0.42641177773475647,-0.21462814509868622,-0.24290798604488373
1772458050663923200,2.427923095703125,-0.43689051270484924,-0.18450592458248138,-0.24373117089271545
1772458050673991200,2.4379912109375,-0.4496001899242401,-0.14198057353496552,-0.23220767080783844
1772458050684059400,2.448059326171875,-0.4510430693626404,-0.1158006340265274,-0.20912125706672668
1772458050694128400,2.45812841796875,-0.4468528628349304,-0.12701493501663208,-0.17679740488529205
1772458050704196000,2.468196044921875,-0.4394780397415161,-0.14559555053710938,-0.13283421099185944
1772458050714265300,2.478265380859375,-0.4266194999217987,-0.14418379962444305,-0.07682020962238312
1772458050724333300,2.488333251953125,-0.40262335538864136,-0.10669448971748352,0.0013028184184804559
1772458050734401300,2.4984013671875,-0.36705896258354187,-0.09427829831838608,0.06837239861488342
1772458050744470300,2.50847021484375,-0.33400461077690125,-0.1637740135192871,0.09006624668836594
1772458050754538200,2.518538330078125,-0.3085634410381317,-0.26334989070892334,0.0746406838297844
1772458050764606200,2.528606201171875,-0.28355100750923157,-0.35192394256591797,0.05835039168596268
1772458050774675500,2.538675537109375,-0.27475327253341675,-0.43110451102256775,0.019937489181756973
1772458050784743400,2.548743408203125,-0.27329331636428833,-0.4863174557685852,-0.021506091579794884
1772458050794811100,2.55881103515625,-0.2903101146221161,-0.5263437032699585,-0.08065623044967651
1772458050804880400,2.56888037109375,-0.32439327239990234,-0.5601847171783447,-0.15389423072338104
1772458050814948400,2.5789482421875,-0.36375105381011963,-0.5678016543388367,-0.22783130407333374
1772458050825016300,2.589016357421875,-0.40526413917541504,-0.5256219506263733,-0.2932366728782654
1772458050835085300,2.599085205078125,-0.44583019614219666,-0.4301353991031647,-0.33720892667770386
1772458050845153300,2.6091533203125,-0.47632527351379395,-0.3115869164466858,-0.3638429343700409
1772458050855222300,2.61922216796875,-0.4901028573513031,-0.2033565789461136,-0.35587555170059204
1772458050865290500,2.62929052734375,-0.4923178255558014,-0.12166198343038559,-0.31797876954078674
1772458050875358500,2.6393583984375,-0.4706660509109497,-0.06270971894264221,-0.24663721024990082
1772458050885427200,2.64942724609375,-0.4430341422557831,-0.03424372524023056,-0.14095258712768555
1772458050895495400,2.659495361328125,-0.42694520950317383,-0.02538605034351349,-0.01714836061000824
1772458050905563400,2.6695634765625,-0.4199085831642151,-0.036617133766412735,0.10315488278865814
1772458050915632000,2.679632080078125,-0.4130570888519287,-0.0857149064540863,0.19934186339378357
1772458050925700400,2.689700439453125,-0.4040212333202362,-0.18033169209957123,0.27735385298728943
1772458050935768300,2.699768310546875,-0.39464399218559265,-0.30486243963241577,0.3326141834259033
1772458050945837300,2.70983740234375,-0.380201131105423,-0.3980821371078491,0.3962714374065399
1772458050955905300,2.7199052734375,-0.36042076349258423,-0.4292411208152771,0.47509968280792236
1772458050965973500,2.729973388671875,-0.33817777037620544,-0.4115997850894928,0.547764003276825
1772458050976042200,2.740042236328125,-0.308096319437027,-0.35662922263145447,0.6190555095672607
1772458050986110200,2.750110107421875,-0.2783551812171936,-0.28920596837997437,0.6739954948425293
1772458050996179500,2.760179443359375,-0.25856444239616394,-0.221463143825531,0.7057203650474548
1772458051006247200,2.7702470703125,-0.2557936906814575,-0.18921919167041779,0.7130696177482605
1772458051016315100,2.780315185546875,-0.25785738229751587,-0.17841315269470215,0.7083404064178467
1772458051026384400,2.79038427734375,-0.27062615752220154,-0.1753758192062378,0.6839234828948975
1772458051036452400,2.800452392578125,-0.2874581515789032,-0.15354987978935242,0.6526209115982056
1772458051046520300,2.810520263671875,-0.29783034324645996,-0.1315513700246811,0.60341876745224
1772458051056589300,2.82058935546875,-0.3085874021053314,-0.13370053470134735,0.5437653064727783
1772458051066657300,2.8306572265625,-0.3163289427757263,-0.15533232688903809,0.46727558970451355
1772458051076725200,2.840725341796875,-0.322369247674942,-0.16740790009498596,0.38642066717147827
1772458051086794500,2.85079443359375,-0.328348308801651,-0.1763545274734497,0.29848068952560425
1772458051096862200,2.8608623046875,-0.3348967730998993,-0.18152132630348206,0.21753151714801788
1772458051106930200,2.87093017578125,-0.3442782759666443,-0.17927893996238708,0.12746581435203552
1772458051116999400,2.88099951171875,-0.36420565843582153,-0.17891168594360352,0.03640541061758995
1772458051127067400,2.8910673828125,-0.39464664459228516,-0.16222167015075684,-0.05431889742612839
1772458051137136000,2.90113623046875,-0.4308645725250244,-0.11986781656742096,-0.14090226590633392
1772458051147204400,2.911204345703125,-0.4671293795108795,-0.036076243966817856,-0.22608186304569244
1772458051157272300,2.921272216796875,-0.4921894371509552,0.08711972087621689,-0.2979837656021118
1772458051167341300,2.93134130859375,-0.49903830885887146,0.2346886694431305,-0.35133540630340576
1772458051177409500,2.941409423828125,-0.47952160239219666,0.3570878207683563,-0.3722670376300812
1772458051187477200,2.951477294921875,-0.4452589452266693,0.43360257148742676,-0.3651667833328247
1772458051197546200,2.961546142578125,-0.4061051607131958,0.45345351099967957,-0.33162587881088257
1772458051207614500,2.971614501953125,-0.3667609691619873,0.41967397928237915,-0.30449917912483215
1772458051217682400,2.981682373046875,-0.3317268192768097,0.3594793379306793,-0.2871108651161194
1772458051227751200,2.991751220703125,-0.2920856475830078,0.28159600496292114,-0.2863590717315674
1772458051237819400,3.0018193359375,-0.2666040062904358,0.21166245639324188,-0.2880658805370331
1772458051247888400,3.011888427734375,-0.23853294551372528,0.1393752098083496,-0.28100529313087463
1772458051257956400,3.021956298828125,-0.20907118916511536,0.03933781757950783,-0.27889183163642883
1772458051268024300,3.0320244140625,-0.17684827744960785,-0.0808972492814064,-0.2747780382633209
1772458051278093300,3.04209326171875,-0.1490725725889206,-0.19689682126045227,-0.27421504259109497
1772458051288161300,3.052161376953125,-0.1273832619190216,-0.2682333290576935,-0.2688426375389099
1772458051298229200,3.062229248046875,-0.10599274188280106,-0.29405373334884644,-0.26189181208610535
1772458051308298200,3.07229833984375,-0.09100580960512161,-0.29868629574775696,-0.25839561223983765
1772458051318366200,3.0823662109375,-0.08089618384838104,-0.30512022972106934,-0.28158533573150635
1772458051328434200,3.09243408203125,-0.08399876207113266,-0.29484787583351135,-0.3074478209018707
1772458051338503400,3.10250341796875,-0.08776021003723145,-0.2479884922504425,-0.3286029100418091
1772458051348571400,3.1125712890625,-0.09384606778621674,-0.1806427538394928,-0.3352528214454651
1772458051358639400,3.122639404296875,-0.09464181959629059,-0.10300601273775101,-0.3275432586669922
1772458051368708400,3.132708251953125,-0.08746407181024551,-0.02859196439385414,-0.30911096930503845
1772458051378776300,3.1427763671875,-0.07498316466808319,0.027187146246433258,-0.2839840352535248
1772458051388844300,3.15284423828125,-0.05535300448536873,0.040283773094415665,-0.25081998109817505
1772458051398913000,3.1629130859375,-0.04373762756586075,0.02694692835211754,-0.2087438851594925
1772458051408981000,3.17298095703125,-0.035687156021595,-0.005264803301542997,-0.1544678658246994
1772458051419050000,3.183050048828125,-0.024649953469634056,-0.03140239790081978,-0.09260636568069458
1772458051429118000,3.193117919921875,-0.01822933740913868,-0.0396435484290123,-0.028841501101851463
1772458051439186200,3.203186279296875,-0.005773200653493404,-0.036013126373291016,0.03519527241587639
1772458051449255000,3.2132548828125,0.007705590222030878,-0.017552629113197327,0.08819377422332764
1772458051459323000,3.223322998046875,0.030654847621917725,0.03292546048760414,0.13539057970046997
1772458051469390800,3.233390869140625,0.058524563908576965,0.12051815539598465,0.18481779098510742
1772458051479460000,3.243460205078125,0.10080517083406448,0.2185986489057541,0.24448777735233307
1772458051489528000,3.253528076171875,0.14701075851917267,0.23460611701011658,0.2824207842350006
1772458051499595800,3.263595703125,0.18617573380470276,0.17594705522060394,0.2978077232837677
1772458051509665000,3.2736650390625,0.21184274554252625,0.12944480776786804,0.32481563091278076
1772458051519733000,3.28373291015625,0.2300369292497635,0.10070876777172089,0.36816176772117615
1772458051529801000,3.293801025390625,0.22944916784763336,0.07344705611467361,0.41310715675354004
1772458051539870000,3.303869873046875,0.22431166470050812,0.038901593536138535,0.45877930521965027
1772458051549938000,3.31393798828125,0.20583172142505646,-0.0036333505995571613,0.5033209323883057
1772458051560007200,3.324007080078125,0.18579517304897308,-0.0423077754676342,0.5485233068466187
1772458051570075100,3.3340751953125,0.15775687992572784,-0.08314122259616852,0.5820370316505432
1772458051580142800,3.344142822265625,0.11906726658344269,-0.13938532769680023,0.5767672061920166
1772458051590211800,3.3542119140625,0.06394089758396149,-0.20446792244911194,0.5549631118774414
1772458051600280000,3.364280029296875,0.002543585142120719,-0.2597506046295166,0.5118603706359863
1772458051610348000,3.37434814453125,-0.044076114892959595,-0.3073333203792572,0.4815669059753418
1772458051620416800,3.384416748046875,-0.0717460885643959,-0.32269737124443054,0.47327274084091187
1772458051630485000,3.394485107421875,-0.08793837577104568,-0.32477623224258423,0.4846298098564148
1772458051640553000,3.404552978515625,-0.09971008449792862,-0.33197739720344543,0.4616115689277649
1772458051650622000,3.4146220703125,-0.10642950236797333,-0.3446199595928192,0.41435083746910095
1772458051660690200,3.424690185546875,-0.09466525912284851,-0.34930047392845154,0.3338914215564728
1772458051670758000,3.4347578125,-0.07979442924261093,-0.3475382626056671,0.2307506501674652
1772458051680827000,3.444826904296875,-0.05554182082414627,-0.3237202763557434,0.142039954662323
1772458051690895000,3.45489501953125,-0.029512351378798485,-0.2657877504825592,0.08901908993721008
1772458051700964000,3.464964111328125,0.0010772485984489322,-0.15497413277626038,0.09890048205852509
1772458051711031800,3.47503173828125,0.02388988621532917,0.01546311192214489,0.17634068429470062
1772458051721100000,3.48510009765625,0.0355026014149189,0.19963374733924866,0.2955901026725769
1772458051731169000,3.4951689453125,0.03845817595720291,0.34676194190979004,0.39539021253585815
1772458051741237000,3.505237060546875,0.040518131107091904,0.4478515386581421,0.46365100145339966
1772458051751305200,3.51530517578125,0.05787048861384392,0.5052540898323059,0.5008715987205505
1772458051761374000,3.5253740234375,0.08493459969758987,0.4932725429534912,0.5105668306350708
1772458051771442000,3.53544189453125,0.11515801399946213,0.45044147968292236,0.499040424823761
1772458051781510000,3.545510009765625,0.13801832497119904,0.3951726257801056,0.46690914034843445
1772458051791579100,3.5555791015625,0.1536039412021637,0.3101575970649719,0.4099411964416504
1772458051801646800,3.565646728515625,0.15287929773330688,0.2291325181722641,0.3374158442020416
1772458051811714800,3.57571484375,0.15078870952129364,0.16303765773773193,0.25128042697906494
1772458051821784000,3.5857841796875,0.14495079219341278,0.1203668937087059,0.15488465130329132
1772458051831852000,3.59585205078125,0.13906706869602203,0.0677151307463646,0.03970986232161522
1772458051841921000,3.605921142578125,0.14257019758224487,0.0035049861762672663,-0.08148447424173355
1772458051851989000,3.615989013671875,0.1547728031873703,-0.07283905148506165,-0.21205046772956848
1772458051862057000,3.626056884765625,0.16012150049209595,-0.14670714735984802,-0.3449462056159973
1772458051872126200,3.636126220703125,0.148743137717247,-0.19920045137405396,-0.48097196221351624
1772458051882194000,3.64619384765625,0.11636495590209961,-0.21388113498687744,-0.618436336517334
1772458051892262000,3.656261962890625,0.07716349512338638,-0.19723504781723022,-0.7584760189056396
1772458051902331000,3.666330810546875,0.025919482111930847,-0.11368422210216522,-0.8826730251312256
1772458051912399000,3.676399169921875,-0.015234879218041897,0.036560673266649246,-0.9770070314407349
1772458051922467000,3.686467041015625,-0.042942408472299576,0.19223469495773315,-1.0467511415481567
1772458051932535800,3.696535888671875,-0.049124136567115784,0.3345646560192108,-1.0849683284759521
1772458051942604000,3.70660400390625,-0.04326491430401802,0.44223839044570923,-1.0897372961044312
1772458051952672000,3.716672119140625,-0.022718096151947975,0.5061182975769043,-1.0529052019119263
1772458051962741000,3.726740966796875,0.019507654011249542,0.5532232522964478,-0.9920434951782227
1772458051972809000,3.73680908203125,0.07727853953838348,0.5908044576644897,-0.9159154295921326
1772458051982877000,3.746876953125,0.15134450793266296,0.6016477942466736,-0.8294545412063599
1772458051992946000,3.75694580078125,0.23738645017147064,0.5617056488990784,-0.7600904107093811
1772458052003014100,3.76701416015625,0.32530298829078674,0.48520079255104065,-0.6907725930213928
1772458052013083000,3.777082763671875,0.39961904287338257,0.4033101797103882,-0.6267568469047546
1772458052023150800,3.78715087890625,0.4572756886482239,0.32078200578689575,-0.5520250797271729
1772458052033219000,3.797218994140625,0.49855226278305054,0.23522689938545227,-0.47237738966941833
1772458052043288000,3.8072880859375,0.5192018747329712,0.1523810178041458,-0.38879966735839844
1772458052053356000,3.81735595703125,0.5322601795196533,0.08177342265844345,-0.305297315120697
1772458052063423700,3.827423828125,0.5474148988723755,0.022339394316077232,-0.21539220213890076
1772458052073493000,3.837492919921875,0.5670029520988464,-0.042269427329301834,-0.1400630921125412
1772458052083561000,3.84756103515625,0.5918198823928833,-0.10810276865959167,-0.07314132153987885
1772458052093629000,3.85762890625,0.6283177137374878,-0.18253971636295319,-0.010671286843717098
1772458052103698000,3.867697998046875,0.6615121364593506,-0.27509042620658875,0.03930000215768814
1772458052113766000,3.877765869140625,0.6952043771743774,-0.38989824056625366,0.08327944576740265
1772458052123833900,3.887833740234375,0.7101308107376099,-0.5253535509109497,0.12120711803436279
1772458052133903000,3.897903076171875,0.6996464729309082,-0.6400148868560791,0.16249702870845795
1772458052143971000,3.90797119140625,0.659970223903656,-0.6822746992111206,0.21258576214313507
1772458052154040000,3.9180400390625,0.6042283773422241,-0.6578492522239685,0.2772960662841797
1772458052164108000,3.92810791015625,0.535057008266449,-0.6837903261184692,0.3152242600917816
1772458052174176000,3.938176025390625,0.44415828585624695,-0.7733159065246582,0.310449481010437
1772458052184245000,3.948244873046875,0.35236871242523193,-0.7891878485679626,0.2889889180660248
1772458052194313000,3.95831298828125,0.26950603723526,-0.6937564015388489,0.292110413312912
1772458052204381000,3.968380859375,0.19912748038768768,-0.5342133045196533,0.3222656548023224
1772458052214450000,3.978449951171875,0.12399784475564957,-0.3537657856941223,0.3582039475440979
1772458052224515800,3.988515869140625,0.04535549879074097,-0.19638362526893616,0.38951820135116577
1772458052234585000,3.998585205078125,-0.0237031988799572,-0.06565704196691513,0.40630942583084106
1772458052244653000,4.008653076171875,-0.07175834476947784,0.052680786699056625,0.40369847416877747
1772458052254721000,4.018720947265625,-0.0943283662199974,0.15576189756393433,0.36955833435058594
1772458052264790000,4.0287900390625,-0.09073682874441147,0.19519852101802826,0.31340745091438293
1772458052274858000,4.03885791015625,-0.08450769633054733,0.1694343090057373,0.237230122089386
1772458052284926000,4.048926025390625,-0.08375775068998337,0.08616124838590622,0.15116740763187408
1772458052294995000,4.058994873046875,-0.08614394068717957,-0.024999359622597694,0.0637049451470375
1772458052305063000,4.06906298828125,-0.07784073799848557,-0.12694969773292542,0.010018013417720795
1772458052315132000,4.0791318359375,-0.05666940286755562,-0.17074990272521973,-0.003820304526016116
1772458052325200100,4.0892001953125,-0.045401036739349365,-0.16653358936309814,0.02190183661878109
1772458052335268000,4.09926806640625,-0.04770520329475403,-0.11777856200933456,0.08118326961994171
1772458052345336800,4.1093369140625,-0.05561292916536331,-0.03175393491983414,0.1556718796491623
1772458052355405000,4.119405029296875,-0.07134688645601273,0.053760964423418045,0.23910365998744965
1772458052365473000,4.12947314453125,-0.08228528499603271,0.13077931106090546,0.3160117566585541
1772458052375542000,4.1395419921875,-0.09158584475517273,0.1838819533586502,0.36967232823371887
1772458052385610000,4.14960986328125,-0.09355072677135468,0.20310784876346588,0.39102181792259216
1772458052395678000,4.159677978515625,-0.09064068645238876,0.19950751960277557,0.3907930552959442
1772458052405747000,4.169746826171875,-0.07758933305740356,0.18163956701755524,0.3771422207355499
1772458052415815000,4.17981494140625,-0.05374152585864067,0.14883768558502197,0.3502035439014435
1772458052425883100,4.189883056640625,-0.028713136911392212,0.10792753100395203,0.3167153596878052
1772458052435951900,4.199951904296875,-0.0033310819417238235,0.0558835044503212,0.2782182991504669
1772458052446019800,4.210019775390625,0.019062906503677368,-0.012673184275627136,0.2330939769744873
1772458052456087800,4.220087890625,0.03467009589076042,-0.09416112303733826,0.18266062438488007
1772458052466157000,4.230156982421875,0.03485039249062538,-0.17964352667331696,0.12138794362545013
1772458052476225000,4.24022509765625,0.028002606704831123,-0.2578224837779999,0.05038461089134216
1772458052486294000,4.2502939453125,0.01764104515314102,-0.3109227120876312,-0.02911767177283764
1772458052496362000,4.260362060546875,-0.007217699196189642,-0.3383226692676544,-0.1286724954843521
1772458052506430000,4.270429931640625,-0.04711158573627472,-0.3371082544326782,-0.2427801489830017
1772458052516499000,4.2804990234375,-0.1010935977101326,-0.28330016136169434,-0.3627758026123047
1772458052526567000,4.29056689453125,-0.15791985392570496,-0.18376237154006958,-0.4728735387325287
1772458052536635000,4.300634765625,-0.2056860476732254,-0.0415881909430027,-0.5633181929588318
1772458052546704100,4.3107041015625,-0.23609508574008942,0.11286476254463196,-0.6171149015426636
1772458052556772000,4.320772216796875,-0.24633388221263885,0.22708748281002045,-0.6458492875099182
1772458052566839800,4.33083984375,-0.24188320338726044,0.2782800793647766,-0.6347357034683228
1772458052576908800,4.34090869140625,-0.23273338377475739,0.2909940183162689,-0.607080340385437
1772458052586978000,4.35097802734375,-0.21485398709774017,0.2809688150882721,-0.5524402856826782
1772458052597046000,4.3610458984375,-0.18429580330848694,0.259493887424469,-0.49059340357780457
1772458052607113700,4.37111376953125,-0.13656477630138397,0.2244538813829422,-0.4267670214176178
1772458052617183000,4.381182861328125,-0.0808011069893837,0.1594591587781906,-0.36376330256462097
1772458052627251000,4.3912509765625,-0.024145815521478653,0.06625225394964218,-0.30466270446777344
1772458052637319000,4.40131884765625,0.022171081975102425,-0.047749146819114685,-0.2500609755516052
1772458052647388000,4.411387939453125,0.06349349021911621,-0.15706898272037506,-0.19712771475315094
1772458052657455900,4.421455810546875,0.10076123476028442,-0.2155032604932785,-0.1503913700580597
1772458052667523800,4.43152392578125,0.12845730781555176,-0.20542480051517487,-0.10976431518793106
1772458052677593000,4.441593017578125,0.15688441693782806,-0.1568402200937271,-0.08979859203100204
1772458052687661000,4.4516611328125,0.18641088902950287,-0.11078750342130661,-0.09288866072893143
1772458052697728800,4.461728759765625,0.21425503492355347,-0.06759528815746307,-0.10734829306602478
1772458052707798000,4.471798095703125,0.24800661206245422,-0.016101472079753876,-0.12932071089744568
1772458052717866000,4.481865966796875,0.29386356472969055,0.02748941443860531,-0.15751878917217255
1772458052727934700,4.491934814453125,0.3446812331676483,0.061593323945999146,-0.18890760838985443
1772458052738003000,4.5020029296875,0.3923070728778839,0.09956680238246918,-0.20455394685268402
1772458052748071000,4.51207080078125,0.43456611037254333,0.12166731059551239,-0.19695141911506653
1772458052758140000,4.522139892578125,0.4804518222808838,0.14332281053066254,-0.16395936906337738
1772458052768208100,4.5322080078125,0.5221289992332458,0.17646265029907227,-0.09961234033107758
1772458052778275800,4.54227587890625,0.5632529854774475,0.19056755304336548,-0.025248099118471146
1772458052788344800,4.5523447265625,0.6042195558547974,0.1708521693944931,0.04217515140771866
1772458052798413000,4.5624130859375,0.6380334496498108,0.14779238402843475,0.10439351946115494
1772458052808481000,4.57248095703125,0.6655462980270386,0.14432841539382935,0.15266171097755432
1772458052818549800,4.5825498046875,0.6874524354934692,0.15838217735290527,0.18443988263607025
1772458052828618000,4.592617919921875,0.6959553360939026,0.19314974546432495,0.20842351019382477
1772458052838686000,4.60268603515625,0.7012670636177063,0.247389018535614,0.2292579561471939
1772458052848755000,4.6127548828125,0.7087028622627258,0.30397000908851624,0.2376338690519333
1772458052858823200,4.6228232421875,0.7154321074485779,0.35210371017456055,0.2252592146396637
1772458052868892000,4.632891845703125,0.720655620098114,0.39724960923194885,0.21808971464633942
1772458052878959900,4.6429599609375,0.7287612557411194,0.4320097267627716,0.2131841778755188
1772458052889027800,4.65302783203125,0.73955237865448,0.4491026997566223,0.2121434211730957
1772458052899097000,4.66309716796875,0.7536458373069763,0.46712005138397217,0.23459918797016144
1772458052909164800,4.673164794921875,0.7729087471961975,0.5114233493804932,0.27487418055534363
1772458052919232800,4.683232666015625,0.8030487895011902,0.49001842737197876,0.31487298011779785
1772458052929302000,4.693302001953125,0.8314889669418335,0.32837414741516113,0.3221178650856018
1772458052939370000,4.703369873046875,0.8376832008361816,0.16267547011375427,0.3210592567920685
1772458052949438000,4.71343798828125,0.8218198418617249,0.06867813318967819,0.32439619302749634
1772458052959507000,4.7235068359375,0.7815107703208923,0.010151171125471592,0.31902486085891724
1772458052969575000,4.733574951171875,0.7299724221229553,-0.057794857770204544,0.2943703830242157
1772458052979643000,4.743642822265625,0.662073016166687,-0.12494246661663055,0.265959233045578
1772458052989712000,4.7537119140625,0.5924659967422485,-0.12974707782268524,0.24838849902153015
1772458052999779800,4.76377978515625,0.5308473706245422,-0.05360996350646019,0.24485954642295837
1772458053009847800,4.773847900390625,0.480959951877594,0.09194350242614746,0.27829766273498535
1772458053019917000,4.7839169921875,0.444833904504776,0.2756401002407074,0.3356451094150543
1772458053029985000,4.793985107421875,0.42107000946998596,0.45009845495224,0.399251252412796
1772458053040053000,4.804052978515625,0.41329890489578247,0.5738459825515747,0.44614285230636597
1772458053050122000,4.8141220703125,0.4246479570865631,0.6214411854743958,0.47378167510032654
1772458053060190000,4.82418994140625,0.4411201477050781,0.5558557510375977,0.4492238759994507
1772458053070258000,4.8342578125,0.4587412178516388,0.4171554148197174,0.38588112592697144
1772458053080327000,4.844326904296875,0.48472195863723755,0.3070203959941864,0.3040941059589386
1772458053090395000,4.854394775390625,0.5148177742958069,0.26094532012939453,0.21863406896591187
1772458053100463900,4.8644638671875,0.5560941100120544,0.2666085362434387,0.15010827779769897
1772458053110532000,4.874531982421875,0.5934278964996338,0.30793866515159607,0.12565113604068756
1772458053120600000,4.88460009765625,0.622401773929596,0.40223586559295654,0.16480706632137299
1772458053130668800,4.894668701171875,0.6436769962310791,0.5268595218658447,0.2552184462547302
1772458053140737000,4.904737060546875,0.6662682890892029,0.6449949741363525,0.36194995045661926
1772458053150805000,4.914804931640625,0.6839058995246887,0.7472289204597473,0.46265313029289246
1772458053160874000,4.9248740234375,0.6904905438423157,0.8367447257041931,0.5178269147872925
1772458053170942000,4.93494189453125,0.7109894156455994,0.8981425762176514,0.5411455631256104
1772458053181010000,4.945010009765625,0.7471452951431274,0.8736792802810669,0.5106222629547119
1772458053191079000,4.955078857421875,0.7926052212715149,0.7574951648712158,0.42634597420692444
1772458053201147000,4.96514697265625,0.834211528301239,0.6199554204940796,0.308772474527359
1772458053211215000,4.975215087890625,0.8658850193023682,0.5333874821662903,0.17537261545658112
1772458053221283800,4.985283935546875,0.9051551818847656,0.48597922921180725,0.037032321095466614
1772458053231351800,4.995351806640625,0.9468331336975098,0.45243245363235474,-0.11152013391256332
1772458053241421000,5.005421142578125,0.9766150116920471,0.38512611389160156,-0.26630252599716187
1772458053251489000,5.015489013671875,0.9839155077934265,0.29238685965538025,-0.4189392030239105
1772458053261556700,5.025556640625,0.9721507430076599,0.1863006353378296,-0.5635312795639038
1772458053271626000,5.0356259765625,0.9413137435913086,0.023141805082559586,-0.69330894947052
1772458053281694000,5.04569384765625,0.8892989754676819,-0.18719519674777985,-0.7961594462394714
1772458053291762000,5.055761962890625,0.8142687082290649,-0.40078097581863403,-0.8595019578933716
1772458053301831000,5.065830810546875,0.721321702003479,-0.5478585958480835,-0.8817827701568604
1772458053311899000,5.07589892578125,0.6326853036880493,-0.5297360420227051,-0.8462631106376648
1772458053321966800,5.085966796875,0.5636172890663147,-0.3295462131500244,-0.740748405456543
1772458053332036000,5.0960361328125,0.5310415029525757,0.016800817102193832,-0.5781565308570862
1772458053342104000,5.10610400390625,0.5442590713500977,0.4029812812805176,-0.4021596908569336
1772458053352171800,5.116171875,0.5807190537452698,0.7350178360939026,-0.25361868739128113
1772458053362241000,5.126240966796875,0.6282841563224792,0.9359413385391235,-0.15809935331344604
1772458053372309000,5.13630908203125,0.6734143495559692,1.0075387954711914,-0.11759880185127258
1772458053382377000,5.146376953125,0.7246682047843933,1.0146946907043457,-0.09991301596164703
1772458053392446000,5.156446044921875,0.7692216038703918,1.0080360174179077,-0.09363461285829544
1772458053402513700,5.166513671875,0.8036330938339233,1.0048551559448242,-0.09415765851736069
1772458053412582000,5.176581787109375,0.8239559531211853,0.9842859506607056,-0.11057551205158234
1772458053422651000,5.18665087890625,0.8254337310791016,0.9490305185317993,-0.14618836343288422
1772458053432718800,5.19671875,0.812255322933197,0.9026417136192322,-0.20120207965373993
1772458053442787800,5.206787841796875,0.7956667542457581,0.8503254652023315,-0.24628621339797974
1772458053452855800,5.216855712890625,0.794400691986084,0.7793253660202026,-0.30054518580436707
1772458053462923800,5.226923828125,0.8027329444885254,0.6744468808174133,-0.35626357793807983
1772458053472993000,5.236992919921875,0.8217002153396606,0.5261450409889221,-0.4131058156490326
1772458053483060700,5.247060791015625,0.8425275087356567,0.3546414375305176,-0.4476912319660187
1772458053493128700,5.257128662109375,0.8621352910995483,0.1797681599855423,-0.46171489357948303
1772458053503198000,5.267197998046875,0.8800010681152344,0.03678144887089729,-0.4629439413547516
1772458053513266000,5.277265869140625,0.8838661313056946,-0.06455289572477341,-0.4603652060031891
1772458053523334000,5.287333984375,0.8819968700408936,-0.10540418326854706,-0.4474656581878662
1772458053533403000,5.29740283203125,0.8677955865859985,-0.11070387810468674,-0.43097004294395447
1772458053543470800,5.307470947265625,0.8492738008499146,-0.10471149533987045,-0.3966629207134247
1772458053553538800,5.317538818359375,0.8190131187438965,-0.08883586525917053,-0.33682143688201904
1772458053563607800,5.32760791015625,0.7930869460105896,-0.05951951816678047,-0.25469061732292175
1772458053573675800,5.33767578125,0.7827144861221313,-0.0009619337506592274,-0.15306784212589264
1772458053583743700,5.34774365234375,0.7925708293914795,0.08968833833932877,-0.037641916424036026
1772458053593813000,5.35781298828125,0.8161978721618652,0.20180022716522217,0.06174805387854576
1772458053603881000,5.367880859375,0.8396819233894348,0.30549386143684387,0.1306389719247818
1772458053613949700,5.37794970703125,0.850287914276123,0.37107154726982117,0.1662294566631317
1772458053624018000,5.388017822265625,0.8574047088623047,0.4044255018234253,0.17550577223300934
1772458053634086000,5.3980859375,0.8582577109336853,0.44218459725379944,0.1861262023448944
1772458053644155000,5.40815478515625,0.8536770939826965,0.4563904404640198,0.20815852284431458
1772458053654222800,5.418222900390625,0.8504221439361572,0.43472057580947876,0.21748758852481842
1772458053664290800,5.428290771484375,0.8377841114997864,0.38555753231048584,0.22052092850208282
1772458053674359800,5.43835986328125,0.814934492111206,0.3363918662071228,0.21606199443340302
1772458053684428000,5.448427978515625,0.7937080264091492,0.28285354375839233,0.20435313880443573
1772458053694496000,5.45849609375,0.7774760723114014,0.23404444754123688,0.19006900489330292
1772458053704564700,5.468564697265625,0.7717198729515076,0.18492618203163147,0.15738323330879211
1772458053714632700,5.4786328125,0.776989221572876,0.1385192573070526,0.11632953584194183
1772458053724701000,5.488700927734375,0.7885990142822266,0.09020579606294632,0.07031358033418655
1772458053734770000,5.49877001953125,0.8098089694976807,0.040529318153858185,0.012337359599769115
1772458053744838000,5.508837890625,0.829365074634552,-0.022460835054516792,-0.06254034489393234
1772458053754905900,5.51890576171875,0.8369473814964294,-0.0980815589427948,-0.15093998610973358
1772458053764974800,5.528974853515625,0.8289533853530884,-0.16507524251937866,-0.2512783110141754
1772458053775042800,5.539042724609375,0.805973470211029,-0.21440230309963226,-0.36349645256996155
1772458053785111000,5.549111083984375,0.7618491649627686,-0.23716089129447937,-0.47178882360458374
1772458053795179800,5.5591796875,0.7087143063545227,-0.1963503360748291,-0.5434787273406982
1772458053805247700,5.569247802734375,0.6648728251457214,-0.06753909587860107,-0.5356535911560059
1772458053815317000,5.57931689453125,0.6386750340461731,0.1177988052368164,-0.46529126167297363
1772458053825385000,5.589385009765625,0.6445494294166565,0.2825896143913269,-0.3388366401195526
1772458053835452700,5.59945263671875,0.6724095344543457,0.4103870093822479,-0.19453832507133484
1772458053845522000,5.60952197265625,0.721326470375061,0.5093673467636108,-0.060496632009744644
1772458053855590000,5.61958984375,0.7810266017913818,0.5619890093803406,0.047087881714105606
1772458053865657900,5.629657958984375,0.8456881046295166,0.5605794191360474,0.12814998626708984
1772458053875726800,5.639726806640625,0.9046305418014526,0.5170817375183105,0.18975688517093658
1772458053885794800,5.649794921875,0.9665511846542358,0.44454097747802734,0.24129943549633026
1772458053895862800,5.65986279296875,1.0320916175842285,0.3654027283191681,0.30577215552330017
1772458053905932000,5.66993212890625,1.094610333442688,0.2732560336589813,0.3721187114715576
1772458053916000000,5.68,1.14430832862854,0.1750546395778656,0.44218114018440247
1772458053926067700,5.690067626953125,1.1819982528686523,0.06107480451464653,0.5059396028518677
1772458053936137000,5.700136962890625,1.1998003721237183,-0.05602385476231575,0.5501603484153748
1772458053946205000,5.710204833984375,1.1964895725250244,-0.15642236173152924,0.5824056267738342
1772458053956273000,5.72027294921875,1.190236210823059,-0.22210097312927246,0.5973608493804932
1772458053966342000,5.730341796875,1.185380220413208,-0.25032809376716614,0.5901058912277222
1772458053976409900,5.740409912109375,1.1833585500717163,-0.245428666472435,0.5694317817687988
1772458053986477800,5.750477783203125,1.1860039234161377,-0.21971584856510162,0.5432502627372742
1772458053996546800,5.760546875,1.1785334348678589,-0.2129644751548767,0.511444091796875
1772458054006615000,5.770614990234375,1.1681002378463745,-0.23583222925662994,0.47767549753189087
1772458054016683800,5.780683837890625,1.1435775756835938,-0.2791655957698822,0.4394253194332123
1772458054026751700,5.790751708984375,1.122329592704773,-0.3365148901939392,0.39905789494514465
1772458054036820000,5.800820068359375,1.0959256887435913,-0.3829186260700226,0.3722481429576874
1772458054046888700,5.810888671875,1.0672285556793213,-0.4002395570278168,0.37495604157447815
1772458054056956700,5.820956787109375,1.024584412574768,-0.38597193360328674,0.39711859822273254
1772458054067025000,5.83102490234375,0.9770506620407104,-0.347247451543808,0.430816650390625
1772458054077094000,5.841093994140625,0.9352555871009827,-0.2788185775279999,0.46071940660476685
1772458054087161900,5.851161865234375,0.8970378637313843,-0.17884458601474762,0.4845461845397949
1772458054097230000,5.86122998046875,0.8669446706771851,-0.05499773845076561,0.5021342039108276
1772458054107298800,5.871298828125,0.8404326438903809,0.0729767382144928,0.4984566569328308
1772458054117366800,5.88136669921875,0.8128806352615356,0.19305095076560974,0.47524988651275635
1772458054127435000,5.89143505859375,0.7811839580535889,0.30518707633018494,0.44200804829597473
1772458054137503700,5.901503662109375,0.7504918575286865,0.4168526232242584,0.40201136469841003
1772458054147571700,5.91157177734375,0.7292302250862122,0.522872269153595,0.3607083857059479
1772458054157639700,5.9216396484375,0.7123716473579407,0.6056686043739319,0.3158106803894043
1772458054167709000,5.931708984375,0.6939156651496887,0.6517993211746216,0.26064276695251465
1772458054177777000,5.94177685546875,0.6774479746818542,0.6810789704322815,0.20645277202129364
1772458054187846000,5.951845947265625,0.6722162365913391,0.6753637790679932,0.14989176392555237
1772458054197913900,5.961913818359375,0.6783169507980347,0.6342450976371765,0.08910883963108063
1772458054207981800,5.97198193359375,0.6983838677406311,0.5595354437828064,0.031069235876202583
1772458054218051000,5.982051025390625,0.7119172811508179,0.4694497883319855,-0.03852368891239166
1772458054228118800,5.992118896484375,0.7169352173805237,0.37937769293785095,-0.13268055021762848
1772458054238186800,6.002186767578125,0.7101992964744568,0.31080448627471924,-0.26296132802963257
1772458054248256000,6.012256103515625,0.6969521641731262,0.29612645506858826,-0.40350085496902466
1772458054258324000,6.022323974609375,0.6825495362281799,0.347808837890625,-0.5421404838562012
1772458054268392000,6.032391845703125,0.6734652519226074,0.4577116370201111,-0.6671684384346008
1772458054278460700,6.042460693359375,0.6758841872215271,0.5919373631477356,-0.781545877456665
1772458054288529000,6.05252880859375,0.6994102597236633,0.71608966588974,-0.8813151121139526
1772458054298596900,6.062596923828125,0.7459274530410767,0.8030464053153992,-0.9651154279708862
1772458054308665900,6.072665771484375,0.808820366859436,0.8536475300788879,-1.0055041313171387
1772458054318733800,6.08273388671875,0.8775597810745239,0.8743938207626343,-1.004136085510254
1772458054328801800,6.0928017578125,0.9547672271728516,0.8793677687644958,-0.960414469242096
1772458054338870800,6.102870849609375,1.0502170324325562,0.8913789391517639,-0.8970144391059875
1772458054348939000,6.11293896484375,1.1525932550430298,0.8837750554084778,-0.8271418809890747
1772458054359007000,6.123007080078125,1.2486499547958374,0.8272066116333008,-0.7595309019088745
1772458054369075700,6.13307568359375,1.3220802545547485,0.7301852107048035,-0.6956621408462524
1772458054379144000,6.14314404296875,1.3819193840026855,0.6150831580162048,-0.6263392567634583
1772458054389213000,6.153212890625,1.4253565073013306,0.49113669991493225,-0.5515899062156677
1772458054399281000,6.163281005859375,1.457126259803772,0.3777507543563843,-0.46652668714523315
1772458054409349000,6.17334912109375,1.4724668264389038,0.28579285740852356,-0.3892934322357178
1772458054419418000,6.183418212890625,1.478192925453186,0.22792211174964905,-0.30852800607681274
1772458054429486000,6.193486083984375,1.476101279258728,0.20381437242031097,-0.24434024095535278
1772458054439554300,6.20355419921875,1.473945140838623,0.2054322510957718,-0.19211964309215546
1772458054449623000,6.213623046875,1.4729129076004028,0.23469187319278717,-0.150313600897789
1772458054459691000,6.22369091796875,1.472222089767456,0.28800514340400696,-0.11906380951404572
1772458054469759200,6.23375927734375,1.4788984060287476,0.3655785024166107,-0.08897008746862411
1772458054479828200,6.243828125,1.4898737668991089,0.43568357825279236,-0.07007469236850739
1772458054489896000,6.25389599609375,1.4961841106414795,0.4829067289829254,-0.06714814156293869
1772458054499964000,6.2639638671875,1.5008039474487305,0.5118430256843567,-0.06571749597787857
1772458054510033200,6.274033203125,1.5017054080963135,0.5312244892120361,-0.054967377334833145
1772458054520101000,6.28410107421875,1.4996715784072876,0.537666380405426,-0.04267316311597824
1772458054530169000,6.294169189453125,1.494643211364746,0.5342298150062561,-0.01636698842048645
1772458054540238000,6.304238037109375,1.486202359199524,0.5340213179588318,0.013429256156086922
1772458054550306000,6.31430615234375,1.4836400747299194,0.5437354445457458,0.04765939712524414
1772458054560374000,6.3243740234375,1.486561894416809,0.5726035833358765,0.08258382230997086
1772458054570443300,6.334443359375,1.498623013496399,0.6057540774345398,0.12339756637811661
1772458054580511000,6.344510986328125,1.5186737775802612,0.6294969916343689,0.16362088918685913
1772458054590579000,6.354578857421875,1.5362225770950317,0.6654682755470276,0.20538431406021118
1772458054600648200,6.364648193359375,1.5554789304733276,0.7118182182312012,0.25947365164756775
1772458054610716200,6.374716064453125,1.574668288230896,0.6972659230232239,0.29396238923072815
1772458054620785000,6.384784912109375,1.593640685081482,0.6396377682685852,0.30117207765579224
1772458054630853000,6.39485302734375,1.604170799255371,0.5835134983062744,0.30975067615509033
1772458054640921000,6.404921142578125,1.6152300834655762,0.5293935537338257,0.30979299545288086
1772458054650990000,6.414989990234375,1.6179877519607544,0.4811146855354309,0.3170897960662842
1772458054661058300,6.425058349609375,1.6017910242080688,0.4510881006717682,0.33463549613952637
1772458054671126000,6.4351259765625,1.5869076251983643,0.4376891851425171,0.349640816450119
1772458054681195000,6.445195068359375,1.5707694292068481,0.42063990235328674,0.3484932780265808
1772458054691263200,6.45526318359375,1.5504164695739746,0.41161632537841797,0.32965219020843506
1772458054701331200,6.465331298828125,1.527454137802124,0.4189804792404175,0.2953043580055237
1772458054711400000,6.47539990234375,1.4961823225021362,0.42169052362442017,0.2483951598405838
1772458054721468200,6.48546826171875,1.4648154973983765,0.41197529435157776,0.18097643554210663
1772458054731536100,6.4955361328125,1.4342988729476929,0.421968013048172,0.11458490043878555
1772458054741605000,6.505605224609375,1.4128623008728027,0.4640909731388092,0.061530206352472305
1772458054751673300,6.51567333984375,1.4004584550857544,0.5070821046829224,0.03151851147413254
1772458054761741000,6.525740966796875,1.398928165435791,0.5511361360549927,0.014795724302530289
1772458054771810000,6.53581005859375,1.3983672857284546,0.5871082544326782,0.009838515892624855
1772458054781878000,6.5458779296875,1.3944543600082397,0.6077855825424194,0.018263159319758415
1772458054791946200,6.5559462890625,1.3847068548202515,0.6057367920875549,0.024234766140580177
1772458054802015000,6.566014892578125,1.3722137212753296,0.591009259223938,0.04029735550284386
1772458054812083000,6.5760830078125,1.3554872274398804,0.5434970855712891,0.059176769107580185
1772458054822152200,6.586152099609375,1.3314013481140137,0.43981173634529114,0.048403751105070114
1772458054832220200,6.59622021484375,1.3018943071365356,0.3234174847602844,0.009689378552138805
1772458054842288000,6.6062880859375,1.2806079387664795,0.2523329257965088,-0.048415202647447586
1772458054852357000,6.616357177734375,1.2708280086517334,0.2466300129890442,-0.11177606880664825
1772458054862425000,6.626425048828125,1.2755601406097412,0.2754361033439636,-0.1624850481748581
1772458054872493000,6.6364931640625,1.2863701581954956,0.32656532526016235,-0.18756990134716034
1772458054882562000,6.64656201171875,1.2895078659057617,0.4143550992012024,-0.1807149201631546
1772458054892630000,6.656630126953125,1.2960976362228394,0.5377532243728638,-0.14914155006408691
1772458054902698000,6.666697998046875,1.318249225616455,0.6817359328269958,-0.11928724497556686
1772458054912767200,6.676767333984375,1.340657353401184,0.8189553022384644,-0.09191074967384338
1772458054922835200,6.686835205078125,1.360764503479004,0.9085549712181091,-0.07319378852844238
1772458054932903200,6.696903076171875,1.3721535205841064,0.9347671270370483,-0.059174638241529465
1772458054942972200,6.70697216796875,1.3766611814498901,0.9324632287025452,-0.04253014922142029
1772458054953040100,6.7170400390625,1.3693106174468994,0.8954381346702576,-0.032579246908426285
1772458054963108000,6.727108154296875,1.3683934211730957,0.8388416767120361,-0.03759930655360222
1772458054973177000,6.737177001953125,1.3781754970550537,0.794249415397644,-0.058406319469213486
1772458054983245000,6.7472451171875,1.4002019166946411,0.7507427334785461,-0.0899868831038475
1772458054993313000,6.75731298828125,1.439057469367981,0.7065552473068237,-0.13097718358039856
1772458055003382300,6.76738232421875,1.4783142805099487,0.6328879594802856,-0.1724303513765335
1772458055013450200,6.7774501953125,1.5156714916229248,0.5322564244270325,-0.20388947427272797
1772458055023519000,6.78751904296875,1.5419148206710815,0.37750014662742615,-0.2320132553577423
1772458055033587200,6.797587158203125,1.5469093322753906,0.18100599944591522,-0.2578240931034088
1772458055043655200,6.8076552734375,1.5266679525375366,-0.008596950210630894,-0.2791517376899719
1772458055053724200,6.81772412109375,1.4908151626586914,-0.1340470165014267,-0.29743221402168274
1772458055063791900,6.8277919921875,1.4457310438156128,-0.18518424034118652,-0.33025220036506653
1772458055073860000,6.837860107421875,1.3914790153503418,-0.14690688252449036,-0.35182061791419983
1772458055083929000,6.84792919921875,1.3249738216400146,-0.043526437133550644,-0.35765641927719116
1772458055093997000,6.8579970703125,1.238131046295166,0.11473723500967026,-0.34430810809135437
1772458055104065300,6.868065185546875,1.1632490158081055,0.2891026437282562,-0.32284462451934814
1772458055114134000,6.878134033203125,1.1135587692260742,0.43386515974998474,-0.31639179587364197
1772458055124202000,6.888201904296875,1.0961486101150513,0.5254078507423401,-0.3043106198310852
1772458055134270200,6.898270263671875,1.0886839628219604,0.560084342956543,-0.2849246859550476
1772458055144339200,6.908339111328125,1.0925663709640503,0.5506293177604675,-0.2618638277053833
1772458055154407000,6.918406982421875,1.1054496765136719,0.5102251768112183,-0.22712396085262299
1772458055164475100,6.92847509765625,1.1211940050125122,0.4559129476547241,-0.18385158479213715
1772458055174544100,6.938544189453125,1.1412550210952759,0.40418076515197754,-0.12971724569797516
1772458055184612000,6.948612060546875,1.1547902822494507,0.36069613695144653,-0.06523440033197403
1772458055194680300,6.958680419921875,1.1596753597259521,0.3328503966331482,-0.00606321869418025
1772458055204749000,6.9687490234375,1.1493545770645142,0.31768396496772766,0.06296724826097488
1772458055214817000,6.978817138671875,1.129193663597107,0.3217282295227051,0.12979528307914734
1772458055224885200,6.98888525390625,1.1057934761047363,0.33225783705711365,0.19318197667598724
1772458055234954200,6.998954345703125,1.0797683000564575,0.34347081184387207,0.25807175040245056
1772458055245022000,7.00902197265625,1.049871563911438,0.3551913797855377,0.312391996383667
1772458055255091200,7.01909130859375,1.0170074701309204,0.3596508502960205,0.3574891686439514
1772458055265159200,7.0291591796875,0.98492830991745,0.3461446166038513,0.38916081190109253
1772458055275227100,7.03922705078125,0.9525948762893677,0.3362445831298828,0.4099041521549225
1772458055285296000,7.049296142578125,0.9260053634643555,0.3311012387275696,0.42906880378723145
1772458055295364000,7.059364013671875,0.8998264670372009,0.33158963918685913,0.4461881220340729
1772458055305432000,7.06943212890625,0.8803427815437317,0.3396361172199249,0.4745270907878876
1772458055315501300,7.079501220703125,0.8659856915473938,0.3361223638057709,0.487863153219223
1772458055325569300,7.0895693359375,0.8461571335792542,0.28408870100975037,0.48344334959983826
1772458055335637000,7.099636962890625,0.8135709166526794,0.22886167466640472,0.45821231603622437
1772458055345706200,7.109706298828125,0.7657743692398071,0.21159107983112335,0.40885859727859497
1772458055355774200,7.119774169921875,0.7011818289756775,0.22563952207565308,0.3264625370502472
1772458055365842200,7.12984228515625,0.6172916889190674,0.24803830683231354,0.19443339109420776
1772458055375911000,7.139910888671875,0.5235534906387329,0.2924076318740845,0.048057541251182556
1772458055385979100,7.149979248046875,0.4334510266780853,0.3516294062137604,-0.09017916023731232
1772458055396047000,7.160047119140625,0.3623880445957184,0.4271651804447174,-0.21224968135356903
1772458055406116000,7.1701162109375,0.3155877888202667,0.5088014602661133,-0.31612229347229004
1772458055416184000,7.18018408203125,0.2843180000782013,0.5780652165412903,-0.40199750661849976
1772458055426252000,7.190251953125,0.26323163509368896,0.6360169053077698,-0.4613974392414093
1772458055436321000,7.200321044921875,0.25171664357185364,0.6540377140045166,-0.4950544834136963
1772458055446389200,7.21038916015625,0.2614092230796814,0.6327612400054932,-0.5052386522293091
1772458055456457200,7.220457275390625,0.2985270321369171,0.5758917927742004,-0.49767395853996277
1772458055466526000,7.23052587890625,0.35308215022087097,0.5230005979537964,-0.4776933193206787
1772458055476594200,7.24059423828125,0.424734503030777,0.46760714054107666,-0.4370462894439697
1772458055486662100,7.250662109375,0.5002420544624329,0.4146656394004822,-0.3793904781341553
1772458055496731100,7.260731201171875,0.5632175803184509,0.34361809492111206,-0.33488237857818604
1772458055506799000,7.270799072265625,0.6168163418769836,0.27509281039237976,-0.3021164536476135
1772458055516868000,7.2808681640625,0.664089560508728,0.22498758137226105,-0.27940499782562256
1772458055526936000,7.29093603515625,0.6940733194351196,0.178815558552742,-0.25682592391967773
1772458055537004000,7.301004150390625,0.7077667713165283,0.12360316514968872,-0.22436359524726868
1772458055547073000,7.311072998046875,0.7129870653152466,0.0662171021103859,-0.17260293662548065
1772458055557141000,7.32114111328125,0.7060588598251343,0.014344850555062294,-0.10549233853816986
1772458055567209000,7.331208984375,0.6842225193977356,0.01110618095844984,-0.011108577251434326
1772458055577278200,7.3412783203125,0.6630850434303284,0.060924336314201355,0.10684575885534286
1772458055587346200,7.35134619140625,0.634644627571106,0.12261353433132172,0.2250962257385254
1772458055597414100,7.3614140625,0.6080915331840515,0.15940962731838226,0.3098324239253998
1772458055607483100,7.371483154296875,0.5840424299240112,0.19580066204071045,0.3621153235435486
1772458055617551000,7.381551025390625,0.5685076713562012,0.2364783138036728,0.38602572679519653
1772458055627619000,7.391619140625,0.5557731986045837,0.27610641717910767,0.3791331946849823
1772458055637688000,7.40168798828125,0.5402041077613831,0.29039373993873596,0.3525356948375702
1772458055647756000,7.411756103515625,0.5194721817970276,0.2753058671951294,0.28932395577430725
1772458055657824000,7.421823974609375,0.5027113556861877,0.2467791587114334,0.21317219734191895
1772458055667893200,7.431893310546875,0.46732190251350403,0.18855632841587067,0.11068923026323318
1772458055677961200,7.441961181640625,0.42468923330307007,0.11631488800048828,-0.010483533143997192
1772458055688029000,7.45202880859375,0.3785797953605652,0.06262236833572388,-0.12725888192653656
1772458055698098200,7.46209814453125,0.3309560716152191,0.03826482966542244,-0.2431471347808838
1772458055708166100,7.472166259765625,0.29055699706077576,0.031925976276397705,-0.3606649935245514
1772458055718234000,7.482234130859375,0.2525864541530609,0.025296302512288094,-0.4700506031513214
1772458055728303000,7.49230322265625,0.22860068082809448,0.025918949395418167,-0.5648386478424072
1772458055738371000,7.50237109375,0.21432001888751984,0.05428481101989746,-0.6343657374382019
1772458055748439000,7.51243896484375,0.21499726176261902,0.0929749459028244,-0.6703445315361023
1772458055758508300,7.52250830078125,0.23562957346439362,0.13348402082920074,-0.681048572063446
1772458055768576300,7.532576171875,0.26937395334243774,0.17619499564170837,-0.6512888073921204
1772458055778645000,7.54264501953125,0.31992366909980774,0.2071654349565506,-0.5872278213500977
1772458055788713200,7.552713134765625,0.3811207115650177,0.2159743756055832,-0.4960576891899109
1772458055798781200,7.56278125,0.44539371132850647,0.2029600441455841,-0.3736545443534851
1772458055808850200,7.57285009765625,0.49952298402786255,0.16842523217201233,-0.2525201439857483
1772458055818918100,7.582918212890625,0.540870726108551,0.11029162257909775,-0.13611896336078644
1772458055828986000,7.592986083984375,0.5668407678604126,0.04375440627336502,-0.044616203755140305
1772458055839055000,7.60305517578125,0.5882794857025146,-0.016277240589261055,0.022434469312429428
1772458055849123000,7.613123046875,0.6093608140945435,-0.056892842054367065,0.05667286738753319
1772458055859191300,7.62319140625,0.6280245184898376,-0.08798311650753021,0.07627186924219131
1772458055869260000,7.633260009765625,0.6411418914794922,-0.12811855971813202,0.07189682871103287
1772458055879328000,7.643327880859375,0.6430687308311462,-0.18540741503238678,0.05860472470521927
1772458055889396200,7.653396240234375,0.6283643245697021,-0.22793756425380707,0.04319513961672783
1772458055899465000,7.66346484375,0.6131057739257812,-0.23229369521141052,0.03519926592707634
1772458055909533000,7.673532958984375,0.6030976176261902,-0.21290747821331024,0.027579963207244873
1772458055919601200,7.68360107421875,0.6010522842407227,-0.18884128332138062,0.0062578958459198475
1772458055929670100,7.693670166015625,0.5996565222740173,-0.1501394361257553,-0.01866103522479534
1772458055939738000,7.703738037109375,0.5885761976242065,-0.09012936055660248,-0.0480644628405571
1772458055949806300,7.713806396484375,0.5787957310676575,-0.01709110289812088,-0.08179765939712524
1772458055959875000,7.723875,0.5712088942527771,0.06940224021673203,-0.11936687678098679
1772458055969943000,7.733943115234375,0.563226580619812,0.17296165227890015,-0.1498480886220932
1772458055980011300,7.74401123046875,0.5668359994888306,0.2695947289466858,-0.1829991191625595
1772458055990080000,7.754080078125,0.5752305388450623,0.3276393711566925,-0.21146617829799652
1772458056000148000,7.76414794921875,0.5878866910934448,0.3317909836769104,-0.22898603975772858
1772458056010217200,7.77421728515625,0.5975180268287659,0.29110559821128845,-0.23110246658325195
1772458056020285200,7.78428515625,0.6088247299194336,0.25045138597488403,-0.23089472949504852
1772458056030353200,7.794353271484375,0.614839494228363,0.22602567076683044,-0.2224929928779602
1772458056040421000,7.804421142578125,0.6241722702980042,0.22012117505073547,-0.19918207824230194
1772458056050490000,7.814489990234375,0.6281259655952454,0.21797573566436768,-0.17223408818244934
1772458056060558000,7.82455810546875,0.6331673264503479,0.2552719712257385,-0.12699949741363525
1772458056070627300,7.83462744140625,0.6406852006912231,0.3267640173435211,-0.055868856608867645
1772458056080695000,7.844695068359375,0.643092691898346,0.4232202470302582,0.025792714208364487
1772458056090763000,7.854762939453125,0.6494563221931458,0.5266222357749939,0.12120392173528671
1772458056100832300,7.864832275390625,0.6539727449417114,0.6243647933006287,0.2297852635383606
1772458056110900200,7.874900146484375,0.6677775382995605,0.7211920022964478,0.338655561208725
1772458056120968200,7.88496826171875,0.6836787462234497,0.7280650734901428,0.40991267561912537
1772458056131037000,7.895036865234375,0.7014092206954956,0.592059314250946,0.4122943580150604
1772458056141105200,7.905105224609375,0.7152425050735474,0.4304336607456207,0.397609144449234
1772458056151173000,7.915173095703125,0.7088128328323364,0.2973081171512604,0.39268550276756287
1772458056161242000,7.9252421875,0.6624027490615845,0.22026552259922028,0.4015820622444153
1772458056171310000,7.93531005859375,0.598560094833374,0.21118494868278503,0.41479480266571045
1772458056181378000,7.9453779296875,0.5343198776245117,0.23216958343982697,0.43373945355415344
1772458056191447000,7.955447021484375,0.4848273992538452,0.28493133187294006,0.45229288935661316
1772458056201515300,7.965515380859375,0.4455583095550537,0.3495129942893982,0.4788896143436432
1772458056211583200,7.975583251953125,0.41983455419540405,0.4289660155773163,0.49497485160827637
1772458056221651200,7.985651123046875,0.3935084044933319,0.4902019202709198,0.4966427981853485
1772458056231719000,7.995718994140625,0.37374696135520935,0.5164023637771606,0.4724748730659485
1772458056241788200,8.0057880859375,0.3667553663253784,0.4824864864349365,0.4338800609111786
1772458056251856100,8.015856201171875,0.3610444664955139,0.39370813965797424,0.37507322430610657
1772458056261925000,8.025925048828125,0.35293781757354736,0.27584463357925415,0.2943117916584015
1772458056271993000,8.0359931640625,0.34205561876296997,0.20376138389110565,0.23531584441661835
1772458056282061000,8.04606103515625,0.32359910011291504,0.2143583744764328,0.19338570535182953
1772458056292130000,8.056130126953125,0.3016522526741028,0.26727643609046936,0.1810683161020279
1772458056302198300,8.0661982421875,0.2802859842777252,0.3090478479862213,0.17463572323322296
1772458056312266000,8.076265869140625,0.2672916352748871,0.3414425551891327,0.1775588095188141
1772458056322335000,8.0863349609375,0.2579074501991272,0.37788283824920654,0.1908586323261261
1772458056332403200,8.0964033203125,0.2528109550476074,0.4064537584781647,0.2175869196653366
1772458056342471200,8.10647119140625,0.2567700147628784,0.4283444285392761,0.2511885464191437
1772458056352540000,8.116539794921875,0.2625485360622406,0.4534931778907776,0.3016732931137085
1772458056362608000,8.126608154296875,0.26871374249458313,0.4761742651462555,0.3482767641544342
1772458056372676000,8.136676025390624,0.281942218542099,0.4500822126865387,0.37079963088035583
1772458056382745000,8.1467451171875,0.29385319352149963,0.33966729044914246,0.3599717617034912
1772458056392813300,8.156813232421875,0.31399255990982056,0.18487077951431274,0.32690995931625366
1772458056402881000,8.166881103515625,0.3309400975704193,0.03178456053137779,0.2836535573005676
1772458056412950500,8.176950439453124,0.3421032726764679,-0.0860680416226387,0.23385722935199738
1772458056423018500,8.1870185546875,0.3519745469093323,-0.15555258095264435,0.18084114789962769
1772458056433086500,8.19708642578125,0.35089409351348877,-0.1802680343389511,0.1294512003660202
1772458056443155500,8.207155517578125,0.3463406264781952,-0.18562765419483185,0.09364926069974899
1772458056453223400,8.217223388671876,0.3272489607334137,-0.18480899930000305,0.06486448645591736
1772458056463291400,8.22729150390625,0.29967939853668213,-0.20435047149658203,0.021359883248806
1772458056473360600,8.237360595703125,0.2515888214111328,-0.25355398654937744,-0.03483760729432106
1772458056483428400,8.247428466796874,0.18768946826457977,-0.2548448145389557,-0.08901482820510864
1772458056493496300,8.257496337890625,0.13156281411647797,-0.1888253092765808,-0.1385440230369568
1772458056503565600,8.267565673828125,0.08292364329099655,-0.08766007423400879,-0.18393574655056
1772458056513633500,8.277633544921875,0.0402105376124382,0.05548270046710968,-0.19430449604988098
1772458056523701500,8.287701416015626,0.009814813733100891,0.23414431512355804,-0.18731769919395447
1772458056533770500,8.2977705078125,-0.02113031968474388,0.3835548460483551,-0.16574876010417938
1772458056543838500,8.30783837890625,-0.04331045597791672,0.44406241178512573,-0.15684260427951813
1772458056553907500,8.317907470703124,-0.061581604182720184,0.42984911799430847,-0.16577085852622986
1772458056563975400,8.327975341796876,-0.07266541570425034,0.3733117878437042,-0.17173713445663452
1772458056574043400,8.33804345703125,-0.07426916807889938,0.2944910228252411,-0.17923259735107422
1772458056584112400,8.3481123046875,-0.06766266375780106,0.21444545686244965,-0.18215888738632202
1772458056594180400,8.358180419921876,-0.06337045133113861,0.15354454517364502,-0.18672221899032593
1772458056604248600,8.36824853515625,-0.0653180181980133,0.11731517314910889,-0.18582366406917572
1772458056614317300,8.3783173828125,-0.07013967633247375,0.09745784848928452,-0.18844127655029297
1772458056624385300,8.38838525390625,-0.07905593514442444,0.0947217121720314,-0.20010219514369965
1772458056634453500,8.39845361328125,-0.08336067199707031,0.09882484376430511,-0.21556611359119415
1772458056644522500,8.4085224609375,-0.08491834998130798,0.11004447937011719,-0.2369246631860733
1772458056654590500,8.418590576171875,-0.09102151542901993,0.11762223392724991,-0.24636024236679077
1772458056664658400,8.428658447265626,-0.08755381405353546,0.11327116191387177,-0.25600966811180115
1772458056674727400,8.4387275390625,-0.08111722022294998,0.09704505652189255,-0.24972940981388092
1772458056684795400,8.44879541015625,-0.06827412545681,0.07654723525047302,-0.2451956421136856
1772458056694863600,8.458863525390624,-0.055335693061351776,0.05615061894059181,-0.22736231982707977
1772458056704932400,8.468932373046876,-0.05318838730454445,0.012269449420273304,-0.2029632329940796
1772458056715000300,8.479000244140625,-0.051652807742357254,-0.04291790723800659,-0.17816734313964844
1772458056725068300,8.489068359375,-0.048283111304044724,-0.10009091347455978,-0.14000611007213593
1772458056735137500,8.499137451171874,-0.04442072659730911,-0.1478528380393982,-0.10307445377111435
1772458056745205500,8.50920556640625,-0.03478860855102539,-0.18224437534809113,-0.0721767246723175
1772458056755273200,8.519273193359375,-0.025011876598000526,-0.18445000052452087,-0.03562270849943161
1772458056765342500,8.529342529296875,-0.025054752826690674,-0.17907361686229706,0.007968710735440254
1772458056775410400,8.539410400390626,-0.029289711266756058,-0.18886366486549377,0.041726939380168915
1772458056785478400,8.549478515625,-0.04114051163196564,-0.21302811801433563,0.07213038951158524
1772458056795547400,8.55954736328125,-0.052554287016391754,-0.23984801769256592,0.09153870493173599
1772458056805615400,8.569615478515624,-0.06297257542610168,-0.2757684588432312,0.10797573626041412
1772458056815683300,8.579683349609375,-0.0699513852596283,-0.29994598031044006,0.11581102013587952
1772458056825752600,8.589752685546875,-0.08488106727600098,-0.3154889941215515,0.10787346959114075
1772458056835820500,8.599820556640625,-0.1001628190279007,-0.34171923995018005,0.09145614504814148
1772458056845889300,8.60988916015625,-0.10825137048959732,-0.38210049271583557,0.06121249124407768
1772458056855957500,8.61995751953125,-0.10920212417840958,-0.43170586228370667,0.026224946603178978
1772458056866025500,8.630025390625,-0.11118032038211823,-0.46689262986183167,-0.015500396490097046
1772458056876094500,8.640094482421874,-0.11508797109127045,-0.47250044345855713,-0.05904680863022804
1772458056886162400,8.650162353515626,-0.1306762546300888,-0.4395808279514313,-0.09631668031215668
1772458056896230400,8.66023046875,-0.140338733792305,-0.3682541847229004,-0.13145922124385834
1772458056906299400,8.67029931640625,-0.15343455970287323,-0.28939878940582275,-0.16169887781143188
1772458056916367600,8.68036767578125,-0.16024000942707062,-0.21058307588100433,-0.19132602214813232
1772458056926435600,8.690435546875,-0.15717151761054993,-0.14672473073005676,-0.2130052149295807
1772458056936504300,8.70050439453125,-0.13797278702259064,-0.18017669022083282,-0.2510218322277069
1772458056946572500,8.710572509765624,-0.11949284374713898,-0.29124170541763306,-0.29581141471862793
1772458056956640500,8.720640625,-0.10513760149478912,-0.3600580394268036,-0.32494214177131653
1772458056966709200,8.730709228515625,-0.09195921570062637,-0.35779061913490295,-0.34589189291000366
1772458056976777500,8.740777587890625,-0.07357408851385117,-0.31054428219795227,-0.3600042462348938
1772458056986845400,8.750845458984376,-0.05064693093299866,-0.2381441295146942,-0.3573687970638275
1772458056996914400,8.76091455078125,-0.022103438153862953,-0.1729976087808609,-0.349260538816452
1772458057006982400,8.770982421875,0.0062363240867853165,-0.17653562128543854,-0.34013545513153076
1772458057017050600,8.781050537109374,0.03298671171069145,-0.25590527057647705,-0.34381622076034546
1772458057027119400,8.791119384765626,0.06724508106708527,-0.3614279627799988,-0.3537439703941345
1772458057037187300,8.801187255859375,0.08819377422332764,-0.4354571998119354,-0.36905738711357117
1772458057047255600,8.811255615234375,0.09931859374046326,-0.4708271622657776,-0.38184961676597595
1772458057057324300,8.82132421875,0.10776081681251526,-0.4646718204021454,-0.3890872895717621
1772458057067392300,8.831392333984375,0.1118285283446312,-0.42596808075904846,-0.39089080691337585
1772458057077460500,8.84146044921875,0.1146155297756195,-0.3675447106361389,-0.380869060754776
1772458057087529500,8.851529541015625,0.11589091271162033,-0.32245180010795593,-0.3576548099517822
1772458057097597400,8.861597412109376,0.12092135846614838,-0.2837401032447815,-0.3253522515296936
1772458057107665700,8.871665771484375,0.12614914774894714,-0.23543888330459595,-0.27181392908096313
1772458057117734400,8.881734375,0.13503505289554596,-0.20003162324428558,-0.21069705486297607
1772458057127802400,8.89180224609375,0.1416865587234497,-0.1889888346195221,-0.16222591698169708
1772458057137870600,8.90187060546875,0.14563283324241638,-0.20915694534778595,-0.12090405076742172
1772458057147939300,8.911939208984375,0.14546504616737366,-0.23338745534420013,-0.08354203402996063
1772458057158007300,8.92200732421875,0.1308581531047821,-0.2681606113910675,-0.04060335084795952
1772458057168075500,8.932075439453126,0.09922032803297043,-0.27947425842285156,0.019533487036824226
1772458057178144500,8.94214453125,0.05872323364019394,-0.25264424085617065,0.0935073122382164
1772458057188212500,8.95221240234375,0.033784329891204834,-0.18269231915473938,0.17051367461681366
1772458057198281500,8.962281494140624,0.03407035395503044,-0.08811334520578384,0.2449359893798828
1772458057208349400,8.972349365234376,0.05031483620405197,0.00566986994817853,0.3101291060447693
1772458057218417400,8.98241748046875,0.07302787154912949,0.0877508893609047,0.34969383478164673
1772458057228486700,8.992486572265625,0.09814334660768509,0.1430239975452423,0.37292778491973877
1772458057238554400,9.002554443359376,0.12815184891223907,0.1437704861164093,0.3676387369632721
1772458057248622300,9.012622314453125,0.15670067071914673,0.10254714637994766,0.345944881439209
1772458057258691600,9.022691650390625,0.17860595881938934,0.06479710340499878,0.3213016092777252
1772458057268759600,9.032759521484374,0.19626538455486298,0.04089949652552605,0.3007398545742035
1772458057278827500,9.04282763671875,0.20714519917964935,0.007762582041323185,0.26497042179107666
1772458057288896500,9.052896484375,0.20952925086021423,-0.04771745577454567,0.21791687607765198
1772458057298964500,9.062964599609375,0.19785502552986145,-0.11566534638404846,0.15347957611083984
1772458057309032400,9.073032470703126,0.17420296370983124,-0.1806185096502304,0.07497251033782959
1772458057319101400,9.083101318359375,0.13881567120552063,-0.2030487209558487,-0.00566880451515317
1772458057329169400,9.09316943359375,0.09703626483678818,-0.16847290098667145,-0.07784126698970795
1772458057339237400,9.1032373046875,0.05438680946826935,-0.07959283143281937,-0.12681493163108826
1772458057349306400,9.113306396484376,0.013423929922282696,0.04433390870690346,-0.15826207399368286
1772458057359374600,9.12337451171875,-0.01745302602648735,0.161091148853302,-0.16331835091114044
1772458057369442600,9.133442626953125,-0.04580450803041458,0.2505451440811157,-0.14875592291355133
1772458057379511300,9.14351123046875,-0.054429952055215836,0.2897420823574066,-0.11136513948440552
1772458057389579500,9.15357958984375,-0.05445551872253418,0.2961094081401825,-0.05378839746117592
1772458057399647500,9.1636474609375,-0.048042360693216324,0.276942640542984,0.017586451023817062
1772458057409716000,9.173716064453124,-0.04169764369726181,0.2453165501356125,0.08176090568304062
1772458057419784000,9.183783935546876,-0.03627012297511101,0.2116485983133316,0.13376206159591675
1772458057429851600,9.1938515625,-0.035050395876169205,0.17239493131637573,0.16429786384105682
1772458057439921000,9.2039208984375,-0.03459978848695755,0.12587323784828186,0.16472209990024567
1772458057449988900,9.21398876953125,-0.041312020272016525,0.07629849761724472,0.14102929830551147
1772458057460056800,9.224056884765625,-0.05603530630469322,0.04404016211628914,0.09871326386928558
1772458057470125800,9.234125732421875,-0.07259990274906158,0.03719796985387802,0.04198287054896355
1772458057480193800,9.24419384765625,-0.0822724997997284,0.07447317242622375,-0.0137815922498703
1772458057490261800,9.25426171875,-0.08868139982223511,0.14377367496490479,-0.060856159776449203
1772458057500331000,9.2643310546875,-0.0843159481883049,0.206068217754364,-0.10809051990509033
1772458057510399000,9.27439892578125,-0.07871345430612564,0.2527422308921814,-0.15077432990074158
1772458057520467700,9.2844677734375,-0.0634402260184288,0.3005691468715668,-0.16286560893058777
1772458057530536000,9.294535888671875,-0.0463150329887867,0.34459999203681946,-0.15815821290016174
1772458057540604000,9.30460400390625,-0.025601500645279884,0.3692086637020111,-0.14946378767490387
1772458057550673000,9.3146728515625,0.00497984467074275,0.3650493323802948,-0.14246153831481934
1772458057560740600,9.32474072265625,0.030607176944613457,0.3184751868247986,-0.14429593086242676
1772458057570808800,9.334808837890625,0.05915706232190132,0.27139368653297424,-0.1383325755596161
1772458057580877800,9.3448779296875,0.09266947954893112,0.2627629041671753,-0.10375888645648956
1772458057590945800,9.35494580078125,0.1389983594417572,0.2598249316215515,-0.05940553545951843
1772458057601014000,9.365013916015625,0.18865753710269928,0.21534399688243866,-0.02202301099896431
1772458057611082800,9.375082763671875,0.23286281526088715,0.1470690816640854,-0.0029286781791597605
1772458057621150700,9.385150634765624,0.27936694025993347,0.09310251474380493,-0.01010776124894619
1772458057631219000,9.395218994140626,0.32768893241882324,0.06730607151985168,-0.018125474452972412
1772458057641287700,9.40528759765625,0.3707176148891449,0.06549672037363052,-0.02437245100736618
1772458057651355600,9.415355712890625,0.4017255902290344,0.08871255815029144,-0.02749021351337433
1772458057661423900,9.425423828125,0.42614224553108215,0.15153147280216217,-0.01924906112253666
1772458057671492900,9.435492919921876,0.4458579123020172,0.25332868099212646,-0.013188506476581097
1772458057681560800,9.445560791015625,0.46485528349876404,0.31766822934150696,-0.035181157290935516
1772458057691629000,9.455629150390624,0.4799005687236786,0.3248822093009949,-0.077481210231781
1772458057701697800,9.46569775390625,0.4907689094543457,0.3253607749938965,-0.10217563807964325
1772458057711765800,9.475765869140625,0.48472461104393005,0.32438552379608154,-0.09484048932790756
1772458057721833700,9.485833740234375,0.460784912109375,0.3105567991733551,-0.05011057108640671
1772458057731902700,9.49590283203125,0.4321058690547943,0.27096545696258545,0.030068419873714447
1772458057741970700,9.505970703125,0.3920077085494995,0.22931228578090668,0.14459367096424103
1772458057752038700,9.51603857421875,0.34983229637145996,0.21233995258808136,0.2948737144470215
1772458057762108000,9.52610791015625,0.3146713972091675,0.21940265595912933,0.46416446566581726
1772458057772176000,9.53617578125,0.2910883128643036,0.23479679226875305,0.6207980513572693
1772458057782243800,9.546243896484375,0.28070756793022156,0.22999565303325653,0.7359997034072876
1772458057792312800,9.556312744140625,0.27468377351760864,0.19528880715370178,0.7892083525657654
1772458057802380800,9.566380859375,0.26053065061569214,0.14522457122802734,0.7924200892448425
1772458057812448800,9.57644873046875,0.23639576137065887,0.09302501380443573,0.7501733303070068
1772458057822517800,9.586517822265625,0.20279252529144287,0.061278004199266434,0.6776360273361206
1772458057832585700,9.596585693359375,0.17347031831741333,0.03255288302898407,0.5700773000717163
1772458057842654700,9.60665478515625,0.1445460021495819,0.01173442043364048,0.4632400870323181
1772458057852723000,9.616722900390625,0.11165595799684525,-0.008651012554764748,0.36120641231536865
1772458057862791000,9.626791015625,0.07732941210269928,-0.019952936097979546,0.28748399019241333
1772458057872859600,9.636859619140624,0.042640671133995056,0.0016857809387147427,0.2509635090827942
1772458057882927900,9.646927978515626,0.008762066252529621,0.05420384928584099,0.2577146291732788
1772458057892995800,9.656995849609375,-0.020312994718551636,0.1282474547624588,0.2782742381095886
1772458057903064800,9.66706494140625,-0.0338067002594471,0.22014035284519196,0.3016360104084015
1772458057913132800,9.6771328125,-0.032941173762083054,0.3394846022129059,0.32403454184532166
1772458057923200800,9.68720068359375,-0.0210067480802536,0.47197845578193665,0.33535563945770264
1772458057933269800,9.697269775390625,0.003602457931265235,0.5654000043869019,0.3312325179576874
1772458057943338000,9.707337890625,0.03496064618229866,0.5937528014183044,0.31217706203460693
1772458057953406000,9.717406005859376,0.0614796057343483,0.5626087784767151,0.27041658759117126
1772458057963474700,9.727474609375,0.06816999614238739,0.5245785713195801,0.21375170350074768
1772458057973543000,9.73754296875,0.07925274223089218,0.5050631761550903,0.1388803869485855
1772458057983611000,9.74761083984375,0.09068063646554947,0.5100824236869812,0.05392741411924362
1772458057993680000,9.757679931640626,0.10672378540039062,0.5142960548400879,-0.03988296911120415
1772458058003747600,9.76774755859375,0.11102452129125595,0.500453770160675,-0.13588114082813263
1772458058013815800,9.77781591796875,0.11230097711086273,0.46168026328086853,-0.22550874948501587
1772458058023884800,9.787884765625,0.10118866711854935,0.37284255027770996,-0.31592467427253723
1772458058033952800,9.797952880859375,0.06864697486162186,0.23946265876293182,-0.40231576561927795
1772458058044021000,9.80802099609375,0.02755679376423359,0.0527803897857666,-0.4847453832626343
1772458058054089700,9.81808984375,-0.026210032403469086,-0.1760256290435791,-0.5548653602600098
1772458058064157700,9.82815771484375,-0.0744587853550911,-0.36494842171669006,-0.6112966537475586
1772458058074226000,9.838225830078125,-0.11212147772312164,-0.459142804145813,-0.6484754681587219
1772458058084295000,9.848294921875,-0.13702602684497833,-0.43092477321624756,-0.6550207138061523
1772458058094362600,9.858362548828126,-0.13905055820941925,-0.2988671362400055,-0.6059637069702148
1772458058104430800,9.868430908203125,-0.12717287242412567,-0.11323387920856476,-0.4966537058353424
1772458058114499800,9.878499755859375,-0.10479006171226501,0.0783906802535057,-0.3733815848827362
1772458058124567800,9.88856787109375,-0.06892846524715424,0.23143641650676727,-0.2567172646522522
1772458058134636000,9.898635986328125,-0.02588379569351673,0.2913455665111542,-0.16312527656555176
1772458058144704800,9.908704833984375,0.02088024839758873,0.2559276521205902,-0.1095038577914238
1772458058154772700,9.918772705078124,0.06729088723659515,0.16715729236602783,-0.07237593084573746
1772458058164842000,9.928842041015624,0.09514355659484863,0.07345637679100037,-0.05480945110321045
1772458058174910000,9.938909912109375,0.1006387248635292,0.0038165762089192867,-0.04147926717996597
1772458058184977700,9.948977783203125,0.09851112961769104,-0.043593816459178925,-0.01315388549119234
1772458058195047000,9.959046875,0.09186973422765732,-0.07171120494604111,0.025413481518626213
1772458058205115000,9.969114990234376,0.08945664763450623,-0.12213869392871857,0.0715964213013649
1772458058215182800,9.979182861328125,0.0816437304019928,-0.18577119708061218,0.12136344611644745
1772458058225251800,9.989251953125,0.07777122408151627,-0.2515062689781189,0.16515779495239258
1772458058235319800,9.99931982421875,0.07859041541814804,-0.30339691042900085,0.18766391277313232
1772458058245387800,10.0093876953125,0.0778346136212349,-0.34600961208343506,0.181431844830513
1772458058255457000,10.01945703125,0.07226487249135971,-0.37109285593032837,0.16225095093250275
1772458058265525000,10.02952490234375,0.055522382259368896,-0.3954605162143707,0.11956501007080078
1772458058275592700,10.0395927734375,0.037458959966897964,-0.4124320447444916,0.07071331888437271
1772458058285662000,10.049661865234375,0.01080071646720171,-0.4104839265346527,0.018212027847766876
1772458058295730000,10.05972998046875,-0.013568805530667305,-0.3720846176147461,-0.028786374256014824
1772458058305798000,10.0697978515625,-0.046835947781801224,-0.3224180042743683,-0.06605544686317444
1772458058315866600,10.07986669921875,-0.07956939190626144,-0.2742166519165039,-0.08760149031877518
1772458058325934800,10.089934814453125,-0.11733940988779068,-0.24451759457588196,-0.1112586110830307
1772458058336002800,10.1000029296875,-0.1510358601808548,-0.23881736397743225,-0.12541544437408447
1772458058346071800,10.11007177734375,-0.17787306010723114,-0.2348945289850235,-0.1337229162454605
1772458058356139800,10.120139892578125,-0.1975833773612976,-0.22008788585662842,-0.13500389456748962
1772458058366207700,10.130207763671875,-0.21105125546455383,-0.18938803672790527,-0.1263273060321808
1772458058376276700,10.14027685546875,-0.21832753717899323,-0.1408202350139618,-0.10325741022825241
1772458058386345000,10.150344970703125,-0.22019389271736145,-0.08695167303085327,-0.06259839981794357
1772458058396413000,10.160412841796875,-0.21157456934452057,-0.0503702312707901,-0.01248143706470728
1772458058406482400,10.170482421875,-0.20012083649635315,-0.03973063454031944,0.03364531323313713
1772458058416550400,10.18055029296875,-0.18392908573150635,-0.0374339260160923,0.06736891716718674
1772458058426618400,10.190618408203125,-0.17212089896202087,-0.07590755075216293,0.07959895581007004
1772458058436687400,10.200687255859375,-0.16628511250019073,-0.1662483662366867,0.06668821722269058
1772458058446755300,10.21075537109375,-0.16331622004508972,-0.2661283612251282,0.02833869680762291
1772458058456823300,10.2208232421875,-0.17246977984905243,-0.32794272899627686,-0.009288040921092033
1772458058466892300,10.230892333984375,-0.1801399439573288,-0.32320576906204224,-0.03911198303103447
1772458058476960500,10.24096044921875,-0.1783580183982849,-0.25895699858665466,-0.06261970847845078
1772458058487029200,10.251029296875,-0.16852110624313354,-0.1729097217321396,-0.07493123412132263
1772458058497097200,10.26109716796875,-0.15320207178592682,-0.10276632755994797,-0.08379796147346497
1772458058507165400,10.27116552734375,-0.14013899862766266,-0.05899008363485336,-0.07804979383945465
1772458058517234400,10.281234375,-0.1294701099395752,-0.06082047522068024,-0.06010621413588524
1772458058527302100,10.29130224609375,-0.12643224000930786,-0.09130647778511047,-0.039801474660634995
1772458058537370400,10.301370361328125,-0.13054469227790833,-0.13177374005317688,-0.010331200435757637
1772458058547439400,10.311439453125,-0.1356438547372818,-0.15396080911159515,0.01786794699728489
1772458058557507300,10.32150732421875,-0.12967543303966522,-0.15673474967479706,0.045276667922735214
1772458058567575600,10.331575439453125,-0.12326334416866302,-0.14519260823726654,0.06229559704661369
1772458058577644300,10.341644287109375,-0.11282588541507721,-0.13570882380008698,0.06273742020130157
1772458058587712300,10.351712158203124,-0.09942299127578735,-0.1364944577217102,0.061232198029756546
1772458058597780500,10.361780517578126,-0.0855758860707283,-0.14863981306552887,0.04740559682250023
1772458058607849500,10.371849365234375,-0.07624390721321106,-0.19208954274654388,0.036672260612249374
1772458058617917200,10.381917236328125,-0.07343027740716934,-0.2493610978126526,0.011800467036664486
1772458058627985400,10.3919853515625,-0.06317870318889618,-0.29511740803718567,-0.01317838579416275
1772458058638054400,10.402054443359376,-0.05782228708267212,-0.33565470576286316,-0.036255210638046265
1772458058648122400,10.412122314453125,-0.0548776313662529,-0.37594592571258545,-0.058707788586616516
1772458058658190300,10.4221904296875,-0.050936948508024216,-0.3900412321090698,-0.08688483387231827
1772458058668259300,10.43225927734375,-0.05005384609103203,-0.38527897000312805,-0.11157792806625366
1772458058678327300,10.442327392578125,-0.048352085053920746,-0.36702805757522583,-0.12670521438121796
1772458058688395300,10.452395263671875,-0.04752011597156525,-0.3075692653656006,-0.11889415979385376
1772458058698464500,10.462464599609374,-0.05423527583479881,-0.2032356709241867,-0.08328477293252945
1772458058708532200,10.4725322265625,-0.05558842793107033,-0.07582712173461914,-0.024528512731194496
1772458058718600200,10.48260009765625,-0.06268468499183655,0.06719155609607697,0.06926535815000534
1772458058728669400,10.49266943359375,-0.0607064887881279,0.19967396557331085,0.17795401811599731
1772458058738737400,10.5027373046875,-0.05609389394521713,0.2862258851528168,0.28392013907432556
1772458058748805400,10.512805419921875,-0.046729955822229385,0.28941768407821655,0.3651776909828186
1772458058758874400,10.522874267578125,-0.03979108855128288,0.22846592962741852,0.40558159351348877
1772458058768942300,10.5329423828125,-0.024502946063876152,0.1307673305273056,0.41324830055236816
1772458058779010300,10.54301025390625,-0.01733904331922531,0.018609371036291122,0.38480308651924133
1772458058789079600,10.55307958984375,-0.011213239282369614,-0.07471524924039841,0.332941472530365
1772458058799147300,10.563147216796875,-0.00896979309618473,-0.13577061891555786,0.25748053193092346
1772458058809215200,10.57321533203125,-0.018612565472722054,-0.1723746955394745,0.16159474849700928
1772458058819284500,10.583284423828125,-0.01944134198129177,-0.2001591920852661,0.05489706993103027
1772458058829352400,10.5933525390625,-0.024701084941625595,-0.23036102950572968,-0.044387705624103546
1772458058839421200,10.603421142578124,-0.038442462682724,-0.26270273327827454,-0.12372753024101257
1772458058849489400,10.613489501953126,-0.059665728360414505,-0.250412255525589,-0.17544159293174744
1772458058859557400,10.623557373046875,-0.07427263259887695,-0.17428497970104218,-0.18068642914295197
1772458058869626400,10.63362646484375,-0.08846035599708557,-0.051659464836120605,-0.1403627097606659
1772458058879694300,10.6436943359375,-0.0875205248594284,0.09583944082260132,-0.08718949556350708
1772458058889762300,10.65376220703125,-0.075025774538517,0.22293081879615784,-0.03985420614480972
1772458058899831300,10.663831298828125,-0.04069576412439346,0.3048730790615082,-0.009388442151248455
1772458058909899500,10.6738994140625,0.0013275857781991363,0.33961722254753113,0.016688698902726173
1772458058919967500,10.683967529296876,0.030820230022072792,0.34894707798957825,0.03882009908556938
1772458058930036200,10.6940361328125,0.04728762060403824,0.3390049636363983,0.06281305104494095
1772458058940104200,10.704104248046875,0.0648660808801651,0.29768919944763184,0.08512581139802933
1772458058950172400,10.71417236328125,0.08808565139770508,0.23749804496765137,0.1056249663233757
1772458058960241400,10.724241455078126,0.09701576083898544,0.160585418343544,0.11691836267709732
1772458058970309400,10.734309326171875,0.10662471503019333,0.09225083142518997,0.11790160089731216
1772458058980377300,10.74437744140625,0.11744993180036545,0.04375547170639038,0.10297511518001556
1772458058990446300,10.7544462890625,0.12653504312038422,0.02002643793821335,0.07111598551273346
1772458059000514300,10.764514404296875,0.14577051997184753,0.024926122277975082,0.034027207642793655
1772458059010582500,10.77458251953125,0.17038264870643616,0.06562215089797974,-0.006178533658385277
1772458059020651300,10.7846513671875,0.18852171301841736,0.1300394982099533,-0.04476374387741089
1772458059030719200,10.79471923828125,0.19961324334144592,0.19686806201934814,-0.07654537260532379
1772458059040787500,10.804787353515625,0.20908983051776886,0.2530903220176697,-0.10305101424455643
1772458059050856400,10.8148564453125,0.20867517590522766,0.30874985456466675,-0.12261699885129929
1772458059060924400,10.82492431640625,0.21029624342918396,0.3519010543823242,-0.12429505586624146
1772458059070992400,10.834992431640625,0.2176998406648636,0.3596748113632202,-0.11568345874547958
1772458059081061400,10.845061279296875,0.2178598940372467,0.3087589144706726,-0.10906070470809937
1772458059091129300,10.85512939453125,0.21447554230690002,0.22837191820144653,-0.1007058396935463
1772458059101197300,10.865197265625,0.21509580314159393,0.16369599103927612,-0.07882770150899887
1772458059111266300,10.875266357421875,0.22790959477424622,0.11658839881420135,-0.04830814525485039
1772458059121334300,10.885334228515624,0.25036269426345825,0.09194803237915039,-0.02297802083194256
1772458059131402200,10.89540234375,0.2736278176307678,0.06986909359693527,-0.001386175281368196
1772458059141471500,10.905471435546875,0.2911418378353119,0.055573511868715286,0.016460731625556946
1772458059151539200,10.915539306640625,0.31163859367370605,0.0874350368976593,0.04089896380901337
1772458059161608400,10.9256083984375,0.3329193592071533,0.14625893533229828,0.05602385476231575
1772458059171676400,10.935676513671876,0.3523114323616028,0.19432739913463593,0.04554857686161995
1772458059181744400,10.945744384765625,0.36564987897872925,0.14397980272769928,-0.006143379956483841
1772458059191813400,10.9558134765625,0.3705431818962097,0.006764429155737162,-0.08481954783201218
1772458059201881300,10.96588134765625,0.361449271440506,-0.16095852851867676,-0.14310069382190704
1772458059211949300,10.97594921875,0.3236566185951233,-0.25898122787475586,-0.15358076989650726
1772458059222018300,10.986018310546875,0.2771192193031311,-0.2562522888183594,-0.10206058621406555
1772458059232086500,10.99608642578125,0.2360450178384781,-0.20497046411037445,-0.016760604456067085
1772458059242154200,11.006154296875,0.2119673788547516,-0.10843220353126526,0.09843416512012482
1772458059252223200,11.01622314453125,0.20523597300052643,0.02070714347064495,0.22929763793945312
1772458059262291500,11.02629150390625,0.21929587423801422,0.1469806581735611,0.3564334809780121
1772458059272359400,11.036359375,0.23873348534107208,0.2279578000307083,0.45119035243988037
1772458059282428200,11.04642822265625,0.24684840440750122,0.23532730340957642,0.49940234422683716
1772458059292496400,11.056496337890625,0.2540636956691742,0.1826222687959671,0.5158143639564514
1772458059302564400,11.066564453125,0.26284095644950867,0.14260268211364746,0.5094781517982483
1772458059312633300,11.07663330078125,0.2726387083530426,0.12206865102052689,0.4792883098125458
1772458059322701600,11.08670166015625,0.2678074836730957,0.09924003481864929,0.4411475658416748
1772458059332769300,11.096769287109375,0.24968652427196503,0.09237173944711685,0.4020606279373169
1772458059342838300,11.10683837890625,0.2259809374809265,0.08360274881124496,0.35804256796836853
1772458059352906500,11.116906494140625,0.19417133927345276,0.050876230001449585,0.3118439018726349
1772458059362974500,11.126974365234375,0.16474661231040955,-0.003201119601726532,0.26228514313697815
1772458059373043200,11.137043212890624,0.13256949186325073,-0.07777255773544312,0.20809541642665863
1772458059383111400,11.147111328125,0.10406461358070374,-0.13009542226791382,0.14736974239349365
1772458059393179400,11.157179443359375,0.08506802469491959,-0.13268321752548218,0.08482727408409119
1772458059403248400,11.167248291015625,0.0746859535574913,-0.11674392968416214,0.03298910707235336
1772458059413316400,11.17731640625,0.07223371416330338,-0.09702348709106445,-0.0029406624380499125
1772458059423384300,11.18738427734375,0.09121432900428772,-0.05138276517391205,-0.028422852978110313
1772458059433453300,11.197453369140625,0.13648194074630737,0.011548531241714954,-0.03977537527680397
1772458059443521300,11.207521240234374,0.22260510921478271,0.08282724022865295,-0.05230714753270149
1772458059453589200,11.21758935546875,0.33567360043525696,0.15804529190063477,-0.0676908940076828
1772458059463658200,11.227658203125,0.45808926224708557,0.19919753074645996,-0.09210356324911118
1772458059473726200,11.237726318359375,0.5562787055969238,0.20730791985988617,-0.09747036546468735
1772458059483794200,11.247794189453124,0.6192035675048828,0.194900244474411,-0.06781473010778427
1772458059493863400,11.257863525390626,0.642724335193634,0.21360336244106293,-0.005410211626440287
1772458059503931400,11.267931396484375,0.6439616680145264,0.27745744585990906,0.07599729299545288
1772458059514000400,11.27800048828125,0.6376374363899231,0.36616599559783936,0.1446426659822464
1772458059524068400,11.288068359375,0.6190773844718933,0.42173126339912415,0.19076809287071228
1772458059534136300,11.29813623046875,0.5928830504417419,0.4466310143470764,0.21015429496765137
1772458059544205300,11.308205322265625,0.5728709697723389,0.4326598048210144,0.21441349387168884
1772458059554273300,11.318273193359374,0.5672791600227356,0.40699732303619385,0.2028641700744629
1772458059564341200,11.32834130859375,0.5742545127868652,0.3706672787666321,0.18367528915405273
1772458059574410200,11.33841015625,0.5899999141693115,0.3497481644153595,0.14706134796142578
1772458059584478500,11.348478515625,0.6062875390052795,0.343588262796402,0.08981803804636002
1772458059594546400,11.35854638671875,0.6266553997993469,0.3371575176715851,0.021760422736406326
1772458059604615200,11.368615234375,0.632626473903656,0.33100321888923645,-0.00020399813365656883
1772458059614683400,11.378683349609375,0.5752819180488586,0.17575319111347198,-0.013370933011174202
1772458059624751400,11.38875146484375,0.5298177599906921,-0.04169311746954918,-0.08692876994609833
1772458059634820000,11.398820068359376,0.5064719915390015,-0.2599673867225647,-0.17823152244091034
1772458059644888300,11.408888427734375,0.4763100743293762,-0.4309053122997284,-0.2674386203289032
1772458059654956300,11.418956298828125,0.4341874122619629,-0.4438866376876831,-0.3726364076137543
1772458059665025300,11.429025390625,0.37788790464401245,-0.25775831937789917,-0.4577648937702179
1772458059675093500,11.439093505859375,0.3129163682460785,0.0866297036409378,-0.49259451031684875
1772458059685161500,11.449161376953125,0.26824235916137695,0.509265124797821,-0.47752395272254944
