time,seconds_elapsed,z,y,x
1772696862978158800,0.072158935546875,-0.003483920358121395,0.0502365417778492,-0.04062759876251221
1772696862988130000,0.082130126953125,0.11002834886312485,0.13638676702976227,-0.09673286974430084
1772696862998101000,0.09210107421875,0.225576251745224,0.16197335720062256,-0.135737806558609
1772696863008071000,0.10207080078125,0.28344541788101196,0.15427789092063904,-0.1607651263475418
1772696863018042000,0.1120419921875,0.3045821189880371,0.07280166447162628,-0.1693495512008667
1772696863028013000,0.122012939453125,0.30572399497032166,-0.02658926323056221,-0.14574283361434937
1772696863037984000,0.13198388671875,0.2815520763397217,-0.14577476680278778,-0.0871434360742569
1772696863047955000,0.141954833984375,0.23226526379585266,-0.2327890843153,0.007798459380865097
1772696863057926000,0.15192578125,0.16450779139995575,-0.25359928607940674,0.1350269913673401
1772696863067897000,0.16189697265625,0.10377859324216843,-0.2710498571395874,0.25134021043777466
1772696863077867000,0.171866943359375,0.056351423263549805,-0.3048589527606964,0.35974153876304626
1772696863087838000,0.181837890625,0.03248133882880211,-0.3169468641281128,0.44495731592178345
1772696863097809200,0.19180908203125,0.03310931473970413,-0.3316594958305359,0.4954383373260498
1772696863107780000,0.201780029296875,0.06437704712152481,-0.3789008557796478,0.49574506282806396
1772696863117750800,0.211750732421875,0.12716266512870789,-0.41079142689704895,0.4492340087890625
1772696863127722000,0.221721923828125,0.19374381005764008,-0.3731185793876648,0.37412598729133606
1772696863137693000,0.23169287109375,0.25495415925979614,-0.29318007826805115,0.2672770321369171
1772696863147663000,0.2416630859375,0.29022878408432007,-0.21087613701820374,0.14547421038150787
1772696863157634000,0.251634033203125,0.3046737611293793,-0.17832325398921967,0.016778282821178436
1772696863167605000,0.26160498046875,0.32550379633903503,-0.16662466526031494,-0.11485274881124496
1772696863177576200,0.271576171875,0.27461370825767517,-0.04709986224770546,-0.23163849115371704
1772696863187547000,0.281546875,0.2130221724510193,0.09052789211273193,-0.32517483830451965
1772696863197518000,0.29151806640625,0.17454561591148376,0.24171660840511322,-0.3917616009712219
1772696863207489000,0.301489013671875,0.18011794984340668,0.3540192246437073,-0.43724945187568665
1772696863217459000,0.311458984375,0.23134306073188782,0.3646918535232544,-0.46574047207832336
1772696863227430100,0.32143017578125,0.29727810621261597,0.2941860258579254,-0.4748636484146118
1772696863237401000,0.331401123046875,0.3504854142665863,0.21807101368904114,-0.4690084159374237
1772696863247375400,0.341375244140625,0.3786322772502899,0.16729366779327393,-0.4597824513912201
1772696863257346000,0.351345947265625,0.37624770402908325,0.14091426134109497,-0.4523594081401825
1772696863267317200,0.361317138671875,0.3504892885684967,0.11703132838010788,-0.4637434482574463
1772696863277288200,0.3712880859375,0.31165826320648193,0.0648469552397728,-0.48999422788619995
1772696863287259100,0.381259033203125,0.27667248249053955,0.02522028237581253,-0.5198385119438171
1772696863297229300,0.391229248046875,0.2676957845687866,0.031245950609445572,-0.5408881306648254
1772696863307200300,0.4012001953125,0.2855360805988312,0.08692563325166702,-0.5594479441642761
1772696863317171200,0.411171142578125,0.32189488410949707,0.18764719367027283,-0.5695235133171082
1772696863327142100,0.42114208984375,0.34769406914711,0.33943691849708557,-0.6421585083007812
1772696863337113000,0.431113037109375,0.39466744661331177,0.35034388303756714,-0.6264748573303223
1772696863347084300,0.441084228515625,0.45344361662864685,0.3099973201751709,-0.5745112299919128
1772696863357055200,0.45105517578125,0.44155633449554443,0.2780364751815796,-0.5249383449554443
1772696863367025200,0.461025146484375,0.39907392859458923,0.17452573776245117,-0.4665898382663727
1772696863376996400,0.470996337890625,0.35435545444488525,0.038192395120859146,-0.4052066504955292
1772696863386967300,0.48096728515625,0.2994093596935272,-0.05108020082116127,-0.33995750546455383
1772696863396938200,0.490938232421875,0.2615525424480438,-0.06645730137825012,-0.2813431918621063
1772696863406909200,0.5009091796875,0.2573481798171997,-0.013374367728829384,-0.23612995445728302
1772696863416880000,0.510880126953125,0.26790308952331543,0.080771304666996,-0.20694278180599213
1772696863426851300,0.520851318359375,0.3061279058456421,0.17709708213806152,-0.19179506599903107
1772696863436821200,0.5308212890625,0.3920649290084839,0.30554693937301636,-0.19445635378360748
1772696863446792200,0.540792236328125,0.47212186455726624,0.4500024616718292,-0.20815975964069366
1772696863456763400,0.550763427734375,0.6125905513763428,0.5706260800361633,-0.20740288496017456
1772696863466734000,0.560734130859375,0.8233965635299683,0.6196340918540955,-0.20067790150642395
1772696863476705300,0.570705322265625,1.0510014295578003,0.573800802230835,-0.18036383390426636
1772696863486676200,0.58067626953125,1.2214678525924683,0.4803885221481323,-0.16889525949954987
1772696863496647200,0.590647216796875,1.2841722965240479,0.4152910113334656,-0.15093223750591278
1772696863506618400,0.600618408203125,1.256812572479248,0.40074479579925537,-0.11560152471065521
1772696863516588300,0.61058837890625,1.1923410892486572,0.5072265267372131,-0.06429625302553177
1772696863526559200,0.620559326171875,1.1076987981796265,0.6740422248840332,0.006753573194146156
1772696863536530200,0.6305302734375,1.0045503377914429,0.8265409469604492,0.06567041575908661
1772696863546501000,0.640501220703125,0.8885318636894226,0.9004607200622559,0.09722837805747986
1772696863556472300,0.650472412109375,0.7473821640014648,0.9215319156646729,0.09841934591531754
1772696863566443300,0.660443359375,0.5567373037338257,0.9420610070228577,0.04440173879265785
1772696863576414200,0.670414306640625,0.3504704236984253,0.9036175012588501,-0.061175018548965454
1772696863586384400,0.68038427734375,0.16374275088310242,0.8349969983100891,-0.17891116440296173
1772696863596355000,0.69035498046875,0.023413879796862602,0.7509143352508545,-0.2931565046310425
1772696863606326000,0.700325927734375,-0.031737782061100006,0.6163959503173828,-0.3815508782863617
1772696863616297200,0.710297119140625,-0.019820669665932655,0.45106077194213867,-0.4484039545059204
1772696863626268200,0.72026806640625,0.038708608597517014,0.30485624074935913,-0.470704585313797
1772696863636239400,0.7302392578125,0.11550964415073395,0.21553967893123627,-0.4513532519340515
1772696863646210300,0.740210205078125,0.19099920988082886,0.15993435680866241,-0.4057951867580414
1772696863656180200,0.75018017578125,0.2840002477169037,0.16555148363113403,-0.311049222946167
1772696863666151200,0.760151123046875,0.39117127656936646,0.20042388141155243,-0.1806061714887619
1772696863676122000,0.7701220703125,0.509569525718689,0.22493641078472137,-0.02361549809575081
1772696863686093000,0.780093017578125,0.6053255200386047,0.21580243110656738,0.14916662871837616
1772696863696064300,0.790064208984375,0.6425861120223999,0.19358819723129272,0.31451350450515747
1772696863706035200,0.80003515625,0.6209771633148193,0.18611352145671844,0.45424893498420715
1772696863716006400,0.81000634765625,0.5562114715576172,0.2195630818605423,0.5482417345046997
1772696863725976300,0.819976318359375,0.48915112018585205,0.2642017900943756,0.568125307559967
1772696863735947000,0.829947021484375,0.4347957372665405,0.28107449412345886,0.5121490955352783
1772696863745918200,0.839918212890625,0.4077843427658081,0.253264456987381,0.3929476737976074
1772696863755889200,0.84988916015625,0.38323134183883667,0.22020713984966278,0.2230854034423828
1772696863765860400,0.8598603515625,0.382423460483551,0.20731040835380554,0.027903730049729347
1772696863775831300,0.869831298828125,0.4225141406059265,-0.00887461006641388,-0.1898200809955597
1772696863785802200,0.87980224609375,0.46712273359298706,-0.2675672769546509,-0.42761287093162537
1772696863795773200,0.889773193359375,0.5206514596939087,-0.3998648524284363,-0.6428756713867188
1772696863805743000,0.8997431640625,0.5366352200508118,-0.3615099787712097,-0.7804651260375977
1772696863815714000,0.909714111328125,0.4852953255176544,-0.2197083681821823,-0.8642878532409668
1772696863825685200,0.919685302734375,0.4051896333694458,-0.08813443779945374,-0.8903846144676208
1772696863835656200,0.92965625,0.3331362009048462,0.009187856689095497,-0.8567765951156616
1772696863845627400,0.93962744140625,0.2789645791053772,0.110260970890522,-0.7754925489425659
1772696863855598300,0.949598388671875,0.2283426821231842,0.20323298871517181,-0.6624355316162109
1772696863865569000,0.959569091796875,0.17245525121688843,0.2671239972114563,-0.5172806978225708
1772696863875539200,0.969539306640625,0.13185802102088928,0.3225393295288086,-0.34593290090560913
1772696863885510100,0.97951025390625,0.10735519230365753,0.37736624479293823,-0.16115541756153107
1772696863895481000,0.989481201171875,0.08822943270206451,0.4195517897605896,0.023139316588640213
1772696863905452300,0.999452392578125,0.0802290067076683,0.41675254702568054,0.167142853140831
1772696863915423200,1.00942333984375,0.13956370949745178,0.29942700266838074,0.289657324552536
1772696863925394200,1.019394287109375,0.22091613709926605,0.19703558087348938,0.3677414655685425
1772696863935365000,1.029365234375,0.27977120876312256,0.08503875136375427,0.397591233253479
1772696863945335000,1.0393349609375,0.31749460101127625,-0.03740301728248596,0.3933623433113098
1772696863955306200,1.04930615234375,0.34470757842063904,-0.13846811652183533,0.3557204306125641
1772696863965277200,1.059277099609375,0.3663899898529053,-0.2127780318260193,0.3035241365432739
1772696863975248100,1.069248046875,0.39580219984054565,-0.18285022675991058,0.24675194919109344
1772696863985219300,1.07921923828125,0.4344051778316498,-0.14689961075782776,0.21631833910942078
1772696863995190000,1.08918994140625,0.4294447898864746,-0.10013344138860703,0.18593300879001617
1772696864005161200,1.0991611328125,0.3967185318470001,-0.05036749690771103,0.14809273183345795
1772696864015131100,1.109131103515625,0.3380967676639557,-0.04012764245271683,0.08139732480049133
1772696864025102000,1.11910205078125,0.27194663882255554,-0.049116216599941254,0.01523104589432478
1772696864035073300,1.1290732421875,0.1963842660188675,-0.05263558402657509,-0.04690076783299446
1772696864045044200,1.139044189453125,0.12717454135417938,-0.05591098591685295,-0.08287771046161652
1772696864055015400,1.149015380859375,0.07627007365226746,-0.08806972205638885,-0.09882685542106628
1772696864064986000,1.158986083984375,0.03759581595659256,-0.13218088448047638,-0.10487557202577591
1772696864074957000,1.16895703125,0.013162114657461643,-0.21287094056606293,-0.1121116429567337
1772696864084928300,1.17892822265625,0.0029290630482137203,-0.31028100848197937,-0.12099798768758774
1772696864094898200,1.188898193359375,-0.02143060602247715,-0.4282371997833252,-0.1253749132156372
1772696864104869000,1.198869140625,-0.07111884653568268,-0.5430635809898376,-0.14386491477489471
1772696864114840300,1.20884033203125,-0.11279971152544022,-0.6307457685470581,-0.169101282954216
1772696864124811300,1.218811279296875,-0.09378460049629211,-0.693841278553009,-0.159035786986351
1772696864134782200,1.2287822265625,-0.13124701380729675,-0.6455089449882507,-0.17996689677238464
1772696864144753200,1.238753173828125,-0.1642664074897766,-0.598407506942749,-0.2109115868806839
1772696864154724000,1.24872412109375,-0.18277670443058014,-0.5307421684265137,-0.24518060684204102
1772696864164694300,1.2586943359375,-0.16648343205451965,-0.4634750485420227,-0.2682628035545349
1772696864174665200,1.268665283203125,-0.13831304013729095,-0.415301650762558,-0.2701323330402374
1772696864184636200,1.27863623046875,-0.09918422996997833,-0.37232282757759094,-0.22598882019519806
1772696864194607400,1.288607421875,-0.04848909378051758,-0.3388711214065552,-0.1400560736656189
1772696864204578000,1.298578125,-0.0031514635775238276,-0.3276679813861847,-0.026782480999827385
1772696864214549200,1.30854931640625,0.040156327188014984,-0.34506961703300476,0.09044374525547028
1772696864224520200,1.318520263671875,0.07166624069213867,-0.3964139521121979,0.18946056067943573
1772696864234490000,1.328489990234375,0.08640870451927185,-0.4759247601032257,0.2793225347995758
1772696864244461300,1.33846142578125,0.08492137491703033,-0.5923784971237183,0.3581153452396393
1772696864254428700,1.3484287109375,0.0709616169333458,-0.7343018054962158,0.4301708936691284
1772696864264399600,1.358399658203125,0.0416659340262413,-0.9113126397132874,0.4905596971511841
1772696864274370600,1.36837060546875,-0.06301067769527435,-1.0839616060256958,0.5091583728790283
1772696864284341500,1.378341552734375,-0.09976526349782944,-1.3749998807907104,0.5918126702308655
1772696864294312400,1.3883125,-0.11174735426902771,-1.5593286752700806,0.7548338174819946
1772696864304282600,1.39828271484375,-0.14588545262813568,-1.660205364227295,0.9131796360015869
1772696864314253600,1.408253662109375,-0.16212700307369232,-1.640092372894287,1.0075829029083252
1772696864324224500,1.418224609375,-0.14826825261116028,-1.4947847127914429,1.0250567197799683
1772696864334195700,1.42819580078125,-0.14547087252140045,-1.2397793531417847,0.9800078868865967
1772696864344166400,1.43816650390625,-0.115096814930439,-0.9065301418304443,0.8849167227745056
1772696864354137600,1.4481376953125,-0.06584671139717102,-0.5308643579483032,0.7628086805343628
1772696864364108500,1.458108642578125,-0.02506966143846512,-0.1723800003528595,0.6113651394844055
1772696864374078500,1.468078369140625,-0.02376578003168106,0.13377591967582703,0.4326787292957306
1772696864384049700,1.478049560546875,-0.038999464362859726,0.3805416226387024,0.2436530441045761
1772696864394020600,1.4880205078125,-0.08027659356594086,0.5504627823829651,0.043504778295755386
1772696864403991800,1.49799169921875,-0.12620235979557037,0.6297432780265808,-0.11871031671762466
1772696864413962500,1.50796240234375,-0.17613716423511505,0.6700963377952576,-0.2003050446510315
1772696864423933400,1.517933349609375,-0.20712041854858398,0.6772086024284363,-0.2050156593322754
1772696864433904600,1.527904541015625,-0.21542443335056305,0.6387312412261963,-0.1575821042060852
1772696864443874600,1.53787451171875,-0.2087400108575821,0.5583361387252808,-0.10200569033622742
1772696864453845500,1.547845458984375,-0.19083504378795624,0.4387527406215668,-0.04933156445622444
1772696864463816700,1.557816650390625,-0.16107970476150513,0.35026589035987854,0.022467104718089104
1772696864473787600,1.56778759765625,-0.15295226871967316,0.31169983744621277,0.09354181587696075
1772696864483758600,1.577758544921875,-0.18894226849079132,0.316216379404068,0.1335998922586441
1772696864493729500,1.5877294921875,-0.23828186094760895,0.372629314661026,0.12550973892211914
1772696864503700500,1.597700439453125,-0.282864511013031,0.44573017954826355,0.06993411481380463
1772696864513671700,1.607671630859375,-0.3360143005847931,0.5038991570472717,-0.03016132488846779
1772696864523641600,1.6176416015625,-0.37944212555885315,0.5111754536628723,-0.16061563789844513
1772696864533612500,1.627612548828125,-0.4224979877471924,0.47007325291633606,-0.34433114528656006
1772696864543583700,1.637583740234375,-0.45444202423095703,0.3573208153247833,-0.5429292917251587
1772696864553554400,1.647554443359375,-0.44408923387527466,0.19222214818000793,-0.6886816620826721
1772696864563525600,1.657525634765625,-0.41573408246040344,0.06808240711688995,-0.7178695201873779
1772696864573496600,1.66749658203125,-0.4499455988407135,0.06199974566698074,-0.7115985751152039
1772696864583467500,1.677467529296875,-0.3537420928478241,-0.015368018299341202,-0.5831392407417297
1772696864593437700,1.687437744140625,-0.2747860252857208,0.020003287121653557,-0.4152098298072815
1772696864603408600,1.69740869140625,-0.21468259394168854,0.06651419401168823,-0.26259133219718933
1772696864613379600,1.707379638671875,-0.1147855594754219,0.1459493637084961,-0.13194487988948822
1772696864623350500,1.7173505859375,0.01666787639260292,0.21828898787498474,-0.048445090651512146
1772696864633321500,1.727321533203125,0.17141830921173096,0.2566968500614166,0.0009602757636457682
1772696864643292700,1.737292724609375,0.33430352807044983,0.27857133746147156,0.0422743484377861
1772696864653263600,1.747263671875,0.49429187178611755,0.28981921076774597,0.09010312706232071
1772696864663233500,1.757233642578125,0.6261284947395325,0.27401384711265564,0.13897766172885895
1772696864673204700,1.767204833984375,0.701395571231842,0.21245646476745605,0.17397719621658325
1772696864683175700,1.77717578125,0.7126075625419617,0.10259566456079483,0.18100012838840485
1772696864693146400,1.787146484375,0.6641404628753662,-0.024949507787823677,0.17000260949134827
1772696864703117600,1.79711767578125,0.5292249321937561,-0.14717154204845428,0.1346227377653122
1772696864713088500,1.807088623046875,0.32792508602142334,-0.23339325189590454,0.07594317197799683
1772696864723059700,1.817059814453125,0.09130901843309402,-0.28578394651412964,0.0010925291571766138
1772696864733029600,1.827029541015625,-0.15219445526599884,-0.30555737018585205,-0.07776793837547302
1772696864743000600,1.83700048828125,-0.36592936515808105,-0.28823378682136536,-0.1570674329996109
1772696864752971800,1.8469716796875,-0.5171681642532349,-0.2237221747636795,-0.23254887759685516
1772696864762942500,1.8569423828125,-0.5953559279441833,-0.12536950409412384,-0.3019164204597473
1772696864772913700,1.86691357421875,-0.6008756160736084,-0.02353687398135662,-0.3512094020843506
1772696864782884600,1.876884521484375,-0.5575199723243713,0.03738657012581825,-0.3981013298034668
1772696864792855600,1.88685546875,-0.47719481587409973,0.03564486280083656,-0.4363166391849518
1772696864802825700,1.89682568359375,-0.3767937123775482,-0.014155375771224499,-0.46807441115379333
1772696864812796700,1.906796630859375,-0.2698318362236023,-0.08408918976783752,-0.47171735763549805
1772696864822767600,1.916767578125,-0.17905598878860474,-0.13490724563598633,-0.4347103536128998
1772696864832738600,1.926738525390625,-0.11055203527212143,-0.13752886652946472,-0.35952186584472656
1772696864842709500,1.93670947265625,-0.06546127796173096,-0.10759730637073517,-0.25386491417884827
1772696864852680700,1.9466806640625,-0.03877533599734306,-0.07421484589576721,-0.12483368813991547
1772696864862651600,1.956651611328125,-0.02805250696837902,-0.04038991779088974,0.0018578225281089544
1772696864872621600,1.96662158203125,-0.028457308188080788,-0.014367901720106602,0.09219597280025482
1772696864882592800,1.9765927734375,-0.013404272496700287,0.013011479750275612,0.14240190386772156
1772696864892563500,1.9865634765625,0.014879031106829643,0.028602156788110733,0.14254358410835266
1772696864902534400,1.996534423828125,0.041607748717069626,0.03169364854693413,0.10297597944736481
1772696864912505600,2.006505615234375,0.055313173681497574,0.02641739323735237,0.04341145232319832
1772696864922476500,2.0164765625,0.04596056789159775,0.0030029984191060066,-0.012165440246462822
1772696864932447700,2.02644775390625,0.015289206989109516,-0.04471499100327492,-0.051835089921951294
1772696864942417700,2.036417724609375,-0.018134573474526405,-0.11616995930671692,-0.06020088866353035
1772696864952388600,2.046388671875,-0.036115169525146484,-0.21106743812561035,-0.03679782897233963
1772696864962359600,2.056359619140625,-0.0490066334605217,-0.3183596432209015,-0.00847124308347702
1772696864972330500,2.06633056640625,-0.060964226722717285,-0.4226762056350708,0.028798630461096764
1772696864982301400,2.076301513671875,-0.08777786046266556,-0.47849270701408386,0.05293668806552887
1772696864992272600,2.086272705078125,-0.12459047138690948,-0.495440810918808,0.05687524005770683
1772696865002243600,2.09624365234375,-0.16427259147167206,-0.4745595455169678,0.04352349042892456
1772696865012213500,2.106213623046875,-0.19802896678447723,-0.4220217764377594,0.008372158743441105
1772696865022184700,2.116184814453125,-0.21418768167495728,-0.34021613001823425,-0.01225942000746727
1772696865032155400,2.1261552734375,-0.20512202382087708,-0.2340710461139679,-0.01652367413043976
1772696865042126600,2.136126708984375,-0.18958108127117157,-0.13991156220436096,-0.013460230082273483
1772696865052097500,2.14609765625,-0.1746830940246582,-0.044672396034002304,-0.003779107239097357
1772696865062068700,2.15606884765625,-0.17035825550556183,0.06682895123958588,0.006049371790140867
1772696865072039700,2.166039794921875,-0.1713327020406723,0.17119264602661133,0.018753448501229286
1772696865082009600,2.176009521484375,-0.17935001850128174,0.24364593625068665,0.023652901872992516
1772696865091980800,2.185980712890625,-0.15987485647201538,0.2548131048679352,0.0233295951038599
1772696865101951500,2.195951416015625,-0.12439702451229095,0.21004828810691833,0.018204340711236
1772696865111922400,2.20592236328125,-0.07576663047075272,0.1315670609474182,0.018941238522529602
1772696865121893600,2.2158935546875,-0.04141034185886383,0.03477269783616066,0.022755052894353867
1772696865131864600,2.225864501953125,-0.013139554299414158,-0.04753442853689194,0.027300270274281502
1772696865141835800,2.235835693359375,0.0012144497595727444,-0.10523910820484161,0.03697274625301361
1772696865151805700,2.2458056640625,0.007316284347325563,-0.1422804743051529,0.0438077487051487
1772696865161776600,2.255776611328125,0.0229155533015728,-0.14865988492965698,0.05659276619553566
1772696865171747600,2.26574755859375,0.05497149005532265,-0.14501294493675232,0.056685712188482285
1772696865181718500,2.275718505859375,0.08995863050222397,-0.12831825017929077,0.03514545038342476
1772696865191689500,2.285689453125,0.12396426498889923,-0.09419755637645721,-0.014175759628415108
1772696865201660700,2.29566064453125,0.15574994683265686,-0.01236000470817089,-0.062129564583301544
1772696865211631600,2.305631591796875,0.169206902384758,0.09698033332824707,-0.10037469118833542
1772696865221601500,2.3156015625,0.17198844254016876,0.2166392207145691,-0.12221886217594147
1772696865231572700,2.32557275390625,0.1582965850830078,0.3344358801841736,-0.11691277474164963
1772696865241543400,2.33554345703125,0.13098914921283722,0.4196372628211975,-0.09325307607650757
1772696865251518000,2.34551806640625,0.10937067121267319,0.458344966173172,-0.053926970809698105
1772696865261489200,2.3554892578125,0.1030631735920906,0.4346168041229248,0.0020803886000066996
1772696865271460000,2.365460205078125,0.10583791881799698,0.35136932134628296,0.06372777372598648
1772696865281431300,2.375431396484375,0.12255463749170303,0.22536474466323853,0.12054811418056488
1772696865291401200,2.385401123046875,0.15177537500858307,0.06495189666748047,0.1867803931236267
1772696865301372200,2.3953720703125,0.14568647742271423,-0.05771053209900856,0.2327912300825119
1772696865311343000,2.405343017578125,0.23159419000148773,-0.27652356028556824,0.3212236166000366
1772696865321314000,2.41531396484375,0.3017609417438507,-0.364053338766098,0.4326508641242981
1772696865331285000,2.425284912109375,0.34313422441482544,-0.41413938999176025,0.5286373496055603
1772696865341256200,2.435256103515625,0.3835194706916809,-0.39984115958213806,0.5934866070747375
1772696865351227100,2.44522705078125,0.4069179892539978,-0.376495897769928,0.6141183972358704
1772696865361197000,2.455197021484375,0.4185965359210968,-0.34523630142211914,0.6129539608955383
1772696865371168300,2.465168212890625,0.4174513816833496,-0.28508082032203674,0.5975545048713684
1772696865381139000,2.475138916015625,0.4256052076816559,-0.20323127508163452,0.5820515751838684
1772696865391110100,2.485110107421875,0.4297994375228882,-0.12054410576820374,0.5723275542259216
1772696865401081000,2.4950810546875,0.4474358856678009,-0.0911339595913887,0.5513105988502502
1772696865411052000,2.505052001953125,0.4769365191459656,-0.0969415158033371,0.5093386769294739
1772696865421023200,2.515023193359375,0.4823661148548126,-0.1405099630355835,0.4259285628795624
1772696865430993200,2.5249931640625,0.44725847244262695,-0.21294021606445312,0.31060221791267395
1772696865440964000,2.534964111328125,0.388599157333374,-0.2921812832355499,0.1537279635667801
1772696865450935000,2.54493505859375,0.3230403959751129,-0.3845788538455963,-0.01945553906261921
1772696865460906000,2.554906005859375,0.2345985323190689,-0.4412539601325989,-0.1552763730287552
1772696865470877200,2.564877197265625,0.14646442234516144,-0.4377577602863312,-0.2026020735502243
1772696865480848100,2.57484814453125,0.08915272355079651,-0.35993465781211853,-0.15584763884544373
1772696865490819000,2.584819091796875,0.07088690251111984,-0.23024004697799683,-0.046884406358003616
1772696865500789200,2.594789306640625,0.09556381404399872,-0.04678827151656151,0.10597816854715347
1772696865510760200,2.60476025390625,0.1676047146320343,0.15232323110103607,0.2722930908203125
1772696865520731000,2.61473095703125,0.27458491921424866,0.3290857970714569,0.42112377285957336
1772696865530702000,2.6247021484375,0.40090665221214294,0.44842469692230225,0.5417578220367432
1772696865540673000,2.634673095703125,0.5314697027206421,0.4902315139770508,0.6359805464744568
1772696865550644200,2.644644287109375,0.651245653629303,0.464884877204895,0.685577392578125
1772696865560615200,2.654615234375,0.7165173888206482,0.3982200622558594,0.683641791343689
1772696865570585000,2.664585205078125,0.8168317675590515,0.2386050969362259,0.7008320093154907
1772696865580556000,2.67455615234375,0.8547378182411194,0.10226459056138992,0.7042226791381836
1772696865590527000,2.68452685546875,0.857155442237854,-0.03060317598283291,0.7029007077217102
1772696865600498200,2.694498291015625,0.8350409269332886,-0.1261390894651413,0.6827661395072937
1772696865610469000,2.70446923828125,0.7904417514801025,-0.1972140669822693,0.6405933499336243
1772696865620440000,2.714440185546875,0.7153454422950745,-0.24223937094211578,0.5973520874977112
1772696865630411300,2.724411376953125,0.6095175743103027,-0.2408076524734497,0.5709689259529114
1772696865640382000,2.7343818359375,0.48218077421188354,-0.20768103003501892,0.5519024133682251
1772696865650352000,2.74435205078125,0.35321637988090515,-0.14010117948055267,0.5251024961471558
1772696865660323000,2.754322998046875,0.2462456077337265,-0.047865916043519974,0.469440758228302
1772696865670294000,2.7642939453125,0.17932036519050598,0.041426945477724075,0.3847176134586334
1772696865680265200,2.77426513671875,0.14844255149364471,0.109881691634655,0.2762782871723175
1772696865690236200,2.784236083984375,0.1467525064945221,0.15345978736877441,0.1569329798221588
1772696865700207000,2.79420703125,0.16168196499347687,0.1864161193370819,0.054523490369319916
1772696865710177300,2.80417724609375,0.18663418292999268,0.208637535572052,-0.032793305814266205
1772696865720148000,2.81414794921875,0.2253207117319107,0.23500271141529083,-0.09783843159675598
1772696865730119000,2.824118896484375,0.2830471098423004,0.30584996938705444,-0.1586218774318695
1772696865740090000,2.834090087890625,0.36666974425315857,0.44588547945022583,-0.22861063480377197
1772696865750061000,2.84406103515625,0.4560161232948303,0.638714611530304,-0.33144646883010864
1772696865760032300,2.8540322265625,0.5460755825042725,0.8454135656356812,-0.4486011266708374
1772696865770003200,2.864003173828125,0.627027690410614,1.0442135334014893,-0.5551206469535828
1772696865779973000,2.87397314453125,0.680584192276001,1.1962727308273315,-0.6320279836654663
1772696865789944000,2.883944091796875,0.7032338976860046,1.2842843532562256,-0.6577786207199097
1772696865799915000,2.8939150390625,0.6952168941497803,1.3174471855163574,-0.6215686202049255
1772696865809886000,2.903885986328125,0.6374108791351318,1.337961196899414,-0.5568026900291443
1772696865819857200,2.913857177734375,0.6408321261405945,1.2195008993148804,-0.4300038814544678
1772696865829828000,2.923828125,0.6703519225120544,1.105366587638855,-0.25880682468414307
1772696865839799000,2.933799072265625,0.6669474244117737,0.9496435523033142,-0.1191641241312027
1772696865849769200,2.943769287109375,0.6651913523674011,0.7733854055404663,-0.031289663165807724
1772696865859740000,2.953739990234375,0.6626135110855103,0.6344220638275146,-0.0017638225108385086
1772696865869711000,2.963711181640625,0.6545723676681519,0.5530334711074829,-0.025503506883978844
1772696865879682000,2.97368212890625,0.6404969096183777,0.5081151723861694,-0.08655932545661926
1772696865889653000,2.983653076171875,0.6200954914093018,0.48030751943588257,-0.171198308467865
1772696865899624200,2.993624267578125,0.6042556166648865,0.457839697599411,-0.24903127551078796
1772696865909595100,3.00359521484375,0.5809425711631775,0.43815627694129944,-0.2901504933834076
1772696865919565300,3.0135654296875,0.5612812042236328,0.4116641581058502,-0.29642266035079956
1772696865929536000,3.023535888671875,0.5516461730003357,0.34631234407424927,-0.28070068359375
1772696865939507000,3.0335068359375,0.5551588535308838,0.24515700340270996,-0.2629868686199188
1772696865949478100,3.04347802734375,0.5610377788543701,0.1342608481645584,-0.2361520379781723
1772696865959449000,3.053448974609375,0.5734648704528809,0.022313877940177917,-0.21257220208644867
1772696865969420300,3.063420166015625,0.5962519645690918,-0.07580497115850449,-0.1993650496006012
1772696865979391000,3.073390869140625,0.6160829067230225,-0.15017566084861755,-0.1977633684873581
1772696865989361200,3.083361083984375,0.625011146068573,-0.1764885038137436,-0.21094867587089539
1772696865999332000,3.09333203125,0.6244570016860962,-0.16856934130191803,-0.24800997972488403
1772696866009303000,3.103302978515625,0.6118881702423096,-0.13205313682556152,-0.300615131855011
1772696866019274000,3.11327392578125,0.5987252593040466,-0.06914130598306656,-0.3554953932762146
1772696866029245200,3.1232451171875,0.5926753878593445,0.0025685697328299284,-0.3972127437591553
1772696866039216000,3.133216064453125,0.608634889125824,0.08162984251976013,-0.42526519298553467
1772696866049187000,3.14318701171875,0.6360734105110168,0.17903603613376617,-0.4340914487838745
1772696866059157200,3.1531572265625,0.6573491096496582,0.25925132632255554,-0.43164536356925964
1772696866069128000,3.1631279296875,0.6648685336112976,0.3142660856246948,-0.4206206798553467
1772696866079099100,3.17309912109375,0.6534422636032104,0.34926244616508484,-0.38912433385849
1772696866089070000,3.183070068359375,0.6252630949020386,0.37692388892173767,-0.3291832506656647
1772696866099041000,3.193041015625,0.591301679611206,0.40425318479537964,-0.27659696340560913
1772696866109012200,3.20301220703125,0.5487858653068542,0.41703981161117554,-0.23629878461360931
1772696866118983000,3.21298291015625,0.5117385387420654,0.4312964081764221,-0.22667647898197174
1772696866128953000,3.222953125,0.47730815410614014,0.4412345290184021,-0.2273654341697693
1772696866138924000,3.232924072265625,0.4424908459186554,0.4509482979774475,-0.2342526614665985
1772696866148895000,3.24289501953125,0.4064375162124634,0.445269912481308,-0.23546387255191803
1772696866158866200,3.2528662109375,0.37541845440864563,0.4375322461128235,-0.21572154760360718
1772696866168837000,3.262837158203125,0.34840652346611023,0.4456716775894165,-0.17289738357067108
1772696866178808000,3.27280810546875,0.33495256304740906,0.4604247212409973,-0.12122880667448044
1772696866188779000,3.282779052734375,0.33949699997901917,0.47022488713264465,-0.0773705393075943
1772696866198749200,3.292749267578125,0.3550778925418854,0.46089309453964233,-0.04633216932415962
1772696866208720000,3.302719970703125,0.3784330189228058,0.4477253556251526,-0.021919239312410355
1772696866218691000,3.312691162109375,0.409749299287796,0.4160064160823822,0.002764956559985876
1772696866228662000,3.322662109375,0.44009625911712646,0.3658287525177002,0.030402710661292076
1772696866238633200,3.33263330078125,0.4748893082141876,0.299508661031723,0.07559473812580109
1772696866248600600,3.3426005859375,0.5081666111946106,0.23659442365169525,0.13423115015029907
1772696866258571500,3.352571533203125,0.5453731417655945,0.17444920539855957,0.16812777519226074
1772696866268541700,3.362541748046875,0.5974741578102112,0.1384507268667221,0.17547118663787842
1772696866278512400,3.372512451171875,0.6531816720962524,0.13726213574409485,0.16680753231048584
1772696866288483600,3.382483642578125,0.7009997963905334,0.11177141964435577,0.14259140193462372
1772696866298454500,3.39245458984375,0.7347788214683533,0.05669161677360535,0.10243522375822067
1772696866308425700,3.40242578125,0.7505438923835754,-0.030517056584358215,0.07912377268075943
1772696866318396700,3.412396728515625,0.7451589107513428,-0.13991883397102356,0.0961158499121666
1772696866328367400,3.422367431640625,0.7295415997505188,-0.2630074620246887,0.17320531606674194
1772696866338337500,3.432337646484375,0.7099599838256836,-0.3857417404651642,0.3070267140865326
1772696866348308500,3.44230859375,0.6919271945953369,-0.4853309094905853,0.4783870279788971
1772696866358279400,3.452279541015625,0.6861810684204102,-0.5596646666526794,0.6630488634109497
1772696866368250600,3.462250732421875,0.6997836828231812,-0.5665190815925598,0.8331039547920227
1772696866378221600,3.4722216796875,0.7091077566146851,-0.5105357766151428,0.9658825397491455
1772696866388192800,3.48219287109375,0.7265384197235107,-0.3889369070529938,1.0410054922103882
1772696866398162700,3.49216259765625,0.757682740688324,-0.17506402730941772,1.1252468824386597
1772696866408133600,3.502133544921875,0.7864118814468384,0.0027070289943367243,1.1643996238708496
1772696866418104600,3.5121044921875,0.8132563233375549,0.11834221333265305,1.1410467624664307
1772696866428075500,3.522075439453125,0.8319839239120483,0.16790390014648438,1.0518490076065063
1772696866438046700,3.532046630859375,0.8351207375526428,0.13499696552753448,0.9056103825569153
1772696866448017700,3.542017578125,0.8423780798912048,0.01746288500726223,0.730487585067749
1772696866457988600,3.551988525390625,0.8726799488067627,-0.10534889250993729,0.574434757232666
1772696866467958800,3.561958740234375,0.9144795536994934,-0.17308558523654938,0.45375385880470276
1772696866477929500,3.571929443359375,0.954672634601593,-0.19978207349777222,0.37809470295906067
1772696866487900400,3.581900390625,0.993590772151947,-0.20490147173404694,0.3314893841743469
1772696866497871600,3.59187158203125,1.0463387966156006,-0.19789937138557434,0.32962021231651306
1772696866507842600,3.601842529296875,1.122206687927246,-0.1589096188545227,0.36645251512527466
1772696866517813800,3.611813720703125,1.198420524597168,-0.10636432468891144,0.43812817335128784
1772696866527784700,3.62178466796875,1.2634767293930054,-0.021813761442899704,0.5151329636573792
1772696866537754600,3.631754638671875,1.3186544179916382,0.08662191778421402,0.5489014983177185
1772696866547725600,3.6417255859375,1.3542356491088867,0.204873189330101,0.5344266891479492
1772696866557696500,3.651696533203125,1.3831400871276855,0.3232569992542267,0.48793449997901917
1772696866567667500,3.66166748046875,1.402526617050171,0.4163280725479126,0.3959539532661438
1772696866577638700,3.671638671875,1.4129834175109863,0.4853963553905487,0.27839961647987366
1772696866587609600,3.681609619140625,1.4112985134124756,0.5115883350372314,0.14408519864082336
1772696866597580500,3.69158056640625,1.3976365327835083,0.49409762024879456,0.01871277019381523
1772696866607550700,3.70155078125,1.3644232749938965,0.45316243171691895,-0.08521975576877594
1772696866617521400,3.711521484375,1.334174633026123,0.39605608582496643,-0.14530755579471588
1772696866627492600,3.72149267578125,1.304065227508545,0.35540133714675903,-0.17312133312225342
1772696866637463600,3.731463623046875,1.2765414714813232,0.30883586406707764,-0.1838488131761551
1772696866647434500,3.7414345703125,1.2479848861694336,0.2775498330593109,-0.1946021169424057
1772696866657405700,3.75140576171875,1.2163381576538086,0.26097938418388367,-0.21866151690483093
1772696866667376600,3.761376708984375,1.1835527420043945,0.27618736028671265,-0.27048689126968384
1772696866677346600,3.7713466796875,1.1591072082519531,0.32540908455848694,-0.3452717065811157
1772696866687317500,3.7813173828125,1.1324125528335571,0.3841070234775543,-0.43570253252983093
1772696866697288400,3.791288330078125,1.100644588470459,0.4381812810897827,-0.5583125352859497
1772696866707259600,3.801259765625,1.056186556816101,0.4790666401386261,-0.6768591403961182
1772696866717230600,3.811230712890625,0.9852539896965027,0.4603484570980072,-0.8016595840454102
1772696866727201800,3.821201904296875,0.9077357649803162,0.39625948667526245,-0.9211457967758179
1772696866737172500,3.83117236328125,0.8163281083106995,0.3306064307689667,-1.017722487449646
1772696866747142700,3.841142578125,0.7277332544326782,0.27972832322120667,-1.1072176694869995
1772696866757113600,3.851113525390625,0.6447833776473999,0.2788453698158264,-1.1706992387771606
1772696866767084500,3.86108447265625,0.5721025466918945,0.35274118185043335,-1.1991660594940186
1772696866777055500,3.871055419921875,0.5079013109207153,0.4801037013530731,-1.195500373840332
1772696866787026700,3.881026611328125,0.4639509618282318,0.5826482176780701,-1.1482843160629272
1772696866796997600,3.89099755859375,0.4699905812740326,0.6809844970703125,-1.0247184038162231
1772696866806967600,3.900967529296875,0.5515440106391907,0.773212194442749,-0.8526517748832703
1772696866816938800,3.910938720703125,0.696125864982605,0.8210655450820923,-0.6725749373435974
1772696866826909400,3.920909423828125,0.8742716312408447,0.8231343030929565,-0.5055111050605774
1772696866836880600,3.930880615234375,1.0505285263061523,0.7947478890419006,-0.3567821979522705
1772696866846851600,3.9408515625,1.1894861459732056,0.7589121460914612,-0.23417425155639648
1772696866856822500,3.950822509765625,1.2764681577682495,0.6994189620018005,-0.14192496240139008
1772696866866793700,3.960793701171875,1.319926142692566,0.6123008131980896,-0.07142549008131027
1772696866876763600,3.970763671875,1.329418659210205,0.5080006122589111,0.000044024549424648285
1772696866886734600,3.980734619140625,1.3213034868240356,0.3924369812011719,0.06360355764627457
1772696866896705500,3.99070556640625,1.289122462272644,0.2833540737628937,0.1126396432518959
1772696866906676500,4.000676513671875,1.2442519664764404,0.1974351853132248,0.14434535801410675
1772696866916647700,4.010647705078125,1.185278058052063,0.1334671825170517,0.13714756071567535
1772696866926618600,4.02061865234375,1.1215791702270508,0.08035282790660858,0.08410990983247757
1772696866936589600,4.030589599609375,1.054305076599121,0.0385872945189476,0.015035681426525116
1772696866946559700,4.040559814453125,0.9898064732551575,-0.006079243961721659,-0.06185990199446678
1772696866956530700,4.05053076171875,0.9324079155921936,-0.05268111079931259,-0.12110879272222519
1772696866966501400,4.06050146484375,0.8794988989830017,-0.09912770986557007,-0.15586251020431519
1772696866976472600,4.07047265625,0.8449485898017883,-0.1575331836938858,-0.15024371445178986
1772696866986443500,4.080443603515625,0.8116194009780884,-0.20643174648284912,-0.10526745021343231
1772696866996414700,4.090414794921875,0.7803149819374084,-0.23652251064777374,-0.04615803062915802
1772696867006385700,4.1003857421875,0.7573670148849487,-0.2560751736164093,0.0018449164927005768
1772696867016355600,4.11035546875,0.7357674837112427,-0.26448169350624084,0.03440525755286217
1772696867026326800,4.120326904296875,0.7071642875671387,-0.26191970705986023,0.0706569105386734
1772696867036297500,4.13029736328125,0.6823842525482178,-0.2538264989852905,0.1079360693693161
1772696867046268700,4.1402685546875,0.6574410796165466,-0.23950162529945374,0.15433207154273987
1772696867056239600,4.150239501953125,0.6328873038291931,-0.21876704692840576,0.2114751785993576
1772696867066210600,4.16021044921875,0.6073222756385803,-0.1883809119462967,0.2717728614807129
1772696867076181800,4.170181640625,0.5726362466812134,-0.14762790501117706,0.316918283700943
1772696867086151700,4.180151611328125,0.5243006348609924,-0.12356705218553543,0.3321337401866913
1772696867096122600,4.19012255859375,0.47078433632850647,-0.11407599598169327,0.3115778863430023
1772696867106093600,4.200093505859375,0.4175565242767334,-0.09950824081897736,0.2913128137588501
1772696867116064500,4.210064453125,0.36464112997055054,-0.09504186362028122,0.2703455686569214
1772696867126035700,4.22003564453125,0.3158155381679535,-0.10108350962400436,0.2494772970676422
1772696867136006700,4.230006591796875,0.27059122920036316,-0.10786034911870956,0.22666530311107635
1772696867145976600,4.2399765625,0.22030995786190033,-0.13819429278373718,0.19699183106422424
1772696867155947800,4.24994775390625,0.17369158565998077,-0.1854555457830429,0.16869281232357025
1772696867165918500,4.25991845703125,0.1269717514514923,-0.2563302516937256,0.1265144795179367
1772696867175889400,4.269889404296875,0.08622206747531891,-0.3367277681827545,0.06979721039533615
1772696867185860600,4.279860595703125,0.05012105405330658,-0.40469616651535034,0.01617259904742241
1772696867195831600,4.28983154296875,0.021033767610788345,-0.44323161244392395,-0.037546053528785706
1772696867205802800,4.299802734375,-0.0032313568517565727,-0.469197154045105,-0.08442168682813644
1772696867215772700,4.309772705078125,-0.02075556293129921,-0.48751404881477356,-0.11559788137674332
1772696867225743600,4.31974365234375,-0.029578881338238716,-0.4773455560207367,-0.12362492084503174
1772696867235714600,4.329714599609375,-0.029133910313248634,-0.4496355950832367,-0.11177999526262283
1772696867245685500,4.339685546875,-0.017210405319929123,-0.4280783534049988,-0.10047327727079391
1772696867255656700,4.34965673828125,0.006891431286931038,-0.4153105914592743,-0.08634548634290695
1772696867265628000,4.3596279296875,0.03767358139157295,-0.40592509508132935,-0.07790140062570572
1772696867275598800,4.369598876953125,0.07472575455904007,-0.3935745656490326,-0.07216227799654007
1772696867285569000,4.379569091796875,0.12144425511360168,-0.37191641330718994,-0.07729925215244293
1772696867295540000,4.3895400390625,0.1684553027153015,-0.3473307490348816,-0.09015274047851562
1772696867305510700,4.3995107421875,0.21047358214855194,-0.3334069550037384,-0.0996738076210022
1772696867315481900,4.40948193359375,0.2498716562986374,-0.33110442757606506,-0.0998854711651802
1772696867325452800,4.419452880859375,0.28660091757774353,-0.32722899317741394,-0.09899917244911194
1772696867335424000,4.429424072265625,0.3182390630245209,-0.32914015650749207,-0.0803292989730835
1772696867345395000,4.43939501953125,0.3391139805316925,-0.3318941295146942,-0.06576873362064362
1772696867355364900,4.44936474609375,0.34304380416870117,-0.32075071334838867,-0.0758964791893959
1772696867365336000,4.459336181640625,0.32631275057792664,-0.3181211054325104,-0.11860506236553192
1772696867375306800,4.469306640625,0.29664674401283264,-0.3408019244670868,-0.1788415163755417
1772696867385277700,4.479277587890625,0.2559608221054077,-0.4208778440952301,-0.24373315274715424
1772696867395249000,4.489248779296875,0.21256722509860992,-0.5448945760726929,-0.28289541602134705
1772696867405219800,4.4992197265625,0.1675451695919037,-0.6694402098655701,-0.2959206700325012
1772696867415189800,4.509189697265625,0.12817354500293732,-0.7560315728187561,-0.2906225919723511
1772696867425161000,4.519160888671875,0.10417314618825912,-0.766345739364624,-0.27015140652656555
1772696867435132000,4.5291318359375,0.10247211903333664,-0.7021453976631165,-0.21521252393722534
1772696867445102800,4.539102783203125,0.10709456354379654,-0.6019008159637451,-0.10840111970901489
1772696867455073800,4.54907373046875,0.12466936558485031,-0.484579861164093,0.054926276206970215
1772696867465044700,4.559044677734375,0.1571551412343979,-0.32828372716903687,0.2701834440231323
1772696867475016000,4.569015869140625,0.20291097462177277,-0.13728880882263184,0.5116863250732422
1772696867484985900,4.57898583984375,0.25388628244400024,0.06640971451997757,0.7380403280258179
1772696867494956800,4.588956787109375,0.31080180406570435,0.24763192236423492,0.9188275337219238
1772696867504928000,4.598927978515625,0.3758431077003479,0.40931934118270874,1.0410053730010986
1772696867514898700,4.608898681640625,0.42792245745658875,0.5158344507217407,1.1070044040679932
1772696867524870000,4.618869873046875,0.47383296489715576,0.5503942966461182,1.1263864040374756
1772696867534840800,4.6288408203125,0.5143136382102966,0.534668505191803,1.110940933227539
1772696867544811800,4.638811767578125,0.5479030609130859,0.4744890630245209,1.0680214166641235
1772696867554782000,4.648781982421875,0.5800243616104126,0.37676095962524414,1.0083816051483154
1772696867564753000,4.6587529296875,0.5984880924224854,0.28901034593582153,0.9400201439857483
1772696867574723800,4.668723876953125,0.6154628396034241,0.2405700832605362,0.8713616728782654
1772696867584694800,4.67869482421875,0.6149477958679199,0.21439041197299957,0.7892326712608337
1772696867594665700,4.688665771484375,0.5844806432723999,0.19114533066749573,0.6781142354011536
1772696867604637000,4.698636962890625,0.5293204188346863,0.18258140981197357,0.5486145615577698
1772696867614608000,4.70860791015625,0.45800256729125977,0.1932377964258194,0.40271255373954773
1772696867624577800,4.718577880859375,0.36871397495269775,0.20128481090068817,0.2630614638328552
1772696867634549000,4.728549072265625,0.2836948037147522,0.2508636713027954,0.1672670692205429
1772696867644519700,4.738519775390625,0.21189278364181519,0.3528193533420563,0.09222505241632462
1772696867654491000,4.748490966796875,0.1641991287469864,0.4724772274494171,0.012633288279175758
1772696867664461800,4.7584619140625,0.13829776644706726,0.5963517427444458,-0.08301600813865662
1772696867674432800,4.768432861328125,0.11845895648002625,0.7024444937705994,-0.19854092597961426
1772696867684403000,4.77840283203125,0.11870983242988586,0.7450843453407288,-0.32225751876831055
1772696867694374000,4.788373779296875,0.15479883551597595,0.7335853576660156,-0.4221521317958832
1772696867704344800,4.7983447265625,0.22858597338199615,0.6987216472625732,-0.47285711765289307
1772696867714315800,4.808315673828125,0.3383830785751343,0.6534106135368347,-0.4643702805042267
1772696867724286700,4.81828662109375,0.47791728377342224,0.5889335870742798,-0.4090428352355957
1772696867734258000,4.8282578125,0.6211358904838562,0.5044221878051758,-0.29786887764930725
1772696867744228900,4.838228759765625,0.7496978640556335,0.45108523964881897,-0.13042902946472168
1772696867754198800,4.84819873046875,0.8452261090278625,0.46019446849823,0.0829196572303772
1772696867764170000,4.858169921875,0.8994593024253845,0.4794946610927582,0.25522562861442566
1772696867774141000,4.868140869140625,0.9309489727020264,0.5093186497688293,0.33984529972076416
1772696867784111600,4.878111572265625,0.9417912364006042,0.5381649136543274,0.3184569180011749
1772696867794082800,4.888082763671875,0.9332044124603271,0.5442359447479248,0.2096640020608902
1772696867804053800,4.8980537109375,0.907520055770874,0.5277997255325317,0.0573442280292511
1772696867814025000,4.90802490234375,0.8602168560028076,0.48438334465026855,-0.09261627495288849
1772696867823995000,4.917994873046875,0.7940136194229126,0.4114300608634949,-0.21694700419902802
1772696867833965800,4.9279658203125,0.7225273847579956,0.3320330083370209,-0.2923116087913513
1772696867843937000,4.93793701171875,0.6497362852096558,0.2731710374355316,-0.3255699574947357
1772696867853907700,4.94790771484375,0.6033220887184143,0.23572655022144318,-0.3581048250198364
1772696867863878700,4.957878662109375,0.5776824951171875,0.2186516970396042,-0.4013473689556122
1772696867873849900,4.967849853515625,0.5664384961128235,0.23105551302433014,-0.46288394927978516
1772696867883819800,4.97781982421875,0.5812627077102661,0.2605052888393402,-0.536199152469635
1772696867893790700,4.987790771484375,0.6094053983688354,0.2940900921821594,-0.602563202381134
1772696867903762000,4.997761962890625,0.6472108364105225,0.327863484621048,-0.6337783932685852
1772696867913732900,5.00773291015625,0.6898553967475891,0.3464447259902954,-0.633766770362854
1772696867923703800,5.017703857421875,0.7360634207725525,0.3373212516307831,-0.6210054159164429
1772696867933674800,5.0276748046875,0.7860886454582214,0.3200151026248932,-0.5939939618110657
1772696867943645700,5.037645751953125,0.8246762752532959,0.30439963936805725,-0.5654075741767883
1772696867953616000,5.047615966796875,0.8439741134643555,0.29019081592559814,-0.5385197997093201
1772696867963586800,5.0575869140625,0.834753155708313,0.28893381357192993,-0.5126131176948547
1772696867973558000,5.06755810546875,0.7957893013954163,0.298968642950058,-0.48536020517349243
1772696867983529000,5.077529052734375,0.7478587627410889,0.30148187279701233,-0.43785738945007324
1772696867993499600,5.087499755859375,0.716115415096283,0.31239500641822815,-0.3546130955219269
1772696868003470800,5.097470947265625,0.7016568183898926,0.3381025195121765,-0.2767010033130646
1772696868013441800,5.10744189453125,0.6978867053985596,0.3585328459739685,-0.21783727407455444
1772696868023411700,5.11741162109375,0.7072205543518066,0.3761238157749176,-0.19511571526527405
1772696868033383000,5.1273828125,0.722895085811615,0.3860931396484375,-0.18834376335144043
1772696868043353900,5.137353759765625,0.7374985218048096,0.39023223519325256,-0.19312013685703278
1772696868053325000,5.147324951171875,0.7435989379882812,0.38480982184410095,-0.20278628170490265
1772696868063295700,5.157295654296875,0.7399565577507019,0.3468632400035858,-0.20575891435146332
1772696868073266700,5.1672666015625,0.729146420955658,0.29489096999168396,-0.20032179355621338
1772696868083238000,5.17723779296875,0.7229630947113037,0.23784685134887695,-0.17318658530712128
1772696868093207800,5.187207763671875,0.7105518579483032,0.18997421860694885,-0.13621121644973755
1772696868103178800,5.1971787109375,0.6915685534477234,0.15284308791160583,-0.08936036378145218
1772696868113150000,5.20714990234375,0.6711112260818481,0.13542069494724274,-0.052435364574193954
1772696868123121000,5.217120849609375,0.6480780839920044,0.1258959025144577,-0.031011566519737244
1772696868133091800,5.227091796875,0.6380592584609985,0.1290251761674881,-0.03672855719923973
1772696868143062800,5.237062744140625,0.6427746415138245,0.12963318824768066,-0.045118048787117004
1772696868153032700,5.24703271484375,0.6716787219047546,0.1321524977684021,-0.0677536204457283
1772696868163004000,5.25700390625,0.7070633769035339,0.13426092267036438,-0.1000756025314331
1772696868172974800,5.266974853515625,0.7486062049865723,0.130081444978714,-0.12624724209308624
1772696868182945800,5.27694580078125,0.7760644555091858,0.09523159265518188,-0.13733026385307312
1772696868192917000,5.2869169921875,0.7966782450675964,0.05163790285587311,-0.14175759255886078
1772696868202887700,5.2968876953125,0.8158210515975952,0.011078489944338799,-0.1380470097064972
1772696868212859000,5.30685888671875,0.8263819813728333,-0.019254788756370544,-0.13521459698677063
1772696868222828800,5.316828857421875,0.8250298500061035,-0.03138228878378868,-0.11354418098926544
1772696868232799700,5.3267998046875,0.8204889297485352,-0.01646246388554573,-0.07647484540939331
1772696868242769700,5.336769775390625,0.8127161860466003,0.028594225645065308,-0.043630074709653854
1772696868252744000,5.346743896484375,0.8209708333015442,0.09137757867574692,-0.02883766032755375
1772696868262715000,5.35671484375,0.8288777470588684,0.15260177850723267,-0.04087541252374649
1772696868272685800,5.366685791015625,0.8277822732925415,0.18759746849536896,-0.07934689521789551
1772696868282657000,5.376656982421875,0.8233214616775513,0.18566109240055084,-0.12089167535305023
1772696868292627700,5.386627685546875,0.8136329650878906,0.14770103991031647,-0.15959571301937103
1772696868302598000,5.396597900390625,0.7752035856246948,0.07963171601295471,-0.20228992402553558
1772696868312568800,5.40656884765625,0.7098326683044434,-0.029397159814834595,-0.2462378442287445
1772696868322539800,5.416539794921875,0.6298888325691223,-0.14735229313373566,-0.2890303134918213
1772696868332511000,5.426510986328125,0.5431831479072571,-0.2726142406463623,-0.3582233786582947
1772696868342482000,5.43648193359375,0.4709249436855316,-0.35499459505081177,-0.4497889578342438
1772696868352453000,5.446453125,0.42590096592903137,-0.37490275502204895,-0.5276346802711487
1772696868362423800,5.456423828125,0.40332508087158203,-0.32361000776290894,-0.5605060458183289
1772696868372393700,5.466393798828125,0.40601277351379395,-0.21943463385105133,-0.5311189889907837
1772696868382365000,5.476364990234375,0.43777045607566833,-0.07589904963970184,-0.4422775208950043
1772696868392336000,5.4863359375,0.501042366027832,0.10449681431055069,-0.29611465334892273
1772696868402306800,5.496306884765625,0.5966325402259827,0.30591699481010437,-0.11310196667909622
1772696868412278000,5.506278076171875,0.6932205557823181,0.4804377555847168,0.06216462329030037
1772696868422249000,5.5162490234375,0.7720043063163757,0.5784021615982056,0.1873723417520523
1772696868432220000,5.526219970703125,0.8071896433830261,0.5891712307929993,0.2494361400604248
1772696868442189800,5.53618994140625,0.8051818609237671,0.5286003351211548,0.26217833161354065
1772696868452160800,5.546160888671875,0.7688125967979431,0.4520707130432129,0.26012951135635376
1772696868462132000,5.556132080078125,0.7139807939529419,0.3870496451854706,0.26395168900489807
1772696868472103000,5.56610302734375,0.646011233329773,0.328751802444458,0.29111284017562866
1772696868482073900,5.576073974609375,0.5661553144454956,0.28411296010017395,0.33445125818252563
1772696868492044800,5.586044921875,0.48984336853027344,0.2598593831062317,0.3612479269504547
1772696868502015000,5.596014892578125,0.4263190031051636,0.236437126994133,0.34888073801994324
1772696868511985700,5.605985595703125,0.3678019642829895,0.2178466022014618,0.2933371961116791
1772696868521956900,5.615956787109375,0.3180365264415741,0.20598702132701874,0.21587620675563812
1772696868531927800,5.625927734375,0.28103113174438477,0.18664763867855072,0.12255341559648514
1772696868541899000,5.63589892578125,0.2534889876842499,0.1623913049697876,0.019754331558942795
1772696868551870000,5.645869873046875,0.23149381577968597,0.126905620098114,-0.0894644558429718
1772696868561841000,5.6558408203125,0.21331427991390228,0.07433217018842697,-0.20656977593898773
1772696868571811000,5.66581103515625,0.18711546063423157,0.011165420524775982,-0.33034369349479675
1772696868581781800,5.67578173828125,0.16364768147468567,-0.04447680339217186,-0.45214682817459106
1772696868591752700,5.685752685546875,0.14960597455501556,-0.09629213809967041,-0.5304731130599976
1772696868601724000,5.695723876953125,0.151533842086792,-0.11840862780809402,-0.5514231324195862
1772696868611694800,5.70569482421875,0.17368435859680176,-0.11181085556745529,-0.5293987393379211
1772696868621666000,5.715666015625,0.20846949517726898,-0.06641940772533417,-0.4755871891975403
1772696868631636000,5.725635986328125,0.2498515546321869,0.02740190364420414,-0.3980773985385895
1772696868641607000,5.73560693359375,0.29707980155944824,0.15034885704517365,-0.3097139894962311
1772696868651577900,5.745577880859375,0.35101959109306335,0.30665361881256104,-0.19940871000289917
1772696868661548800,5.755548828125,0.3956872224807739,0.4530784785747528,-0.08470875024795532
1772696868671519700,5.765519775390625,0.42478007078170776,0.5527401566505432,0.019495125859975815
1772696868681491000,5.775490966796875,0.4424922466278076,0.6060262322425842,0.10633814334869385
1772696868691462000,5.7854619140625,0.4503905177116394,0.6227118968963623,0.16558675467967987
1772696868701432000,5.79543212890625,0.45379483699798584,0.6041576862335205,0.20791450142860413
1772696868711403000,5.805403076171875,0.4516957998275757,0.5840038061141968,0.24889513850212097
1772696868721373700,5.815373779296875,0.45761120319366455,0.5657704472541809,0.30628466606140137
1772696868731345000,5.825344970703125,0.4655775725841522,0.5824735164642334,0.3761007785797119
1772696868741315800,5.83531591796875,0.47017207741737366,0.5925450921058655,0.42499881982803345
1772696868751287000,5.845287109375,0.47358354926109314,0.5637158155441284,0.4588770866394043
1772696868761257000,5.855257080078125,0.466723769903183,0.5326439738273621,0.48912715911865234
1772696868771228000,5.865227783203125,0.46089375019073486,0.4930729269981384,0.4992595613002777
1772696868781199000,5.87519921875,0.4516105055809021,0.4183688461780548,0.47901633381843567
1772696868791169800,5.885169677734375,0.4436628520488739,0.34573060274124146,0.4498531222343445
1772696868801140700,5.895140625,0.4097125828266144,0.35538989305496216,0.4571589529514313
1772696868811112000,5.90511181640625,0.34530720114707947,0.41967010498046875,0.4686743915081024
1772696868821083000,5.915082763671875,0.2639591097831726,0.5058832764625549,0.450891375541687
1772696868831052800,5.925052734375,0.19540593028068542,0.5266241431236267,0.4022042453289032
1772696868841024000,5.93502392578125,0.14045026898384094,0.5111227035522461,0.3590780794620514
1772696868850995000,5.944994873046875,0.09609803557395935,0.4442940950393677,0.31011900305747986
1772696868860966000,5.9549658203125,0.06625944375991821,0.3334085941314697,0.2542799711227417
1772696868870937900,5.964937744140625,0.06541480123996735,0.2418183982372284,0.22893112897872925
1772696868880907800,5.97490771484375,0.096860870718956,0.19164417684078217,0.23209363222122192
1772696868890879000,5.98487890625,0.12537874281406403,0.3019353151321411,0.2497665137052536
1772696868900850000,5.994849853515625,0.19749580323696136,0.37654057145118713,0.218241348862648
1772696868910820900,6.00482080078125,0.2691091299057007,0.485739141702652,0.09932827949523926
1772696868920791800,6.014791748046875,0.38193047046661377,0.5788107514381409,-0.03792704641819
1772696868930762800,6.0247626953125,0.6674573421478271,0.47007009387016296,-0.07619327306747437
1772696868940733000,6.03473291015625,0.7773287296295166,0.483323335647583,-0.11963236331939697
1772696868950703900,6.044703857421875,0.6964101195335388,0.49469032883644104,-0.06656971573829651
1772696868960674800,6.0546748046875,0.5153311491012573,0.5324518084526062,0.11021091789007187
1772696868970646000,6.06464599609375,0.3413732647895813,0.5048075318336487,0.23368661105632782
1772696868980616700,6.07461669921875,0.19763658940792084,0.556925356388092,0.23003381490707397
1772696868990588000,6.084587890625,0.0985003411769867,0.6967307925224304,0.13763685524463654
1772696869000558800,6.094558837890625,0.03126164898276329,0.8124650716781616,-0.026198402047157288
1772696869010528800,6.10452880859375,-0.034945204854011536,0.8007990121841431,-0.22063061594963074
1772696869020500000,6.1145,-0.07983385026454926,0.6929388642311096,-0.3612620234489441
1772696869030471000,6.124470947265625,-0.10220921039581299,0.5525569319725037,-0.3833102583885193
1772696869040442000,6.134442138671875,-0.09618300944566727,0.347126841545105,-0.30940914154052734
1772696869050412800,6.144412841796875,-0.07671283930540085,0.04517943039536476,-0.21360912919044495
1772696869060383700,6.1543837890625,-0.044727474451065063,-0.26460346579551697,-0.13229350745677948
1772696869070355000,6.16435498046875,-0.00896489154547453,-0.49928396940231323,-0.09254676848649979
1772696869080324900,6.174324951171875,0.027198972180485725,-0.672046422958374,-0.11467710882425308
1772696869090295800,6.1842958984375,0.057082902640104294,-0.7977617979049683,-0.18114708364009857
1772696869100267000,6.19426708984375,0.08669299632310867,-0.8751599192619324,-0.24218647181987762
1772696869110238000,6.204238037109375,0.12385523319244385,-0.8788416385650635,-0.26610180735588074
1772696869120209000,6.214208984375,0.16206547617912292,-0.8445941805839539,-0.23406638205051422
1772696869130179800,6.224179931640625,0.20078814029693604,-0.8469998836517334,-0.1594264805316925
1772696869140149800,6.234149658203125,0.23836614191532135,-0.830218493938446,-0.038779161870479584
1772696869150121000,6.244120849609375,0.2684275507926941,-0.7631651163101196,0.07070815563201904
1772696869160092000,6.254091796875,0.31287652254104614,-0.712785542011261,0.15525153279304504
1772696869170062800,6.264062744140625,0.356990784406662,-0.6316433548927307,0.19967620074748993
1772696869180034000,6.274033935546875,0.3901327848434448,-0.5358995199203491,0.20137344300746918
1772696869190004700,6.284004638671875,0.4233354330062866,-0.4448159337043762,0.19220788776874542
1772696869199974700,6.293974609375,0.45875707268714905,-0.34944015741348267,0.1942281574010849
1772696869209945900,6.30394580078125,0.48724842071533203,-0.26576051115989685,0.2192346453666687
1772696869219916800,6.313916748046875,0.5228391885757446,-0.22176560759544373,0.25877484679222107
1772696869229888000,6.323887939453125,0.559276819229126,-0.20220498740673065,0.31190115213394165
1772696869239859000,6.33385888671875,0.5960004925727844,-0.20615951716899872,0.3330136239528656
1772696869249830000,6.343829833984375,0.6299700736999512,-0.2186027616262436,0.32105863094329834
1772696869259797500,6.353797607421875,0.6450979113578796,-0.22975635528564453,0.28028881549835205
1772696869269767400,6.363767333984375,0.6334428191184998,-0.22449687123298645,0.21131785213947296
1772696869279738600,6.373738525390625,0.6064671277999878,-0.20963802933692932,0.14328394830226898
1772696869289709600,6.38370947265625,0.5652695894241333,-0.21390676498413086,0.0697910338640213
1772696869299680500,6.393680419921875,0.5204275250434875,-0.2253575623035431,-0.014827973209321499
1772696869309651700,6.403651611328125,0.4847871661186218,-0.24011242389678955,-0.07075481116771698
1772696869319622400,6.413622314453125,0.4673200249671936,-0.2629450261592865,-0.09722396731376648
1772696869329592600,6.423592529296875,0.5002556443214417,-0.2036426067352295,-0.10000261664390564
1772696869339563500,6.4335634765625,0.5976067185401917,0.012425770983099937,-0.11965541541576385
1772696869349534500,6.443534423828125,0.7807831168174744,0.3275890648365021,-0.19474203884601593
1772696869359505700,6.453505615234375,1.0114318132400513,0.6422886848449707,-0.33790478110313416
1772696869369476600,6.4634765625,1.2352241277694702,0.8437798619270325,-0.522537887096405
1772696869379447800,6.47344775390625,1.3779429197311401,0.9269104599952698,-0.676237940788269
1772696869389418500,6.48341845703125,1.4375449419021606,0.9091271758079529,-0.7029178142547607
1772696869399388700,6.493388671875,1.4160486459732056,0.7970795035362244,-0.5788486003875732
1772696869409359600,6.503359619140625,1.2966523170471191,0.6045427918434143,-0.327761173248291
1772696869419330600,6.51333056640625,1.1009525060653687,0.4421847462654114,-0.01917831040918827
1772696869429301500,6.523301513671875,0.9077641367912292,0.31907856464385986,0.24850213527679443
1772696869439272700,6.533272705078125,0.7554539442062378,0.23275116086006165,0.43614423274993896
1772696869449243600,6.54324365234375,0.6509817838668823,0.21433624625205994,0.5096132159233093
1772696869459213600,6.553213623046875,0.5831819176673889,0.21810515224933624,0.47074490785598755
1772696869469184500,6.5631845703125,0.5337923169136047,0.24702920019626617,0.35576725006103516
1772696869479155500,6.573155517578125,0.4778560996055603,0.2904525697231293,0.20133692026138306
1772696869489126700,6.583126708984375,0.42465195059776306,0.34498801827430725,0.04724188148975372
1772696869499097600,6.59309765625,0.38005971908569336,0.37246572971343994,-0.07269437611103058
1772696869509068500,6.603068603515625,0.3343504071235657,0.3701339662075043,-0.14610137045383453
1772696869519039700,6.613039794921875,0.2996038794517517,0.3206239640712738,-0.17912031710147858
1772696869529009700,6.623009765625,0.26797133684158325,0.23901040852069855,-0.19630904495716095
1772696869538980600,6.632980712890625,0.24147926270961761,0.14584504067897797,-0.18809346854686737
1772696869548951600,6.64295166015625,0.24217787384986877,0.09088612347841263,-0.17545171082019806
1772696869558922500,6.652922607421875,0.26733675599098206,0.06103528290987015,-0.20127558708190918
1772696869568893700,6.662893798828125,0.32761913537979126,0.04930897429585457,-0.26061105728149414
1772696869578864600,6.67286474609375,0.41566431522369385,0.054644618183374405,-0.3356885015964508
1772696869588834600,6.68283447265625,0.5089335441589355,0.05955364555120468,-0.4087115526199341
1772696869598805800,6.6928056640625,0.5916598439216614,0.054406821727752686,-0.45738640427589417
1772696869608776400,6.7027763671875,0.6515749096870422,0.039872534573078156,-0.4750498831272125
1772696869618747400,6.712747314453125,0.6843581795692444,0.003182431682944298,-0.45499682426452637
1772696869628718600,6.722718505859375,0.70230633020401,-0.004378067329525948,-0.378423810005188
1772696869638689500,6.732689453125,0.7270966172218323,-0.003936515189707279,-0.2715974748134613
1772696869648659500,6.742659423828125,0.7493889331817627,-0.030262723565101624,-0.15577156841754913
1772696869658630700,6.752630615234375,0.7605331540107727,-0.055114809423685074,-0.059373386204242706
1772696869668601600,6.7626015625,0.7727976441383362,-0.05199601873755455,-0.00040290504693984985
1772696869678572500,6.772572509765625,0.7940762639045715,-0.029996974393725395,0.015710551291704178
1772696869688543500,6.78254345703125,0.8158687353134155,0.01480822078883648,0.0005904603749513626
1772696869698514700,6.7925146484375,0.8314998745918274,0.0619451068341732,-0.025460848584771156
1772696869708485600,6.802485595703125,0.8400325775146484,0.0832715705037117,-0.048763666301965714
1772696869718455600,6.81245556640625,0.8432651162147522,0.07571431994438171,-0.06857731193304062
1772696869728426800,6.8224267578125,0.8375094532966614,0.04330126941204071,-0.06404799968004227
1772696869738397700,6.832397705078125,0.822527289390564,-0.002230531070381403,-0.053923726081848145
1772696869748368400,6.842368408203125,0.7969292998313904,-0.05643868446350098,-0.0588163323700428
1772696869758339600,6.852339599609375,0.7732298374176025,-0.10544164478778839,-0.07654500007629395
1772696869768310500,6.862310546875,0.759465754032135,-0.15433776378631592,-0.11058678478002548
1772696869778280400,6.872280517578125,0.7591142058372498,-0.17773975431919098,-0.15492522716522217
1772696869788251600,6.882251708984375,0.7767105102539062,-0.1780688613653183,-0.19862382113933563
1772696869798222600,6.89222265625,0.8044140338897705,-0.16355809569358826,-0.23854567110538483
1772696869808193800,6.90219384765625,0.8334378004074097,-0.14085958898067474,-0.2633201777935028
1772696869818164500,6.91216455078125,0.8577050566673279,-0.10083787143230438,-0.2683088183403015
1772696869828135400,6.922135498046875,0.874315083026886,-0.06301503628492355,-0.2591070234775543
1772696869838106600,6.932106689453125,0.878646731376648,-0.02617420256137848,-0.2464037537574768
1772696869848076500,6.94207666015625,0.8821704983711243,0.019281279295682907,-0.22199025750160217
1772696869858047500,6.952047607421875,0.8732681274414062,0.06616383790969849,-0.20150522887706757
1772696869868018700,6.962018798828125,0.8489963412284851,0.0972823053598404,-0.19633573293685913
1772696869877989600,6.97198974609375,0.8157995343208313,0.1293582171201706,-0.2009722888469696
1772696869887960600,6.981960693359375,0.7714335322380066,0.170456200838089,-0.20724372565746307
1772696869897931500,6.991931640625,0.7201626300811768,0.21199938654899597,-0.21528807282447815
1772696869907901400,7.0019013671875,0.6699634790420532,0.25498807430267334,-0.23476511240005493
1772696869917872600,7.01187255859375,0.6214667558670044,0.31730416417121887,-0.26147687435150146
1772696869927843600,7.021843505859375,0.5820120573043823,0.36587411165237427,-0.2948084771633148
1772696869937814500,7.031814453125,0.5635704398155212,0.39531588554382324,-0.30619534850120544
1772696869947785700,7.04178564453125,0.5620571374893188,0.39464056491851807,-0.2901487350463867
1772696869957756400,7.05175634765625,0.5762973427772522,0.349891722202301,-0.26080790162086487
1772696869967727600,7.0617275390625,0.5948357582092285,0.28701546788215637,-0.20743680000305176
1772696869977697500,7.071697509765625,0.6258029937744141,0.22694814205169678,-0.1488611102104187
1772696869987668500,7.08166845703125,0.6712876558303833,0.14906875789165497,-0.09066103398799896
1772696869997639700,7.0916396484375,0.7225095629692078,0.046498436480760574,-0.029473844915628433
1772696870007610600,7.101610595703125,0.7720571756362915,-0.07178399711847305,0.04503527656197548
1772696870017581800,7.111581787109375,0.8203248381614685,-0.20048817992210388,0.12316763401031494
1772696870027552500,7.121552490234375,0.8489550948143005,-0.3100247383117676,0.19629442691802979
1772696870037522400,7.1315224609375,0.8700505495071411,-0.3723219335079193,0.23862136900424957
1772696870047493600,7.14149365234375,0.8779535293579102,-0.36985617876052856,0.24839910864830017
1772696870057464600,7.151464599609375,0.88304603099823,-0.33404067158699036,0.23330217599868774
1772696870067435500,7.161435546875,0.8862825632095337,-0.27681148052215576,0.2131771594285965
1772696870077406700,7.17140673828125,0.8918602466583252,-0.2216464877128601,0.21677269041538239
1772696870087377700,7.181377685546875,0.9085853695869446,-0.15877901017665863,0.24355725944042206
1772696870097348600,7.1913486328125,0.9483482241630554,-0.11088524758815765,0.28089532256126404
1772696870107318500,7.201318603515625,1.0000766515731812,-0.07494992017745972,0.31080925464630127
1772696870117289500,7.21128955078125,1.0323549509048462,-0.07441249489784241,0.3162554204463959
1772696870127260700,7.2212607421875,1.032496452331543,-0.0959484651684761,0.30412015318870544
1772696870137231600,7.231231689453125,1.0195116996765137,-0.11164113879203796,0.2873499393463135
1772696870147202600,7.24120263671875,0.9787392020225525,-0.11836107075214386,0.2749127447605133
1772696870157173800,7.251173828125,0.9068815112113953,-0.10950100421905518,0.2828705608844757
1772696870167143700,7.261143798828125,0.8143552541732788,-0.06330439448356628,0.2961995005607605
1772696870177114400,7.2711142578125,0.7174132466316223,0.008410267531871796,0.2978711724281311
1772696870187085600,7.28108544921875,0.6349685788154602,0.09526751935482025,0.2557077705860138
1772696870197056500,7.291056396484375,0.5619258284568787,0.19719575345516205,0.16670173406600952
1772696870207027700,7.30102783203125,0.5027378797531128,0.29104867577552795,0.05712595582008362
1772696870216998700,7.31099853515625,0.4570804238319397,0.36368852853775024,-0.0443711057305336
1772696870226969600,7.320969482421875,0.41875746846199036,0.38341063261032104,-0.11891771852970123
1772696870236939800,7.330939697265625,0.40592050552368164,0.33574777841567993,-0.14181478321552277
1772696870246910500,7.340910400390625,0.411327064037323,0.22714929282665253,-0.12796053290367126
1772696870256881700,7.350881591796875,0.4341309070587158,0.09925151616334915,-0.09145418554544449
1772696870266852900,7.360852783203125,0.46624240279197693,-0.03633948042988777,-0.0457276776432991
1772696870276823800,7.37082373046875,0.486223042011261,-0.17514930665493011,0.00112850870937109
1772696870286794800,7.380794677734375,0.47997260093688965,-0.3084077835083008,0.03810016065835953
1772696870296765000,7.390764892578125,0.44203078746795654,-0.4119546711444855,0.06345584988594055
1772696870306735900,7.40073583984375,0.38568779826164246,-0.4405989944934845,0.10052389651536942
1772696870316706600,7.41070654296875,0.3353317081928253,-0.38111090660095215,0.1586974710226059
1772696870326677800,7.420677734375,0.3144122064113617,-0.2563811242580414,0.21567612886428833
1772696870336648700,7.430648681640625,0.3168836236000061,-0.08902914077043533,0.2552826404571533
1772696870346620000,7.440619873046875,0.3478893041610718,0.07199639827013016,0.25021055340766907
1772696870356589800,7.45058984375,0.3966935873031616,0.19600115716457367,0.22861497104167938
1772696870366560800,7.460560791015625,0.44205009937286377,0.2751612663269043,0.20573927462100983
1772696870376531700,7.47053173828125,0.4623976945877075,0.28552761673927307,0.18891900777816772
1772696870386502700,7.480502685546875,0.45414578914642334,0.217818483710289,0.1770036667585373
1772696870396473600,7.4904736328125,0.4086110591888428,0.09445635229349136,0.1808689683675766
1772696870406444800,7.50044482421875,0.33173251152038574,-0.038252439349889755,0.2182944267988205
1772696870416415700,7.510415771484375,0.24262848496437073,-0.172359898686409,0.2923438847064972
1772696870426385700,7.5203857421875,0.15565945208072662,-0.27301642298698425,0.38234010338783264
1772696870436356900,7.53035693359375,0.09816738218069077,-0.3363882005214691,0.45136553049087524
1772696870446327800,7.540327880859375,0.05782824382185936,-0.35990047454833984,0.4681491553783417
1772696870456298800,7.550298828125,0.026679113507270813,-0.33739781379699707,0.42673352360725403
1772696870466269700,7.560269775390625,0.0027706637047231197,-0.27820754051208496,0.3418758809566498
1772696870476240600,7.57024072265625,-0.007852686569094658,-0.2271752655506134,0.23753778636455536
1772696870486210800,7.5802109375,0.012533819302916527,-0.2123212218284607,0.13646207749843597
1772696870496181800,7.590181640625,0.05826482176780701,-0.2335016131401062,0.05942882224917412
1772696870506153000,7.600153076171875,0.12199212610721588,-0.28434160351753235,0.021249957382678986
1772696870516123600,7.61012353515625,0.17146673798561096,-0.36816728115081787,0.0036720300558954477
1772696870526094600,7.620094482421875,0.1972607672214508,-0.45435830950737,-0.014056390151381493
1772696870536065800,7.630065673828125,0.19233018159866333,-0.5082489848136902,-0.038312193006277084
1772696870546036700,7.64003662109375,0.16062931716442108,-0.5179921984672546,-0.08450210094451904
1772696870556006700,7.650006591796875,0.09515976905822754,-0.496804416179657,-0.15156714618206024
1772696870565977900,7.659977783203125,0.03134967386722565,-0.4227491021156311,-0.22907519340515137
1772696870575948800,7.66994873046875,-0.013446293771266937,-0.2980375289916992,-0.28925812244415283
1772696870585919700,7.679919677734375,-0.015222319401800632,-0.13401775062084198,-0.32115575671195984
1772696870595890700,7.689890625,0.03603341057896614,0.046933386474847794,-0.31908488273620605
1772696870605861600,7.699861572265625,0.1232980340719223,0.24387304484844208,-0.2844313383102417
1772696870615831800,7.709831787109375,0.2328530251979828,0.41539740562438965,-0.22728708386421204
1772696870625802800,7.719802734375,0.32251492142677307,0.5210999846458435,-0.1747180074453354
1772696870635773700,7.729773681640625,0.379868745803833,0.5269208550453186,-0.1332981288433075
1772696870645745000,7.739744873046875,0.40925002098083496,0.45579826831817627,-0.0928557962179184
1772696870655715600,7.749715576171875,0.41559311747550964,0.3409520983695984,-0.05423808842897415
1772696870665686800,7.759686767578125,0.40513166785240173,0.20950034260749817,-0.02791324444115162
1772696870675657700,7.76965771484375,0.38995856046676636,0.09129753708839417,-0.009484700858592987
1772696870685627600,7.779627685546875,0.3772070109844208,0.009583591483533382,-0.007671631406992674
1772696870695598800,7.789598876953125,0.35824981331825256,-0.03559400513768196,-0.03186165541410446
1772696870705569800,7.79956982421875,0.3473527431488037,-0.046169981360435486,-0.09463659673929214
1772696870715540700,7.809540771484375,0.3640805780887604,-0.027586176991462708,-0.17347896099090576
1772696870725511700,7.81951171875,0.40517836809158325,-0.008674408309161663,-0.24163921177387238
1772696870735482600,7.829482666015625,0.46568670868873596,0.016797129064798355,-0.27247700095176697
1772696870745452500,7.83945263671875,0.5291504859924316,0.044453930109739304,-0.27633634209632874
1772696870755423700,7.849423828125,0.5890985131263733,0.04948277771472931,-0.2611454129219055
1772696870765394700,7.859394775390625,0.6331188678741455,0.03892770782113075,-0.2342945635318756
1772696870775366000,7.869365966796875,0.6450559496879578,0.032934531569480896,-0.20713670551776886
1772696870785336800,7.8793369140625,0.6341198086738586,0.029403038322925568,-0.19413813948631287
1772696870795307500,7.8893076171875,0.5946575999259949,0.030300790444016457,-0.17712320387363434
1772696870805278000,7.89927783203125,0.5306121110916138,0.01997326873242855,-0.169229656457901
1772696870815248600,7.90924853515625,0.44679978489875793,0.01515640877187252,-0.13007932901382446
1772696870825219600,7.919219482421875,0.36324843764305115,0.01841479353606701,-0.08182375133037567
1772696870835190800,7.929190673828125,0.2938089072704315,0.009131547063589096,-0.04874676093459129
1772696870845161700,7.93916162109375,0.23901933431625366,0.0128944031894207,-0.04750743880867958
1772696870855133000,7.9491328125,0.21807809174060822,0.02372308261692524,-0.06618498265743256
1772696870865102800,7.959102783203125,0.2333679497241974,0.0238683819770813,-0.08755186945199966
1772696870875073800,7.96907373046875,0.27698493003845215,0.014059958979487419,-0.09084939956665039
1772696870885044700,7.979044677734375,0.3261384069919586,-0.006545742973685265,-0.07573997974395752
1772696870895015700,7.989015625,0.3757466971874237,-0.034581370651721954,-0.042619045823812485
1772696870904987000,7.99898681640625,0.41046565771102905,-0.07129291445016861,-0.00944101344794035
1772696870914957800,8.008957763671875,0.42075371742248535,-0.12949390709400177,0.0036241887137293816
1772696870924928800,8.0189287109375,0.4054579436779022,-0.18488268554210663,0.006916610524058342
1772696870934899000,8.02889892578125,0.3709374964237213,-0.23965510725975037,0.00972864218056202
1772696870944869600,8.03886962890625,0.3280559778213501,-0.26299333572387695,0.02435767464339733
1772696870954840600,8.048840576171875,0.29933643341064453,-0.2484964281320572,0.042738545686006546
1772696870964811800,8.058811767578124,0.2802831828594208,-0.2051660418510437,0.053476084023714066
1772696870974782700,8.06878271484375,0.2905312776565552,-0.14150477945804596,0.0541386753320694
1772696870984754000,8.07875390625,0.3272945284843445,-0.04105905443429947,0.05488631874322891
1772696870994723800,8.088723876953125,0.4027714431285858,0.04138495773077011,0.05306445062160492
1772696871004694800,8.09869482421875,0.49063464999198914,0.05400791019201279,0.049612857401371
1772696871014665700,8.108665771484375,0.5665032863616943,0.005710687953978777,0.05195803940296173
1772696871024636700,8.11863671875,0.6248505711555481,-0.08767683804035187,0.09593330323696136
1772696871034607600,8.128607666015625,0.6762495636940002,-0.19413483142852783,0.1851111203432083
1772696871044578800,8.138578857421875,0.7200522422790527,-0.31111982464790344,0.3017696142196655
1772696871054548700,8.148548828125,0.753584623336792,-0.44580012559890747,0.40637537837028503
1772696871064519700,8.158519775390625,0.776430606842041,-0.5572500228881836,0.4839596450328827
1772696871074491000,8.168490966796876,0.773829996585846,-0.621410071849823,0.5318717360496521
1772696871084461600,8.178461669921875,0.7490310668945312,-0.6375982761383057,0.5412858128547668
1772696871094432800,8.188432861328126,0.6952458620071411,-0.600143551826477,0.4904165267944336
1772696871104403700,8.19840380859375,0.5802245140075684,-0.5145475268363953,0.3681071698665619
1772696871114374700,8.208374755859374,0.41510456800460815,-0.4411236345767975,0.15986928343772888
1772696871124344800,8.2183447265625,0.2238631248474121,-0.4070664942264557,-0.11353345215320587
1772696871134315800,8.228315673828124,0.031760528683662415,-0.42710092663764954,-0.40646493434906006
1772696871144286700,8.23828662109375,-0.14552436769008636,-0.4553103446960449,-0.659371554851532
1772696871154257700,8.248257568359374,-0.3224773108959198,-0.43117836117744446,-0.8125739097595215
1772696871164228600,8.258228515625,-0.45472702383995056,-0.3881179392337799,-0.8520588278770447
1772696871174199800,8.26819970703125,-0.5247241854667664,-0.39708879590034485,-0.8160451650619507
1772696871184169700,8.278169677734375,-0.5459761619567871,-0.3667256236076355,-0.6839514374732971
1772696871194140700,8.288140625,-0.5001173615455627,-0.22583560645580292,-0.4442826807498932
1772696871204112000,8.29811181640625,-0.39669811725616455,-0.029779979959130287,-0.15074747800827026
1772696871214082800,8.308082763671875,-0.2759450674057007,0.14260031282901764,0.17049899697303772
1772696871224053800,8.3180537109375,-0.20355531573295593,0.33036547899246216,0.46872618794441223
1772696871234024700,8.328024658203125,-0.13527213037014008,0.3767175078392029,0.7059683203697205
1772696871243994600,8.33799462890625,-0.05947534739971161,0.40122202038764954,0.8970818519592285
1772696871253965600,8.347965576171875,-0.05580497905611992,0.5075929760932922,1.0250152349472046
1772696871263936500,8.3579365234375,-0.13034142553806305,0.65028315782547,1.074182391166687
1772696871273907700,8.36790771484375,-0.2737340033054352,0.790824830532074,1.0375210046768188
1772696871283878700,8.377878662109374,-0.3921009302139282,0.8875972032546997,0.9371446967124939
1772696871293849600,8.387849609375,-0.46658581495285034,0.9309859871864319,0.7812491059303284
1772696871303820500,8.397820556640625,-0.5217334032058716,0.8525537252426147,0.5433549880981445
1772696871313790500,8.40779052734375,-0.5753418207168579,0.6732361316680908,0.24314914643764496
1772696871323761700,8.41776171875,-0.6102077960968018,0.3717472553253174,-0.10348087549209595
1772696871333732600,8.427732666015626,-0.6342563629150391,0.05975261703133583,-0.4874194860458374
1772696871343703600,8.43770361328125,-0.6627342104911804,-0.22310398519039154,-0.8737441301345825
1772696871353674800,8.4476748046875,-0.6304202079772949,-0.5756729245185852,-1.1540120840072632
1772696871363645400,8.4576455078125,-0.5605757832527161,-0.6908531785011292,-1.2961719036102295
1772696871373615600,8.46761572265625,-0.5042035579681396,-0.67950838804245,-1.3086880445480347
1772696871383586600,8.477586669921875,-0.49381300806999207,-0.6435328125953674,-1.1969072818756104
1772696871393557500,8.4875576171875,-0.4808066487312317,-0.6065793633460999,-0.9642549157142639
1772696871403528700,8.49752880859375,-0.4310583472251892,-0.5603954792022705,-0.6425037384033203
1772696871413499600,8.507499755859374,-0.34899598360061646,-0.5229748487472534,-0.27427318692207336
1772696871423470800,8.517470947265625,-0.23788557946681976,-0.4783686399459839,0.09761106222867966
1772696871433440800,8.527440673828124,-0.10594432801008224,-0.3807810842990875,0.42904171347618103
1772696871443411700,8.53741162109375,0.03403913974761963,-0.2464459240436554,0.6804356575012207
1772696871453382700,8.547382568359374,0.16546054184436798,-0.08230385929346085,0.8383227586746216
1772696871463353600,8.557353515625,0.2984852194786072,0.12012086063623428,0.8900601267814636
1772696871473324500,8.567324462890625,0.42794331908226013,0.33977439999580383,0.8367815017700195
1772696871483295700,8.577295654296876,0.5457534790039062,0.5455436110496521,0.684983491897583
1772696871493266700,8.5872666015625,0.6534959673881531,0.7256694436073303,0.45739084482192993
1772696871503236600,8.597236572265626,0.7591114640235901,0.8057312965393066,0.18023405969142914
1772696871513207600,8.60720751953125,0.8486403226852417,0.7656629681587219,-0.11734409630298615
1772696871523178500,8.617178466796876,0.8883646130561829,0.6666015982627869,-0.3991217315196991
1772696871533149700,8.627149658203125,0.8568703532218933,0.580812931060791,-0.6193659901618958
1772696871543120600,8.63712060546875,0.7643316388130188,0.549954891204834,-0.7494906187057495
1772696871553091600,8.647091552734375,0.6565601825714111,0.5395064949989319,-0.7939281463623047
1772696871563061800,8.657061767578124,0.5684792995452881,0.52641361951828,-0.7705866694450378
1772696871573032700,8.66703271484375,0.5383743643760681,0.4509393870830536,-0.6753970384597778
1772696871583003600,8.677003662109374,0.5915712118148804,0.341953307390213,-0.5123332142829895
1772696871592974600,8.686974609375,0.679699718952179,0.2286616712808609,-0.31984710693359375
1772696871602945500,8.696945556640625,0.7597618103027344,0.09455547481775284,-0.12154600024223328
1772696871612916700,8.706916748046876,0.8149998188018799,-0.022451307624578476,0.0440826453268528
1772696871622886700,8.71688671875,0.8441005945205688,-0.10252583026885986,0.17568662762641907
1772696871632857600,8.726857666015626,0.8428393006324768,-0.11341895908117294,0.28995567560195923
1772696871642828800,8.736828857421875,0.8001283407211304,-0.09755713492631912,0.39967381954193115
1772696871652799500,8.746799560546876,0.7184721231460571,-0.09799256175756454,0.502412736415863
1772696871662770400,8.7567705078125,0.6400428414344788,-0.07556665688753128,0.5901358127593994
1772696871672741600,8.76674169921875,0.5772769451141357,-0.021686648949980736,0.6399449110031128
1772696871682711600,8.776711669921875,0.542535662651062,0.06797859072685242,0.6281832456588745
1772696871692682800,8.786682861328124,0.5498194098472595,0.1264464259147644,0.5621333718299866
1772696871702653700,8.79665380859375,0.5903068780899048,0.17331565916538239,0.5053284168243408
1772696871712624600,8.806624755859374,0.6125155091285706,0.2814311981201172,0.4584487974643707
1772696871722595600,8.816595703125,0.602857768535614,0.38960036635398865,0.41286197304725647
1772696871732566500,8.82656640625,0.5975304245948792,0.4184788763523102,0.3577963411808014
1772696871742537700,8.836537841796876,0.5967847108840942,0.3763420581817627,0.2945243716239929
1772696871752507600,8.846507568359375,0.6165038347244263,0.33360469341278076,0.21246519684791565
1772696871762478600,8.856478515625,0.6550770998001099,0.31680914759635925,0.13001765310764313
1772696871772449800,8.86644970703125,0.6985849142074585,0.3463025987148285,0.06673429161310196
1772696871782420700,8.876420654296876,0.7607346177101135,0.41888171434402466,0.04319828003644943
1772696871792391400,8.886391357421875,0.8430033922195435,0.49093326926231384,0.04549605771899223
1772696871802362600,8.896362548828124,0.9571312665939331,0.5290418267250061,0.04763356223702431
1772696871812332500,8.90633251953125,1.0771468877792358,0.5372440814971924,0.04459596052765846
1772696871822303500,8.916303466796874,1.2252856492996216,0.46959900856018066,0.055417727679014206
1772696871832274700,8.926274658203125,1.3739336729049683,0.4053790271282196,0.07816857844591141
1772696871842245600,8.93624560546875,1.507385015487671,0.37274208664894104,0.12690241634845734
1772696871852216800,8.946216796875,1.5926998853683472,0.35639986395835876,0.175230011343956
1772696871862187500,8.9561875,1.6246976852416992,0.36976099014282227,0.20639541745185852
1772696871872157700,8.96615771484375,1.632280707359314,0.4160935878753662,0.22681520879268646
1772696871882128600,8.976128662109375,1.6311649084091187,0.4928480386734009,0.2572523057460785
1772696871892099600,8.986099609375,1.6238763332366943,0.59490567445755,0.31216961145401
1772696871902070500,8.996070556640625,1.6249644756317139,0.7004687190055847,0.38759857416152954
1772696871912041700,9.006041748046876,1.6254371404647827,0.7988263964653015,0.4608003497123718
1772696871922012700,9.0160126953125,1.6237295866012573,0.8428966999053955,0.50144362449646
1772696871931982600,9.025982666015626,1.6069998741149902,0.8395571112632751,0.4965607523918152
1772696871941953500,9.03595361328125,1.5679253339767456,0.8068783283233643,0.47173088788986206
1772696871951924500,9.045924560546876,1.538559913635254,0.7579041123390198,0.4491848349571228
1772696871961895700,9.055895751953125,1.5283973217010498,0.7252947092056274,0.438783198595047
1772696871971866600,9.06586669921875,1.5227607488632202,0.7275426983833313,0.4218955636024475
1772696871981837600,9.075837646484375,1.5250672101974487,0.7598837614059448,0.3689691722393036
1772696871991808800,9.085808837890625,1.4650973081588745,0.8411090970039368,0.37227097153663635
1772696872001778700,9.09577880859375,1.3353116512298584,0.8099147081375122,0.3750148117542267
1772696872011749600,9.10574951171875,1.2091199159622192,0.6266735196113586,0.32274070382118225
1772696872021720600,9.115720458984375,1.1338406801223755,0.3690333366394043,0.20143598318099976
1772696872031691500,9.12569140625,1.092950463294983,0.19499067962169647,0.07075946033000946
1772696872041662700,9.135662841796876,1.0726298093795776,0.17018571496009827,-0.05803929269313812
1772696872051633700,9.145633544921875,1.073661208152771,0.28753575682640076,-0.17450252175331116
1772696872061603600,9.155603515625,1.0901376008987427,0.4455031454563141,-0.29194706678390503
1772696872071574800,9.16557470703125,1.1223679780960083,0.5755224227905273,-0.4033588171005249
1772696872081545500,9.17554541015625,1.1641966104507446,0.6639630794525146,-0.4631466567516327
1772696872091516700,9.1855166015625,1.2353919744491577,0.7262415885925293,-0.4282405972480774
1772696872101487600,9.195487548828124,1.2895259857177734,0.8083931803703308,-0.26243945956230164
1772696872111458600,9.20545849609375,1.286123514175415,0.7830183506011963,-0.037393033504486084
1772696872121428700,9.2154287109375,1.2478291988372803,0.6946882009506226,0.16670186817646027
