time,seconds_elapsed,z,y,x
1772467408029597700,0.06359765625,-1.1140899658203125,-0.5305328369140625,0.01580810546875
1772467408039570700,0.07357080078125,-1.1522979736328125,-0.5116424560546875,-0.0070037841796875
1772467408049542700,0.083542724609375,-1.1772613525390625,-0.4678955078125,-0.040374755859375
1772467408059515600,0.093515625,-1.1654052734375,-0.4159698486328125,-0.06878662109375
1772467408069487600,0.103487548828125,-1.146209716796875,-0.393585205078125,-0.0818328857421875
1772467408079460600,0.113460693359375,-1.1135406494140625,-0.37420654296875,-0.076934814453125
1772467408089433600,0.12343359375,-1.0516204833984375,-0.348419189453125,-0.0728607177734375
1772467408099405800,0.13340576171875,-1.009185791015625,-0.334442138671875,-0.03167724609375
1772467408109378600,0.143378662109375,-0.9885406494140625,-0.3521728515625,0.0200347900390625
1772467408119351600,0.1533515625,-0.9689788818359375,-0.401947021484375,0.0836944580078125
1772467408129323800,0.16332373046875,-0.9720916748046875,-0.43316650390625,0.122802734375
1772467408139296500,0.173296630859375,-0.96527099609375,-0.45135498046875,0.133544921875
1772467408149268700,0.183268798828125,-0.9540252685546875,-0.4750823974609375,0.1292877197265625
1772467408159241700,0.19324169921875,-0.9427947998046875,-0.4909515380859375,0.116668701171875
1772467408169214700,0.203214599609375,-0.94049072265625,-0.4783782958984375,0.07061767578125
1772467408179186700,0.213186767578125,-0.919189453125,-0.4554290771484375,0.0316314697265625
1772467408189159700,0.22315966796875,-0.8834228515625,-0.439727783203125,0.0052642822265625
1772467408199132700,0.233132568359375,-0.8533172607421875,-0.43597412109375,-0.018768310546875
1772467408209104600,0.243104736328125,-0.8254852294921875,-0.42144775390625,-0.02362060546875
1772467408219077600,0.25307763671875,-0.807647705078125,-0.3950653076171875,-0.0194854736328125
1772467408229049600,0.263049560546875,-0.807647705078125,-0.3734588623046875,-0.01580810546875
1772467408239022800,0.27302294921875,-0.7952423095703125,-0.354461669921875,-0.0324249267578125
1772467408248995600,0.28299560546875,-0.7765045166015625,-0.360015869140625,-0.023162841796875
1772467408258967600,0.292967529296875,-0.7610015869140625,-0.3741912841796875,0.011383056640625
1772467408268940800,0.30294091796875,-0.777435302734375,-0.369384765625,0.040069580078125
1772467408278913800,0.312913818359375,-0.7787017822265625,-0.3628387451171875,0.0446929931640625
1772467408288885800,0.3228857421875,-0.7706451416015625,-0.367279052734375,0.0496978759765625
1772467408298859000,0.33285888671875,-0.7726898193359375,-0.3802947998046875,0.0579833984375
1772467408308832000,0.34283203125,-0.775390625,-0.398834228515625,0.055816650390625
1772467408318803700,0.3528037109375,-0.7718353271484375,-0.4208526611328125,0.04400634765625
1772467408328777000,0.36277685546875,-0.7698211669921875,-0.435516357421875,0.028594970703125
1772467408338749000,0.3727490234375,-0.7565460205078125,-0.45843505859375,0.0262603759765625
1772467408348721700,0.3827216796875,-0.7394256591796875,-0.4556884765625,0.0083465576171875
1772467408358695000,0.39269482421875,-0.7915191650390625,-0.39788818359375,0.009918212890625
1772467408368667000,0.4026669921875,-0.9009246826171875,-0.3950042724609375,-0.03314208984375
1772467408378640000,0.412639892578125,-0.9064178466796875,-0.3972015380859375,-0.0389862060546875
1772467408388612900,0.42261279296875,-0.8620147705078125,-0.3857269287109375,-0.016204833984375
1772467408398584800,0.432584716796875,-0.846893310546875,-0.3899993896484375,-0.0100860595703125
1772467408408557800,0.442557861328125,-0.8655853271484375,-0.3994140625,-0.0107574462890625
1772467408418530800,0.45253076171875,-0.8872222900390625,-0.4184722900390625,-0.0138092041015625
1772467408428502800,0.462502685546875,-0.8844451904296875,-0.42620849609375,-0.019195556640625
1772467408438475800,0.472475830078125,-0.8668365478515625,-0.4278106689453125,-0.020050048828125
1772467408448447700,0.48244775390625,-0.84832763671875,-0.4375457763671875,-0.0196685791015625
1772467408458420700,0.492420654296875,-0.84375,-0.45538330078125,-0.0141754150390625
1772467408468393700,0.502393798828125,-0.84991455078125,-0.4858551025390625,-0.00115966796875
1772467408478366000,0.512365966796875,-0.868682861328125,-0.52996826171875,0.0165252685546875
1772467408488338700,0.522338623046875,-0.88067626953125,-0.5570526123046875,0.01898193359375
1772467408498311700,0.532311767578125,-0.89849853515625,-0.55010986328125,0.0030364990234375
1772467408508284000,0.542283935546875,-0.9351806640625,-0.5284423828125,-0.030670166015625
1772467408518257000,0.5522568359375,-0.9639739990234375,-0.51568603515625,-0.05462646484375
1772467408528229600,0.562229736328125,-0.976806640625,-0.52081298828125,-0.0489501953125
1772467408538201900,0.572201904296875,-0.98492431640625,-0.5319061279296875,-0.040802001953125
1772467408548174800,0.5821748046875,-0.982635498046875,-0.536529541015625,-0.0331878662109375
1772467408558146800,0.592146728515625,-0.9573211669921875,-0.5518646240234375,-0.01776123046875
1772467408568119800,0.602119873046875,-0.9181365966796875,-0.5710906982421875,0.012908935546875
1772467408578092800,0.6120927734375,-0.916229248046875,-0.56927490234375,0.04034423828125
1772467408588065000,0.62206494140625,-0.9494171142578125,-0.56195068359375,0.0391387939453125
1772467408598037800,0.632037841796875,-0.969879150390625,-0.5661773681640625,0.01861572265625
1772467408608010800,0.6420107421875,-0.986175537109375,-0.571563720703125,-0.01568603515625
1772467408617983000,0.65198291015625,-1.018951416015625,-0.564605712890625,-0.0575103759765625
1772467408627956000,0.6619560546875,-1.0438232421875,-0.5302581787109375,-0.101165771484375
1772467408637928700,0.6719287109375,-1.0255279541015625,-0.48760986328125,-0.133453369140625
1772467408647901000,0.68190087890625,-0.996673583984375,-0.44415283203125,-0.1477813720703125
1772467408657874000,0.6918740234375,-0.969390869140625,-0.4102325439453125,-0.1500244140625
1772467408667845600,0.701845703125,-0.9400634765625,-0.3911895751953125,-0.146575927734375
1772467408677819000,0.71181884765625,-0.916290283203125,-0.3874053955078125,-0.128509521484375
1772467408687791900,0.7217919921875,-0.8986053466796875,-0.3925933837890625,-0.0938568115234375
1772467408697763800,0.731763916015625,-0.885406494140625,-0.4029388427734375,-0.058685302734375
1772467408707736800,0.74173681640625,-0.874114990234375,-0.4229888916015625,-0.0244140625
1772467408717709800,0.751709716796875,-0.8727874755859375,-0.446624755859375,0.0027923583984375
1772467408727681800,0.761681884765625,-0.884429931640625,-0.4672088623046875,0.021453857421875
1772467408737655000,0.771655029296875,-0.8860931396484375,-0.478790283203125,0.0213470458984375
1772467408747627800,0.781627685546875,-0.87725830078125,-0.478607177734375,0.0090484619140625
1772467408757599700,0.791599853515625,-0.8877716064453125,-0.4728546142578125,-0.017730712890625
1772467408767573000,0.801572998046875,-0.901031494140625,-0.46240234375,-0.0489349365234375
1772467408777544700,0.811544677734375,-0.913909912109375,-0.45147705078125,-0.0752716064453125
1772467408787517700,0.821517578125,-0.9188232421875,-0.44293212890625,-0.1001739501953125
1772467408797491000,0.831490966796875,-0.8967437744140625,-0.4326171875,-0.1255340576171875
1772467408807463000,0.841462890625,-0.85577392578125,-0.41925048828125,-0.1429443359375
1772467408817435600,0.851435546875,-0.8276519775390625,-0.4023590087890625,-0.1481170654296875
1772467408827409000,0.861408935546875,-0.80810546875,-0.387664794921875,-0.1376190185546875
1772467408837380900,0.871380859375,-0.7827606201171875,-0.38134765625,-0.113494873046875
1772467408847353900,0.881353759765625,-0.7569580078125,-0.382080078125,-0.090484619140625
1772467408857326800,0.891326904296875,-0.7389068603515625,-0.3843841552734375,-0.07257080078125
1772467408867298800,0.901298828125,-0.72674560546875,-0.389678955078125,-0.0571136474609375
1772467408877271800,0.911271728515625,-0.7069549560546875,-0.3987579345703125,-0.0426483154296875
1772467408887243800,0.921243896484375,-0.695465087890625,-0.4085845947265625,-0.0302734375
1772467408897216800,0.931216796875,-0.692962646484375,-0.4228515625,-0.0306396484375
1772467408907189800,0.941189697265625,-0.6824188232421875,-0.4420013427734375,-0.0425567626953125
1772467408917161700,0.95116162109375,-0.6734161376953125,-0.4532470703125,-0.054534912109375
1772467408927134700,0.961134765625,-0.67864990234375,-0.4566497802734375,-0.0655059814453125
1772467408937107700,0.971107666015625,-0.6889801025390625,-0.4599151611328125,-0.07666015625
1772467408947080000,0.981079833984375,-0.6954345703125,-0.462249755859375,-0.0861968994140625
1772467408957052700,0.991052734375,-0.691864013671875,-0.4634552001953125,-0.09320068359375
1772467408967025700,1.001025634765625,-0.6927642822265625,-0.4634857177734375,-0.0924072265625
1772467408976998000,1.010997802734375,-0.699371337890625,-0.4639892578125,-0.0917816162109375
1772467408986971000,1.020970947265625,-0.7123260498046875,-0.471221923828125,-0.0962982177734375
1772467408996943600,1.030943603515625,-0.7284698486328125,-0.4771270751953125,-0.100738525390625
1772467409006915800,1.040915771484375,-0.735382080078125,-0.4787750244140625,-0.101318359375
1772467409016888800,1.050888916015625,-0.744842529296875,-0.484527587890625,-0.0980377197265625
1772467409026860800,1.06086083984375,-0.777313232421875,-0.49774169921875,-0.091217041015625
1772467409036833800,1.070833740234375,-0.8267974853515625,-0.5146026611328125,-0.083984375
1772467409046806800,1.080806884765625,-0.8723602294921875,-0.5309906005859375,-0.079345703125
1772467409056779000,1.090779052734375,-0.90948486328125,-0.54083251953125,-0.0755462646484375
1772467409066751700,1.100751708984375,-0.960723876953125,-0.543304443359375,-0.08282470703125
1772467409076724700,1.110724853515625,-1.0179901123046875,-0.5359039306640625,-0.0919647216796875
1772467409086697000,1.120697021484375,-1.0685272216796875,-0.5355682373046875,-0.102386474609375
1772467409096670000,1.130669921875,-1.0914459228515625,-0.5256500244140625,-0.1134033203125
1772467409106642700,1.140642578125,-1.092193603515625,-0.4969482421875,-0.1285400390625
1772467409116615000,1.150614990234375,-1.0624237060546875,-0.479248046875,-0.1371612548828125
1772467409126588000,1.160587890625,-0.9969482421875,-0.515960693359375,-0.105010986328125
1772467409136561000,1.170560791015625,-0.9794921875,-0.5797119140625,-0.0514373779296875
1772467409146532900,1.180532958984375,-1.01910400390625,-0.59417724609375,0.00323486328125
1772467409156505900,1.190505859375,-1.0469970703125,-0.5988006591796875,0.0463104248046875
1772467409166478800,1.200478759765625,-1.073211669921875,-0.618499755859375,0.0760498046875
1772467409176450800,1.210450927734375,-1.1435394287109375,-0.6238555908203125,0.0836029052734375
1772467409186423800,1.220423828125,-1.21875,-0.601348876953125,0.065887451171875
1772467409196395800,1.230395751953125,-1.2237701416015625,-0.535430908203125,0.0250701904296875
1772467409206369000,1.240369140625,-1.184661865234375,-0.46185302734375,-0.0175323486328125
1772467409216341800,1.250341796875,-1.1394195556640625,-0.4151763916015625,-0.045013427734375
1772467409226313700,1.260313720703125,-1.0836944580078125,-0.3799285888671875,-0.0589599609375
1772467409236287000,1.270286865234375,-1.0268096923828125,-0.3458251953125,-0.0685882568359375
1772467409246260000,1.280260009765625,-0.9933929443359375,-0.321807861328125,-0.053741455078125
1772467409256231700,1.290231689453125,-0.9827728271484375,-0.333221435546875,0.00396728515625
1772467409266205000,1.300204833984375,-0.9881591796875,-0.3749542236328125,0.054229736328125
1772467409276181000,1.310180908203125,-0.9867401123046875,-0.420013427734375,0.0929412841796875
1772467409286153000,1.320153076171875,-0.9802703857421875,-0.454376220703125,0.1258087158203125
1772467409296126200,1.330126220703125,-0.9620819091796875,-0.476806640625,0.1475067138671875
1772467409306099200,1.34009912109375,-0.9342041015625,-0.48223876953125,0.155975341796875
1772467409316071000,1.35007080078125,-0.938507080078125,-0.4756317138671875,0.137969970703125
1772467409326044200,1.360044189453125,-0.94769287109375,-0.465667724609375,0.10040283203125
1772467409336016100,1.37001611328125,-0.9612884521484375,-0.447601318359375,0.06500244140625
1772467409345988900,1.37998876953125,-0.9550628662109375,-0.4169769287109375,0.0318145751953125
1772467409355962000,1.389962158203125,-0.9259796142578125,-0.3829498291015625,-0.0027008056640625
1772467409365934000,1.39993408203125,-0.8845062255859375,-0.3555145263671875,-0.02740478515625
1772467409375907000,1.409906982421875,-0.8438720703125,-0.33428955078125,-0.0470428466796875
1772467409385880000,1.419880126953125,-0.8118438720703125,-0.3225860595703125,-0.06365966796875
1772467409395852000,1.42985205078125,-0.7835693359375,-0.3147125244140625,-0.0687255859375
1772467409405825000,1.439824951171875,-0.7570037841796875,-0.31365966796875,-0.070220947265625
1772467409415798000,1.449798095703125,-0.728240966796875,-0.3159027099609375,-0.06097412109375
1772467409425770000,1.45977001953125,-0.7061004638671875,-0.32867431640625,-0.038238525390625
1772467409435743000,1.469742919921875,-0.6952667236328125,-0.3568878173828125,-0.01898193359375
1772467409445716200,1.47971630859375,-0.6856842041015625,-0.3829803466796875,-0.006011962890625
1772467409455688000,1.48968798828125,-0.6831817626953125,-0.39666748046875,0.0056304931640625
1772467409465661000,1.499660888671875,-0.691253662109375,-0.410491943359375,0.010223388671875
1772467409475634200,1.50963427734375,-0.683441162109375,-0.4158782958984375,0.007904052734375
1772467409485606000,1.51960595703125,-0.67425537109375,-0.408721923828125,0.016326904296875
1772467409495579000,1.529578857421875,-0.6639862060546875,-0.4048919677734375,0.0306854248046875
1772467409505551000,1.539551025390625,-0.664093017578125,-0.409942626953125,0.044525146484375
1772467409515524000,1.549524169921875,-0.68829345703125,-0.4246063232421875,0.0514984130859375
1772467409525496800,1.559496826171875,-0.7099456787109375,-0.4393310546875,0.0559539794921875
1772467409535469000,1.569468994140625,-0.7341766357421875,-0.4535675048828125,0.0588531494140625
1772467409545442000,1.579442138671875,-0.7540740966796875,-0.465606689453125,0.05377197265625
1772467409555415000,1.5894150390625,-0.7781829833984375,-0.4737548828125,0.0495147705078125
1772467409565387000,1.599386962890625,-0.80230712890625,-0.4803619384765625,0.0340728759765625
1772467409575360000,1.609360107421875,-0.829833984375,-0.484619140625,0.023834228515625
1772467409585333000,1.6193330078125,-0.86663818359375,-0.488189697265625,0.001495361328125
1772467409595305000,1.629304931640625,-0.8845672607421875,-0.4926910400390625,-0.0183563232421875
1772467409605278000,1.63927783203125,-0.8833465576171875,-0.4883575439453125,-0.0298919677734375
1772467409615251000,1.6492509765625,-0.8927764892578125,-0.477630615234375,-0.02197265625
1772467409625223200,1.65922314453125,-0.912261962890625,-0.4829864501953125,-0.0203857421875
1772467409635196000,1.66919580078125,-0.920562744140625,-0.4925994873046875,-0.020660400390625
1772467409645169000,1.6791689453125,-0.938873291015625,-0.4889678955078125,-0.0240020751953125
1772467409655141000,1.68914111328125,-0.986358642578125,-0.4758758544921875,-0.02874755859375
1772467409665114000,1.699114013671875,-1.033233642578125,-0.470703125,-0.03057861328125
1772467409675086800,1.7090869140625,-1.04815673828125,-0.479827880859375,-0.0286712646484375
1772467409685059000,1.71905908203125,-1.038299560546875,-0.5139617919921875,-0.01611328125
1772467409695032000,1.729031982421875,-1.023529052734375,-0.554534912109375,-0.01470947265625
1772467409705004000,1.739004150390625,-1.00518798828125,-0.5286102294921875,-0.00750732421875
1772467409714977000,1.74897705078125,-0.991973876953125,-0.4954986572265625,0.0001068115234375
1772467409724950000,1.758949951171875,-1.0322265625,-0.5348968505859375,0.002105712890625
1772467409734922200,1.768922119140625,-1.0471038818359375,-0.53167724609375,0.0012359619140625
1772467409744895000,1.77889501953125,-1.071258544921875,-0.4635467529296875,-0.016265869140625
1772467409754868000,1.788867919921875,-1.085540771484375,-0.415008544921875,-0.0442962646484375
1772467409764840200,1.798840087890625,-1.06640625,-0.393707275390625,-0.0615692138671875
1772467409774813200,1.808813232421875,-1.03277587890625,-0.37982177734375,-0.0740814208984375
1772467409784786000,1.818785888671875,-1.009185791015625,-0.353424072265625,-0.074188232421875
1772467409794758100,1.828758056640625,-0.993927001953125,-0.3346710205078125,-0.0677642822265625
1772467409804731100,1.838731201171875,-0.97796630859375,-0.3409423828125,-0.061553955078125
1772467409814704000,1.8487041015625,-0.9639739990234375,-0.3588714599609375,-0.0564117431640625
1772467409824676000,1.858676025390625,-0.945281982421875,-0.375,-0.039764404296875
1772467409834649000,1.868649169921875,-0.9303131103515625,-0.3905181884765625,-0.01544189453125
1772467409844622000,1.8786220703125,-0.9267578125,-0.4069976806640625,0.0037689208984375
1772467409854594000,1.888593994140625,-0.9297637939453125,-0.415069580078125,0.013580322265625
1772467409864567000,1.898567138671875,-0.9421844482421875,-0.4238739013671875,0.0159912109375
1772467409874540000,1.9085400390625,-0.946746826171875,-0.429901123046875,0.0106048583984375
1772467409884512300,1.91851220703125,-0.9550933837890625,-0.4288330078125,-0.000396728515625
1772467409894485000,1.928485107421875,-0.948699951171875,-0.4232330322265625,-0.0102996826171875
1772467409904458000,1.9384580078125,-0.9463043212890625,-0.403778076171875,-0.0190887451171875
1772467409914430200,1.94843017578125,-0.9504547119140625,-0.3914337158203125,-0.028289794921875
1772467409924403000,1.95840283203125,-0.9262847900390625,-0.3824462890625,-0.0421905517578125
1772467409934375200,1.968375244140625,-0.8998260498046875,-0.379669189453125,-0.057830810546875
1772467409944348200,1.97834814453125,-0.8658599853515625,-0.3773040771484375,-0.0617828369140625
1772467409954321200,1.988321044921875,-0.8426055908203125,-0.378326416015625,-0.059173583984375
1772467409964293000,1.998293212890625,-0.8194122314453125,-0.3816680908203125,-0.0522613525390625
1772467409974266000,2.00826611328125,-0.7809906005859375,-0.3848114013671875,-0.0452728271484375
1772467409984239000,2.018239013671875,-0.7358245849609375,-0.3838043212890625,-0.0365447998046875
1772467409994211000,2.028211181640625,-0.7076568603515625,-0.3800201416015625,-0.02593994140625
1772467410004184000,2.03818408203125,-0.69451904296875,-0.37481689453125,-0.017333984375
1772467410014157000,2.048156982421875,-0.674896240234375,-0.3776092529296875,-0.0186614990234375
1772467410024129300,2.05812939453125,-0.6471405029296875,-0.3754730224609375,-0.0176849365234375
1772467410034102000,2.06810205078125,-0.648468017578125,-0.3726654052734375,-0.00714111328125
1772467410044075000,2.078074951171875,-0.6560821533203125,-0.3808746337890625,0.01055908203125
1772467410054047200,2.088047119140625,-0.6719970703125,-0.392181396484375,0.0201873779296875
1772467410064020200,2.098020263671875,-0.686920166015625,-0.4109649658203125,0.0104827880859375
1772467410073993000,2.107992919921875,-0.686248779296875,-0.42022705078125,-0.0012359619140625
1772467410083965200,2.117965087890625,-0.696075439453125,-0.4268035888671875,-0.0153045654296875
1772467410093938200,2.127938232421875,-0.709442138671875,-0.4402923583984375,-0.0242767333984375
1772467410103911200,2.1379111328125,-0.71502685546875,-0.4526214599609375,-0.0215911865234375
1772467410113883100,2.147883056640625,-0.7237091064453125,-0.470977783203125,-0.012969970703125
1772467410123856100,2.157856201171875,-0.72601318359375,-0.4985198974609375,-0.0062408447265625
1772467410133829000,2.1678291015625,-0.7532958984375,-0.5132904052734375,-0.0025634765625
1772467410143801000,2.177801025390625,-0.804534912109375,-0.5274810791015625,0.0022430419921875
1772467410153774000,2.187774169921875,-0.86065673828125,-0.5363006591796875,0.011810302734375
1772467410163747000,2.1977470703125,-0.9181365966796875,-0.5343017578125,0.02142333984375
1772467410173719000,2.207718994140625,-0.95416259765625,-0.5352935791015625,0.0251007080078125
1772467410183692000,2.217692138671875,-1.0012359619140625,-0.5224456787109375,0.0242767333984375
1772467410193664000,2.2276640625,-1.059356689453125,-0.5016937255859375,0.01593017578125
1772467410203637200,2.23763720703125,-1.07916259765625,-0.4735107421875,-0.00506591796875
1772467410213610200,2.2476103515625,-1.0995941162109375,-0.4389190673828125,-0.026275634765625
1772467410223582000,2.25758203125,-1.085357666015625,-0.4725799560546875,-0.0063629150390625
1772467410233555200,2.26755517578125,-1.0294647216796875,-0.578765869140625,0.0550384521484375
1772467410243528200,2.277528076171875,-1.02398681640625,-0.615814208984375,0.12188720703125
1772467410253500000,2.2875,-1.0691375732421875,-0.6252288818359375,0.1764984130859375
1772467410263473200,2.29747314453125,-1.1248321533203125,-0.6044158935546875,0.1791839599609375
1772467410273446100,2.307446044921875,-1.2414093017578125,-0.557586669921875,0.1402435302734375
1772467410283415000,2.3174150390625,-1.350921630859375,-0.4803009033203125,0.0821990966796875
1772467410293388000,2.327387939453125,-1.4017791748046875,-0.39630126953125,0.0264739990234375
1772467410303361300,2.337361328125,-1.3832855224609375,-0.370635986328125,-0.03411865234375
1772467410313333200,2.347333251953125,-1.2813262939453125,-0.329315185546875,-0.0926666259765625
1772467410323306000,2.357305908203125,-1.1467132568359375,-0.26544189453125,-0.1303863525390625
1772467410333279200,2.367279296875,-1.0594635009765625,-0.2413787841796875,-0.1341094970703125
1772467410343251200,2.377251220703125,-1.0708770751953125,-0.27313232421875,-0.1055908203125
1772467410353224200,2.38722412109375,-1.1009674072265625,-0.3121795654296875,-0.052276611328125
1772467410363197200,2.397197265625,-1.0670166015625,-0.341827392578125,0.0193328857421875
1772467410373169200,2.407169189453125,-1.03302001953125,-0.38134765625,0.0781097412109375
1772467410383142100,2.41714208984375,-1.0289154052734375,-0.4272003173828125,0.1125335693359375
1772467410393115400,2.427115478515625,-1.040557861328125,-0.4415283203125,0.118621826171875
1772467410403087000,2.437087158203125,-1.063140869140625,-0.4313201904296875,0.0988311767578125
1772467410413060000,2.44706005859375,-1.06317138671875,-0.4213714599609375,0.0575714111328125
1772467410423033300,2.457033447265625,-1.0418548583984375,-0.4036712646484375,0.01116943359375
1772467410433005000,2.467005126953125,-1.023681640625,-0.380523681640625,-0.0430145263671875
1772467410442978000,2.47697802734375,-0.9956512451171875,-0.366455078125,-0.089630126953125
1772467410452951300,2.486951416015625,-0.949432373046875,-0.358428955078125,-0.120269775390625
1772467410462923300,2.49692333984375,-0.892364501953125,-0.3510284423828125,-0.1360626220703125
1772467410472896000,2.50689599609375,-0.8353118896484375,-0.3576812744140625,-0.1362457275390625
1772467410482869200,2.516869140625,-0.8203277587890625,-0.3708038330078125,-0.131622314453125
1772467410492841200,2.52684130859375,-0.8019256591796875,-0.3841400146484375,-0.1054229736328125
1772467410502814200,2.536814208984375,-0.771026611328125,-0.383636474609375,-0.0674285888671875
1772467410512787200,2.546787109375,-0.770294189453125,-0.39141845703125,-0.041595458984375
1772467410522759200,2.55675927734375,-0.7851715087890625,-0.412933349609375,-0.03631591796875
1772467410532732200,2.566732177734375,-0.8130340576171875,-0.4239959716796875,-0.049530029296875
1772467410542704000,2.5767041015625,-0.8385467529296875,-0.490142822265625,-0.11029052734375
1772467410552677000,2.586677001953125,-0.876953125,-0.463623046875,-0.1253509521484375
1772467410562650000,2.596650146484375,-0.8813934326171875,-0.3112030029296875,-0.1282196044921875
1772467410572623400,2.606623291015625,-0.796478271484375,-0.3070220947265625,-0.097320556640625
1772467410582595000,2.616594970703125,-0.72674560546875,-0.2710418701171875,-0.017578125
1772467410592568000,2.626568115234375,-0.6973724365234375,-0.26434326171875,-0.045562744140625
1772467410602540300,2.636540283203125,-0.699676513671875,-0.3199920654296875,-0.1353912353515625
1772467410612513300,2.64651318359375,-0.718719482421875,-0.3834991455078125,-0.1584930419921875
1772467410622486000,2.656486083984375,-0.74102783203125,-0.4171142578125,-0.1207427978515625
1772467410632458200,2.666458251953125,-0.80914306640625,-0.440216064453125,-0.095703125
1772467410642431200,2.67643115234375,-0.8675689697265625,-0.474334716796875,-0.1090850830078125
1772467410652404200,2.686404296875,-0.8438568115234375,-0.526885986328125,-0.05645751953125
1772467410662376200,2.696376220703125,-0.7419586181640625,-0.527191162109375,0.0861968994140625
1772467410672349200,2.70634912109375,-0.6688232421875,-0.496490478515625,0.1211090087890625
1772467410682322200,2.716322265625,-0.695709228515625,-0.5018463134765625,0.1039886474609375
1772467410692294100,2.726294189453125,-0.7182769775390625,-0.52752685546875,0.0525665283203125
1772467410702267100,2.73626708984375,-0.7392730712890625,-0.53118896484375,-0.0196990966796875
1772467410712240000,2.746240234375,-0.7379150390625,-0.5340576171875,-0.0368499755859375
1772467410722212000,2.756212158203125,-0.758697509765625,-0.5377044677734375,-0.020172119140625
1772467410732185000,2.76618505859375,-0.778350830078125,-0.55133056640625,-0.0274658203125
1772467410742158000,2.776157958984375,-0.846405029296875,-0.54559326171875,-0.0322265625
1772467410752130300,2.78613037109375,-0.854766845703125,-0.4957427978515625,-0.0323486328125
1772467410762103000,2.79610302734375,-0.771392822265625,-0.5182647705078125,-0.0526580810546875
1772467410772076000,2.806075927734375,-0.6872100830078125,-0.5787353515625,-0.074798583984375
1772467410782048300,2.81604833984375,-0.6327972412109375,-0.644775390625,-0.0644989013671875
1772467410792021200,2.826021240234375,-0.6933135986328125,-0.6751708984375,-0.0401458740234375
1772467410801994000,2.835993896484375,-0.8010406494140625,-0.6898651123046875,0.0246734619140625
1772467410811966200,2.84596630859375,-0.9131622314453125,-0.69866943359375,0.0926513671875
1772467410821939200,2.855939208984375,-0.96026611328125,-0.6773834228515625,0.066009521484375
1772467410831912200,2.865912109375,-0.96270751953125,-0.6353607177734375,-0.0003509521484375
1772467410841884200,2.87588427734375,-0.970245361328125,-0.5737762451171875,-0.055755615234375
1772467410851857200,2.885857177734375,-0.97332763671875,-0.492950439453125,-0.076995849609375
1772467410861830100,2.895830078125,-0.92620849609375,-0.433837890625,-0.103790283203125
1772467410871802000,2.905802001953125,-0.9192962646484375,-0.4095458984375,-0.1355438232421875
1772467410881775000,2.915775146484375,-0.911041259765625,-0.3992919921875,-0.1367950439453125
1772467410891748000,2.925748046875,-0.917816162109375,-0.408538818359375,-0.1255950927734375
1772467410901720300,2.93572021484375,-0.9306182861328125,-0.417449951171875,-0.0630950927734375
1772467410911693000,2.945693115234375,-0.977294921875,-0.428070068359375,-0.008758544921875
1772467410921666000,2.955666015625,-1.02471923828125,-0.443695068359375,0.02239990234375
1772467410931638300,2.96563818359375,-1.0343475341796875,-0.4667205810546875,0.020416259765625
1772467410941611300,2.975611328125,-1.0027008056640625,-0.4927215576171875,-0.00537109375
1772467410951584000,2.985583984375,-0.96575927734375,-0.502044677734375,-0.0392608642578125
1772467410961556200,2.99555615234375,-1.0066986083984375,-0.4793243408203125,-0.07269287109375
1772467410971529200,3.005529296875,-1.0278472900390625,-0.4536590576171875,-0.0970306396484375
1772467410981502200,3.015502197265625,-1.0117645263671875,-0.43756103515625,-0.11846923828125
1772467410991474200,3.02547412109375,-0.96954345703125,-0.412261962890625,-0.1309814453125
1772467411001447200,3.035447265625,-0.926666259765625,-0.4031524658203125,-0.124542236328125
1772467411011420200,3.045420166015625,-0.895660400390625,-0.39788818359375,-0.11895751953125
1772467411021392100,3.05539208984375,-0.8540802001953125,-0.3849945068359375,-0.1288299560546875
1772467411031365000,3.065365234375,-0.8214111328125,-0.376495361328125,-0.1552734375
1772467411041338000,3.075338134765625,-0.757720947265625,-0.3722686767578125,-0.21337890625
1772467411051310300,3.085310302734375,-0.7188873291015625,-0.3575897216796875,-0.1689453125
1772467411061283000,3.095282958984375,-0.7534942626953125,-0.343963623046875,-0.1414794921875
1772467411071256000,3.105256103515625,-0.7595672607421875,-0.3424224853515625,-0.1341552734375
1772467411081228300,3.115228271484375,-0.7340240478515625,-0.35394287109375,-0.1500701904296875
1772467411091201300,3.125201171875,-0.697235107421875,-0.353668212890625,-0.16943359375
1772467411101174000,3.135174072265625,-0.664154052734375,-0.356475830078125,-0.174163818359375
1772467411111146200,3.145146240234375,-0.6381988525390625,-0.370361328125,-0.164825439453125
1772467411121119200,3.155119140625,-0.614990234375,-0.39105224609375,-0.1725616455078125
1772467411131092200,3.16509228515625,-0.5887908935546875,-0.418182373046875,-0.1797943115234375
1772467411141064200,3.175064208984375,-0.5879974365234375,-0.440093994140625,-0.1826019287109375
1772467411151037200,3.185037109375,-0.6006622314453125,-0.44854736328125,-0.1810760498046875
1772467411161010200,3.19501025390625,-0.601043701171875,-0.4568634033203125,-0.1885986328125
1772467411170982100,3.204982177734375,-0.6018829345703125,-0.4715576171875,-0.2008514404296875
1772467411180955100,3.214955078125,-0.608245849609375,-0.48602294921875,-0.1993560791015625
1772467411190928100,3.22492822265625,-0.5984039306640625,-0.506866455078125,-0.2040557861328125
1772467411200900000,3.234900146484375,-0.580230712890625,-0.5281219482421875,-0.2082061767578125
1772467411210873000,3.244873046875,-0.603546142578125,-0.5507659912109375,-0.2025604248046875
1772467411220846000,3.25484619140625,-0.65277099609375,-0.567840576171875,-0.194580078125
1772467411230818300,3.264818359375,-0.6922760009765625,-0.583038330078125,-0.1909942626953125
1772467411240791000,3.274791015625,-0.7294769287109375,-0.606719970703125,-0.19073486328125
1772467411250764000,3.284763916015625,-0.760162353515625,-0.626922607421875,-0.1911468505859375
1772467411260736300,3.294736328125,-0.810333251953125,-0.62554931640625,-0.2001495361328125
1772467411270709200,3.304709228515625,-0.8628692626953125,-0.6125335693359375,-0.2106170654296875
1772467411280682500,3.3146826171875,-0.90777587890625,-0.606414794921875,-0.212646484375
1772467411290654500,3.324654541015625,-0.9736328125,-0.58917236328125,-0.2105255126953125
1772467411300627500,3.33462744140625,-0.99798583984375,-0.572906494140625,-0.2122344970703125
1772467411310600400,3.344600341796875,-0.983489990234375,-0.61663818359375,-0.1770477294921875
1772467411320572700,3.35457275390625,-0.955780029296875,-0.715118408203125,-0.09271240234375
1772467411330545400,3.36454541015625,-0.993560791015625,-0.73876953125,-0.03369140625
1772467411340518400,3.374518310546875,-1.0518035888671875,-0.7292022705078125,-0.0135345458984375
1772467411350490600,3.38449072265625,-1.1308441162109375,-0.73309326171875,-0.0393829345703125
1772467411360463600,3.394463623046875,-1.282562255859375,-0.6988372802734375,-0.091156005859375
1772467411370436400,3.404436279296875,-1.393157958984375,-0.6077880859375,-0.1465301513671875
1772467411380408600,3.41440869140625,-1.439056396484375,-0.4874114990234375,-0.2516632080078125
1772467411390381600,3.424381591796875,-1.39447021484375,-0.3758544921875,-0.35968017578125
1772467411400354600,3.4343544921875,-1.2964630126953125,-0.295562744140625,-0.396881103515625
1772467411410326500,3.444326416015625,-1.2054290771484375,-0.2593536376953125,-0.3795928955078125
1772467411420299500,3.454299560546875,-1.143829345703125,-0.2539215087890625,-0.31475830078125
1772467411430272500,3.4642724609375,-1.0990447998046875,-0.2619171142578125,-0.2236480712890625
1772467411440244500,3.474244384765625,-1.0858001708984375,-0.2988433837890625,-0.1533966064453125
1772467411450217500,3.484217529296875,-1.0254364013671875,-0.338134765625,-0.1117095947265625
1772467411460190500,3.4941904296875,-0.9527587890625,-0.3818206787109375,-0.0810699462890625
1772467411470162700,3.50416259765625,-0.9128875732421875,-0.4136199951171875,-0.0736083984375
1772467411480135400,3.514135498046875,-0.90142822265625,-0.44000244140625,-0.072998046875
1772467411490108400,3.5241083984375,-0.8936767578125,-0.4546356201171875,-0.07843017578125
1772467411500080600,3.53408056640625,-0.8677520751953125,-0.4555816650390625,-0.0985870361328125
1772467411510053600,3.5440537109375,-0.833160400390625,-0.450927734375,-0.117584228515625
1772467411520026400,3.5540263671875,-0.8304595947265625,-0.4438018798828125,-0.1363525390625
1772467411529998600,3.56399853515625,-0.80584716796875,-0.439666748046875,-0.138580322265625
1772467411539971600,3.5739716796875,-0.77740478515625,-0.4316253662109375,-0.14129638671875
1772467411549944600,3.583944580078125,-0.7487640380859375,-0.4195404052734375,-0.1472625732421875
1772467411559916500,3.59391650390625,-0.72796630859375,-0.4173431396484375,-0.1363983154296875
1772467411569889500,3.6038896484375,-0.7309112548828125,-0.4111480712890625,-0.115997314453125
1772467411579862500,3.613862548828125,-0.733734130859375,-0.40203857421875,-0.1006317138671875
1772467411589834500,3.62383447265625,-0.72509765625,-0.3949737548828125,-0.08843994140625
1772467411599807500,3.633807373046875,-0.712860107421875,-0.388427734375,-0.089080810546875
1772467411609780500,3.643780517578125,-0.7186279296875,-0.3830413818359375,-0.0958404541015625
1772467411619752400,3.65375244140625,-0.7160797119140625,-0.381439208984375,-0.097320556640625
1772467411629725400,3.663725341796875,-0.7105865478515625,-0.3804168701171875,-0.09259033203125
1772467411639698400,3.673698486328125,-0.7278594970703125,-0.3806304931640625,-0.0848388671875
1772467411649670700,3.683670654296875,-0.75885009765625,-0.3757476806640625,-0.0827484130859375
1772467411659643400,3.693643310546875,-0.75836181640625,-0.3728485107421875,-0.0773773193359375
1772467411669616400,3.703616455078125,-0.744354248046875,-0.37615966796875,-0.0702362060546875
1772467411679588600,3.713588623046875,-0.7431640625,-0.3717041015625,-0.070587158203125
1772467411689561600,3.7235615234375,-0.76123046875,-0.374176025390625,-0.06842041015625
1772467411699534300,3.733534423828125,-0.7808990478515625,-0.383514404296875,-0.058013916015625
1772467411709506600,3.743506591796875,-0.7850341796875,-0.3964996337890625,-0.0508270263671875
1772467411719479600,3.7534794921875,-0.7767333984375,-0.407745361328125,-0.056549072265625
1772467411729452500,3.76345263671875,-0.7816925048828125,-0.4260101318359375,-0.057373046875
1772467411739424500,3.773424560546875,-0.7934417724609375,-0.446380615234375,-0.043914794921875
1772467411749397500,3.7833974609375,-0.792572021484375,-0.465484619140625,-0.036163330078125
1772467411759370500,3.79337060546875,-0.790802001953125,-0.4830322265625,-0.0330963134765625
1772467411769342500,3.803342529296875,-0.7985382080078125,-0.496124267578125,-0.0318450927734375
1772467411779315500,3.8133154296875,-0.8169097900390625,-0.5108489990234375,-0.03778076171875
1772467411789288400,3.823288330078125,-0.832275390625,-0.524078369140625,-0.0423736572265625
1772467411799260700,3.8332607421875,-0.85113525390625,-0.52398681640625,-0.0595245361328125
1772467411809233400,3.8432333984375,-0.9072418212890625,-0.5108184814453125,-0.09136962890625
1772467411819206400,3.853206298828125,-0.95904541015625,-0.496337890625,-0.1153411865234375
1772467411829178600,3.8631787109375,-0.9848175048828125,-0.4662628173828125,-0.1402435302734375
1772467411839151600,3.873151611328125,-1.0095367431640625,-0.4529571533203125,-0.1641082763671875
1772467411849124400,3.883124267578125,-1.0106964111328125,-0.5027618408203125,-0.144683837890625
1772467411859096600,3.8930966796875,-0.98394775390625,-0.592437744140625,-0.0908966064453125
1772467411869069600,3.903069580078125,-1.005767822265625,-0.5861358642578125,-0.06927490234375
1772467411879042600,3.91304248046875,-1.045196533203125,-0.574005126953125,-0.060302734375
1772467411889014500,3.9230146484375,-1.003814697265625,-0.656402587890625,-0.0482177734375
1772467411898987500,3.932987548828125,-1.0137939453125,-0.656829833984375,-0.0519561767578125
1772467411908960500,3.94296044921875,-1.078155517578125,-0.5839080810546875,-0.0932464599609375
1772467411918932500,3.952932373046875,-1.1008148193359375,-0.5242767333984375,-0.15130615234375
1772467411928905500,3.962905517578125,-1.1039276123046875,-0.4513702392578125,-0.221343994140625
1772467411938878500,3.97287841796875,-1.08837890625,-0.400115966796875,-0.26788330078125
1772467411948850700,3.9828505859375,-1.0840911865234375,-0.3562774658203125,-0.2881622314453125
1772467411958823400,3.992823486328125,-1.069366455078125,-0.3011322021484375,-0.2880401611328125
1772467411968796400,4.00279638671875,-1.0417633056640625,-0.2689208984375,-0.2770843505859375
1772467411978768600,4.0127685546875,-1.0012054443359375,-0.259368896484375,-0.2529449462890625
1772467411988741600,4.02274169921875,-0.9718170166015625,-0.2790069580078125,-0.2078094482421875
1772467411998714400,4.03271435546875,-0.972503662109375,-0.3129119873046875,-0.1522216796875
1772467412008686600,4.0426865234375,-0.9722900390625,-0.3429107666015625,-0.1026611328125
1772467412018659600,4.05265966796875,-0.9502410888671875,-0.37158203125,-0.0701141357421875
1772467412028632600,4.062632568359375,-0.91595458984375,-0.3986663818359375,-0.06219482421875
1772467412038604500,4.0726044921875,-0.8851776123046875,-0.4127655029296875,-0.0641326904296875
1772467412048577500,4.08257763671875,-0.881591796875,-0.4025726318359375,-0.074676513671875
1772467412058550500,4.092550537109375,-0.9105072021484375,-0.3757476806640625,-0.088653564453125
1772467412068522500,4.1025224609375,-0.9211578369140625,-0.349273681640625,-0.109649658203125
1772467412078495500,4.11249560546875,-0.9212188720703125,-0.3234100341796875,-0.1288299560546875
1772467412088468500,4.122468505859375,-0.9206390380859375,-0.302215576171875,-0.134490966796875
1772467412098440400,4.1324404296875,-0.91363525390625,-0.2895050048828125,-0.1328125
1772467412108413400,4.142413330078125,-0.89056396484375,-0.279541015625,-0.134490966796875
1772467412118386400,4.152386474609375,-0.8748016357421875,-0.274383544921875,-0.1373138427734375
1772467412128358700,4.162358642578125,-0.86761474609375,-0.26226806640625,-0.1235809326171875
1772467412138331400,4.172331298828125,-0.838348388671875,-0.2530670166015625,-0.1166229248046875
1772467412148304400,4.182304443359375,-0.798980712890625,-0.2507171630859375,-0.1192169189453125
1772467412158277600,4.192277587890625,-0.7763671875,-0.255767822265625,-0.1139984130859375
1772467412168249600,4.20224951171875,-0.772613525390625,-0.2738494873046875,-0.1019134521484375
1772467412178222300,4.212222412109375,-0.751617431640625,-0.2984619140625,-0.092041015625
1772467412188194600,4.222194580078125,-0.7234039306640625,-0.3221435546875,-0.096435546875
1772467412198167600,4.23216748046875,-0.7227935791015625,-0.3392791748046875,-0.099273681640625
1772467412208140500,4.242140625,-0.7169952392578125,-0.3592529296875,-0.105194091796875
1772467412218113500,4.252113525390625,-0.7145233154296875,-0.372894287109375,-0.10980224609375
1772467412228085500,4.26208544921875,-0.7319183349609375,-0.3757476806640625,-0.12115478515625
1772467412238058500,4.27205859375,-0.745269775390625,-0.3784637451171875,-0.1337432861328125
1772467412248031700,4.28203173828125,-0.750396728515625,-0.380645751953125,-0.1455230712890625
1772467412258003500,4.29200341796875,-0.7461090087890625,-0.383056640625,-0.164520263671875
1772467412267976400,4.3019765625,-0.74383544921875,-0.3845367431640625,-0.181549072265625
1772467412277949400,4.311949462890625,-0.747589111328125,-0.39239501953125,-0.1880645751953125
1772467412287921400,4.32192138671875,-0.755035400390625,-0.404632568359375,-0.1804962158203125
1772467412297894400,4.331894287109375,-0.773345947265625,-0.4150848388671875,-0.1697540283203125
1772467412307867400,4.341867431640625,-0.801239013671875,-0.4256439208984375,-0.159515380859375
1772467412317839400,4.35183935546875,-0.84075927734375,-0.434478759765625,-0.15484619140625
1772467412327812400,4.361812255859375,-0.881195068359375,-0.4404449462890625,-0.1490936279296875
1772467412337785600,4.37178564453125,-0.91845703125,-0.440032958984375,-0.1341400146484375
1772467412347757300,4.38175732421875,-0.9455718994140625,-0.4353179931640625,-0.135223388671875
1772467412357730300,4.391730224609375,-0.99456787109375,-0.421417236328125,-0.1456298828125
1772467412367703600,4.40170361328125,-1.0352783203125,-0.4013214111328125,-0.1436767578125
1772467412377675300,4.41167529296875,-1.0284423828125,-0.4033660888671875,-0.1444854736328125
1772467412387648300,4.421648193359375,-1.00946044921875,-0.44525146484375,-0.13006591796875
1772467412397621500,4.43162158203125,-0.9808349609375,-0.5413665771484375,-0.0579071044921875
1772467412407593500,4.441593505859375,-1.0141754150390625,-0.583770751953125,0.0122528076171875
1772467412417566200,4.451566162109375,-1.0879058837890625,-0.544281005859375,0.0093536376953125
1772467412427539500,4.46153955078125,-1.1778106689453125,-0.5394744873046875,-0.0338592529296875
1772467412437511400,4.471511474609375,-1.264617919921875,-0.51800537109375,-0.0464630126953125
1772467412447484400,4.481484375,-1.30340576171875,-0.467010498046875,-0.0775146484375
1772467412457457400,4.49145751953125,-1.345489501953125,-0.4010009765625,-0.1369171142578125
1772467412467429400,4.501429443359375,-1.34075927734375,-0.32293701171875,-0.1887054443359375
1772467412477402400,4.51140234375,-1.264068603515625,-0.2644195556640625,-0.2011871337890625
1772467412487375600,4.521375732421875,-1.17266845703125,-0.239898681640625,-0.1858367919921875
1772467412497347300,4.531347412109375,-1.0914459228515625,-0.25177001953125,-0.1517486572265625
1772467412507320300,4.5413203125,-1.0397491455078125,-0.29229736328125,-0.085693359375
1772467412517293600,4.55129345703125,-1.0121612548828125,-0.317657470703125,-0.0050506591796875
1772467412527265300,4.561265380859375,-0.985321044921875,-0.3466796875,0.0556640625
1772467412537238300,4.57123828125,-0.96551513671875,-0.381378173828125,0.0914154052734375
1772467412547211500,4.58121142578125,-0.95050048828125,-0.4055328369140625,0.0950927734375
1772467412557183500,4.59118359375,-0.931884765625,-0.4108123779296875,0.0866241455078125
1772467412567156200,4.60115625,-0.9325103759765625,-0.412750244140625,0.071380615234375
1772467412577129500,4.61112939453125,-0.93145751953125,-0.404205322265625,0.0572509765625
1772467412587101400,4.621101318359375,-0.9141845703125,-0.38104248046875,0.0279541015625
1772467412597074400,4.631074462890625,-0.9056549072265625,-0.363006591796875,-0.0187530517578125
1772467412607047400,4.64104736328125,-0.910552978515625,-0.354217529296875,-0.05609130859375
1772467412617020400,4.6510205078125,-0.895263671875,-0.350555419921875,-0.078369140625
1772467412626992400,4.660992431640625,-0.8622894287109375,-0.3488311767578125,-0.078216552734375
1772467412636965600,4.670965576171875,-0.82403564453125,-0.347076416015625,-0.0531463623046875
1772467412646938400,4.6809384765625,-0.7461090087890625,-0.320220947265625,0.0002288818359375
1772467412656910300,4.690910400390625,-0.7571868896484375,-0.3629302978515625,-0.016265869140625
1772467412666883600,4.700883544921875,-0.787109375,-0.3995513916015625,-0.0552825927734375
1772467412676856600,4.710856689453125,-0.7790374755859375,-0.3855743408203125,-0.0670623779296875
1772467412686828300,4.720828369140625,-0.763458251953125,-0.388885498046875,-0.070159912109375
1772467412696801500,4.730801513671875,-0.742218017578125,-0.3871002197265625,-0.061920166015625
1772467412706774500,4.7407744140625,-0.702880859375,-0.375518798828125,-0.044464111328125
1772467412716746200,4.750746337890625,-0.6750335693359375,-0.37359619140625,-0.0312347412109375
1772467412726719500,4.760719482421875,-0.6595458984375,-0.37432861328125,-0.0230255126953125
1772467412736692500,4.7706923828125,-0.6650543212890625,-0.3765411376953125,-0.015625
1772467412746664200,4.780664306640625,-0.701934814453125,-0.3754119873046875,-0.0101470947265625
1772467412756637400,4.790637451171875,-0.7152557373046875,-0.3735504150390625,-0.005584716796875
1772467412766610400,4.8006103515625,-0.701202392578125,-0.37152099609375,-0.000396728515625
1772467412776582400,4.81058251953125,-0.721649169921875,-0.373565673828125,-0.005706787109375
1772467412786555400,4.820555419921875,-0.7662506103515625,-0.3740386962890625,-0.0050048828125
1772467412796528400,4.8305283203125,-0.787841796875,-0.3713531494140625,-0.0143280029296875
1772467412806500400,4.840500244140625,-0.80029296875,-0.3716888427734375,-0.042999267578125
1772467412816473600,4.8504736328125,-0.8325347900390625,-0.3790130615234375,-0.064544677734375
1772467412826446300,4.8604462890625,-0.8670654296875,-0.3946990966796875,-0.07489013671875
1772467412836418300,4.870418212890625,-0.9039154052734375,-0.412261962890625,-0.0793609619140625
1772467412846391600,4.8803916015625,-0.925506591796875,-0.4232025146484375,-0.0914306640625
1772467412856364500,4.890364501953125,-0.949737548828125,-0.425750732421875,-0.1049346923828125
1772467412866336300,4.900336181640625,-0.9538116455078125,-0.4303741455078125,-0.115509033203125
1772467412876309500,4.9103095703125,-0.93939208984375,-0.43438720703125,-0.129730224609375
1772467412886282500,4.920282470703125,-0.9400634765625,-0.4441680908203125,-0.1402435302734375
1772467412896255500,4.93025537109375,-0.9338531494140625,-0.4504852294921875,-0.1443634033203125
1772467412906227500,4.9402275390625,-0.9336700439453125,-0.4459991455078125,-0.14599609375
1772467412916200400,4.950200439453125,-0.95782470703125,-0.444122314453125,-0.1446533203125
1772467412926173400,4.96017333984375,-0.9877777099609375,-0.4490509033203125,-0.141510009765625
1772467412936145400,4.9701455078125,-0.9848175048828125,-0.48858642578125,-0.1333465576171875
1772467412946118400,4.980118408203125,-0.957550048828125,-0.601531982421875,-0.0957794189453125
1772467412956091400,4.99009130859375,-0.961456298828125,-0.6304473876953125,-0.0652313232421875
1772467412966063600,5.000063720703125,-1.01812744140625,-0.584503173828125,-0.0579376220703125
1772467412976036400,5.010036376953125,-1.0455474853515625,-0.6019744873046875,-0.0721435546875
1772467412986009300,5.02000927734375,-1.069915771484375,-0.6215057373046875,-0.0898590087890625
1772467412995981600,5.029981689453125,-1.124664306640625,-0.5863494873046875,-0.105682373046875
1772467413005954600,5.03995458984375,-1.1891937255859375,-0.5305633544921875,-0.1246490478515625
1772467413015927300,5.04992724609375,-1.1998443603515625,-0.4751129150390625,-0.167144775390625
1772467413025899500,5.0598994140625,-1.1969146728515625,-0.4185638427734375,-0.2293243408203125
1772467413035872500,5.06987255859375,-1.20892333984375,-0.3694000244140625,-0.26458740234375
1772467413045845500,5.079845458984375,-1.2113494873046875,-0.337188720703125,-0.2967681884765625
1772467413055817500,5.0898173828125,-1.2306976318359375,-0.3119964599609375,-0.3056182861328125
1772467413065790500,5.09979052734375,-1.252471923828125,-0.3145294189453125,-0.308502197265625
1772467413075763500,5.109763427734375,-1.160919189453125,-0.2838287353515625,-0.2424774169921875
1772467413085735400,5.1197353515625,-1.052825927734375,-0.2279510498046875,-0.1470794677734375
1772467413095708400,5.12970849609375,-0.98193359375,-0.2149505615234375,-0.1083831787109375
1772467413105681400,5.139681396484375,-1.0194549560546875,-0.309417724609375,-0.1672821044921875
1772467413115653600,5.149653564453125,-1.0417022705078125,-0.3685302734375,-0.15887451171875
1772467413125626400,5.15962646484375,-1.003692626953125,-0.2918548583984375,-0.05242919921875
1772467413135599400,5.169599365234375,-0.99432373046875,-0.2888641357421875,0.009521484375
1772467413145571600,5.179571533203125,-0.969268798828125,-0.311798095703125,0.0346832275390625
1772467413155544600,5.189544677734375,-0.9411468505859375,-0.280029296875,0.02301025390625
1772467413165517300,5.199517333984375,-0.9074859619140625,-0.261688232421875,-0.0148773193359375
1772467413175490300,5.209490234375,-0.8708953857421875,-0.2526092529296875,-0.037872314453125
1772467413185462500,5.219462646484375,-0.8267364501953125,-0.246063232421875,-0.0449676513671875
1772467413195435300,5.229435302734375,-0.796722412109375,-0.2463226318359375,-0.0506744384765625
1772467413205408300,5.239408203125,-0.7611083984375,-0.2495574951171875,-0.0617218017578125
1772467413215380500,5.24938037109375,-0.7378997802734375,-0.2600555419921875,-0.083343505859375
1772467413225353500,5.259353515625,-0.7273406982421875,-0.26373291015625,-0.095733642578125
1772467413235326200,5.269326171875,-0.6910858154296875,-0.2683258056640625,-0.075408935546875
1772467413245298400,5.27929833984375,-0.6451568603515625,-0.2928314208984375,-0.0626220703125
1772467413255271400,5.289271484375,-0.6322021484375,-0.325531005859375,-0.0724334716796875
1772467413265244400,5.299244384765625,-0.6383819580078125,-0.3415985107421875,-0.076080322265625
1772467413275216400,5.30921630859375,-0.633514404296875,-0.344268798828125,-0.0793609619140625
1772467413285190100,5.319190185546875,-0.607574462890625,-0.3418426513671875,-0.0797271728515625
1772467413295163100,5.3291630859375,-0.60247802734375,-0.355194091796875,-0.07818603515625
1772467413305136000,5.33913623046875,-0.590179443359375,-0.373779296875,-0.0809326171875
1772467413315108000,5.349108154296875,-0.562225341796875,-0.4000091552734375,-0.080596923828125
1772467413325081000,5.3590810546875,-0.5502166748046875,-0.4007110595703125,-0.0591583251953125
1772467413335054000,5.36905419921875,-0.56573486328125,-0.3954315185546875,-0.052520751953125
1772467413345026300,5.3790263671875,-0.5807952880859375,-0.3767242431640625,-0.03680419921875
1772467413354999000,5.3889990234375,-0.53643798828125,-0.36297607421875,-0.0131988525390625
1772467413364972000,5.398971923828125,-0.640838623046875,-0.5149993896484375,-0.066619873046875
1772467413374944300,5.4089443359375,-0.7183685302734375,-0.5362091064453125,-0.108062744140625
1772467413384917200,5.418917236328125,-0.697784423828125,-0.5023193359375,-0.0797882080078125
1772467413394890000,5.428889892578125,-0.6839141845703125,-0.5112152099609375,-0.0396270751953125
1772467413404862200,5.4388623046875,-0.734527587890625,-0.51971435546875,-0.029449462890625
1772467413414835200,5.448835205078125,-0.8116302490234375,-0.5303802490234375,-0.04803466796875
1772467413424808200,5.45880810546875,-0.8313140869140625,-0.55218505859375,-0.0711517333984375
1772467413434780200,5.4687802734375,-0.8247222900390625,-0.5646820068359375,-0.092254638671875
1772467413444753200,5.478753173828125,-0.86602783203125,-0.5658416748046875,-0.0931854248046875
1772467413454726100,5.48872607421875,-0.9627227783203125,-0.55023193359375,-0.1134490966796875
1772467413464699400,5.498699462890625,-1.00067138671875,-0.5281829833984375,-0.1585235595703125
1772467413474671000,5.508671142578125,-1.0350341796875,-0.495635986328125,-0.2180633544921875
1772467413484644000,5.51864404296875,-1.0844573974609375,-0.4915924072265625,-0.2729949951171875
1772467413494617300,5.528617431640625,-1.06427001953125,-0.5334320068359375,-0.2974090576171875
1772467413504589000,5.538589111328125,-0.9329681396484375,-0.67169189453125,-0.2199554443359375
1772467413514562000,5.54856201171875,-0.9011688232421875,-0.795654296875,-0.0995330810546875
1772467413524535300,5.558535400390625,-0.9369354248046875,-0.817291259765625,0.0118560791015625
1772467413534507000,5.568507080078125,-0.9827728271484375,-0.825103759765625,0.0682830810546875
1772467413544480000,5.57847998046875,-1.1141510009765625,-0.819580078125,0.0493927001953125
1772467413554453200,5.588453369140625,-1.259246826171875,-0.7724151611328125,0.01885986328125
1772467413564425200,5.59842529296875,-1.3072357177734375,-0.70037841796875,0.0023651123046875
1772467413574398000,5.60839794921875,-1.3162994384765625,-0.65740966796875,-0.0264129638671875
1772467413584371200,5.61837109375,-1.3053131103515625,-0.6288299560546875,-0.07611083984375
1772467413594343200,5.62834326171875,-1.2586822509765625,-0.555511474609375,-0.10894775390625
1772467413604316200,5.638316162109375,-1.179473876953125,-0.5301666259765625,-0.1907806396484375
1772467413614289200,5.6482890625,-1.0855865478515625,-0.560821533203125,-0.259124755859375
1772467413624261000,5.65826123046875,-1.0668792724609375,-0.537994384765625,-0.1986083984375
1772467413634234000,5.668234130859375,-1.0571441650390625,-0.5380401611328125,-0.1077423095703125
1772467413644207400,5.678207275390625,-1.0179595947265625,-0.5650177001953125,-0.048583984375
1772467413654180000,5.68818017578125,-0.9727935791015625,-0.5839080810546875,0.0172882080078125
1772467413664152000,5.698152099609375,-0.9631195068359375,-0.6102294921875,0.0677490234375
1772467413674125300,5.708125244140625,-0.935089111328125,-0.6259002685546875,0.083984375
1772467413684098300,5.718098388671875,-0.898223876953125,-0.606781005859375,0.0711517333984375
1772467413694070000,5.728070068359375,-0.912445068359375,-0.559661865234375,0.08746337890625
1772467413704043300,5.738043212890625,-0.896759033203125,-0.5372314453125,0.016387939453125
1772467413714016300,5.748016357421875,-0.8396453857421875,-0.5327911376953125,-0.0435943603515625
1772467413723988000,5.757988037109375,-0.806671142578125,-0.5049896240234375,-0.0384979248046875
1772467413733961200,5.767961181640625,-0.792724609375,-0.4786834716796875,-0.0180816650390625
1772467413743934200,5.777934326171875,-0.7852783203125,-0.456451416015625,-0.02630615234375
1772467413753906200,5.78790625,-0.7602386474609375,-0.4376373291015625,-0.03857421875
1772467413763879200,5.797879150390625,-0.7246551513671875,-0.4202880859375,-0.0379791259765625
1772467413773852200,5.80785205078125,-0.6987457275390625,-0.408111572265625,-0.042144775390625
1772467413783824100,5.81782421875,-0.6734771728515625,-0.4010009765625,-0.034698486328125
1772467413793797400,5.82779736328125,-0.6571044921875,-0.39453125,-0.0232696533203125
1772467413803770000,5.83777001953125,-0.650238037109375,-0.3858642578125,-0.0131378173828125
1772467413813742000,5.8477421875,-0.649566650390625,-0.37261962890625,-0.012542724609375
1772467413823715300,5.85771533203125,-0.6436614990234375,-0.356170654296875,-0.0123443603515625
1772467413833688300,5.867688232421875,-0.64031982421875,-0.35113525390625,-0.0216827392578125
1772467413843661000,5.8776611328125,-0.6114349365234375,-0.3467864990234375,-0.012969970703125
1772467413853633300,5.88763330078125,-0.623077392578125,-0.3496856689453125,-0.0195770263671875
1772467413863606300,5.897606201171875,-0.6542816162109375,-0.3897857666015625,-0.03741455078125
1772467413873579300,5.907579345703125,-0.627960205078125,-0.366973876953125,-0.015838623046875
1772467413883551200,5.91755126953125,-0.631927490234375,-0.3704071044921875,0.008392333984375
1772467413893524200,5.927524169921875,-0.648284912109375,-0.3944091796875,0.0309906005859375
1772467413903497200,5.937497314453125,-0.656097412109375,-0.4256134033203125,0.0459136962890625
1772467413913470200,5.94747021484375,-0.6580352783203125,-0.477996826171875,0.0322265625
1772467413923443200,5.957443115234375,-0.640594482421875,-0.5087890625,0.035888671875
1772467413933416200,5.967416259765625,-0.6405792236328125,-0.5063323974609375,0.0549774169921875
1772467413943389200,5.97738916015625,-0.691192626953125,-0.5396270751953125,0.039642333984375
1772467413953361200,5.987361083984375,-0.7180938720703125,-0.570159912109375,0.0062713623046875
1772467413963334100,5.997334228515625,-0.7205810546875,-0.572265625,-0.03436279296875
1772467413973307100,6.00730712890625,-0.745208740234375,-0.5840606689453125,-0.0845184326171875
1772467413983279000,6.017279052734375,-0.777862548828125,-0.5918121337890625,-0.1225433349609375
1772467413993252000,6.027252197265625,-0.8107757568359375,-0.5872039794921875,-0.1466522216796875
1772467414003225000,6.03722509765625,-0.8438720703125,-0.57666015625,-0.1610107421875
1772467414013197000,6.047197021484375,-0.8827667236328125,-0.564910888671875,-0.1768646240234375
1772467414023170300,6.05717041015625,-0.9180145263671875,-0.570098876953125,-0.186065673828125
1772467414033143000,6.06714306640625,-0.9166107177734375,-0.59478759765625,-0.1780853271484375
1772467414043115300,6.077115234375,-0.89947509765625,-0.671630859375,-0.1505279541015625
1772467414053088300,6.087088134765625,-0.882568359375,-0.806640625,-0.1114959716796875
1772467414063061200,6.097061279296875,-0.9060821533203125,-0.839752197265625,-0.0756378173828125
1772467414073033200,6.107033203125,-0.9202423095703125,-0.7716827392578125,-0.0500640869140625
1772467414083006200,6.117006103515625,-0.920562744140625,-0.7445831298828125,-0.0548553466796875
1772467414092979200,6.126979248046875,-0.9283905029296875,-0.74249267578125,-0.0770721435546875
1772467414102951200,6.136951171875,-0.9718475341796875,-0.7325592041015625,-0.1114044189453125
1772467414112924200,6.146924072265625,-1.000579833984375,-0.7062225341796875,-0.1539306640625
1772467414122897200,6.156897216796875,-0.934173583984375,-0.6712799072265625,-0.196807861328125
1772467414132870100,6.1668701171875,-0.9188690185546875,-0.6331634521484375,-0.216888427734375
1772467414142842000,6.176842041015625,-1.0124969482421875,-0.5844879150390625,-0.208038330078125
1772467414152815000,6.186815185546875,-1.0101470947265625,-0.5654754638671875,-0.205596923828125
1772467414162788000,6.1967880859375,-0.9490814208984375,-0.5614166259765625,-0.2053375244140625
1772467414172760300,6.20676025390625,-0.9180450439453125,-0.563232421875,-0.19793701171875
1772467414182733000,6.216733154296875,-0.91802978515625,-0.5685882568359375,-0.181396484375
1772467414192706000,6.2267060546875,-0.9021759033203125,-0.570709228515625,-0.14727783203125
1772467414202678300,6.23667822265625,-0.8648681640625,-0.576202392578125,-0.11004638671875
1772467414212651300,6.2466513671875,-0.82061767578125,-0.5890350341796875,-0.078216552734375
1772467414222624000,6.2566240234375,-0.8073883056640625,-0.6002349853515625,-0.0455169677734375
1772467414232596200,6.26659619140625,-0.8206634521484375,-0.60675048828125,-0.0161590576171875
1772467414242569200,6.2765693359375,-0.821044921875,-0.5978546142578125,0.0006103515625
1772467414252542200,6.286542236328125,-0.81280517578125,-0.5723876953125,0.0042266845703125
1772467414262514200,6.29651416015625,-0.8174591064453125,-0.5427093505859375,-0.008148193359375
1772467414272487200,6.306487060546875,-0.839141845703125,-0.5207672119140625,-0.0322723388671875
1772467414282460000,6.3164599609375,-0.8454742431640625,-0.5050048828125,-0.0564117431640625
1772467414292433000,6.326432861328125,-0.822265625,-0.4874114990234375,-0.07159423828125
1772467414302405000,6.336405029296875,-0.789093017578125,-0.4721832275390625,-0.0763397216796875
1772467414312378000,6.346378173828125,-0.76446533203125,-0.4636993408203125,-0.0767669677734375
1772467414322351000,6.35635107421875,-0.738800048828125,-0.460174560546875,-0.0714569091796875
1772467414332323000,6.366322998046875,-0.7122039794921875,-0.46002197265625,-0.0591583251953125
1772467414342296000,6.376296142578125,-0.703399658203125,-0.466339111328125,-0.0472412109375
1772467414352269000,6.38626904296875,-0.70855712890625,-0.473968505859375,-0.0424041748046875
1772467414362241000,6.396240966796875,-0.702056884765625,-0.4732666015625,-0.0365447998046875
1772467414372214000,6.406214111328125,-0.690155029296875,-0.4625701904296875,-0.038299560546875
1772467414382187000,6.41618701171875,-0.68939208984375,-0.4505767822265625,-0.05328369140625
1772467414392159000,6.426158935546875,-0.6922607421875,-0.443695068359375,-0.070281982421875
1772467414402132000,6.436132080078125,-0.7045135498046875,-0.4454498291015625,-0.0776214599609375
1772467414412105000,6.44610498046875,-0.7213134765625,-0.4532928466796875,-0.0880279541015625
1772467414422077200,6.4560771484375,-0.731353759765625,-0.460357666015625,-0.1137847900390625
1772467414432050000,6.4660498046875,-0.7226715087890625,-0.46173095703125,-0.1326141357421875
1772467414442023000,6.47602294921875,-0.713226318359375,-0.457366943359375,-0.1443939208984375
1772467414451995100,6.4859951171875,-0.6968841552734375,-0.4614715576171875,-0.14508056640625
1772467414461968100,6.495968017578125,-0.6764068603515625,-0.4726104736328125,-0.13287353515625
1772467414471941000,6.505941162109375,-0.667388916015625,-0.4940948486328125,-0.1137847900390625
1772467414481913000,6.5159130859375,-0.6693878173828125,-0.5196533203125,-0.0930938720703125
1772467414491886000,6.525885986328125,-0.67010498046875,-0.542205810546875,-0.07708740234375
1772467414501859000,6.535859130859375,-0.6762237548828125,-0.558135986328125,-0.06683349609375
1772467414511832000,6.54583203125,-0.69671630859375,-0.569610595703125,-0.059478759765625
1772467414521804000,6.555803955078125,-0.7260284423828125,-0.5777435302734375,-0.0572052001953125
1772467414531777000,6.565777099609375,-0.759521484375,-0.5906219482421875,-0.0559539794921875
1772467414541750000,6.57575,-0.78668212890625,-0.60186767578125,-0.057525634765625
1772467414551722000,6.585721923828125,-0.8195343017578125,-0.606048583984375,-0.0627288818359375
1772467414561695000,6.595695068359375,-0.8549041748046875,-0.6104888916015625,-0.07586669921875
1772467414571668200,6.605668212890625,-0.884918212890625,-0.6058197021484375,-0.0821990966796875
1772467414581640000,6.615639892578125,-0.922882080078125,-0.58953857421875,-0.0892333984375
1772467414591613000,6.625613037109375,-0.9486541748046875,-0.568695068359375,-0.1124420166015625
1772467414601586200,6.635586181640625,-0.96270751953125,-0.5486297607421875,-0.1393280029296875
1772467414611558000,6.645557861328125,-0.96136474609375,-0.531341552734375,-0.1558380126953125
1772467414621531100,6.65553125,-0.9211273193359375,-0.5522918701171875,-0.1316986083984375
1772467414631504100,6.665504150390625,-0.853515625,-0.659576416015625,-0.0582275390625
1772467414641476000,6.67547607421875,-0.899932861328125,-0.73162841796875,0.0115509033203125
1772467414651449000,6.685448974609375,-0.9897003173828125,-0.6737823486328125,0.0496673583984375
1772467414661422000,6.695422119140625,-1.0473785400390625,-0.6466827392578125,0.0711212158203125
1772467414671394000,6.70539404296875,-1.106201171875,-0.7095947265625,0.060546875
1772467414681367000,6.715366943359375,-1.2117462158203125,-0.7250213623046875,0.0201568603515625
1772467414691340000,6.725340087890625,-1.24993896484375,-0.6348114013671875,-0.037811279296875
1772467414701312000,6.73531201171875,-1.1993408203125,-0.5075531005859375,-0.1080322265625
1772467414711285000,6.745284912109375,-1.1199951171875,-0.4150543212890625,-0.175628662109375
1772467414721258200,6.75525830078125,-1.0671844482421875,-0.359649658203125,-0.21746826171875
1772467414731230000,6.76522998046875,-1.024627685546875,-0.3453826904296875,-0.2125244140625
1772467414741203000,6.775202880859375,-0.98504638671875,-0.3706817626953125,-0.1736907958984375
1772467414751176200,6.78517626953125,-0.956512451171875,-0.4287872314453125,-0.10845947265625
1772467414761149200,6.795149169921875,-0.946807861328125,-0.47760009765625,-0.0551910400390625
1772467414771121200,6.80512109375,-0.949615478515625,-0.502838134765625,-0.01080322265625
1772467414781094100,6.81509423828125,-0.95159912109375,-0.522705078125,0.024261474609375
1772467414791067100,6.825067138671875,-0.9434051513671875,-0.5259246826171875,0.0337677001953125
1772467414801039000,6.8350390625,-0.944732666015625,-0.51263427734375,0.0099334716796875
1772467414811012000,6.84501220703125,-0.9453582763671875,-0.5106201171875,-0.0265350341796875
1772467414820985000,6.854985107421875,-0.938568115234375,-0.515960693359375,-0.0542144775390625
1772467414830957000,6.86495703125,-0.9317169189453125,-0.503509521484375,-0.0803375244140625
1772467414840930000,6.874929931640625,-0.90728759765625,-0.4737396240234375,-0.09954833984375
1772467414850903000,6.884903076171875,-0.8838043212890625,-0.448699951171875,-0.1102294921875
1772467414860875000,6.894875,-0.8603363037109375,-0.440399169921875,-0.125579833984375
1772467414870848300,6.90484814453125,-0.821014404296875,-0.43707275390625,-0.1218719482421875
1772467414880821000,6.914821044921875,-0.7697906494140625,-0.4333038330078125,-0.098785400390625
1772467414890793000,6.92479296875,-0.7352142333984375,-0.42816162109375,-0.0638427734375
1772467414900766200,6.93476611328125,-0.7272491455078125,-0.431182861328125,-0.0293426513671875
1772467414910739200,6.9447392578125,-0.7203826904296875,-0.44085693359375,-0.0054168701171875
1772467414920711200,6.954711181640625,-0.705657958984375,-0.4516143798828125,0.003814697265625
1772467414930684200,6.96468408203125,-0.69671630859375,-0.4565277099609375,0.0007781982421875
1772467414940657200,6.9746572265625,-0.691864013671875,-0.4521484375,-0.0066070556640625
1772467414950629000,6.984629150390625,-0.689453125,-0.4410400390625,-0.0161590576171875
1772467414960602000,6.99460205078125,-0.7004547119140625,-0.4297637939453125,-0.0181121826171875
1772467414970575000,7.0045751953125,-0.7114105224609375,-0.419525146484375,-0.016632080078125
1772467414980547000,7.014547119140625,-0.7094573974609375,-0.410430908203125,-0.0095062255859375
1772467414990520000,7.02452001953125,-0.7260589599609375,-0.406341552734375,-0.00445556640625
1772467415000493000,7.0344931640625,-0.7388763427734375,-0.4197845458984375,-0.0009765625
1772467415010465000,7.044465087890625,-0.7354736328125,-0.4464569091796875,0.0027008056640625
1772467415020438000,7.05443798828125,-0.7312774658203125,-0.475311279296875,0.008209228515625
1772467415030411000,7.064410888671875,-0.737457275390625,-0.4952239990234375,0.0238189697265625
1772467415040383000,7.074383056640625,-0.7520599365234375,-0.505096435546875,0.03509521484375
1772467415050356200,7.084356201171875,-0.75531005859375,-0.5199432373046875,0.0374908447265625
1772467415060329000,7.094328857421875,-0.7594757080078125,-0.5405120849609375,0.0367584228515625
1772467415070301000,7.104301025390625,-0.7768707275390625,-0.5569610595703125,0.0335693359375
1772467415080274200,7.114274169921875,-0.8039398193359375,-0.5677642822265625,0.0246429443359375
1772467415090247200,7.1242470703125,-0.821868896484375,-0.5801849365234375,0.01019287109375
1772467415100219100,7.13421923828125,-0.8361968994140625,-0.59521484375,-0.00286865234375
1772467415110192000,7.144192138671875,-0.859344482421875,-0.606414794921875,-0.019683837890625
1772467415120165000,7.1541650390625,-0.8838043212890625,-0.60614013671875,-0.0262908935546875
1772467415130137000,7.16413720703125,-0.900787353515625,-0.597442626953125,-0.0304718017578125
1772467415140110000,7.174110107421875,-0.919769287109375,-0.5855255126953125,-0.0449981689453125
1772467415150083000,7.1840830078125,-0.9319305419921875,-0.57421875,-0.0620574951171875
1772467415160055000,7.194054931640625,-0.9332275390625,-0.5623626708984375,-0.081085205078125
1772467415170028000,7.204028076171875,-0.9308929443359375,-0.5541839599609375,-0.089752197265625
1772467415180001000,7.2140009765625,-0.90533447265625,-0.592193603515625,-0.0584716796875
1772467415189973000,7.223972900390625,-0.8932952880859375,-0.678924560546875,-0.011322021484375
1772467415199946200,7.2339462890625,-0.94024658203125,-0.6905975341796875,0.0114898681640625
1772467415209919000,7.2439189453125,-0.9664154052734375,-0.644500732421875,0.012786865234375
1772467415219891000,7.253890869140625,-0.9644775390625,-0.647491455078125,0.00634765625
1772467415229864200,7.2638642578125,-0.9906005859375,-0.6567230224609375,-0.0180816650390625
1772467415239837200,7.273837158203125,-1.023834228515625,-0.6382293701171875,-0.058319091796875
1772467415249809200,7.28380908203125,-1.0324859619140625,-0.6082763671875,-0.1080474853515625
1772467415259782100,7.2937822265625,-1.0215606689453125,-0.5708770751953125,-0.1393890380859375
1772467415269755100,7.303755126953125,-1.009429931640625,-0.5493621826171875,-0.1651153564453125
1772467415279727000,7.31372705078125,-0.9913177490234375,-0.5337982177734375,-0.195556640625
1772467415289697000,7.323697021484375,-0.964599609375,-0.5068511962890625,-0.210601806640625
1772467415299670000,7.333669921875,-0.9552154541015625,-0.4788665771484375,-0.2012481689453125
1772467415309641700,7.343641845703125,-0.9385986328125,-0.477020263671875,-0.1706085205078125
1772467415319615000,7.353614990234375,-0.90771484375,-0.5019683837890625,-0.1343536376953125
1772467415329588000,7.363587890625,-0.8890380859375,-0.5246124267578125,-0.101043701171875
1772467415339559700,7.3735595703125,-0.8762359619140625,-0.5351409912109375,-0.0637359619140625
1772467415349533000,7.383532958984375,-0.8658447265625,-0.54052734375,-0.03387451171875
1772467415359506000,7.393505859375,-0.8572540283203125,-0.538421630859375,-0.0128936767578125
1772467415369478000,7.403477783203125,-0.8698577880859375,-0.533966064453125,-0.0090179443359375
1772467415379451000,7.413450927734375,-0.884124755859375,-0.53509521484375,-0.0188446044921875
1772467415389423900,7.423423828125,-0.8857421875,-0.52972412109375,-0.043487548828125
1772467415399395800,7.433395751953125,-0.8861846923828125,-0.5067596435546875,-0.0753936767578125
1772467415409369000,7.443369140625,-0.8781585693359375,-0.476348876953125,-0.1054229736328125
1772467415419341800,7.453341796875,-0.8579559326171875,-0.45025634765625,-0.128021240234375
1772467415429313800,7.463313720703125,-0.82684326171875,-0.4371185302734375,-0.137969970703125
1772467415439287000,7.473287109375,-0.7920074462890625,-0.4305419921875,-0.1295166015625
1772467415449260000,7.483260009765625,-0.7553558349609375,-0.4221038818359375,-0.10772705078125
1772467415459231700,7.493231689453125,-0.716949462890625,-0.421844482421875,-0.086273193359375
1772467415469205000,7.503205078125,-0.6908416748046875,-0.428619384765625,-0.06378173828125
1772467415479178000,7.513177978515625,-0.6697540283203125,-0.4366912841796875,-0.0408477783203125
1772467415489149700,7.523149658203125,-0.6446533203125,-0.441253662109375,-0.0194091796875
1772467415499123000,7.533123046875,-0.6204071044921875,-0.4466552734375,-0.0093536376953125
1772467415509096000,7.543095947265625,-0.610687255859375,-0.4617919921875,-0.00146484375
1772467415519068000,7.55306787109375,-0.6167144775390625,-0.47869873046875,0.0024871826171875
1772467415529041000,7.563041015625,-0.628997802734375,-0.4903564453125,0.0059814453125
1772467415539014000,7.573013916015625,-0.63787841796875,-0.4942474365234375,0.0026092529296875
1772467415548985900,7.58298583984375,-0.65008544921875,-0.502777099609375,-0.00933837890625
1772467415558959000,7.592958984375,-0.6700897216796875,-0.5113067626953125,-0.019317626953125
1772467415568931800,7.602931884765625,-0.6944427490234375,-0.51593017578125,-0.0354156494140625
1772467415578903800,7.61290380859375,-0.697265625,-0.5164337158203125,-0.0446014404296875
1772467415588877000,7.622876953125,-0.699493408203125,-0.519439697265625,-0.05181884765625
1772467415598850000,7.63285009765625,-0.695526123046875,-0.5294342041015625,-0.0570068359375
1772467415608821800,7.64282177734375,-0.6978302001953125,-0.5380401611328125,-0.05621337890625
1772467415618795000,7.652794921875,-0.7032318115234375,-0.5490875244140625,-0.0507049560546875
1772467415628768000,7.66276806640625,-0.703704833984375,-0.5616455078125,-0.0402679443359375
1772467415638739700,7.67273974609375,-0.715087890625,-0.5750732421875,-0.0341644287109375
1772467415648713000,7.682712890625,-0.727691650390625,-0.586517333984375,-0.0271759033203125
1772467415658685000,7.692684814453125,-0.752044677734375,-0.584930419921875,-0.02459716796875
1772467415668658000,7.702657958984375,-0.7899627685546875,-0.5848541259765625,-0.02398681640625
1772467415678631000,7.712630859375,-0.829742431640625,-0.5887603759765625,-0.014129638671875
1772467415688603000,7.722602783203125,-0.8673095703125,-0.5955963134765625,-0.005889892578125
1772467415698576000,7.732575927734375,-0.896514892578125,-0.598175048828125,-0.0070953369140625
1772467415708548900,7.742548828125,-0.9278411865234375,-0.5853424072265625,-0.016571044921875
1772467415718520800,7.752520751953125,-0.956024169921875,-0.56048583984375,-0.029327392578125
1772467415728493800,7.762493896484375,-0.9708099365234375,-0.5374908447265625,-0.044921875
1772467415738467000,7.772467041015625,-0.984771728515625,-0.5412750244140625,-0.033233642578125
1772467415748438800,7.782438720703125,-0.9349517822265625,-0.6204833984375,0.04449462890625
1772467415758411800,7.792411865234375,-0.92474365234375,-0.713836669921875,0.102996826171875
1772467415768385000,7.802385009765625,-0.9967498779296875,-0.67340087890625,0.103851318359375
1772467415778356700,7.812356689453125,-1.03466796875,-0.5944976806640625,0.0928192138671875
1772467415788329700,7.822329833984375,-1.046539306640625,-0.6259918212890625,0.0790557861328125
1772467415798303000,7.832302978515625,-1.12310791015625,-0.660919189453125,0.055145263671875
1772467415808275000,7.84227490234375,-1.188446044921875,-0.6230926513671875,0.0099029541015625
1772467415818247700,7.85224755859375,-1.17279052734375,-0.5367584228515625,-0.0373992919921875
1772467415828221000,7.862220947265625,-1.1299591064453125,-0.4723052978515625,-0.0696258544921875
1772467415838193000,7.87219287109375,-1.0691680908203125,-0.444091796875,-0.0980377197265625
1772467415848166000,7.882165771484375,-0.997772216796875,-0.4202423095703125,-0.1080169677734375
1772467415858139000,7.892138916015625,-0.9539337158203125,-0.394378662109375,-0.080047607421875
1772467415868110800,7.90211083984375,-0.948272705078125,-0.4063720703125,-0.0169219970703125
1772467415878083800,7.912083740234375,-0.9400787353515625,-0.449951171875,0.0472869873046875
1772467415888055800,7.922055908203125,-0.93115234375,-0.4872894287109375,0.1090545654296875
1772467415898028800,7.93202880859375,-0.928192138671875,-0.5145111083984375,0.1475982666015625
1772467415908001800,7.942001708984375,-0.9122314453125,-0.537628173828125,0.17291259765625
1772467415917974000,7.95197412109375,-0.9026641845703125,-0.548736572265625,0.174591064453125
1772467415927946800,7.96194677734375,-0.89141845703125,-0.543670654296875,0.1368255615234375
1772467415937919700,7.971919677734375,-0.8868560791015625,-0.5247955322265625,0.0843658447265625
1772467415947892000,7.98189208984375,-0.88714599609375,-0.5024566650390625,0.030792236328125
1772467415957865000,7.991864990234375,-0.8665771484375,-0.471588134765625,-0.012359619140625
1772467415967837700,8.001837646484375,-0.8458251953125,-0.43609619140625,-0.0320587158203125
1772467415977810000,8.011809814453125,-0.8274993896484375,-0.415557861328125,-0.045074462890625
1772467415987783000,8.021782958984375,-0.799713134765625,-0.4168243408203125,-0.0489501953125
1772467415997756000,8.031755859375,-0.77227783203125,-0.4256439208984375,-0.0424346923828125
1772467416007727900,8.041727783203125,-0.763031005859375,-0.4365234375,-0.027862548828125
1772467416017700900,8.051700927734375,-0.736053466796875,-0.4432373046875,-0.0146026611328125
1772467416027673000,8.061673095703124,-0.7105865478515625,-0.4404296875,-0.000152587890625
1772467416037645800,8.071645751953126,-0.71392822265625,-0.4393463134765625,0.01116943359375
1772467416047618800,8.081618896484375,-0.708892822265625,-0.4408416748046875,0.0206451416015625
1772467416057591000,8.091591064453125,-0.7046661376953125,-0.43792724609375,0.0241546630859375
1772467416067564000,8.10156396484375,-0.7110137939453125,-0.431243896484375,0.0235137939453125
1772467416077536800,8.111536865234376,-0.7187347412109375,-0.428680419921875,0.0300750732421875
1772467416087509000,8.121509033203125,-0.7259063720703125,-0.42950439453125,0.045074462890625
1772467416097482000,8.13148193359375,-0.735382080078125,-0.434417724609375,0.063201904296875
1772467416107455000,8.141455078125,-0.749786376953125,-0.4424591064453125,0.077484130859375
1772467416117427000,8.151427001953126,-0.7704315185546875,-0.4552154541015625,0.082733154296875
1772467416127400000,8.16139990234375,-0.7826080322265625,-0.46453857421875,0.080169677734375
1772467416137373000,8.171373046875,-0.7840728759765625,-0.4668121337890625,0.0748443603515625
1772467416147345000,8.181344970703124,-0.79437255859375,-0.4727020263671875,0.0703887939453125
1772467416157318000,8.19131787109375,-0.8061370849609375,-0.486328125,0.0635986328125
1772467416167291000,8.201290771484375,-0.8149261474609375,-0.494384765625,0.056396484375
1772467416177262800,8.211262939453125,-0.825958251953125,-0.4922027587890625,0.0658416748046875
1772467416187235800,8.22123583984375,-0.8316802978515625,-0.500274658203125,0.06951904296875
1772467416197207800,8.231207763671875,-0.83154296875,-0.521881103515625,0.059478759765625
1772467416207181000,8.24118115234375,-0.8321685791015625,-0.5380096435546875,0.0540313720703125
1772467416217153800,8.25115380859375,-0.8385009765625,-0.550018310546875,0.0522308349609375
1772467416227125800,8.261125732421876,-0.8571014404296875,-0.5622406005859375,0.0561981201171875
1772467416237099000,8.27109912109375,-0.8683013916015625,-0.570892333984375,0.045379638671875
1772467416247072000,8.281072021484375,-0.8932037353515625,-0.5713348388671875,0.028717041015625
1772467416257043700,8.291043701171875,-0.9191741943359375,-0.5648040771484375,0.0141448974609375
1772467416267017000,8.301016845703124,-0.9313507080078125,-0.551300048828125,0.0018463134765625
1772467416276990000,8.310989990234376,-0.94036865234375,-0.5426025390625,-0.0161285400390625
1772467416286966000,8.320966064453126,-0.94354248046875,-0.543670654296875,-0.0186614990234375
1772467416296939000,8.33093896484375,-0.9225616455078125,-0.5921478271484375,0.0188751220703125
1772467416306911000,8.340910888671875,-0.9212493896484375,-0.65679931640625,0.0562286376953125
1772467416316884000,8.350884033203124,-0.975433349609375,-0.6329345703125,0.07452392578125
1772467416326857200,8.360857177734376,-0.986968994140625,-0.5872802734375,0.0797271728515625
1772467416336829000,8.370828857421875,-0.9829559326171875,-0.6071624755859375,0.070281982421875
1772467416346802000,8.380802001953125,-1.0230712890625,-0.62255859375,0.03778076171875
1772467416356775200,8.390775146484375,-1.057464599609375,-0.5959930419921875,-0.0078582763671875
1772467416366747100,8.4007470703125,-1.052154541015625,-0.5531158447265625,-0.059112548828125
1772467416376720000,8.410719970703125,-1.04541015625,-0.5073699951171875,-0.110992431640625
1772467416386693000,8.420693115234375,-1.0382537841796875,-0.477264404296875,-0.1526641845703125
1772467416396665000,8.4306650390625,-1.02569580078125,-0.4584503173828125,-0.1734161376953125
1772467416406637800,8.440637939453126,-1.0194854736328125,-0.4396820068359375,-0.170135498046875
1772467416416610000,8.450610107421875,-0.9985504150390625,-0.420928955078125,-0.1543121337890625
1772467416426583000,8.4605830078125,-0.942169189453125,-0.4126434326171875,-0.130706787109375
1772467416436556000,8.47055615234375,-0.8979644775390625,-0.423553466796875,-0.0785980224609375
1772467416446528000,8.480528076171876,-0.7425384521484375,-0.4245147705078125,0.051605224609375
1772467416456501000,8.4905009765625,-0.861907958984375,-0.4822845458984375,0.18377685546875
1772467416466474000,8.500473876953125,-1.0188751220703125,-0.550811767578125,0.21014404296875
1772467416476446000,8.510446044921874,-0.9578094482421875,-0.5774688720703125,0.1085357666015625
1772467416486419000,8.5204189453125,-0.8751678466796875,-0.5435028076171875,0.041168212890625
1772467416496392000,8.530391845703125,-0.9138031005859375,-0.5352935791015625,0.0081939697265625
1772467416506364200,8.5403642578125,-0.940277099609375,-0.5169677734375,-0.0325469970703125
1772467416516337000,8.5503369140625,-0.9484710693359375,-0.4734344482421875,-0.07855224609375
1772467416526309000,8.56030908203125,-0.96807861328125,-0.445404052734375,-0.116180419921875
1772467416536282000,8.5702822265625,-0.9553985595703125,-0.433349609375,-0.14056396484375
1772467416546255000,8.580255126953125,-0.8927764892578125,-0.4176788330078125,-0.108062744140625
1772467416556227000,8.59022705078125,-0.852752685546875,-0.379241943359375,-0.086578369140625
