time,seconds_elapsed,z,y,x
1772467408044556500,0.078556640625,-2.6514450676321983,-0.3959443144187331,0.03599052885165438
1772467408054528800,0.08852880859375,-2.889251953232288,0.018895839127898214,-0.252379162440449
1772467408064501800,0.098501708984375,-2.7612930973172185,0.505092086879909,-0.5022714034359902
1772467408074474500,0.108474609375,-2.560535547173023,0.7004582993745804,-0.6195668995827436
1772467408084446700,0.11844677734375,-2.2316817784696816,0.8749845529362559,-0.58879288153667
1772467408094419700,0.128419677734375,-1.6238707831323145,1.1282634406954049,-0.5971324745325371
1772467408104392700,0.138392822265625,-1.2156301739811897,1.2816533827260135,-0.26169068747470153
1772467408114364700,0.14836474609375,-1.0287474199324846,1.1375114537730813,0.17577758706333116
1772467408124337700,0.158337646484375,-0.8563479492664337,0.6853066152110695,0.7442405963473021
1772467408134310700,0.168310546875,-0.9057377108573913,0.41356648034900423,1.0948021197941153
1772467408144282600,0.17828271484375,-0.8546323775202035,0.2641168003767729,1.1929082737591117
1772467408154255600,0.188255615234375,-0.7553583488196134,0.051929216940701,1.1659873144119977
1772467408164227800,0.198227783203125,-0.6496820518612861,-0.09500146594792604,1.0730115821380168
1772467408174200600,0.20820068359375,-0.6238403391182422,0.022803660221397876,0.6595654402330517
1772467408184173600,0.218173583984375,-0.40445641443729397,0.2287882973641157,0.31162878539711236
1772467408194145800,0.228145751953125,-0.037078561550378794,0.3520911441668868,0.0740326382045634
1772467408204118800,0.238118896484375,0.2791594712078571,0.3498430729791522,-0.16083697010092438
1772467408214091500,0.248091552734375,0.5747364087313414,0.4497811185464263,-0.22798421443961558
1772467408224063700,0.258063720703125,0.7735328879356383,0.6629620969340205,-0.22083640677789224
1772467408234036700,0.26803662109375,0.7979916218876838,0.8272025188028812,-0.22644677573926744
1772467408244008400,0.278008544921875,0.9429583112269639,0.9669929745480418,-0.4343075089521706
1772467408253981700,0.287981689453125,1.1467074444025753,0.8716878494784236,-0.3845847890798002
1772467408263954700,0.29795458984375,1.315080728292465,0.6989087318450212,-0.07360703320363536
1772467408273926700,0.3079267578125,1.1667623904377222,0.7197977906167506,0.1997381622348912
1772467408283900000,0.31789990234375,1.1643103211104868,0.7642419124990701,0.2562998247492127
1772467408293873000,0.327872802734375,1.2520558245807885,0.7039633848860859,0.333618973811157
1772467408303844900,0.337844970703125,1.2415320924788713,0.5581047151431441,0.4579816318651661
1772467408313817900,0.34781787109375,1.2259861483007668,0.35476620859503744,0.48985400307457894
1772467408323790800,0.357790771484375,1.2732628632605074,0.11344283930659294,0.43078784692604094
1772467408333762800,0.3677626953125,1.305901396536827,-0.05762099884152412,0.32966029931325463
1772467408343735800,0.37773583984375,1.4469482820838688,-0.30575200231820343,0.3372440689731389
1772467408353707800,0.387707763671875,1.6228262425154447,-0.29591245308816433,0.1694230486711487
1772467408363680800,0.3976806640625,1.1181114645153283,0.25774054334312674,0.18829831993505358
1772467408373654000,0.407654052734375,0.04856500120460987,0.2786117741972208,-0.22360797211676833
1772467408383625700,0.417625732421875,-0.007518120545148849,0.26154198145270346,-0.2709749043769203
1772467408393598700,0.4275986328125,0.41770694115459917,0.39571664314270016,-0.043116827934468166
1772467408403572000,0.437572021484375,0.547297197663784,0.3932242418050766,0.01932850405727513
1772467408413543700,0.447543701171875,0.3381798154532909,0.35447190182358024,0.019028872656729073
1772467408423516700,0.4575166015625,0.09399813412427901,0.23270430176407098,0.0012499087295494973
1772467408433490000,0.467489990234375,0.08393325170576572,0.231163794323802,-0.035917308351816606
1772467408443462000,0.4774619140625,0.21495734041035175,0.2966603488460183,-0.02898249498680234
1772467408453434600,0.4874345703125,0.3519008822917938,0.28613077152520416,-0.012161635502055287
1772467408463406800,0.49740673828125,0.3516571366637945,0.1952539842918515,0.05311323909349739
1772467408473379800,0.5073798828125,0.24850129809379576,-0.025792905165255068,0.19031239970382302
1772467408483352800,0.517352783203125,0.02662321850955486,-0.3908420228436589,0.37122627194337543
1772467408493324800,0.52732470703125,-0.12193418879806994,-0.602143178834021,0.40213125942535694
1772467408503297800,0.5372978515625,-0.31914310654997824,-0.49537236463725565,0.2546558386681601
1772467408513270800,0.547270751953125,-0.6929810953617096,-0.25906828481554983,-0.0640278154102154
1772467408523242800,0.55724267578125,-0.9829407775253057,-0.12151917825639247,-0.2867426198132336
1772467408533215700,0.5672158203125,-1.112407115393877,-0.16608078903853893,-0.2214861759235151
1772467408543188000,0.57718798828125,-1.1943933246850966,-0.27102175745964047,-0.13724199510505422
1772467408553161000,0.587160888671875,-1.1766034009724855,-0.30808278335332867,-0.06865909194005652
1772467408563133700,0.5971337890625,-0.9391267702400684,-0.43910511849224565,0.06223578089429065
1772467408573106000,0.60710595703125,-0.5722790787070989,-0.5967699613630771,0.3313463892366737
1772467408583079000,0.617078857421875,-0.5736784241110086,-0.5440700523108244,0.5692004019141197
1772467408593052000,0.627052001953125,-0.9155372203379869,-0.44433308227360246,0.5376253331508487
1772467408603024000,0.63702392578125,-1.1230290471732616,-0.4743599717468023,0.3321065599542111
1772467408612996900,0.646996826171875,-1.27577572286427,-0.5392489157646894,0.007965151926595717
1772467408622969900,0.656969970703125,-1.5742507199168205,-0.5101999314129352,-0.37466881361268456
1772467408632941800,0.66694189453125,-1.7814122918844222,-0.23688158744871615,-0.767807057634741
1772467408642914800,0.676914794921875,-1.5565245090901851,0.10156067833304405,-1.0537580886788667
1772467408652886800,0.68688671875,-1.224540625667572,0.44040246482640505,-1.1762967461761087
1772467408662860000,0.696860107421875,-0.9092197077542543,0.686767919935286,-1.1963275076180695
1772467408672832800,0.706832763671875,-0.5790086792230605,0.7957040954723954,-1.1765858653157948
1772467408682804700,0.7168046875,-0.31121114450693127,0.7690279777318239,-1.0263218002207577
1772467408692778000,0.726778076171875,-0.11270400363802908,0.6717819477275013,-0.7191003098718821
1772467408702751000,0.7367509765625,0.032488895672559734,0.5411453970357776,-0.40464448435530065
1772467408712722700,0.74672265625,0.150940503051877,0.33024522306174037,-0.08893088646312244
1772467408722696000,0.756696044921875,0.1662520539522171,0.09406389283686875,0.17557705952255054
1772467408732669000,0.7666689453125,0.050887891194224356,-0.10618716908991337,0.37869602330215274
1772467408742640600,0.776640625,0.031080197918415067,-0.21467910799086093,0.4186489712450653
1772467408752614000,0.78661376953125,0.1140238540649414,-0.20874737985432146,0.3555374852284789
1772467408762587000,0.7965869140625,0.009902969855070113,-0.15494447799623012,0.1613544546363875
1772467408772558800,0.806558837890625,-0.11564940944015979,-0.06714373720735312,-0.07270823946669697
1772467408782531800,0.81653173828125,-0.22988018425405024,0.009568623334169387,-0.2625562730617821
1772467408792503800,0.82650390625,-0.25810031656622884,0.04744505726397037,-0.4508209464555606
1772467408802476800,0.836476806640625,-0.015393383964896201,0.09180237764567137,-0.6661516867555678
1772467408812450000,0.846449951171875,0.4158914161652326,0.16192863779515027,-0.8318207531880587
1772467408822421800,0.856421875,0.7212298692464828,0.26888854482322927,-0.9034545683562755
1772467408832394800,0.866394775390625,0.939028570562601,0.36290450686514375,-0.8407344928100705
1772467408842368000,0.876367919921875,1.2071265495300292,0.3888768602505326,-0.6543807310715317
1772467408852339700,0.886339599609375,1.4714882645785807,0.36257746686786413,-0.47931401395760476
1772467408862312700,0.896312744140625,1.6513684463888405,0.3377940310060978,-0.3461538630723953
1772467408872286000,0.906285888671875,1.7656436448663473,0.29923838264048097,-0.22495671984460203
1772467408882257700,0.916257568359375,1.94820385954082,0.2363926348879933,-0.10115286471713333
1772467408892230700,0.926230712890625,2.045161427992582,0.1740817246645689,0.012810600930079817
1772467408902203000,0.936202880859375,2.052578426250815,0.0704272889226675,0.007325228321552277
1772467408912175900,0.94617578125,2.140122854191065,-0.08406009295582771,-0.1123418375284411
1772467408922148600,0.956148681640625,2.2159359278053046,-0.16804682841449975,-0.23653814430590717
1772467408932120800,0.966120849609375,2.1568951252937314,-0.18484832561165093,-0.3542758312622085
1772467408942093800,0.97609375,2.053022662886977,-0.2107943755120039,-0.47601833341307936
1772467408952066800,0.98606689453125,1.9913515118718146,-0.2360994971603155,-0.5842938165517524
1772467408962038800,0.996038818359375,2.0307009409636256,-0.2557879479706287,-0.6705209148157387
1772467408972011800,1.00601171875,2.027753781595826,-0.2671311797618866,-0.682247958292812
1772467408981984800,1.01598486328125,1.9697014055997133,-0.2850266096755862,-0.6953878642424941
1772467408991956700,1.025956787109375,1.849299248674512,-0.36896512207835913,-0.7561749258995055
1772467409001929700,1.0359296875,1.6959323952585457,-0.43661330167651174,-0.8128209422290325
1772467409011902700,1.04590283203125,1.6302479169487951,-0.45674511234015225,-0.8287637037049979
1772467409021875000,1.055875,1.5369243210852146,-0.5117348858952522,-0.8039275147426873
1772467409031847700,1.06584765625,1.2168354581177234,-0.6378317473307251,-0.737837305176258
1772467409041820000,1.07581982421875,0.7302987263649702,-0.8009218301206826,-0.657236558894068
1772467409051793000,1.08579296875,0.28377660961449147,-0.9631082420691848,-0.5910770834837108
1772467409061766000,1.095765869140625,-0.07807692689299583,-1.065703816407919,-0.5231712393300607
1772467409071737900,1.10573779296875,-0.5762473978161812,-1.1012544377386568,-0.5536916114086284
1772467409081710800,1.1157109375,-1.1320458818435668,-1.0443123610720038,-0.5915994633900001
1772467409091683800,1.125683837890625,-1.6217787792891263,-1.0581024014934897,-0.6353454834729433
1772467409101655800,1.13565576171875,-1.8418582850188017,-0.9758999191030859,-0.6887722454950213
1772467409111628800,1.14562890625,-1.8469634992033241,-0.7028466558158397,-0.80229056119062
1772467409121601800,1.155601806640625,-1.55651515673995,-0.5254167897671461,-0.8930276476923376
1772467409131574000,1.165573974609375,-0.9220733441084623,-0.8638649007678031,-0.6306655089631676
1772467409141546800,1.175546630859375,-0.7650923918485641,-1.452399533227086,-0.18543982523139566
1772467409151518700,1.185518798828125,-1.171259117335081,-1.5520850653380154,0.26786228878172114
1772467409161492000,1.195491943359375,-1.4613976631969212,-1.5601365621075034,0.6221336813308298
1772467409171465000,1.20546484375,-1.727392532405257,-1.7338237344965337,0.8749662866272032
1772467409181436700,1.215436767578125,-2.4122487735003233,-1.7961790683835743,0.9497928334221243
1772467409191410000,1.225409912109375,-3.130080817002058,-1.617131830266118,0.8121184930481016
1772467409201383000,1.2353828125,-3.1486440631747246,-1.0368673057630657,0.46397148339711125
1772467409211354600,1.245354736328125,-2.7300562475323678,-0.3925242768421769,0.093100856490992
1772467409221328000,1.255327880859375,-2.253436514160037,-0.00798515353500843,-0.1518637371103279
1772467409231300900,1.26530078125,-1.681511655718088,0.281899417565763,-0.2964526061131619
1772467409241272800,1.27527294921875,-1.1087491774082183,0.5855249292492866,-0.4310206327686086
1772467409251245800,1.285245849609375,-0.7770914572000504,0.8154793477833271,-0.34853790866471823
1772467409261218800,1.29521875,-0.6781196263164282,0.7177694996595382,0.14607226682784966
1772467409271190800,1.305190673828125,-0.7422644739687443,0.3350830184817314,0.5734752662217244
1772467409281167000,1.3151669921875,-0.7427128022581339,-0.07470745045989752,0.902113821271807
1772467409291140000,1.32514013671875,-0.6943652431964874,-0.3787017954558134,1.1923103809311986
1772467409301112000,1.335112060546875,-0.530861026647687,-0.5664706846892833,1.3914414989173411
1772467409311085000,1.3450849609375,-0.2709036840379238,-0.5907002860605717,1.4796103423662483
1772467409321057000,1.35505712890625,-0.3236468477100134,-0.5031140648052096,1.3261032036967575
1772467409331030000,1.365030029296875,-0.4199199410289526,-0.3921367388293147,0.993095749380067
1772467409341003300,1.375003173828125,-0.5541711750864983,-0.21326690310537813,0.6852439983036369
1772467409350975000,1.38497509765625,-0.4892132574856281,0.07822831806242465,0.39328715097345407
1772467409360948000,1.394947998046875,-0.19689795210659503,0.39627544606924053,0.07622394683691673
1772467409370921200,1.404921142578125,0.21848551453649998,0.6465767793223262,-0.1602221626708284
1772467409380893000,1.414892822265625,0.6257908886641264,0.8359528114914894,-0.3632289165139198
1772467409390866000,1.424865966796875,0.9474906939595937,0.9347399334579706,-0.551130309553258
1772467409400839200,1.434839111328125,1.2300485754340886,1.0009326535508036,-0.6357206734608859
1772467409410811100,1.44481103515625,1.4924252541452645,1.0073822680816054,-0.6904520883407443
1772467409420783900,1.454783935546875,1.772358047813177,0.9898130013823508,-0.6412647905193268
1772467409430757000,1.464757080078125,1.9835107352435588,0.8769482542246579,-0.45816959218531844
1772467409440729000,1.47472900390625,2.0809610556483267,0.6184671216472983,-0.30411588901635256
1772467409450701800,1.484701904296875,2.164813058811426,0.38346769468337294,-0.20563432586770503
1772467409460675000,1.494675048828125,2.17980020006299,0.26886925560086966,-0.1133220807374455
1772467409470647000,1.50464697265625,2.0920383299797773,0.150886434777081,-0.08552386363176628
1772467409480620000,1.5146201171875,2.1600018591374157,0.11567629744708538,-0.12376100236643105
1772467409490593000,1.524593017578125,2.24002173679173,0.20625410173386335,-0.05722765214238316
1772467409500565000,1.53456494140625,2.3281495175778866,0.26925620909184217,0.06712369906632229
1772467409510538000,1.5445380859375,2.312435815617442,0.24942601172327994,0.18964909522319212
1772467409520510000,1.554510009765625,2.059541251000762,0.1373401399835944,0.25256989923957734
1772467409530483000,1.56448291015625,1.8321628204345701,0.023826281267404555,0.29996870620902627
1772467409540456000,1.5744560546875,1.580804963865876,-0.08730945014059543,0.34115262071900065
1772467409550428200,1.58442822265625,1.3734551758497953,-0.17983780397325752,0.31090492810197173
1772467409560401000,1.59440087890625,1.1263263351529835,-0.23727204807102678,0.2938739147315733
1772467409570374000,1.604373779296875,0.8809726874351501,-0.2835769953891635,0.1696974999646656
1772467409580346000,1.61434619140625,0.6051286243855953,-0.3127127812415361,0.09823251115786842
1772467409590319000,1.624319091796875,0.241397019046545,-0.3413946858465671,-0.09087320703677833
1772467409600291800,1.634291748046875,0.06454875227808952,-0.3829442553311586,-0.2572757936418988
1772467409610264000,1.64426416015625,0.07508709742724895,-0.3372662077397108,-0.3450362572193146
1772467409620237000,1.654237060546875,-0.02068681419789791,-0.22538901031464337,-0.24335882063880562
1772467409630210000,1.6642099609375,-0.21749767254292965,-0.26663199806809423,-0.20429792616479098
1772467409640182000,1.67418212890625,-0.30665947255194187,-0.345826238553226,-0.1827517369248904
1772467409650155000,1.684155029296875,-0.4941846161574125,-0.2950198881626129,-0.18372849126886576
1772467409660128000,1.6941279296875,-0.966106547102332,-0.15530337443649767,-0.18463325808886438
1772467409670100000,1.704099853515625,-1.4299994853705167,-0.09807575882673263,-0.14500296622905878
1772467409680073000,1.714072998046875,-1.580262527552247,-0.18240473185181616,-0.06771622159937396
1772467409690045200,1.724045166015625,-1.4893576832681894,-0.5085539177715778,0.10269647742994129
1772467409700018200,1.73401806640625,-1.3531354413986205,-0.8917211682036519,0.14600602405807003
1772467409709991000,1.743990966796875,-1.1823434059292077,-0.6206053027197719,0.22295496983444316
1772467409719963100,1.753963134765625,-1.058470942544937,-0.28439532603472467,0.2874283735876903
1772467409729936100,1.76393603515625,-1.451732009229064,-0.6726864953517914,0.2925486574771814
1772467409739909000,1.7739091796875,-1.585253175446391,-0.6640417088642716,0.273518634042982
1772467409749881000,1.783881103515625,-1.7971598961144684,-0.0438733362570405,0.10169906389042735
1772467409759854000,1.79385400390625,-1.9017571656644343,0.3623819442957639,-0.16530388638190924
1772467409769827000,1.8038271484375,-1.6731272737324236,0.4889776951640844,-0.3267167201420292
1772467409779799000,1.813799072265625,-1.3022767762988805,0.5411272768571973,-0.4475951528094709
1772467409789772000,1.82377197265625,-1.0339905812829733,0.7230269817963242,-0.4536038186397403
1772467409799745000,1.8337451171875,-0.8542337335914373,0.84325319763273,-0.4005349301446229
1772467409809717200,1.84371728515625,-0.6752648214071989,0.7338429748430848,-0.3528149283967912
1772467409819690000,1.85368994140625,-0.5227805960446595,0.5253101145222783,-0.31628033753000195
1772467409829663000,1.8636630859375,-0.3295493497520685,0.3457905827179551,-0.1640714585101232
1772467409839635200,1.87363525390625,-0.17534136933684347,0.1773316663712263,0.07020886039901525
1772467409849608200,1.883608154296875,-0.13223521806001662,-0.003038344782590866,0.26408213092219085
1772467409859581000,1.893580810546875,-0.14993161827027796,-0.10987491769194602,0.3789637343276292
1772467409869553200,1.90355322265625,-0.25513269893229007,-0.23616730169951913,0.43465500721558925
1772467409879526100,1.913526123046875,-0.27886662574112414,-0.34701749416440725,0.4238741585474461
1772467409889498000,1.923498046875,-0.3374725439667702,-0.3953185837358236,0.36274434786736964
1772467409899471000,1.93347119140625,-0.25188626435697076,-0.3999059115260839,0.31190362028311935
1772467409909444000,1.943444091796875,-0.20814590682983397,-0.2637985282078385,0.2718448738781735
1772467409919416000,1.953416015625,-0.2333411383628845,-0.18664134650826453,0.22428020882252603
1772467409929389000,1.96338916015625,0.013348141872882842,-0.12753536980599164,0.12214297271054238
1772467409939362000,1.973362060546875,0.2769125690639019,-0.11383709932118653,-0.009807327460870147
1772467409949334300,1.983334228515625,0.6101975982129574,-0.09215805921554565,-0.04193367343135178
1772467409959307000,1.99330712890625,0.8368009527534246,-0.09775193369984626,-0.0214293396608904
1772467409969280000,2.003280029296875,1.0628227080136536,-0.12469342437833547,0.03170220227427781
1772467409979252200,2.013252197265625,1.439172971907258,-0.15074790308922528,0.07522077027689665
1772467409989225200,2.02322509765625,1.8829636178672313,-0.1382987558826804,0.12659706604257226
1772467409999198000,2.033197998046875,2.1616285835564137,-0.10223024815768003,0.19111323122531174
1772467410009170200,2.043170166015625,2.2944857329070567,-0.0564259438380599,0.23387864277306944
1772467410019143200,2.05314306640625,2.491716862490773,-0.09096797264814377,0.17405593263618646
1772467410029116200,2.0631162109375,2.768205653184652,-0.07611585595309733,0.13181136662475765
1772467410039088000,2.073088134765625,2.758220265743136,-0.052127077600359915,0.1818205204893835
1772467410049061000,2.08306103515625,2.6849510313928127,-0.13302227678447962,0.30529994770176705
1772467410059034000,2.0930341796875,2.5287603527277707,-0.24151801507771015,0.3582173719622195
1772467410069006000,2.103006103515625,2.380968669095635,-0.4207438246324658,0.22983652777541427
1772467410078979000,2.11297900390625,2.384906008544564,-0.5040624515712261,0.0884432856092695
1772467410088952000,2.1229521484375,2.284839952683449,-0.5587611332252621,-0.06896067783567122
1772467410098924300,2.13292431640625,2.1483137594312427,-0.6771367527589202,-0.1694743039343506
1772467410108897000,2.14289697265625,2.085178965604305,-0.7770981792017817,-0.14792588620474562
1772467410118870000,2.1528701171875,1.987348705971241,-0.9258408799484371,-0.05834837240115739
1772467410128842200,2.16284228515625,1.947818075093627,-1.1548951347723602,0.024523597615491596
1772467410138815200,2.172815185546875,1.6606880633980035,-1.2534186373665928,0.09283278013933449
1772467410148788000,2.1827880859375,1.1377671820998192,-1.34584411534667,0.18871413419432936
1772467410158760200,2.19276025390625,0.5674129339754581,-1.3886886930778621,0.3445066803872585
1772467410168733200,2.202733154296875,-0.015440145716071128,-1.3294421388611197,0.5080494753807783
1772467410178705000,2.212704833984375,-0.38711657257974147,-1.30297674126178,0.61295303440094
1772467410188678100,2.22267822265625,-0.8660627030730247,-1.1445976126417516,0.671907619933784
1772467410198651100,2.232651123046875,-1.4533885442644356,-0.9092214613199233,0.6502363247431814
1772467410208623000,2.242623046875,-1.665788016885519,-0.5986740414187312,0.4918074752299115
1772467410218596000,2.25259619140625,-1.8844816212147473,-0.22268735014051197,0.30892091467790306
1772467410228569000,2.262569091796875,-1.76323249207139,-0.5116121362984181,0.49408890069797634
1772467410238541000,2.272541015625,-1.2327128262072802,-1.5099173639550805,1.0549281553715466
1772467410248514000,2.28251416015625,-1.1931968083769082,-1.8371455772832035,1.6589663541719317
1772467410258487000,2.292487060546875,-1.6439005947262049,-1.909118926604092,2.1594930328324438
1772467410268459000,2.302458984375,-2.1887334481030702,-1.7085291342422366,2.1926668420292437
1772467410278429200,2.31242919921875,-3.320571824675798,-1.2807885825902223,1.8781097480952738
1772467410288402200,2.322402099609375,-4.37825015553832,-0.5741612391918898,1.431636438922584
1772467410298374100,2.3323740234375,-4.864437343201041,0.19616642296165226,1.0390550250656903
1772467410308347100,2.34234716796875,-4.682034949436783,0.414635570885241,0.5923252569139004
1772467410318320400,2.3523203125,-3.6956010690987107,0.8246209778770804,0.12043678984716534
1772467410328292000,2.3622919921875,-2.400611527198553,1.4970090748041867,-0.21612316931933162
1772467410338265000,2.37226513671875,-1.575659417670965,1.8053639530971646,-0.279825533901155
1772467410348238300,2.38223828125,-1.7173931164383887,1.569628320813179,-0.05603555628098547
1772467410358210000,2.3922099609375,-2.0365689562141895,1.2501520367860792,0.40326282073855396
1772467410368183000,2.40218310546875,-1.7196943791180848,1.0045411994367837,1.0433738381128757
1772467410378156300,2.41215625,-1.3935259039759635,0.6411389721825719,1.5685788117602466
1772467410388128300,2.422128173828125,-1.3524141413867472,0.19533786318302154,1.8751281019359827
1772467410398101000,2.43210107421875,-1.4601538006156682,0.042775896409153934,1.9303290340237318
1772467410408074200,2.44207421875,-1.674077706325054,0.1240644788250327,1.7570288151256739
1772467410418046200,2.452046142578125,-1.6703192305743693,0.20670506037175654,1.388810273630917
1772467410428019200,2.462019287109375,-1.462901638019085,0.37599779719412324,0.9726724814891815
1772467410437992200,2.4719921875,-1.2924316741108894,0.6125120126351714,0.4715029748804867
1772467410447964200,2.481964111328125,-1.0307283646166323,0.7744029487684368,0.026565277777239677
1772467410457937200,2.491937255859375,-0.593782469984889,0.8885258792936801,-0.28842589672505853
1772467410467910400,2.501910400390625,-0.050045010629296297,1.0016215125977992,-0.49023427109643813
1772467410477882000,2.511882080078125,0.4977922852605581,0.9725871412932873,-0.5666463335171341
1772467410487855000,2.521855224609375,0.6395493649035692,0.8683882234111427,-0.6109480512540787
1772467410497828400,2.531828369140625,0.8213461939901113,0.748279496474564,-0.4484372296568006
1772467410507800000,2.541800048828125,1.1312971093028783,0.7507420871958136,-0.16673797430563717
1772467410517773000,2.55177294921875,1.1484779612064362,0.6629132893562316,0.009714132752083241
1772467410527746300,2.561746337890625,1.0124217235535382,0.43765082803070543,0.006265307472459972
1772467410537718300,2.57171826171875,0.7461462838381528,0.31781448829472064,-0.15152867820337415
1772467410547691000,2.58169091796875,0.49859132668375966,-0.33641455934643744,-0.741997201334685
1772467410557664300,2.591664306640625,0.12199439455270766,-0.07886603144407271,-0.8589569627210497
1772467410567636200,2.60163623046875,0.07406944481730461,1.420340261143446,-0.8408664486266673
1772467410577609200,2.611609130859375,0.8949614652991295,1.4802876571059227,-0.49613870936725285
1772467410587581200,2.621581298828125,1.559458224454522,1.8682868577390908,0.3066659388253465
1772467410597554200,2.63155419921875,1.8227724762767552,1.9818235128089785,0.025653825488127766
1772467410607527200,2.641527099609375,1.7727075919032096,1.4908452914774417,-0.8867502479232847
1772467410617499100,2.6514990234375,1.556712725138664,0.9268415814235806,-1.165744153305888
1772467410627472100,2.66147216796875,1.307639764636755,0.6569944207012653,-0.8565322197921573
1772467410637445000,2.671445068359375,0.6099567751944065,0.4868044427782297,-0.6602717618715017
1772467410647417300,2.681417236328125,0.009009820407629012,0.20290099191367625,-0.8141286638267338
1772467410657390000,2.69139013671875,0.21419512386620043,-0.26426702250242234,-0.30798129574023186
1772467410667363000,2.701363037109375,1.184983691304922,-0.21724808169603346,1.0698498301714658
1772467410677335300,2.711335205078125,1.8701947371870278,0.1395785665601492,1.3762002367742359
1772467410687308300,2.721308349609375,1.5693676240503787,0.1504787307590246,1.1660087225262075
1772467410697281000,2.731281005859375,1.3062895190715789,-0.03199614371955395,0.6257997295577079
1772467410707253200,2.741253173828125,1.0565361750900746,0.0030804303586483,-0.10604323057457804
1772467410717226200,2.751226318359375,1.0281623135209084,0.04090075018703937,-0.2801866405648179
1772467410727199000,2.761198974609375,0.7901356476902961,0.05810206035673618,-0.1022706167006865
1772467410737171200,2.771171142578125,0.5748001216173172,-0.041592824104428286,-0.13614465572186746
1772467410747144200,2.781144287109375,-0.10391045632958412,0.030462358281016347,-0.13203237069798632
1772467410757117200,2.7911171875,-0.1923684919834137,0.5279547838121652,-0.10105112137570976
1772467410767089200,2.801089111328125,0.6140022511929273,0.3238701350718736,-0.29341451705889776
1772467410777062100,2.811062255859375,1.4179460594832896,-0.2360176640957594,-0.5251837116636335
1772467410787035100,2.82103515625,1.9221750997930764,-0.8388163842290639,-0.45337764520104973
1772467410797007000,2.831007080078125,1.300013507542014,-1.093874264359474,-0.23857067304681986
1772467410806980000,2.84097998046875,0.2263736374378204,-1.2127975809037685,0.39491318127270786
1772467410816953000,2.850953125,-0.870375890097022,-1.3041156821638344,1.0918550334915518
1772467410826925300,2.86092529296875,-1.3066636130809783,-1.1353618745237588,0.8930451833490282
1772467410836898000,2.87089794921875,-1.283282737493515,-0.7979431065708399,0.3245583365317434
1772467410846871000,2.88087109375,-1.2913906406253575,-0.2995470101982355,-0.14041479818858205
1772467410856843300,2.89084326171875,-1.2437328173935414,0.36759237242043014,-0.308525814413093
1772467410866816300,2.900816162109375,-0.6999123559296131,0.8151350643903017,-0.5784958708627149
1772467410876789000,2.9107890625,-0.5542085844874381,0.9258212984651326,-0.9324605903491378
1772467410886761200,2.92076123046875,-0.40467970179915425,0.911176687040925,-0.9984246162526309
1772467410896734200,2.930734130859375,-0.414286903578043,0.7213888592004776,-0.9285140446804463
1772467410906707200,2.940707275390625,-0.49320612651407714,0.5487175858557224,-0.3218518905846402
1772467410916679200,2.95067919921875,-0.9115040192991495,0.36758302007019517,0.25240130120702087
1772467410926652200,2.960652099609375,-1.343279817816615,0.14272913954555988,0.6494060113988817
1772467410936625200,2.970625244140625,-1.4119395125448704,-0.14753157139122486,0.7575614118218421
1772467410946597000,2.98059716796875,-1.0844435881912708,-0.45601270641237496,0.6415652347706258
1772467410956570000,2.990570068359375,-0.7114467263787985,-0.5919847729131579,0.4408484550282359
1772467410966543000,3.000543212890625,-1.1051099441230297,-0.4101116637200117,0.23478366532139477
1772467410976515300,3.010515380859375,-1.305050917187333,-0.1986225839421153,0.102298856414482
1772467410986488000,3.020488037109375,-1.1391928309887647,-0.07955138335973024,-0.023382556087896227
1772467410996461000,3.0304609375,-0.7171323707997799,0.13393062380105256,-0.08219437214918435
1772467411006433300,3.040433349609375,-0.2905664158850908,0.19492723655551672,0.033416239650547505
1772467411016406300,3.05040625,0.015808394506573675,0.22630963229089973,0.1377647951364517
1772467411026379000,3.06037890625,0.420430228638649,0.3428992451906204,0.09227233324497938
1772467411036351200,3.070351318359375,0.7298503980755806,0.4310200117141008,-0.111656978803128
1772467411046324200,3.08032421875,1.3331506379902363,0.49855947024077174,-0.6266494051896035
1772467411056297200,3.090297119140625,1.6833341949701308,0.6872954509407282,-0.13647680115252733
1772467411066269200,3.100269287109375,1.306438572153449,0.8769438703104853,0.19122136777490376
1772467411076242200,3.1102421875,1.2042319971323012,0.9540165885969996,0.3280427445814013
1772467411086215200,3.120215087890625,1.408174607053399,0.9066212156936526,0.24154855634644626
1772467411096187100,3.130187255859375,1.7182716528385877,0.9794728091537952,0.12329787836670875
1772467411106160000,3.14016015625,1.9876251848250626,1.0279901718243956,0.1474703427232802
1772467411116133000,3.150133056640625,2.18442552177608,0.9722472418144344,0.3036927317008376
1772467411126105300,3.160105224609375,2.3550445387661454,0.8500517717316746,0.2815392059512436
1772467411136078000,3.170078125,2.5589479857206343,0.6595104951754212,0.25402356864660974
1772467411146051000,3.180051025390625,2.5192244626194236,0.5110726225942372,0.26393033789396286
1772467411156023300,3.190023193359375,2.3526649501532315,0.4856859601423144,0.31307474642172456
1772467411165996000,3.19999609375,2.310226322874427,0.4548597369849682,0.2721688816681504
1772467411175969000,3.209968994140625,2.2656161967754365,0.357219446966052,0.1835641310200095
1772467411185941200,3.219941162109375,2.1680507255584,0.2603051331341266,0.22670754556730388
1772467411195914200,3.229914306640625,2.232630457496643,0.09987141007184981,0.19762290538027882
1772467411205887000,3.239886962890625,2.3854998827844858,-0.06905600056946277,0.15868074191510675
1772467411215859200,3.249859130859375,2.140510392203927,-0.2621019534230232,0.20637553615644572
1772467411225832200,3.259832275390625,1.6517372797012329,-0.4151344603180885,0.2729829745300114
1772467411235805200,3.26980517578125,1.2687433400094508,-0.5654799200862646,0.29487580351680515
1772467411245777200,3.279777099609375,0.9183657217621802,-0.813166979187727,0.28029870437085624
1772467411255750100,3.289750244140625,0.6407645859122276,-1.0384107358127832,0.25309666306003925
1772467411265723100,3.29972314453125,0.17922317920625208,-1.061080248260498,0.13493483240753412
1772467411275695000,3.309695068359375,-0.30242461146116256,-0.9728758951067924,-0.003254325620830059
1772467411285668600,3.319668701171875,-0.7097469367235899,-0.9515928685814141,-0.06041340603902936
1772467411295641300,3.329641357421875,-1.3252186759471893,-0.8173521559178829,-0.07737082445025444
1772467411305613600,3.339613525390625,-1.5376760162353516,-0.6848918969303369,-0.13650237398520113
1772467411315586600,3.349586669921875,-1.374498547422886,-1.1294447594344614,0.158377228923887
1772467411325559600,3.3595595703125,-1.0864309626162052,-2.1036638858437535,0.9353633260533213
1772467411335531500,3.369531494140625,-1.4410609776109455,-2.3484333039328456,1.476504631435871
1772467411345504500,3.37950439453125,-1.9924176797986028,-2.2839620008051393,1.6623063122496007
1772467411355477500,3.3894775390625,-2.738884866154194,-2.381263560388982,1.4349341652937233
1772467411365449500,3.399449462890625,-4.186523468589782,-2.140478828021884,0.9900307357862591
1772467411375422500,3.40942236328125,-5.222168831342459,-1.3711477756902575,0.5315652293942869
1772467411385395500,3.4193955078125,-5.620029500776529,-0.32233050441443917,-0.4230630613602698
1772467411395367700,3.42936767578125,-5.132924613747001,0.6588985007569194,-1.44761755964756
1772467411405340400,3.43934033203125,-4.130438593274355,1.372791743505001,-1.830570582807064
1772467411415313400,3.4493134765625,-3.2091414942353964,1.6987229027599096,-1.7207992716200649
1772467411425285600,3.45928564453125,-2.5900059718072415,1.7596183932274578,-1.1676691300190984
1772467411435258600,3.469258544921875,-2.1477754147708414,1.7106088631257415,-0.35489831054210663
1772467411445231400,3.4792314453125,-2.024396287861466,1.3869725368097423,0.2735828401193023
1772467411455203600,3.48920361328125,-1.4456173257410525,1.0421218652904034,0.6472274983160198
1772467411465176600,3.499176513671875,-0.74958327254951,0.6510355122968554,0.9363025065995753
1772467411475149600,3.509149658203125,-0.3753226744115352,0.36813159386366606,1.0187580869682133
1772467411485121500,3.51912158203125,-0.277063375711441,0.12829495600163937,1.0460172652937472
1772467411495094500,3.529094482421875,-0.21191256588697432,-0.0027396540969610215,1.0139037788048386
1772467411505067500,3.539067626953125,0.035250177079439164,-0.0016994973942637442,0.8243040208823978
1772467411515039500,3.54903955078125,0.37354514334499833,0.05010813899338245,0.6270340205930173
1772467411525012500,3.559012451171875,0.40689036358594893,0.11903963640034199,0.41216348168328404
1772467411534985500,3.5689853515625,0.6631389148056507,0.14993804801106453,0.34146687429994343
1772467411544957700,3.578957763671875,0.9645201546937227,0.20972470045387745,0.25027123037576676
1772467411554930400,3.588930419921875,1.2750585145056248,0.2989388151720166,0.11314970157891512
1772467411564903400,3.5989033203125,1.5151111332058906,0.27957886566370727,0.1324672732502222
1772467411574875600,3.608875732421875,1.5269424407750367,0.28781156421899795,0.2449715165324509
1772467411584848600,3.6188486328125,1.5415303535759448,0.31672114010006186,0.3142513889856636
1772467411594821400,3.6288212890625,1.6667875493168829,0.323166370716691,0.3630687575161457
1772467411604793600,3.638793701171875,1.8230168064266443,0.32746786730289457,0.29933789749220013
1772467411614766600,3.6487666015625,1.7968425007283686,0.3276142900362611,0.18803214327953754
1772467411624739300,3.6587392578125,1.845464200556278,0.3020946488544345,0.13587335536666215
1772467411634711600,3.668711669921875,1.9160802900493143,0.2839955130621791,0.14935235707759856
1772467411644684500,3.6786845703125,1.757482550242543,0.26509967393428086,0.19792912178523836
1772467411654657500,3.688657470703125,1.45860247952044,0.3074158438771963,0.19629837877824902
1772467411664629500,3.69862939453125,1.4622306068897246,0.3430430375754833,0.23052177009321748
1772467411674602500,3.7086025390625,1.592657314223051,0.3298097542539239,0.28487266122289
1772467411684575500,3.718575439453125,1.5936124229907989,0.4004696828886866,0.26747648606821894
1772467411694547500,3.72854736328125,1.4036971693783997,0.4068570458382368,0.2769038012355566
1772467411704520400,3.7385205078125,1.196759469294548,0.34807460200190543,0.36870157577134666
1772467411714493400,3.748493408203125,1.1403665509432555,0.25698212619125843,0.4290322719629854
1772467411724465700,3.758465576171875,1.2036439681112765,0.1873626465201378,0.36278329163827
1772467411734438400,3.7684384765625,1.1345195784807205,0.053280631549656385,0.34486594215370714
1772467411744411400,3.778411376953125,0.9964017321228981,-0.09713906249850988,0.46713491586409506
1772467411754383600,3.788383544921875,0.9789847333759069,-0.23030279358029365,0.5364582621328532
1772467411764356600,3.798356689453125,0.9680997667461633,-0.34579701245874167,0.5664068256728351
1772467411774329300,3.808329345703125,0.8634317700475453,-0.41942251290082927,0.5885561136387288
1772467411784301600,3.818301513671875,0.6556564500957727,-0.5144184258908033,0.5509996323782951
1772467411794274600,3.828274658203125,0.48011751236021516,-0.6026376843526959,0.5354450665023177
1772467411804247600,3.83824755859375,0.2753226695239544,-0.5719537922754884,0.40408268575407563
1772467411814219500,3.848219482421875,-0.2881277905613184,-0.42673751208931204,0.13192491000182927
1772467411824192500,3.858192626953125,-0.80402271874547,-0.27849136268794533,-0.06575264817513525
1772467411834165500,3.86816552734375,-1.0623153430134058,0.019952362443506715,-0.28064824846088887
1772467411844137500,3.878137451171875,-1.3112941954910755,0.15888035614043472,-0.4987169988900423
1772467411854110500,3.8881103515625,-1.3337100254386662,-0.309055720038712,-0.3079132720053196
1772467411864083500,3.89808349609375,-1.0875263566374778,-1.157454171605408,0.21449958670549094
1772467411874055700,3.9080556640625,-1.3184814766466617,-1.0658850181937216,0.43216114457324145
1772467411884028400,3.9180283203125,-1.7182535326600075,-0.9277782777518033,0.5398627368140966
1772467411894001400,3.92800146484375,-1.3175041560471057,-1.7344979804962872,0.6906199922535569
1772467411903973600,3.9379736328125,-1.4065432064592838,-1.7664602219462393,0.700258904344961
1772467411913946600,3.947946533203125,-2.0108505775898693,-1.1154437066107987,0.3502634903483093
1772467411923919400,3.95791943359375,-2.187611166074872,-0.6308496333584189,-0.16739625555127857
1772467411933891600,3.9678916015625,-2.15723356346786,-0.044880759733915324,-0.8186720063447952
1772467411943864600,3.977864501953125,-1.9344670106112956,0.3129033353775739,-1.2659127927586435
1772467411953837600,3.987837646484375,-1.8206956700026988,0.5983683364704251,-1.4853724130243062
1772467411963809500,3.9978095703125,-1.6110229919970034,1.0107432689473033,-1.5296775648273526
1772467411973782500,4.007782470703125,-1.2875836495578288,1.2259496156826615,-1.4819476992726326
1772467411983755500,4.017755615234375,-0.8521212714821099,1.250324178482592,-1.3051507242999971
1772467411993727500,4.0277275390625,-0.5407786095499992,1.0154761426880956,-0.9043624039161949
1772467412003700500,4.037700439453125,-0.5361924508035183,0.6585469108402728,-0.36849436276145275
1772467412013673500,4.047673583984375,-0.5308884991765022,0.34850627141743895,0.14396635319031775
1772467412023645700,4.057645751953125,-0.3159609693825245,0.053316579645872116,0.5171725469045341
1772467412033618400,4.067618408203125,0.017614567145705223,-0.22870383395105598,0.6630379386492073
1772467412043591400,4.07759130859375,0.3186258046776056,-0.3897708864808082,0.7135768702752888
1772467412053563600,4.087563720703125,0.35720249583125113,-0.32259441604763267,0.6746769385166466
1772467412063536600,4.09753662109375,0.08241992453336715,-0.10328472564667462,0.5923851704075932
1772467412073509400,4.10750927734375,-0.00821603968143463,0.10434387931078672,0.4271744422018528
1772467412083481600,4.117481689453125,0.009397942942380905,0.3005219927102327,0.2632536076761782
1772467412093454600,4.12745458984375,0.03693944534063339,0.44807928306460376,0.2140301425628364
1772467412103427300,4.13742724609375,0.12964987774193287,0.5132002822726964,0.21950725879967212
1772467412113399600,4.147399658203125,0.3802911104738712,0.5556576142519712,0.1776867634192109
1772467412123372500,4.15737255859375,0.557392475220561,0.5594371327906846,0.11460896047651767
1772467412133345500,4.167345458984375,0.6462766273319721,0.6446545790880918,0.20784312449097633
1772467412143317500,4.1773173828125,0.9457768757790327,0.7183776946857571,0.23207360264509916
1772467412153290500,4.18729052734375,1.3379659293174744,0.7419625684127211,0.16389643073678015
1772467412163263500,4.197263427734375,1.5602356385678051,0.7056412549704313,0.17932415536269544
1772467412173236700,4.20723681640625,1.5934166081577539,0.5495797556430101,0.2703669468127191
1772467412183208400,4.21720849609375,1.7927531855881214,0.33512598084062334,0.3455395305663347
1772467412193181400,4.227181396484375,2.0609055250912904,0.13326631467342376,0.28514439083635806
1772467412203154700,4.23715478515625,2.056799258816242,-0.001747428189218044,0.24345804322957992
1772467412213126400,4.24712646484375,2.1018325787633656,-0.1614008145287633,0.174665735097602
1772467412223099400,4.257099365234375,2.1126883192986248,-0.25688918721079823,0.123425158008188
1772467412233072600,4.26707275390625,1.9278116443753242,-0.2466679451867938,0.011757365550100802
1772467412243044600,4.277044677734375,1.7821429442465304,-0.23590397458821533,-0.1077124058958143
1772467412253017300,4.287017333984375,1.7169015335291624,-0.220335526317358,-0.21763620423078536
1772467412262990600,4.296990478515625,1.7441092739284036,-0.2072097950235009,-0.4000149248585105
1772467412272962600,4.306962646484375,1.7518237938284873,-0.18482494473606348,-0.566706612337008
1772467412282935300,4.316935302734375,1.7004104174554346,-0.22431758169084787,-0.6334462987881153
1772467412292908500,4.326908447265625,1.6123147853732107,-0.3062272186145186,-0.5615196381531655
1772467412302880300,4.33688037109375,1.4174743503183125,-0.37199849842488764,-0.4541564110212028
1772467412312853200,4.346853271484375,1.129039101243019,-0.442470795533061,-0.3446124788492918
1772467412322826500,4.356826416015625,0.7274298929303884,-0.500908955976367,-0.28212591979801654
1772467412332798500,4.366798583984375,0.3180757695794105,-0.5365469633296132,-0.20275793018117547
1772467412342771200,4.376771240234375,-0.05874795704483986,-0.514316426821053,-0.030039456693828105
1772467412352744400,4.386744384765625,-0.33456162495613095,-0.4545058089807629,-0.012249679111689329
1772467412362716400,4.39671630859375,-0.8245277466356754,-0.3068143708527088,-0.08327391101419926
1772467412372689400,4.406689453125,-1.2347750194340943,-0.09442308153808117,-0.035022359672933816
1772467412382662400,4.416662353515625,-1.1814730528354644,-0.08975742781460284,-0.023332068009674547
1772467412392634400,4.42663427734375,-1.0103823266804217,-0.46595367019027467,0.11790844041332602
1772467412402607400,4.436607421875,-0.742973499020934,-1.3720663518399,0.8077673121012747
1772467412412580600,4.44658056640625,-1.0772259118974208,-1.7652201587572693,1.4776016328923403
1772467412422552300,4.45655224609375,-1.7972382220476866,-1.3843690763130783,1.448012988705933
1772467412432525300,4.466525390625,-2.6633810046195983,-1.3801608109682797,1.0468759279496966
1772467412442498600,4.47649853515625,-3.488023317545652,-1.244419630613923,0.960856663750112
1772467412452470300,4.48647021484375,-3.835276666292548,-0.8375880114778875,0.6963853508472442
1772467412462443300,4.496443359375,-4.214851152929663,-0.28296441644877196,0.14490356097519397
1772467412472416500,4.50641650390625,-4.140283110940456,0.41048955712169405,-0.35823344631418585
1772467412482388500,4.516388427734375,-3.3670880766570566,0.9462605676427484,-0.5178950159601867
1772467412492361200,4.526361328125,-2.4580711979985237,1.186210895012319,-0.447070836674422
1772467412502334500,4.53633447265625,-1.657708755326271,1.0997075005576014,-0.21947467170432208
1772467412512306400,4.546306396484375,-1.1544085202991963,0.7491802447065711,0.31675350799970325
1772467412522279400,4.556279541015625,-0.8922510372966528,0.5503311585322022,1.0123471970126032
1772467412532252400,4.56625244140625,-0.638359862858057,0.30734482446759936,1.5403727079734206
1772467412542224400,4.576224365234375,-0.45111178262829776,-0.00670943451076746,1.855584028032422
1772467412552197400,4.586197265625,-0.30730536924004553,-0.2339391042560339,1.88634156986773
1772467412562170600,4.596170654296875,-0.1255003568470478,-0.2892071102306247,1.8238856982156633
1772467412572142300,4.606142333984375,-0.13059095798432827,-0.3198638220399618,1.7087828167423604
1772467412582115300,4.616115234375,-0.1187251636236906,-0.24944880807697772,1.6052015923671423
1772467412592088600,4.626088623046875,0.05164367799758911,-0.03254530203491449,1.345487849254906
1772467412602061600,4.6360615234375,0.135748194617033,0.13828092796504496,0.904354074479267
1772467412612033300,4.646033203125,0.08754033628702163,0.22347294756025074,0.543018424366042
1772467412622006500,4.656006591796875,0.2365823122411966,0.2642316589280963,0.31549634754545985
1772467412631979500,4.6659794921875,0.5575456199556589,0.2932446951836347,0.2953571572929621
1772467412641951200,4.675951171875,0.9279454510122537,0.33224662601202726,0.5043821119796484
1772467412651924500,4.685924560546875,1.6836095047801731,0.6290829159468412,0.9791117207564413
1772467412661897500,4.6958974609375,1.564607862302661,0.2463189856186509,0.771882709575817
1772467412671869400,4.705869384765625,1.2622796969532966,-0.08355185117274522,0.35435236709713935
1772467412681842400,4.715842529296875,1.3361129949271677,0.07159341009259224,0.21432466853000223
1772467412691815400,4.7258154296875,1.4873393291831016,0.04601911611407995,0.16931604463271796
1772467412701787400,4.735787353515625,1.6974825473099946,0.061271045781671994,0.24087818280421197
1772467412711760400,4.745760498046875,2.0876076540559527,0.1664972608849406,0.4038037957474589
1772467412721733400,4.7557333984375,2.36678524544239,0.1734755754649639,0.5226784508444369
1772467412731705300,4.765705322265625,2.5259078859061,0.1519368206128478,0.5909064761571586
1772467412741678600,4.7756787109375,2.480228669270873,0.11251578758955001,0.6543054738782346
1772467412751651300,4.7856513671875,2.1272604500085115,0.10357523302584885,0.704982644931227
1772467412761623300,4.795623291015625,2.0046330182492733,0.10295973147600888,0.748576871985942
1772467412771596500,4.805596435546875,2.148611281073093,0.10781652385741472,0.8006389215260744
1772467412781569500,4.815569580078125,1.9514625690758227,0.07808160306811332,0.7558630834713578
1772467412791541200,4.825541259765625,1.5137193865865468,0.07115180380493402,0.7770933568961917
1772467412801514500,4.835514404296875,1.2968003907144068,0.10553601170480251,0.7055688473213464
1772467412811487500,4.845487548828125,1.1645733559608458,0.12088029583096503,0.44918424863182005
1772467412821459200,4.855459228515625,0.8342904312372207,0.07597031000256538,0.2664171132083982
1772467412831432400,4.865432373046875,0.478586649531126,-0.04533639454692602,0.19731778495386243
1772467412841405400,4.875405517578125,0.0979419033139944,-0.18141542855352163,0.18921097780056298
1772467412851377400,4.88537744140625,-0.13468085764646529,-0.2504316816344857,0.1097916963879019
1772467412861350400,4.895350341796875,-0.3946358621686697,-0.2353919334128499,0.018750804634019732
1772467412871323400,4.905323486328125,-0.4582628234267235,-0.238334708866477,-0.04474193578511476
1772467412881296400,4.91529638671875,-0.34104105010330676,-0.23421090693473814,-0.147359721955657
1772467412891268600,4.9252685546875,-0.3713952718347311,-0.28711773673594,-0.21845818813815712
1772467412901241300,4.935241455078125,-0.3332353447884321,-0.3076493603721261,-0.2318727463107556
1772467412911214300,4.94521435546875,-0.35308863077163694,-0.22497692238241432,-0.22190957070104778
1772467412921186600,4.9551865234375,-0.6109580611914396,-0.17109306424260137,-0.17872458203434943
1772467412931159600,4.96515966796875,-0.9252554812759161,-0.18572481618523595,-0.11702771205604076
1772467412941132300,4.97513232421875,-0.9164216019570827,-0.5387155395403505,-0.013816051645576952
1772467412951104500,4.9851044921875,-0.6684072105973958,-1.6098966183155774,0.36511209991201754
1772467412961077500,4.995077392578125,-0.7231985389709472,-1.8613164342045783,0.6687105774581432
1772467412971050500,5.005050537109375,-1.2898048327386378,-1.3907064626410603,0.7460077521502971
1772467412981022500,5.0150224609375,-1.560825421154499,-1.5614210489600895,0.6186272806450724
1772467412990995500,5.024995361328125,-1.7907371695905923,-1.778342967441678,0.46815804836675523
1772467413000968400,5.034968505859375,-2.3072201267957686,-1.4879849336102604,0.35350597940087314
1772467413010940400,5.0449404296875,-2.910897383329272,-1.0205217356398701,0.2250010339103639
1772467413020913400,5.054913330078125,-2.9808085394233466,-0.5737000514209271,-0.12553440524712203
1772467413030886400,5.064886474609375,-2.915435611280799,-0.12479922284036873,-0.6684165629476309
1772467413040858600,5.074858642578125,-2.995156213727593,0.2483861472815275,-0.9574776888363062
1772467413050831400,5.084831298828125,-2.978295095297694,0.45371670442968604,-1.2363333547919988
1772467413060804400,5.094804443359375,-3.123634709602594,0.5881026707828044,-1.3105511220388113
1772467413070776600,5.104776611328125,-3.2889000906050203,0.4527084041699767,-1.3601773227341472
1772467413080749600,5.11474951171875,-2.3415087653666733,0.6543649489805102,-0.7740602728106081
1772467413090722300,5.124722412109375,-1.2415215710848568,1.1309905275717378,0.08522548347339033
1772467413100694500,5.134694580078125,-0.5241080452561379,1.2236293560415505,0.40791137719675896
1772467413110667500,5.14466748046875,-0.8781675668865442,0.279484173117578,-0.2164718366265297
1772467413120640500,5.154640625,-1.0843506492108106,-0.3117664403021335,-0.18491583788990973
1772467413130612500,5.164612548828125,-0.7037012268185615,0.43417146148234603,0.8202335565730929
1772467413140585500,5.17458544921875,-0.6107575701832771,0.46415918798893685,1.4188023840516806
1772467413150558500,5.184558349609375,-0.37050329143106936,0.24522446838021278,1.6880761288002133
1772467413160530400,5.194530517578125,-0.10428688842654228,0.5650947201609611,1.6172651012569665
1772467413170503400,5.20450341796875,0.2138034942001104,0.7542337287038564,1.301209147067368
1772467413180476400,5.214476318359375,0.5576712921619414,0.8565712366282939,1.1379326017946003
1772467413190449400,5.224449462890625,0.9713327573180198,0.9431395130127668,1.134095215588808
1772467413200421400,5.23442138671875,1.2412842551976442,0.9757020584434271,1.1420108110189438
1772467413210394400,5.244394287109375,1.5616846683323382,0.9923886970892548,1.0909348499067126
1772467413220367400,5.254367431640625,1.758034923428297,0.9476236726894974,0.9252607419729232
1772467413230339300,5.26433935546875,1.830889147236943,0.9763353879109025,0.8304884086057543
1772467413240312300,5.274312255859375,2.158543477022648,1.0009472665980457,1.0292284814476966
1772467413250285300,5.284285400390625,2.58504805713892,0.8310609477967024,1.1290044683210552
1772467413260257500,5.294257568359375,2.6927953151524067,0.5753469418451189,0.9916441623322665
1772467413270230300,5.304230224609375,2.6165707381278276,0.4742465745002031,0.9108936323158442
1772467413280206000,5.3142060546875,2.650321032038331,0.49855947024077174,0.8357032206445932
1772467413290177000,5.324177001953125,2.891148726764321,0.5708168972000479,0.7888383013561368
1772467413300149200,5.334149169921875,2.9266660303473473,0.49122459730803963,0.7555433499976992
1772467413310122200,5.344122314453125,3.0307565194189547,0.3683735859259963,0.6668653879828751
1772467413320095000,5.354094970703125,3.2870740442216393,0.1785515635550022,0.5875755781687796
1772467413330067200,5.364067138671875,3.3864024334579703,0.24325199926346538,0.6968208196550607
1772467413340040200,5.374040283203125,3.2154297807246444,0.36554333093613384,0.6540742954708635
1772467413350013200,5.38401318359375,3.0469489448070526,0.6223521463871002,0.6892530878145248
1772467413359985200,5.393985107421875,3.4581045646220443,0.8323623857840895,0.8002871854789555
1772467413369958100,5.403958251953125,2.4087381350308656,-0.5894380110397934,0.18213870132677257
1772467413379931100,5.41393115234375,1.6233581574350595,-0.737824445694685,-0.28650420794747766
1772467413389903000,5.423903076171875,1.8032272333294153,-0.3563990704938769,-0.052727162385359405
1772467413399876000,5.4338759765625,1.9214666592627763,-0.40580490643680095,0.31314751939699054
1772467413409849000,5.44384912109375,1.410190623050928,-0.46062429186105724,0.4084389082022011
1772467413419821300,5.4538212890625,0.638339404591918,-0.5392898322969675,0.24714513424448667
1772467413429794000,5.4637939453125,0.42547114541530606,-0.7218284196615219,0.053064869907125826
1772467413439767000,5.47376708984375,0.46397301776707167,-0.8023980401530861,-0.12004654842056334
1772467413449740300,5.483740234375,0.025939912420511243,-0.76097852678895,-0.09184884713590144
1772467413459712300,5.493712158203125,-0.9605798926353454,-0.547522823113203,-0.24980127477645872
1772467413469685000,5.50368505859375,-1.3727385520130395,-0.26842180409431454,-0.6558550414077937
1772467413479658200,5.513658203125,-1.7485153999328613,0.11179098044633864,-1.212285539728403
1772467413489630200,5.523630126953125,-2.270620873194933,0.21169220113456247,-1.7377049598440526
1772467413499603000,5.53360302734375,-2.1110680246204137,-0.13206687575578688,-1.9948777863018214
1772467413509576200,5.543576171875,-0.8643418706297874,-1.4129682710707188,-1.2858844444245099
1772467413519548200,5.553548095703125,-0.5931400804281234,-2.5541391241341826,-0.16716164307780562
1772467413529521200,5.563521240234375,-0.9782990891993045,-2.704959800198674,0.8729723363310098
1772467413539494100,5.573494140625,-1.4482336457192897,-2.747673737287521,1.4087924466907977
1772467413549466000,5.583466064453125,-2.737532282501459,-2.6966145811796185,1.255501581120491
1772467413559439000,5.593439208984375,-4.145847759330272,-2.26786543700695,1.0306372522670775
1772467413569412400,5.603412353515625,-4.5975440638482565,-1.6069962206989525,0.9645378364808856
1772467413579384000,5.613384033203125,-4.673931137958169,-1.2230910113811493,0.7770156154848634
1772467413589357000,5.623357177734375,-4.562912310928106,-0.9617249710172414,0.35656207903586323
1772467413599330300,5.633330322265625,-4.1097739909082645,-0.24124328978955745,0.058354208486899733
1772467413609302000,5.643302001953125,-3.3450849191635843,0.028847908821702,-0.7557561890307813
1772467413619275000,5.65327490234375,-2.4417437480539084,-0.2368266423910856,-1.462987708867341
1772467413629248300,5.663248291015625,-2.2746073124825954,0.022747838380932806,-0.9216669552646577
1772467413639221200,5.67322119140625,-2.190620869284868,0.05019873988628387,-0.0849147370237857
1772467413649193000,5.68319287109375,-1.8119430392265319,-0.19721476297080515,0.44692952850759027
1772467413659166200,5.693166259765625,-1.3693781356692314,-0.37606793982088565,1.0584219157714396
1772467413669139200,5.70313916015625,-1.272465575402975,-0.6348825421363115,1.5385307333685456
1772467413679111200,5.713111083984375,-0.9968564901530742,-0.7901999450981616,1.7009926012575625
1772467413689084200,5.723084228515625,-0.635385230961442,-0.6049217036366462,1.5890537367731332
1772467413699057200,5.73305712890625,-0.7705734536081552,-0.1524655206620693,1.7672899507686495
1772467413709029000,5.743029052734375,-0.6108417413353919,0.05383037438690662,1.0968864517875014
1772467413719002400,5.75300244140625,-0.04566518810987472,0.08488660690784454,0.5347659981969743
1772467413728975000,5.76297509765625,0.2822492539167404,0.34816111124157906,0.5975839811597019
1772467413738947000,5.772947021484375,0.423063499751687,0.6007242519468069,0.793197884805128
1772467413748920300,5.78292041015625,0.4988683900594711,0.8180278632223605,0.6927554699122905
1772467413758893300,5.792893310546875,0.745140906187892,1.0076128619670868,0.5373010696325451
1772467413768865000,5.802864990234375,1.092403022763133,1.1883856087028979,0.49544462615586815
1772467413778838300,5.81283837890625,1.3431465468257664,1.321782271757722,0.39866131829246876
1772467413788811300,5.822811279296875,1.5873732363402842,1.4054139101684093,0.4144675208419561
1772467413798783000,5.832782958984375,1.7453326782435177,1.4798136098533867,0.4755010315407067
1772467413808756200,5.842756103515625,1.8108616737306118,1.5726117205381394,0.5354362256087363
1772467413818729200,5.852729248046875,1.8155653213769196,1.7089245633006094,0.5119373496647924
1772467413828702200,5.8627021484375,1.870458941081166,1.8776035521388053,0.4900146004637703
1772467413838674200,5.872674072265625,1.8967238476723431,1.9401105694562195,0.36932416464909906
1772467413848647200,5.882647216796875,2.166777052360773,2.0071277576744557,0.4127384685596451
1772467413858620200,5.8926201171875,2.032179781344533,2.0134037692040203,0.30596553547102956
1772467413868592400,5.90259228515625,1.6985574830651282,1.6643395716428755,0.09566098930258303
1772467413878565000,5.912565185546875,1.9227941084742546,1.9399889889031647,0.28072036384902893
1772467413888538000,5.9225380859375,1.8464555496811865,1.961568368026614,0.5049949831809848
1772467413898510300,5.93251025390625,1.6468173589557409,1.7822458200991154,0.7256459321230649
1772467413908483300,5.9424833984375,1.5292331820607183,1.532930283012986,0.8840607896436006
1772467413918457300,5.952457275390625,1.4674012875258922,1.0769026712924241,0.7707990790575743
1772467413928430000,5.96243017578125,1.5954489907681941,0.8317191194444894,0.829498813046515
1772467413938402000,5.972402099609375,1.5546435176491737,0.9086527215212583,1.0427512492351234
1772467413948375300,5.982375244140625,1.0201005876183509,0.6297060162812471,0.9270561009570956
1772467413958348000,5.99234814453125,0.7201987726330756,0.3740384798198938,0.6370083021186291
1772467413968320300,6.0023203125,0.662522828733921,0.39296646765172477,0.27381420118976385
1772467413978293200,6.012293212890625,0.39295653077960013,0.3100005996733904,-0.18692009038440882
1772467413988266200,6.022266357421875,0.051291795819997786,0.2584194655179977,-0.5337751605287194
1772467413998238200,6.03223828125,-0.2872702969491482,0.3209989635497331,-0.7472467193607241
1772467414008211200,6.042211181640625,-0.6228788006097078,0.4356389036864042,-0.8650169934123754
1772467414018184200,6.05218408203125,-1.0115209753215313,0.5568202282905579,-0.99452607444413
1772467414028156200,6.06215625,-1.3616957644730805,0.5084861132323741,-1.0595342609275131
1772467414038129200,6.072129150390625,-1.3512760772675274,0.26838848634660245,-0.9641267714619636
1772467414048102100,6.08210205078125,-1.1876315754652023,-0.48033670806884765,-0.6888084127869457
1772467414058074000,6.09207421875,-1.0298568424791097,-1.794711918440461,-0.302937675549835
1772467414068047000,6.102047119140625,-1.2705951053559779,-2.10822140301764,0.05968370352499187
1772467414078020000,6.11202001953125,-1.4163830479502677,-1.4347814589500427,0.33079949594363567
1772467414087992000,6.121991943359375,-1.4170739528238772,-1.1755565222680568,0.30943807041980326
1772467414097965300,6.13196533203125,-1.4779396326750516,-1.1787409975230694,0.1190789454974234
1772467414107938000,6.14193798828125,-1.8756693692058324,-1.1213771883130073,-0.1880155574709177
1772467414117911000,6.1519111328125,-2.1189695915251967,-0.9153297150671481,-0.5831431486792862
1772467414127883300,6.16188330078125,-1.422389594888687,-0.6311632293522358,-1.0036921083267778
1772467414137856300,6.171856201171875,-1.2249071208924054,-0.3185428025692701,-1.2067583007395266
1772467414147829000,6.1818291015625,-2.0988936027020215,0.0994797804057598,-1.117113904845342
1772467414157801200,6.19180126953125,-2.0389128889918324,0.23465514357089995,-1.0847921824332325
1772467414167774200,6.201774169921875,-1.4126011913239955,0.23581483500003814,-1.075624102723971
1772467414177747200,6.211747314453125,-1.0911299340873957,0.1936181997835636,-0.9982373500522226
1772467414187719200,6.22171923828125,-1.0827169105291365,0.12905191184878348,-0.8324689148984848
1772467414197692200,6.231692138671875,-0.9241770383894443,0.10440379280447959,-0.5003530025940388
1772467414207665200,6.2416650390625,-0.5563923582673073,0.050097033077478405,-0.14882036909274757
1772467414217637000,6.25163720703125,-0.11808394311070441,-0.07814940760731696,0.14060842106454075
1772467414227610000,6.261610107421875,0.021255553996562957,-0.1977741504192352,0.438459221804142
1772467414237583000,6.2715830078125,-0.09306582171022891,-0.281737212741375,0.7125653551451862
1772467414247555300,6.281555419921875,-0.07455927416086197,-0.22587211765646933,0.8771625545624643
1772467414257528000,6.291528076171875,0.03501052310466766,-0.019503741893172263,0.928213454298675
1772467414267501000,6.3015009765625,0.024376900887489318,0.2159966203302145,0.8382080430723726
1772467414277473300,6.311473388671875,-0.14925006574690342,0.36647652013301846,0.6460829313907772
1772467414287446000,6.321446044921875,-0.17194412811398505,0.45344402496814723,0.4585802188128233
1772467414297419000,6.3314189453125,0.09163082047104835,0.5629951175332069,0.35392435094341634
1772467414307392000,6.34139208984375,0.4471434635192156,0.6593032821655274,0.3401895478405058
1772467414317364000,6.351364013671875,0.711501671436429,0.7029372567087412,0.3553573794212192
1772467414327337000,6.3613369140625,0.9780652804434299,0.7126146011143922,0.4147744678992778
1772467414337310000,6.37131005859375,1.2470797897338866,0.7011871981710195,0.5354027617305517
1772467414347282200,6.3812822265625,1.3370482299506663,0.6336942091345786,0.651378480515629
1772467414357255000,6.3912548828125,1.2876900325417517,0.5566641609460116,0.7001308209858834
1772467414367228000,6.401227783203125,1.3528069400966167,0.5611491974055767,0.7586516182113439
1772467414377200000,6.4112001953125,1.4731559055298566,0.660741790536046,0.7393390149760991
1772467414387173000,6.421173095703125,1.4874030420690774,0.768652714678645,0.5875519050322473
1772467414397146000,6.43114599609375,1.4693231954991817,0.8215688968300819,0.41409181939736006
1772467414407118000,6.4411181640625,1.3625140951186419,0.7847790890932083,0.33371180319376287
1772467414417091000,6.451091064453125,1.213292670944333,0.685197601878643,0.22062881017550826
1772467414427064000,6.46106396484375,1.1313210747003555,0.5928881514936685,-0.04954845928400755
1772467414437036000,6.4710361328125,1.2324579746633768,0.5591787741154431,-0.26247480532340706
1772467414447009000,6.481009033203125,1.339382225856185,0.5865151093304157,-0.41779878415651617
1772467414456982000,6.49098193359375,1.5110703333824873,0.5371072275608778,-0.47478206961639224
1772467414466954000,6.5009541015625,1.7200287256389855,0.42479193097949025,-0.41208362138010557
1772467414476927000,6.510927001953125,1.8126877201139926,0.21679858436286448,-0.28161599751450117
1772467414486900000,6.52089990234375,1.7929834872126578,-0.02571136436164379,-0.12856909676790237
1772467414496872000,6.530871826171875,1.781748391970992,-0.23409575612246988,-0.010515402664989232
1772467414506845000,6.540844970703125,1.714438358286023,-0.37462533979713913,0.06425977926887572
1772467414516818000,6.55081787109375,1.5050041652113197,-0.47157414042055606,0.12391001891568303
1772467414526791200,6.560791259765625,1.2096142746925354,-0.53824061550498,0.1449322025477886
1772467414536763000,6.570762939453125,0.8746259487569331,-0.6545914512127637,0.16196612026132642
1772467414546736000,6.580736083984375,0.6040414136707782,-0.7587854006588458,0.15200279852114618
1772467414556709000,6.590709228515625,0.2799053211390972,-0.7972603850036859,0.10566416812911629
1772467414566681000,6.60068115234375,-0.06799392429590224,-0.8400298516720532,-0.016750862988457082
1772467414576654000,6.610654052734375,-0.363556833294034,-0.7940192111253738,-0.06650405106432736
1772467414586627000,6.620626953125,-0.7376420748651027,-0.6345382587432861,-0.11443937606327236
1772467414596599000,6.63059912109375,-0.992184991210699,-0.431153867226839,-0.3158543672028929
1772467414606572000,6.640572021484375,-1.131109477776289,-0.23594167625010012,-0.5579013745907694
1772467414616545000,6.650544921875,-1.118785418254137,-0.06487257740497589,-0.7208687808491289
1772467414626517000,6.66051708984375,-0.7274515202403068,-0.25852760206758973,-0.5270114385474473
1772467414636490000,6.670489990234375,-0.0738081635326147,-1.2851298266649245,0.1195433481387794
1772467414646463200,6.680463134765625,-0.5439473027139902,-1.9590794738203285,0.7338816263530403
1772467414656435000,6.69043505859375,-1.4380232173502445,-1.3654127391695976,1.0674589895121753
1772467414666408000,6.700407958984375,-2.0083610988616942,-1.0922528006374834,1.27796738768965
1772467414676381200,6.710381103515625,-2.574521986949444,-1.731029427602887,1.2173089208483696
1772467414686353000,6.720352783203125,-3.5836025833815333,-1.9334055188596246,0.8977436433635652
1772467414696326100,6.730326171875,-3.92378613987267,-1.1163619904994964,0.41280097586922343
1772467414706299100,6.740299072265625,-3.3949966588020324,0.06778291189372539,-0.21213621857501566
1772467414716271000,6.75027099609375,-2.5937194393724203,0.9309516470909118,-0.8441421092964708
1772467414726244000,6.760244140625,-2.0655378610670567,1.4568740482926368,-1.2537921468541025
1772467414736217000,6.770217041015625,-1.651731434482336,1.6062117923229933,-1.2252862564031033
1772467414746189000,6.78018896484375,-1.2788555687010288,1.3893407272458076,-0.8779469829384237
1772467414756162000,6.790162109375,-1.0223393064558506,0.8646610195815563,-0.27894327117390927
1772467414766135000,6.800135009765625,-0.9545487957775592,0.43638124648630616,0.2063943139221519
1772467414776108000,6.81010791015625,-1.0095791936039924,0.2368324876099825,0.6172424752231687
1772467414786080000,6.820080078125,-1.0535995371162892,0.08223638466000556,0.9541021479886025
1772467414796053200,6.83005322265625,-0.9922083720862865,0.0790717831492424,1.0590241925135255
1772467414806026000,6.84002587890625,-1.0168184972077607,0.22395780846774577,0.8514264941509813
1772467414815998000,6.849998046875,-1.0260562811523675,0.2441635611504316,0.5239639606103301
1772467414825971200,6.85997119140625,-0.9541378768891096,0.17980477848649024,0.27628771516382694
1772467414835944200,6.869944091796875,-0.8739069868326187,0.28014322154819965,0.027632322486862537
1772467414845916200,6.879916259765625,-0.6148182437509297,0.543296729850769,-0.17520393362753092
1772467414855889200,6.88988916015625,-0.3609820143699646,0.7567050872534513,-0.31699506167061625
1772467414865862100,6.899862060546875,-0.10759294423460959,0.8083972805678844,-0.5226402377258986
1772467414875834000,6.909834228515625,0.29787235498428344,0.8177578141093254,-0.555283227981627
1772467414885807000,6.91980712890625,0.8154583049952984,0.8386269991368055,-0.40439292074702676
1772467414895780000,6.929780029296875,1.1660393368601798,0.8775479736834764,-0.13321356157287956
1772467414905752000,6.939751953125,1.2538257568627595,0.8372434358239174,0.14700298093985764
1772467414915725000,6.94972509765625,1.3303800042331217,0.7303776368200778,0.3415085214845836
1772467414925698000,6.959697998046875,1.484897196727991,0.6099105979651213,0.40739148150850085
1772467414935670000,6.969669921875,1.584510832646489,0.542962967851758,0.36118820446655153
1772467414945643300,6.979643310546875,1.6461469123482704,0.5633429080575705,0.2733320802286267
1772467414955616000,6.989615966796875,1.6846908702760934,0.6483189468145371,0.16049718021992593
1772467414965588000,6.999587890625,1.5902818172633646,0.7374000828027725,0.11777843909179792
1772467414975561200,7.009561279296875,1.4924346064954994,0.8229986373722553,0.10394720814339815
1772467414985534000,7.019533935546875,1.5161054049402474,0.9059148209899663,0.14474908279953524
1772467414995506200,7.029506103515625,1.3528484411507844,0.9479092116326093,0.16989808230437337
1772467415005479200,7.039479248046875,1.2222469617724419,0.8252280038595199,0.18634192517027257
1772467415015452200,7.0494521484375,1.2464777321875096,0.579684971049428,0.21209323794981463
1772467415025424100,7.059424072265625,1.2744745771378279,0.31919922065138817,0.26325026494162157
1772467415035397000,7.069397216796875,1.197287292560935,0.15175123491287232,0.42142442730776963
1772467415045370000,7.0793701171875,1.0344669666230677,0.08732640127539634,0.5444734454799444
1772467415055342000,7.089342041015625,0.9801806651622056,-0.021743629774451254,0.5845161175329238
1772467415065315000,7.099315185546875,0.9150590814322233,-0.18438743010163305,0.5956935643032193
1772467415075288000,7.1092880859375,0.7203121698796748,-0.3073836951732635,0.5848196305241435
1772467415085260000,7.119260009765625,0.43256373402476306,-0.3785609256803989,0.5191435547165573
1772467415095233000,7.12923291015625,0.23779577968418597,-0.4713058448731899,0.3987540380772203
1772467415105206000,7.1392060546875,0.0828144768089056,-0.5969032323539256,0.29012323869485407
1772467415115178000,7.149177978515625,-0.15409809029996394,-0.6921849765479564,0.1426266655517742
1772467415125151200,7.159151123046875,-0.4003513172060251,-0.6805494838118553,0.09460585422646253
1772467415135124000,7.1691240234375,-0.57143795170784,-0.5894336271256209,0.07254946870841085
1772467415145096000,7.179095947265625,-0.7621241896927357,-0.46706864569485185,-0.04770714226625859
1772467415155069200,7.189069091796875,-0.8872235645234584,-0.34888884099423884,-0.19115491494257003
1772467415165042200,7.199042236328125,-0.9080348818838596,-0.2217868941694498,-0.3556808757545426
1772467415175014100,7.20901416015625,-0.8962783931165933,-0.12528759087920188,-0.428602392645739
1772467415184987100,7.218987060546875,-0.6615694735318421,-0.47299394409060475,-0.12677202075067906
1772467415194960100,7.228960205078125,-0.5645744956791401,-1.2902701121628284,0.32404088852889834
1772467415204932000,7.23893212890625,-1.0485668036460876,-1.3685790942460299,0.5431756242217496
1772467415214905000,7.248905029296875,-1.3273703010231255,-0.8836503822118044,0.5623165972171351
1772467415224878000,7.258878173828125,-1.3245266020298003,-0.8903186079293489,0.5173666447045281
1772467415234850000,7.26885009765625,-1.5862258198708294,-0.9752484694570303,0.30817429756168274
1772467415244823000,7.278822998046875,-1.9052625434368848,-0.8077402779638767,-0.047379188953526316
1772467415254796000,7.288796142578125,-1.9723124648809431,-0.5445902767926454,-0.4958117059025913
1772467415264768000,7.29876806640625,-1.8395277962446213,-0.21997312274575231,-0.7718304679319262
1772467415274741200,7.3087412109375,-1.691817945677042,-0.055205169871449467,-1.0042878091976046
1772467415284711000,7.3187109375,-1.4863970798969268,0.05371405453085899,-1.2970505660831928
1772467415294683000,7.328682861328125,-1.2004255905866623,0.28135435090363026,-1.4520119952142239
1772467415304656000,7.33865576171875,-1.0904442899107933,0.5295166263014078,-1.3781614538446068
1772467415314628900,7.34862890625,-0.9173673583745956,0.5343494532853365,-1.102660505144298
1772467415324600800,7.358600830078125,-0.6123351947635411,0.28918343709409233,-0.7745975945577025
1772467415334574000,7.368573974609375,-0.4334592215597629,0.07650923918485641,-0.47340245182625945
1772467415344546800,7.378546875,-0.3159522015541792,-0.012081482937932014,-0.12739512108508497
1772467415354518800,7.388518798828125,-0.22331892604231834,-0.049260582253336904,0.15458989240489898
1772467415364492000,7.398491943359375,-0.14608604875802994,-0.017840192595124243,0.36309531672950834
1772467415374465000,7.408465087890625,-0.270625451618433,0.02557107910811901,0.4196295797802508
1772467415384436700,7.418436767578125,-0.4028168305367231,-0.0006499883413314818,0.35346071548704056
1772467415394410000,7.428409912109375,-0.401698055639863,0.021366613155603408,0.14748769571688025
1772467415404383000,7.438383056640625,-0.3812234228879213,0.2030857008308172,-0.13155209463406353
1772467415414354700,7.448354736328125,-0.2727332375526428,0.45024610570967194,-0.4019189318489283
1772467415424328000,7.458327880859375,-0.043245267486572266,0.6536106234818697,-0.6148609869141132
1772467415434301000,7.468301025390625,0.2913765632241964,0.7346008074730634,-0.7219333413407206
1772467415444273000,7.47827294921875,0.6578302870035171,0.7605015569269656,-0.6646756228536367
1772467415454246000,7.488245849609375,1.035908397603035,0.8158575334459542,-0.4870185239203274
1772467415464219000,7.498218994140625,1.4247458026260136,0.8019231161177158,-0.31583927923161537
1772467415474190800,7.50819091796875,1.6872259417116642,0.7281862642556428,-0.13149159661848098
1772467415484164000,7.5181640625,1.894970866525173,0.6503279485493898,0.06331347486209124
1772467415494136800,7.52813671875,2.137307796770334,0.6143681618958712,0.2490671883482486
1772467415504108800,7.53810888671875,2.367519989457726,0.576005405753851,0.3282328237934038
1772467415514082000,7.54808203125,2.4533178659915924,0.44498365513682364,0.39090182673949747
1772467415524055000,7.558054931640625,2.3843080426514147,0.2967775454849005,0.41940621935315425
1772467415534026800,7.56802685546875,2.255232749927044,0.19759937837421893,0.4458003783471882
1772467415544000000,7.578,2.162033657225966,0.17031857273876666,0.4047309570623561
1772467415553973000,7.587972900390625,2.0396435413539407,0.09189210175573825,0.27779534324780103
1772467415563944700,7.59794482421875,1.8441461036950348,0.007913841864466666,0.16883341221492737
1772467415573918000,7.60791796875,1.6079957531303166,-0.04097673803269863,-0.002283617425151169
1772467415583891000,7.617890869140625,1.5832991187691687,-0.0497574258595705,-0.10980985309910028
1772467415593863000,7.62786279296875,1.5636486618816852,-0.08142623732089996,-0.20439855526136233
1772467415603836000,7.6378359375,1.6034429121315479,-0.17915595918893812,-0.2861617511853575
1772467415613807900,7.647807861328125,1.5807231308013199,-0.26153847432136534,-0.31380591024048626
1772467415623780900,7.65778076171875,1.5268559315353631,-0.36676410490274425,-0.2966334973717108
1772467415633754000,7.667754150390625,1.5202695388823746,-0.48537645580172534,-0.22913716560071332
1772467415643726800,7.677726806640625,1.4058125540971755,-0.6113964526087046,-0.20016126475147902
1772467415653698800,7.68769873046875,1.2784236070245503,-0.7166594925910234,-0.15758695532903075
1772467415663672000,7.697672119140625,1.0353881731212138,-0.6936971346765756,-0.15069954303600824
1772467415673643800,7.707643798828125,0.6595476123154163,-0.686137513077259,-0.1541814942670986
1772467415683616800,7.71761669921875,0.26611002002060413,-0.718879506728053,-0.058875090555846686
1772467415693590000,7.727590087890625,-0.10438216549456118,-0.7825017918109893,0.024931886155437677
1772467415703561700,7.737561767578125,-0.3914169001221657,-0.8068073810279369,0.016706758985249325
1772467415713534700,7.74753466796875,-0.6983382384806871,-0.6814981628388166,-0.0726057654729113
1772467415723508000,7.757508056640625,-0.9743547354876995,-0.43839024822115896,-0.19502426718920468
1772467415733480000,7.76747998046875,-1.119383968669176,-0.21278701063394545,-0.3507438212111592
1772467415743452700,7.77745263671875,-1.258213178166747,-0.24634558136463164,-0.26083728551575913
1772467415753426000,7.787426025390625,-0.7777420300632715,-1.0093108980566263,0.45115054373610763
1772467415763398000,7.79739794921875,-0.6923784532934427,-1.9006021504104136,0.9743165223691612
1772467415773371000,7.807370849609375,-1.4142758465379475,-1.478559810400009,0.9532560525532812
1772467415783343900,7.81734375,-1.798878390470147,-0.6840624603688716,0.8432033671416341
1772467415793315800,7.82731591796875,-1.9214561378687618,-0.9826356570988893,0.7377878400113433
1772467415803288800,7.837288818359375,-2.6690964596569535,-1.3303233056098223,0.5647140868129208
1772467415813262000,7.847261962890625,-3.2987878628909586,-0.9783230545967817,0.20102135217953473
1772467415823233800,7.85723388671875,-3.130565385648608,-0.15770459035933015,-0.18917228975798933
1772467415833206800,7.867206787109375,-2.6974679831385613,0.45119478473663327,-0.46205673581697043
1772467415843180000,7.877179931640625,-2.0950287439674136,0.7175538110822439,-0.7419866799406707
1772467415853151700,7.88715185546875,-1.3978268160402774,0.9580582652032374,-0.8847446071892976
1772467415863124700,7.897124755859375,-0.9792278944820165,1.2322843716621399,-0.6827012550182641
1772467415873097000,7.907096923828125,-0.9409136536568403,1.1437824968665837,-0.14306534922998398
1772467415883070000,7.917070068359375,-0.8802046256721019,0.7481272285223006,0.4159553482469171
1772467415893042700,7.927042724609375,-0.8107458895206451,0.4103858044862747,0.9729750446323305
1772467415903015000,7.937014892578125,-0.7958768216907978,0.16568623676300048,1.332063719536364
1772467415912988000,7.94698779296875,-0.6481704782545566,-0.04674012386500835,1.5923140537433325
1772467415922961000,7.9569609375,-0.5569026458770037,-0.15102525872588157,1.6454152370728552
1772467415932932900,7.966932861328125,-0.4425438607692718,-0.10741466505825518,1.3253854108162224
1772467415942905900,7.97690576171875,-0.38780104771256446,0.06166589031815529,0.8635923674367367
1772467415952878800,7.98687890625,-0.37699557605981826,0.2584007608175278,0.38222536647208033
1772467415962850800,7.996850830078125,-0.15977613593637943,0.5356774870187044,-0.01505238850750029
1772467415972823800,8.00682373046875,0.05986439385414123,0.8574655551195144,-0.20315401682667433
1772467415982796800,8.016796875,0.2557172208219766,1.03280283280313,-0.344384149986133
1772467415992769000,8.02676904296875,0.5443599751681089,0.9942810867071151,-0.41052272873893375
1772467416002741800,8.03674169921875,0.830834153303504,0.8792804965645075,-0.38170225591342893
1772467416012714800,8.04671484375,0.9410743971765041,0.7400333539158105,-0.27422395103443414
1772467416022687000,8.05668701171875,1.2273580211758612,0.6374450861006975,-0.17773182640364393
1772467416032660000,8.066659912109374,1.5010767626345156,0.6238514450341462,-0.06426431844667531
1772467416042632000,8.0766318359375,1.4934294627517462,0.5908654134944081,0.02606110024792142
1772467416052605000,8.08660498046875,1.5668787298440932,0.5339627920553088,0.10461845846846698
1772467416062578000,8.096577880859375,1.629593836954236,0.524829637528956,0.12846578252390026
1772467416072550000,8.1065498046875,1.584468162548542,0.5596691879808903,0.11238357604462652
1772467416082523000,8.11652294921875,1.5206874720335006,0.563095655298233,0.16440903816772623
1772467416092496000,8.126495849609375,1.4567296713858842,0.543087763275206,0.29583653830774126
1772467416102468000,8.136468017578125,1.3649784394055604,0.49222851365357634,0.4564318816725164
1772467416112440800,8.14644091796875,1.220823650971055,0.41806466855108737,0.5817660151071846
1772467416122413800,8.156413818359376,1.01290336959064,0.3024129210233688,0.6232699188191443
1772467416132386000,8.166385986328125,0.8863093722879886,0.22359277454763649,0.5911165387112647
1772467416142359000,8.176359130859375,0.8634522283136844,0.21626520813852548,0.533734828518331
1772467416152331800,8.186331787109374,0.7527952203333378,0.17550678903162478,0.48588393039982763
1772467416162304000,8.196303955078125,0.6262912394016981,0.06139087276905775,0.41450156924203035
1772467416172277000,8.206277099609375,0.5267249497562646,0.005706687209010124,0.3387647757343948
1772467416182248700,8.216248779296874,0.40154315733909607,0.05664221693724394,0.42766514832824465
1772467416192222000,8.226221923828126,0.32462299926578997,0.01346153911948204,0.46224597477875645
1772467416202195000,8.23619482421875,0.3022954321235418,-0.1578992361485958,0.36239655734300613
1772467416212167000,8.2461669921875,0.2716664851039648,-0.2746457931756973,0.3065633187010884
1772467416222140000,8.256139892578124,0.18657003483772278,-0.35391631376743315,0.28715342910382896
1772467416232113000,8.26611279296875,-0.015243746361136436,-0.4414940594553947,0.32705344128310676
1772467416242084900,8.2760849609375,-0.13918050715327263,-0.502884055441618,0.2255398534948006
1772467416252057900,8.286057861328125,-0.39097266348600385,-0.4944517426609993,0.06989148327922448
1772467416262030800,8.29603076171875,-0.6472229682713747,-0.4274859923690557,-0.06428109605154023
1772467416272002800,8.3060029296875,-0.7641980733573436,-0.29874796877503396,-0.17724941318156195
1772467416281976000,8.31597607421875,-0.8494564361870288,-0.21850655732452867,-0.3493571526257321
1772467416291953200,8.325953125,-0.8806728277057408,-0.22913784145414828,-0.3822254395373165
1772467416301924900,8.3359248046875,-0.6821504892677068,-0.6936696621477604,-0.03778661848818883
1772467416311898000,8.345898193359375,-0.6823433814913034,-1.3075327971309423,0.3033541473962366
1772467416321870000,8.3558701171875,-1.227825054165721,-1.0513158100932836,0.4683003063816577
1772467416331843000,8.365843017578126,-1.351736095994711,-0.5862549970895051,0.5182133977269754
1772467416341816000,8.375816162109375,-1.3139268820822239,-0.778000388738513,0.4406678377643227
1772467416351788000,8.3857880859375,-1.6940005504131317,-0.9490823470652103,0.1527709881483577
1772467416361761000,8.395760986328124,-2.00182322152555,-0.7351075879514217,-0.2587924452825449
1772467416371734000,8.405734130859376,-1.9074737897455691,-0.3835848913222551,-0.7334132051236927
1772467416381706000,8.4157060546875,-1.7915841418087481,-0.01860591627061367,-1.2314403220534325
1772467416391679000,8.425678955078125,-1.6704063243359326,0.18819529795199633,-1.6515091700337827
1772467416401651200,8.435651123046876,-1.500861658579111,0.2894207529813051,-1.8900776876561343
1772467416411624000,8.4456240234375,-1.4023995307832955,0.4029539009198546,-1.9166050445757805
1772467416421597000,8.455596923828125,-1.171527412882447,0.5349143936917186,-1.8426470973089337
1772467416431569200,8.465569091796874,-0.6058335577845573,0.5845163367286325,-1.7085096988894044
1772467416441542000,8.4755419921875,-0.1753799477815628,0.4726707034856081,-1.2995748238638043
1772467416451515000,8.485514892578125,1.328003338229656,0.49215018772035835,-0.10249825144410132
1772467416461487000,8.495487060546875,0.13346329855024813,-0.03198942171782255,1.1814927804492412
1772467416471460000,8.505460205078125,-1.4242682482421398,-0.6633297612026333,1.4975738690800964
1772467416481432800,8.515432861328126,-0.8386544716656208,-0.8913216474920511,0.588999765753001
1772467416491405000,8.525405029296875,-0.03407178094983101,-0.5393865706697106,0.021693141696229577
1772467416501378000,8.5353779296875,-0.4079121078491211,-0.4617737541571259,-0.21531192600168286
1772467416511351000,8.54535107421875,-0.650941112011671,-0.30797026288956403,-0.5444411506455391
1772467416521323000,8.555322998046876,-0.7033850004762411,0.0705123368576169,-0.9448936632037163
1772467416531296000,8.5652958984375,-0.8590303202182054,0.27896453315764663,-1.283907299132645
1772467416541268200,8.575268310546875,-0.6953922481566667,0.32368542615473267,-1.5144561764284967
1772467416551241000,8.585240966796874,-0.04711012622117996,0.4116805204719305,-1.204771218575537
