time,seconds_elapsed,z,y,x
1772467408029597700,0.06359765625,0.1591624915599823,-0.2845560908317566,0.11607547104358673
1772467408039570700,0.07357080078125,0.07228858023881912,-0.43649423122406006,-0.02534077689051628
1772467408049542700,0.083542724609375,-0.004378503188490868,-0.4627753794193268,-0.17114831507205963
1772467408059515600,0.093515625,-0.02496393956243992,-0.35349228978157043,-0.2773248255252838
1772467408069487600,0.103487548828125,0.005738845560699701,-0.13115935027599335,-0.291476845741272
1772467408079460600,0.113460693359375,0.05278917774558067,0.22216250002384186,-0.18748681247234344
1772467408089433600,0.12343359375,0.08298250287771225,0.6051642298698425,0.004680771846324205
1772467408099405800,0.13340576171875,0.056780990213155746,0.8319198489189148,0.1863033026456833
1772467408109378600,0.143378662109375,-0.02130076102912426,0.8020402789115906,0.34598883986473083
1772467408119351600,0.1533515625,-0.14156298339366913,0.5754390954971313,0.41940072178840637
1772467408129323800,0.16332373046875,-0.2546330988407135,0.24697808921337128,0.40116527676582336
1772467408139296500,0.173296630859375,-0.31836891174316406,-0.0930657610297203,0.3379213213920593
1772467408149268700,0.183268798828125,-0.32836881279945374,-0.3589094281196594,0.24130690097808838
1772467408159241700,0.19324169921875,-0.3126806616783142,-0.5414467453956604,0.10344809293746948
1772467408169214700,0.203214599609375,-0.30869126319885254,-0.62546706199646,-0.0664016604423523
1772467408179186700,0.213186767578125,-0.3221343755722046,-0.5859249830245972,-0.22681397199630737
1772467408189159700,0.22315966796875,-0.34649190306663513,-0.4403773844242096,-0.36351215839385986
1772467408199132700,0.233132568359375,-0.3760383427143097,-0.21413679420948029,-0.46419110894203186
1772467408209104600,0.243104736328125,-0.40368062257766724,0.016113989055156708,-0.49583637714385986
1772467408219077600,0.25307763671875,-0.4327127933502197,0.1605052500963211,-0.5316377878189087
1772467408229049600,0.263049560546875,-0.4297031760215759,0.2589777708053589,-0.552841067314148
1772467408239022800,0.27302294921875,-0.37792837619781494,0.3240518271923065,-0.5390048623085022
1772467408248995600,0.28299560546875,-0.31628233194351196,0.3154540956020355,-0.4674886167049408
1772467408258967600,0.292967529296875,-0.27890193462371826,0.18206754326820374,-0.3847287595272064
1772467408268940800,0.30294091796875,-0.24806785583496094,-0.03526504710316658,-0.2970314025878906
1772467408278913800,0.312913818359375,-0.22261470556259155,-0.24074256420135498,-0.22163039445877075
1772467408288885800,0.3228857421875,-0.2020990401506424,-0.4223368763923645,-0.18579170107841492
1772467408298859000,0.33285888671875,-0.16430798172950745,-0.5760092735290527,-0.2064700871706009
1772467408308832000,0.34283203125,-0.08120617270469666,-0.6500632166862488,-0.2458273470401764
1772467408318803700,0.3528037109375,0.01588122919201851,-0.6459587812423706,-0.2933032512664795
1772467408328777000,0.36277685546875,0.09796731173992157,-0.5351534485816956,-0.31763094663619995
1772467408338749000,0.3727490234375,0.1570066660642624,-0.280933678150177,-0.26908552646636963
1772467408348721700,0.3827216796875,0.17781899869441986,0.010200971737504005,-0.19232682883739471
1772467408358695000,0.39269482421875,0.22186581790447235,0.07065659016370773,-0.15213973820209503
1772467408368667000,0.4026669921875,0.2835201323032379,0.005898901727050543,-0.08754423260688782
1772467408378640000,0.412639892578125,0.28377845883369446,0.015417039394378662,0.046664174646139145
1772467408388612900,0.42261279296875,0.23145213723182678,0.06147481128573418,0.2414962500333786
1772467408398584800,0.432584716796875,0.16645289957523346,0.054492801427841187,0.4467165172100067
1772467408408557800,0.442557861328125,0.08532129228115082,-0.031378161162137985,0.607159435749054
1772467408418530800,0.45253076171875,0.015720905736088753,-0.13463424146175385,0.7412291169166565
1772467408428502800,0.462502685546875,-0.046313703060150146,-0.20744933187961578,0.8454300761222839
1772467408438475800,0.472475830078125,-0.09032776206731796,-0.22520382702350616,0.9278392195701599
1772467408448447700,0.48244775390625,-0.12084173411130905,-0.21547210216522217,0.9771436452865601
1772467408458420700,0.492420654296875,-0.14854606986045837,-0.21501031517982483,0.9716535210609436
1772467408468393700,0.502393798828125,-0.20300264656543732,-0.2244781106710434,0.8999127745628357
1772467408478366000,0.512365966796875,-0.2783064544200897,-0.24463078379631042,0.7832124829292297
1772467408488338700,0.522338623046875,-0.35050636529922485,-0.2782164514064789,0.6289970874786377
1772467408498311700,0.532311767578125,-0.3843444883823395,-0.3251461386680603,0.442512184381485
1772467408508284000,0.542283935546875,-0.3681601881980896,-0.35816746950149536,0.26462075114250183
1772467408518257000,0.5522568359375,-0.3319361209869385,-0.34172219038009644,0.13014362752437592
1772467408528229600,0.562229736328125,-0.3029249906539917,-0.2927088439464569,0.05242858827114105
1772467408538201900,0.572201904296875,-0.2689172029495239,-0.2151471972465515,0.028836442157626152
1772467408548174800,0.5821748046875,-0.2226671576499939,-0.06204020231962204,0.08116249740123749
1772467408558146800,0.592146728515625,-0.17922355234622955,0.1371176391839981,0.22031345963478088
1772467408568119800,0.602119873046875,-0.16091138124465942,0.28986483812332153,0.3653220534324646
1772467408578092800,0.6120927734375,-0.17187775671482086,0.2765466272830963,0.4170616865158081
1772467408588065000,0.62206494140625,-0.19532741606235504,0.11861905455589294,0.33231109380722046
1772467408598037800,0.632037841796875,-0.22960549592971802,-0.0885104238986969,0.13314180076122284
1772467408608010800,0.6420107421875,-0.24613893032073975,-0.2965938448905945,-0.14948216080665588
1772467408617983000,0.65198291015625,-0.24417778849601746,-0.4833530783653259,-0.47746002674102783
1772467408627956000,0.6619560546875,-0.21498394012451172,-0.5552842617034912,-0.7718064188957214
1772467408637928700,0.6719287109375,-0.181825190782547,-0.4767630994319916,-0.9611430764198303
1772467408647901000,0.68190087890625,-0.14679290354251862,-0.29955315589904785,-1.0424033403396606
1772467408657874000,0.6918740234375,-0.11610476672649384,-0.08956104516983032,-1.0231249332427979
1772467408667845600,0.701845703125,-0.07447636127471924,0.12396455556154251,-0.9155787825584412
1772467408677819000,0.71181884765625,-0.042217228561639786,0.29316768050193787,-0.7462449073791504
1772467408687791900,0.7217919921875,-0.027120567858219147,0.3654344379901886,-0.5391961336135864
1772467408697763800,0.731763916015625,-0.02327948994934559,0.3401937782764435,-0.33890268206596375
1772467408707736800,0.74173681640625,-0.02424781583249569,0.22377370297908783,-0.1621423065662384
1772467408717709800,0.751709716796875,-0.025416942313313484,0.013583187013864517,-0.05101364850997925
1772467408727681800,0.761681884765625,-0.029105687513947487,-0.24944470822811127,0.01588069647550583
1772467408737655000,0.771655029296875,-0.02219984494149685,-0.48754650354385376,0.0595187209546566
1772467408747627800,0.781627685546875,-0.013276923447847366,-0.6739648580551147,0.0489659458398819
1772467408757599700,0.791599853515625,-0.005549228750169277,-0.7990775108337402,-0.030459905043244362
1772467408767573000,0.801572998046875,-0.00469515286386013,-0.8363297581672668,-0.1716308742761612
1772467408777544700,0.811544677734375,-0.009098157286643982,-0.7981206178665161,-0.35547980666160583
1772467408787517700,0.821517578125,-0.017302291467785835,-0.6596516966819763,-0.5356397032737732
1772467408797491000,0.831490966796875,-0.023243537172675133,-0.4006406366825104,-0.6598955988883972
1772467408807463000,0.841462890625,-0.040288299322128296,-0.07733500003814697,-0.7042742967605591
1772467408817435600,0.851435546875,-0.0694083720445633,0.20747488737106323,-0.6784546375274658
1772467408827409000,0.861408935546875,-0.12752945721149445,0.4015870988368988,-0.5821097493171692
1772467408837380900,0.871380859375,-0.18587452173233032,0.48411795496940613,-0.421553373336792
1772467408847353900,0.881353759765625,-0.23696966469287872,0.4644222557544708,-0.23051710426807404
1772467408857326800,0.891326904296875,-0.281379759311676,0.35049968957901,-0.03936098888516426
1772467408867298800,0.901298828125,-0.30639615654945374,0.19914425909519196,0.1373477429151535
1772467408877271800,0.911271728515625,-0.32783007621765137,0.04905090108513832,0.2839803099632263
1772467408887243800,0.921243896484375,-0.3483382761478424,-0.08589493483304977,0.3722262978553772
1772467408897216800,0.931216796875,-0.3524342179298401,-0.1520787477493286,0.3976999521255493
1772467408907189800,0.941189697265625,-0.3377322256565094,-0.13465261459350586,0.36521419882774353
1772467408917161700,0.95116162109375,-0.3082196116447449,-0.07505133748054504,0.2854043245315552
1772467408927134700,0.961134765625,-0.27522143721580505,-0.019266638904809952,0.17532362043857574
1772467408937107700,0.971107666015625,-0.23333898186683655,0.02376871183514595,0.05607552081346512
1772467408947080000,0.981079833984375,-0.1896761953830719,0.07357168942689896,-0.039327964186668396
1772467408957052700,0.991052734375,-0.14104527235031128,0.1301681250333786,-0.09948824346065521
1772467408967025700,1.001025634765625,-0.11029321700334549,0.16741348803043365,-0.13354180753231049
1772467408976998000,1.010997802734375,-0.07621727138757706,0.1828257441520691,-0.15456373989582062
1772467408986971000,1.020970947265625,-0.02977680414915085,0.17089903354644775,-0.15541063249111176
1772467408996943600,1.030943603515625,0.02479855716228485,0.15873318910598755,-0.11556734144687653
1772467409006915800,1.040915771484375,0.07393787056207657,0.14997725188732147,-0.04856487363576889
1772467409016888800,1.050888916015625,0.10151783376932144,0.1329505890607834,0.017101755365729332
1772467409026860800,1.06086083984375,0.11066632717847824,0.06398803740739822,0.040347423404455185
1772467409036833800,1.070833740234375,0.11716204136610031,-0.05371462553739548,0.025525333359837532
1772467409046806800,1.080806884765625,0.11314226686954498,-0.18195116519927979,-0.018162492662668228
1772467409056779000,1.090779052734375,0.11772636324167252,-0.29343560338020325,-0.06986270099878311
1772467409066751700,1.100751708984375,0.141906276345253,-0.39696332812309265,-0.12960246205329895
1772467409076724700,1.110724853515625,0.19590532779693604,-0.4961719512939453,-0.17776812613010406
1772467409086697000,1.120697021484375,0.25550898909568787,-0.5488948225975037,-0.19122108817100525
1772467409096670000,1.130669921875,0.29909747838974,-0.48834171891212463,-0.16525234282016754
1772467409106642700,1.140642578125,0.3342576026916504,-0.2561715841293335,-0.08431807905435562
1772467409116615000,1.150614990234375,0.36397236585617065,0.23370756208896637,0.05404752120375633
1772467409126588000,1.160587890625,0.39185085892677307,0.7981549501419067,0.2611541152000427
1772467409136561000,1.170560791015625,0.401302695274353,1.1179918050765991,0.4351663887500763
1772467409146532900,1.180532958984375,0.37137913703918457,1.1297398805618286,0.4923771917819977
1772467409156505900,1.190505859375,0.3029894232749939,0.9325652122497559,0.43687957525253296
1772467409166478800,1.200478759765625,0.1916397362947464,0.5427863001823425,0.2310854196548462
1772467409176450800,1.210450927734375,0.03952796757221222,0.005083708092570305,-0.11312868446111679
1772467409186423800,1.220423828125,-0.11835967004299164,-0.4858514070510864,-0.4871099889278412
1772467409196395800,1.230395751953125,-0.22324401140213013,-0.7152163982391357,-0.7711840867996216
1772467409206369000,1.240369140625,-0.262481689453125,-0.6688161492347717,-0.8935509920120239
1772467409216341800,1.250341796875,-0.24823084473609924,-0.400968998670578,-0.8453030586242676
1772467409226313700,1.260313720703125,-0.18770278990268707,0.001662877737544477,-0.6417158246040344
1772467409236287000,1.270286865234375,-0.10299402475357056,0.4102746248245239,-0.3530432879924774
1772467409246260000,1.280260009765625,-0.05050045624375343,0.6931646466255188,-0.06312384456396103
1772467409256231700,1.290231689453125,-0.04186489060521126,0.7882876992225647,0.16077157855033875
1772467409266205000,1.300204833984375,-0.05729870870709419,0.7110165953636169,0.2988034784793854
1772467409276181000,1.310180908203125,-0.09399733692407608,0.5302447080612183,0.3595925271511078
1772467409286153000,1.320153076171875,-0.14173848927021027,0.29246461391448975,0.3673662841320038
1772467409296126200,1.330126220703125,-0.21487581729888916,0.05266347900032997,0.360586941242218
1772467409306099200,1.34009912109375,-0.29483163356781006,-0.1950099766254425,0.3260774314403534
1772467409316071000,1.35007080078125,-0.35150715708732605,-0.4305465817451477,0.25728505849838257
1772467409326044200,1.360044189453125,-0.3889394998550415,-0.5917168259620667,0.14832289516925812
1772467409336016100,1.37001611328125,-0.43449658155441284,-0.6587611436843872,0.012806875631213188
1772467409345988900,1.37998876953125,-0.4745262861251831,-0.6072657108306885,-0.10996884107589722
1772467409355962000,1.389962158203125,-0.5036375522613525,-0.4813394546508789,-0.18720024824142456
1772467409365934000,1.39993408203125,-0.493435263633728,-0.2969602942466736,-0.22234198451042175
1772467409375907000,1.409906982421875,-0.45360076427459717,-0.0949171930551529,-0.22225996851921082
1772467409385880000,1.419880126953125,-0.3813108801841736,0.10553334653377533,-0.1885557919740677
1772467409395852000,1.42985205078125,-0.2947900891304016,0.25928375124931335,-0.13186907768249512
1772467409405825000,1.439824951171875,-0.21445690095424652,0.35318097472190857,-0.049435727298259735
1772467409415798000,1.449798095703125,-0.15455122292041779,0.39516595005989075,0.047390952706336975
1772467409425770000,1.45977001953125,-0.12703119218349457,0.3924652636051178,0.13922765851020813
1772467409435743000,1.469742919921875,-0.10330881178379059,0.3430598974227905,0.20394860208034515
1772467409445716200,1.47971630859375,-0.09433954954147339,0.2813754975795746,0.23618030548095703
1772467409455688000,1.48968798828125,-0.10000436007976532,0.19764091074466705,0.2195262312889099
1772467409465661000,1.499660888671875,-0.1112024188041687,0.13982394337654114,0.19553647935390472
1772467409475634200,1.50963427734375,-0.11790665984153748,0.11627521365880966,0.1964946836233139
1772467409485606000,1.51960595703125,-0.13937494158744812,0.11569038033485413,0.22776365280151367
1772467409495579000,1.529578857421875,-0.15537254512310028,0.11287941038608551,0.28847306966781616
1772467409505551000,1.539551025390625,-0.15311259031295776,0.07789506763219833,0.3384941518306732
1772467409515524000,1.549524169921875,-0.13005253672599792,-0.0022117553744465113,0.361555814743042
1772467409525496800,1.559496826171875,-0.1017865464091301,-0.0930524468421936,0.3505502939224243
1772467409535469000,1.569468994140625,-0.07285449653863907,-0.18532778322696686,0.32342812418937683
1772467409545442000,1.579442138671875,-0.05457909032702446,-0.253365159034729,0.28892847895622253
1772467409555415000,1.5894150390625,-0.04947594180703163,-0.311195433139801,0.25404107570648193
1772467409565387000,1.599386962890625,-0.06085110083222389,-0.3455187976360321,0.2101319283246994
1772467409575360000,1.609360107421875,-0.0953797847032547,-0.3830488622188568,0.14265009760856628
1772467409585333000,1.6193330078125,-0.14015524089336395,-0.4175618290901184,0.06808211654424667
1772467409595305000,1.629304931640625,-0.1798347383737564,-0.41686832904815674,0.02400413528084755
1772467409605278000,1.63927783203125,-0.24074336886405945,-0.41280993819236755,0.03329457342624664
1772467409615251000,1.6492509765625,-0.30280381441116333,-0.43056949973106384,0.07314345240592957
1772467409625223200,1.65922314453125,-0.3505702614784241,-0.45081618428230286,0.12534433603286743
1772467409635196000,1.66919580078125,-0.37950605154037476,-0.46968919038772583,0.17168253660202026
1772467409645169000,1.6791689453125,-0.39403411746025085,-0.5645923018455505,0.17155976593494415
1772467409655141000,1.68914111328125,-0.4000909626483917,-0.7345064878463745,0.123881995677948
1772467409665114000,1.699114013671875,-0.40882477164268494,-0.8849852085113525,0.062380287796258926
1772467409675086800,1.7090869140625,-0.4114170968532562,-0.8996978402137756,0.04354614391922951
1772467409685059000,1.71905908203125,-0.4013682007789612,-0.75956791639328,0.08009536564350128
1772467409695032000,1.729031982421875,-0.4031147062778473,-0.5593122839927673,0.1565435379743576
1772467409705004000,1.739004150390625,-0.46004268527030945,-0.308732271194458,0.1829136312007904
1772467409714977000,1.74897705078125,-0.497395396232605,-0.13714639842510223,0.11939191073179245
1772467409724950000,1.758949951171875,-0.4917074143886566,-0.08755328506231308,-0.036251746118068695
1772467409734922200,1.768922119140625,-0.5097340941429138,-0.1421760469675064,-0.2806609570980072
1772467409744895000,1.77889501953125,-0.5388554930686951,-0.2815752327442169,-0.5758457183837891
1772467409754868000,1.788867919921875,-0.5542128682136536,-0.38112232089042664,-0.8304990530014038
1772467409764840200,1.798840087890625,-0.525037407875061,-0.3617944121360779,-0.9719051718711853
1772467409774813200,1.808813232421875,-0.47538864612579346,-0.25438275933265686,-0.9830459952354431
1772467409784786000,1.818785888671875,-0.4163966774940491,-0.14364798367023468,-0.8932085037231445
1772467409794758100,1.828758056640625,-0.3399549126625061,-0.05018327385187149,-0.7343160510063171
1772467409804731100,1.838731201171875,-0.2558554708957672,0.031182685866951942,-0.5515912771224976
1772467409814704000,1.8487041015625,-0.17461228370666504,0.07779625803232193,-0.3736273944377899
1772467409824676000,1.858676025390625,-0.1328406035900116,0.06524797528982162,-0.24183553457260132
1772467409834649000,1.868649169921875,-0.11629172414541245,-0.00501047121360898,-0.18346543610095978
1772467409844622000,1.8786220703125,-0.11410153657197952,-0.11086739599704742,-0.2128286510705948
1772467409854594000,1.888593994140625,-0.11009854078292847,-0.25939294695854187,-0.31525009870529175
1772467409864567000,1.898567138671875,-0.09397389739751816,-0.4044145941734314,-0.4536314010620117
1772467409874540000,1.9085400390625,-0.08381154388189316,-0.5097863078117371,-0.5858964920043945
1772467409884512300,1.91851220703125,-0.08101975172758102,-0.5599189400672913,-0.6647007465362549
1772467409894485000,1.928485107421875,-0.09969569742679596,-0.5534562468528748,-0.672901451587677
1772467409904458000,1.9384580078125,-0.12312912195920944,-0.5678618550300598,-0.6207767128944397
1772467409914430200,1.94843017578125,-0.13547447323799133,-0.532139778137207,-0.4986843764781952
1772467409924403000,1.95840283203125,-0.14859692752361298,-0.44041866064071655,-0.3334890305995941
1772467409934375200,1.968375244140625,-0.15975211560726166,-0.30271512269973755,-0.16043440997600555
1772467409944348200,1.97834814453125,-0.1890740543603897,-0.14532124996185303,-0.02804708108305931
1772467409954321200,1.988321044921875,-0.22439342737197876,-0.032520126551389694,0.03355422988533974
1772467409964293000,1.998293212890625,-0.265806645154953,0.05110020190477371,0.04634992033243179
1772467409974266000,2.00826611328125,-0.3080422580242157,0.14991386234760284,0.030313696712255478
1772467409984239000,2.018239013671875,-0.3518347442150116,0.2363843023777008,0.005632585845887661
1772467409994211000,2.028211181640625,-0.3957936763763428,0.2786121964454651,-0.03532097116112709
1772467410004184000,2.03818408203125,-0.40177246928215027,0.2937344014644623,-0.08261152356863022
1772467410014157000,2.048156982421875,-0.3584305942058563,0.37306252121925354,-0.10020703077316284
1772467410024129300,2.05812939453125,-0.2768704891204834,0.45978596806526184,-0.08119551837444305
1772467410034102000,2.06810205078125,-0.204313725233078,0.5063952803611755,-0.049801912158727646
1772467410044075000,2.078074951171875,-0.15706977248191833,0.4910599887371063,-0.011149856261909008
1772467410054047200,2.088047119140625,-0.11279498785734177,0.40671423077583313,0.019840816035866737
1772467410064020200,2.098020263671875,-0.07651820778846741,0.3292199671268463,0.0474785678088665
1772467410073993000,2.107992919921875,-0.05074493587017059,0.2689625024795532,0.07899840921163559
1772467410083965200,2.117965087890625,-0.009806823916733265,0.20836172997951508,0.10221611708402634
1772467410093938200,2.127938232421875,0.028369056060910225,0.14702700078487396,0.14617718756198883
1772467410103911200,2.1379111328125,0.06902647018432617,0.07972811907529831,0.22301363945007324
1772467410113883100,2.147883056640625,0.1327604502439499,-0.003023220458999276,0.3413653075695038
1772467410123856100,2.157856201171875,0.22001491487026215,-0.09639790654182434,0.45470893383026123
1772467410133829000,2.1678291015625,0.3186948895454407,-0.22666989266872406,0.5167296528816223
1772467410143801000,2.177801025390625,0.3940469026565552,-0.3809334933757782,0.524151086807251
1772467410153774000,2.187774169921875,0.42999210953712463,-0.511364221572876,0.49183446168899536
1772467410163747000,2.1977470703125,0.4315705895423889,-0.5958077311515808,0.4486478269100189
1772467410173719000,2.207718994140625,0.42658567428588867,-0.5817260146141052,0.41771361231803894
1772467410183692000,2.217692138671875,0.412850946187973,-0.5736523270606995,0.3723549246788025
1772467410193664000,2.2276640625,0.40125420689582825,-0.5004857182502747,0.36996978521347046
1772467410203637200,2.23763720703125,0.3986664116382599,-0.3610870838165283,0.4021247923374176
1772467410213610200,2.2476103515625,0.39735108613967896,-0.11616282165050507,0.4312105178833008
1772467410223582000,2.25758203125,0.4824950098991394,0.3383663296699524,0.4936712384223938
1772467410233555200,2.26755517578125,0.6472578644752502,0.7822729349136353,0.5291945934295654
1772467410243528200,2.277528076171875,0.7834188938140869,0.9721834659576416,0.4532971680164337
1772467410253500000,2.2875,0.8509833216667175,0.8193100690841675,0.2746483385562897
1772467410263473200,2.29747314453125,0.8222336769104004,0.33031773567199707,0.0009829727932810783
1772467410273446100,2.307446044921875,0.6692068576812744,-0.453572541475296,-0.3327867388725281
1772467410283415000,2.3174150390625,0.41982418298721313,-1.2110223770141602,-0.5718129277229309
1772467410293388000,2.327387939453125,0.19789549708366394,-1.6787792444229126,-0.6109163761138916
1772467410303361300,2.337361328125,0.07151040434837341,-1.6644232273101807,-0.38644731044769287
1772467410313333200,2.347333251953125,0.026196716353297234,-1.1636900901794434,0.05049646273255348
1772467410323306000,2.357305908203125,0.04309367388486862,-0.35227495431900024,0.532588005065918
1772467410333279200,2.367279296875,0.14516118168830872,0.4035964608192444,0.8532166481018066
1772467410343251200,2.377251220703125,0.30590346455574036,0.7952819466590881,0.9040960669517517
1772467410353224200,2.38722412109375,0.4347253441810608,0.941813588142395,0.7722834348678589
1772467410363197200,2.397197265625,0.502849817276001,0.9659024477005005,0.5667859315872192
1772467410373169200,2.407169189453125,0.5307664275169373,0.8572409152984619,0.3213372826576233
1772467410383142100,2.41714208984375,0.5125442743301392,0.615970253944397,0.0844791978597641
1772467410393115400,2.427115478515625,0.4185538589954376,0.2561292350292206,-0.11097605526447296
1772467410403087000,2.437087158203125,0.27439746260643005,-0.11034834384918213,-0.2051028162240982
1772467410413060000,2.44706005859375,0.13101021945476532,-0.3635425269603729,-0.1687389463186264
1772467410423033300,2.457033447265625,0.011856925673782825,-0.45097917318344116,-0.05427948385477066
1772467410433005000,2.467005126953125,-0.06944911181926727,-0.38906171917915344,0.09707967936992645
1772467410442978000,2.47697802734375,-0.12804505228996277,-0.21393918991088867,0.2593713700771332
1772467410452951300,2.486951416015625,-0.16297507286071777,0.07762235403060913,0.3901645541191101
1772467410462923300,2.49692333984375,-0.15248674154281616,0.4629213213920593,0.4541192948818207
1772467410472896000,2.50689599609375,-0.0972738191485405,0.8159195780754089,0.40996915102005005
1772467410482869200,2.516869140625,0.001612011343240738,1.039608359336853,0.28004124760627747
1772467410492841200,2.52684130859375,0.09392915666103363,1.1413248777389526,0.12634621560573578
1772467410502814200,2.536814208984375,0.14970986545085907,1.135244607925415,-0.026195118203759193
1772467410512787200,2.546787109375,0.19166024029254913,0.9884924292564392,-0.1319790780544281
1772467410522759200,2.55675927734375,0.2370399832725525,0.7595649361610413,-0.16237559914588928
1772467410532732200,2.566732177734375,0.31542080640792847,0.4967695474624634,-0.12545086443424225
1772467410542704000,2.5767041015625,0.5593948364257812,0.2126222550868988,-0.046902526170015335
1772467410552677000,2.586677001953125,0.6939465403556824,0.0009054747642949224,-0.010122409090399742
1772467410562650000,2.596650146484375,0.8297744393348694,-0.12902429699897766,0.08047913014888763
1772467410572623400,2.606623291015625,0.8682072758674622,-0.0477808378636837,0.25506240129470825
1772467410582595000,2.616594970703125,0.8424633145332336,0.18645936250686646,0.4496430456638336
1772467410592568000,2.626568115234375,0.9492185115814209,0.5758872628211975,0.6068718433380127
1772467410602540300,2.636540283203125,1.2071057558059692,1.0050623416900635,0.6951899528503418
1772467410612513300,2.64651318359375,1.459295630455017,1.403726577758789,0.7522050738334656
1772467410622486000,2.656486083984375,1.5950478315353394,1.6017632484436035,0.7644065618515015
1772467410632458200,2.666458251953125,1.6009584665298462,1.4857776165008545,0.7147447466850281
1772467410642431200,2.67643115234375,1.504004716873169,1.1033731698989868,0.6344890594482422
1772467410652404200,2.686404296875,1.2493433952331543,0.8112073540687561,0.5971786975860596
1772467410662376200,2.696376220703125,0.8872049450874329,0.7641149759292603,0.6089714765548706
1772467410672349200,2.70634912109375,0.5312516093254089,0.7452888488769531,0.6690542101860046
1772467410682322200,2.716322265625,0.24149172008037567,0.6592034697532654,0.7587215304374695
1772467410692294100,2.726294189453125,0.08639560639858246,0.48472222685813904,0.8308908343315125
1772467410702267100,2.73626708984375,0.04778483137488365,0.3098057806491852,0.8563977479934692
1772467410712240000,2.746240234375,0.025898441672325134,0.0912604033946991,0.7997930645942688
1772467410722212000,2.756212158203125,-0.036854952573776245,-0.19483792781829834,0.6431294083595276
1772467410732185000,2.76618505859375,-0.08675780147314072,-0.5260717868804932,0.40841174125671387
1772467410742158000,2.776157958984375,-0.2399928867816925,-0.8119218945503235,0.17691032588481903
1772467410752130300,2.78613037109375,-0.34765490889549255,-0.6229695677757263,0.07925833761692047
1772467410762103000,2.79610302734375,-0.35251569747924805,-0.3174802362918854,0.1858534961938858
1772467410772076000,2.806075927734375,-0.25232651829719543,0.015175490640103817,0.400519460439682
1772467410782048300,2.81604833984375,-0.09214510768651962,0.31555530428886414,0.554923951625824
1772467410792021200,2.826021240234375,-0.007232879288494587,0.3020016551017761,0.5406262278556824
1772467410801994000,2.835993896484375,-0.135555699467659,-0.05877995863556862,0.3147755265235901
1772467410811966200,2.84596630859375,-0.39035362005233765,-0.6446980237960815,-0.0707002654671669
1772467410821939200,2.855939208984375,-0.5792167782783508,-1.1830384731292725,-0.5152897238731384
1772467410831912200,2.865912109375,-0.6270064115524292,-1.4555506706237793,-0.9490009546279907
1772467410841884200,2.87588427734375,-0.6380965709686279,-1.4145123958587646,-1.3354493379592896
1772467410851857200,2.885857177734375,-0.677314281463623,-0.9240026473999023,-1.5730801820755005
1772467410861830100,2.895830078125,-0.668646514415741,-0.3183465600013733,-1.6365442276000977
1772467410871802000,2.905802001953125,-0.5865782499313354,0.1758732944726944,-1.5566911697387695
1772467410881775000,2.915775146484375,-0.4011428952217102,0.4194073975086212,-1.3846267461776733
1772467410891748000,2.925748046875,-0.17154911160469055,0.38569018244743347,-1.1700770854949951
1772467410901720300,2.93572021484375,-0.014336595311760902,0.07429047673940659,-0.9929825067520142
1772467410911693000,2.945693115234375,0.056170593947172165,-0.44931522011756897,-0.8929632306098938
1772467410921666000,2.955666015625,0.09028036147356033,-1.0192468166351318,-0.8282870054244995
1772467410931638300,2.96563818359375,0.11639638245105743,-1.435636043548584,-0.7416014075279236
1772467410941611300,2.975611328125,0.11429514735937119,-1.5256024599075317,-0.6075786352157593
1772467410951584000,2.985583984375,0.06286418437957764,-1.480743169784546,-0.5048847198486328
1772467410961556200,2.99555615234375,-0.017673801630735397,-1.4091835021972656,-0.4720378518104553
1772467410971529200,3.005529296875,-0.10779038071632385,-1.2755029201507568,-0.4772413969039917
1772467410981502200,3.015502197265625,-0.18304970860481262,-1.05568265914917,-0.4736780822277069
1772467410991474200,3.02547412109375,-0.23986878991127014,-0.8371692299842834,-0.43223848938941956
1772467411001447200,3.035447265625,-0.2606755197048187,-0.7182478904724121,-0.3649396300315857
1772467411011420200,3.045420166015625,-0.2605631351470947,-0.6860196590423584,-0.2747085392475128
1772467411021392100,3.05539208984375,-0.24275991320610046,-0.697037935256958,-0.1555003821849823
1772467411031365000,3.065365234375,-0.1309226006269455,-0.7032108902931213,0.022611303254961967
1772467411041338000,3.075338134765625,-0.03840944170951843,-0.6456556916236877,0.29175302386283875
1772467411051310300,3.085310302734375,-0.08509758114814758,-0.6640483140945435,0.4997940957546234
1772467411061283000,3.095282958984375,-0.23210327327251434,-0.7825512290000916,0.6034512519836426
1772467411071256000,3.105256103515625,-0.3504786491394043,-0.9301295280456543,0.6497164964675903
1772467411081228300,3.115228271484375,-0.41673755645751953,-1.0233598947525024,0.6765294671058655
1772467411091201300,3.125201171875,-0.4475972056388855,-1.0722371339797974,0.723863959312439
1772467411101174000,3.135174072265625,-0.4957048296928406,-1.0954338312149048,0.7858719229698181
1772467411111146200,3.145146240234375,-0.538341224193573,-1.0617117881774902,0.8313360810279846
1772467411121119200,3.155119140625,-0.5482599139213562,-0.9434570074081421,0.8363612294197083
1772467411131092200,3.16509228515625,-0.5191595554351807,-0.8111895322799683,0.7825605869293213
1772467411141064200,3.175064208984375,-0.4681965112686157,-0.7222386002540588,0.6829005479812622
1772467411151037200,3.185037109375,-0.4159703254699707,-0.6592426300048828,0.5875095725059509
1772467411161010200,3.19501025390625,-0.34683144092559814,-0.6109778881072998,0.5235990285873413
1772467411170982100,3.204982177734375,-0.2868189811706543,-0.5622298121452332,0.4873369038105011
1772467411180955100,3.214955078125,-0.2324950248003006,-0.5052117705345154,0.48516029119491577
1772467411190928100,3.22492822265625,-0.169252410531044,-0.32055965065956116,0.49597620964050293
1772467411200900000,3.234900146484375,-0.08884891122579575,-0.07228325307369232,0.4676731824874878
1772467411210873000,3.244873046875,0.007982558570802212,0.1032976284623146,0.3624088168144226
1772467411220846000,3.25484619140625,0.09628685563802719,0.2084227204322815,0.20282794535160065
1772467411230818300,3.264818359375,0.1930173933506012,0.28436675667762756,0.03074459731578827
1772467411240791000,3.274791015625,0.2814132869243622,0.3881823718547821,-0.12261299788951874
1772467411250764000,3.284763916015625,0.3551357388496399,0.5098952054977417,-0.24731338024139404
1772467411260736300,3.294736328125,0.4084348976612091,0.6252114176750183,-0.35085123777389526
1772467411270709200,3.304709228515625,0.45048248767852783,0.7184683680534363,-0.3785712718963623
1772467411280682500,3.3146826171875,0.4592328369617462,0.7366719245910645,-0.36693912744522095
1772467411290654500,3.324654541015625,0.4411744773387909,0.7230817675590515,-0.32544654607772827
1772467411300627500,3.33462744140625,0.4229848086833954,0.7630241513252258,-0.23739098012447357
1772467411310600400,3.344600341796875,0.43313971161842346,0.8726198673248291,-0.09164655953645706
1772467411320572700,3.35457275390625,0.4854223430156708,0.9024081230163574,0.013009541667997837
1772467411330545400,3.36454541015625,0.5562243461608887,0.7933258414268494,-0.028651883825659752
1772467411340518400,3.374518310546875,0.6599619388580322,0.5410240888595581,-0.2043619304895401
1772467411350490600,3.38449072265625,0.7603729367256165,0.124954454600811,-0.5453424453735352
1772467411360463600,3.394463623046875,0.7642044425010681,-0.32999947667121887,-0.9818249344825745
1772467411370436400,3.404436279296875,0.6858806014060974,-0.6544814109802246,-1.336004614830017
1772467411380408600,3.41440869140625,0.5699060559272766,-0.6301262974739075,-1.4516339302062988
1772467411390381600,3.424381591796875,0.4107246696949005,-0.2058809995651245,-1.2488605976104736
1772467411400354600,3.4343544921875,0.2692525088787079,0.3565799593925476,-0.8015307784080505
1772467411410326500,3.444326416015625,0.18741409480571747,0.8001925349235535,-0.2934475839138031
1772467411420299500,3.454299560546875,0.1389315277338028,1.0499392747879028,0.12824133038520813
1772467411430272500,3.4642724609375,0.12806901335716248,1.012494444847107,0.3739094138145447
1772467411440244500,3.474244384765625,0.15421487390995026,0.7800247073173523,0.4801884591579437
1772467411450217500,3.484217529296875,0.18328779935836792,0.49637433886528015,0.5086195468902588
1772467411460190500,3.4941904296875,0.18535014986991882,0.22350366413593292,0.47422856092453003
1772467411470162700,3.50416259765625,0.16020964086055756,-0.03608929365873337,0.3682486116886139
1772467411480135400,3.514135498046875,0.08838126063346863,-0.21337085962295532,0.2318047285079956
1772467411490108400,3.5241083984375,-0.012674249708652496,-0.26851773262023926,0.13366298377513885
1772467411500080600,3.53408056640625,-0.11041305959224701,-0.15886154770851135,0.09673559665679932
1772467411510053600,3.5440537109375,-0.1534995436668396,0.04628920182585716,0.039149265736341476
1772467411520026400,3.5540263671875,-0.15792784094810486,0.2774513065814972,-0.045694783329963684
1772467411529998600,3.56399853515625,-0.12319037318229675,0.5075564384460449,-0.1405342072248459
1772467411539971600,3.5739716796875,-0.06177521497011185,0.7200806736946106,-0.237208291888237
1772467411549944600,3.583944580078125,0.005416603293269873,0.9198774099349976,-0.34232965111732483
1772467411559916500,3.59391650390625,0.05301181972026825,1.0433928966522217,-0.4696103632450104
1772467411569889500,3.6038896484375,0.07749612629413605,1.053236484527588,-0.6012842655181885
1772467411579862500,3.613862548828125,0.09240636229515076,0.9829354882240295,-0.6871544122695923
1772467411589834500,3.62383447265625,0.11185462772846222,0.8627983927726746,-0.7106160521507263
1772467411599807500,3.633807373046875,0.1515786051750183,0.7233965992927551,-0.6689682006835938
1772467411609780500,3.643780517578125,0.19991178810596466,0.5969598293304443,-0.5796311497688293
1772467411619752400,3.65375244140625,0.22653034329414368,0.5272701978683472,-0.44333508610725403
1772467411629725400,3.663725341796875,0.22437292337417603,0.4734274744987488,-0.29298660159111023
1772467411639698400,3.673698486328125,0.19729682803153992,0.3959244191646576,-0.17094138264656067
1772467411649670700,3.683670654296875,0.16905586421489716,0.32092636823654175,-0.048952363431453705
1772467411659643400,3.693643310546875,0.15249019861221313,0.2741332948207855,0.0933600440621376
1772467411669616400,3.703616455078125,0.14668771624565125,0.24016466736793518,0.23227238655090332
1772467411679588600,3.713588623046875,0.14369671046733856,0.2209070771932602,0.318517804145813
1772467411689561600,3.7235615234375,0.14858600497245789,0.19913281500339508,0.35924339294433594
1772467411699534300,3.733534423828125,0.15836620330810547,0.18559356033802032,0.3824554979801178
1772467411709506600,3.743506591796875,0.18997126817703247,0.20047317445278168,0.4268985986709595
1772467411719479600,3.7534794921875,0.26146382093429565,0.23719391226768494,0.48540905117988586
1772467411729452500,3.76345263671875,0.32216179370880127,0.2623674273490906,0.5421285033226013
1772467411739424500,3.773424560546875,0.3530731201171875,0.2812686860561371,0.5942103862762451
1772467411749397500,3.7833974609375,0.351768434047699,0.24930143356323242,0.6532606482505798
1772467411759370500,3.79337060546875,0.3201141059398651,0.1615782380104065,0.6799196600914001
1772467411769342500,3.803342529296875,0.26546308398246765,0.018741464242339134,0.6552175283432007
1772467411779315500,3.8133154296875,0.19340620934963226,-0.1428050845861435,0.5873082280158997
1772467411789288400,3.823288330078125,0.12295761704444885,-0.28025856614112854,0.49374818801879883
1772467411799260700,3.8332607421875,0.09148384630680084,-0.3852728605270386,0.3551884591579437
1772467411809233400,3.8432333984375,0.09620323032140732,-0.4217091500759125,0.19085544347763062
1772467411819206400,3.853206298828125,0.10640553385019302,-0.3829471170902252,0.07563138008117676
1772467411829178600,3.8631787109375,0.11401951313018799,-0.28694576025009155,0.046840474009513855
1772467411839151600,3.873151611328125,0.10284089297056198,-0.13624519109725952,0.10279562324285507
1772467411849124400,3.883124267578125,0.09450387209653854,0.052808087319135666,0.24850888550281525
1772467411859096600,3.8930966796875,0.06145084276795387,0.10428193211555481,0.3776405155658722
1772467411869069600,3.903069580078125,-0.0009081379394046962,-0.06719901412725449,0.3513526916503906
1772467411879042600,3.91304248046875,-0.0306889358907938,-0.2526487708091736,0.22039122879505157
1772467411889014500,3.9230146484375,-0.05258571356534958,-0.40503084659576416,0.01377866230905056
1772467411898987500,3.932987548828125,-0.11776524782180786,-0.6133811473846436,-0.34184548258781433
1772467411908960500,3.94296044921875,-0.16589416563510895,-0.7457125186920166,-0.7799367904663086
1772467411918932500,3.952932373046875,-0.17147508263587952,-0.7080903053283691,-1.2056089639663696
1772467411928905500,3.962905517578125,-0.10939812660217285,-0.4810768663883209,-1.528955340385437
1772467411938878500,3.97287841796875,0.005120459944009781,-0.10768278688192368,-1.6846767663955688
1772467411948850700,3.9828505859375,0.1186281144618988,0.2935280203819275,-1.6472386121749878
1772467411958823400,3.992823486328125,0.22059549391269684,0.6230188608169556,-1.437109351158142
1772467411968796400,4.00279638671875,0.30000588297843933,0.8115519881248474,-1.097884178161621
1772467411978768600,4.0127685546875,0.35363689064979553,0.8332218527793884,-0.7293588519096375
1772467411988741600,4.02274169921875,0.3744705319404602,0.632116973400116,-0.42184311151504517
1772467411998714400,4.03271435546875,0.35342809557914734,0.25024500489234924,-0.2264038473367691
1772467412008686600,4.0426865234375,0.3133437931537628,-0.17482267320156097,-0.13576821982860565
1772467412018659600,4.05265966796875,0.2780827581882477,-0.499749094247818,-0.12134932726621628
1772467412028632600,4.062632568359375,0.2684554159641266,-0.6619603633880615,-0.1473119556903839
1772467412038604500,4.0726044921875,0.2632337510585785,-0.6726433634757996,-0.2166830450296402
1772467412048577500,4.08257763671875,0.25559476017951965,-0.620527446269989,-0.3283967971801758
1772467412058550500,4.092550537109375,0.24250638484954834,-0.5184362530708313,-0.45422956347465515
1772467412068522500,4.1025224609375,0.2365158647298813,-0.36319923400878906,-0.5442315936088562
1772467412078495500,4.11249560546875,0.21958349645137787,-0.18671981990337372,-0.6070467829704285
1772467412088468500,4.122468505859375,0.17880463600158691,-0.003373426152393222,-0.6436641812324524
1772467412098440400,4.1324404296875,0.11773169040679932,0.16446803510189056,-0.6427954435348511
1772467412108413400,4.142413330078125,0.06694547832012177,0.30560946464538574,-0.6044960021972656
1772467412118386400,4.152386474609375,0.02051938883960247,0.39756760001182556,-0.5177065134048462
1772467412128358700,4.162358642578125,-0.027475832030177116,0.4451436400413513,-0.3788125514984131
1772467412138331400,4.172331298828125,-0.049440253525972366,0.4643271863460541,-0.19063998758792877
1772467412148304400,4.182304443359375,-0.04500662162899971,0.4556884169578552,-0.0007195860962383449
1772467412158277600,4.192277587890625,-0.04869776591658592,0.3713250756263733,0.13632215559482574
1772467412168249600,4.20224951171875,-0.06191902607679367,0.2725902497768402,0.2205590009689331
1772467412178222300,4.212222412109375,-0.0709945484995842,0.20666076242923737,0.2819659113883972
1772467412188194600,4.222194580078125,-0.07230775058269501,0.15877872705459595,0.3182336390018463
1772467412198167600,4.23216748046875,-0.060511015355587006,0.12725728750228882,0.34796038269996643
1772467412208140500,4.242140625,-0.033956367522478104,0.10425236821174622,0.3883855640888214
1772467412218113500,4.252113525390625,-0.010452108457684517,0.06094111502170563,0.4170089364051819
1772467412228085500,4.26208544921875,0.0030389330349862576,0.0012002866715192795,0.41677218675613403
1772467412238058500,4.27205859375,0.004530303180217743,-0.046485211700201035,0.40674537420272827
1772467412248031700,4.28203173828125,0.011818310245871544,-0.06131475791335106,0.4056282043457031
1772467412258003500,4.29200341796875,0.03943102806806564,-0.03146897628903389,0.4076908230781555
1772467412267976400,4.3019765625,0.0757988914847374,0.025242505595088005,0.4160059988498688
1772467412277949400,4.311949462890625,0.11513830721378326,0.07930999994277954,0.4297542870044708
1772467412287921400,4.32192138671875,0.15927940607070923,0.08975491672754288,0.4423936605453491
1772467412297894400,4.331894287109375,0.20255310833454132,0.06089397519826889,0.43359139561653137
1772467412307867400,4.341867431640625,0.24157747626304626,-0.004974252078682184,0.3969649374485016
1772467412317839400,4.35183935546875,0.27301928400993347,-0.07532990723848343,0.3492029905319214
1772467412327812400,4.361812255859375,0.28794124722480774,-0.14104260504245758,0.29069361090660095
1772467412337785600,4.37178564453125,0.3024139106273651,-0.16720443964004517,0.24233700335025787
1772467412347757300,4.38175732421875,0.3356621563434601,-0.1765819638967514,0.19526296854019165
1772467412357730300,4.391730224609375,0.37622395157814026,-0.19288396835327148,0.1750493049621582
1772467412367703600,4.40170361328125,0.43259668350219727,-0.1483822762966156,0.22910721600055695
1772467412377675300,4.41167529296875,0.5254579186439514,-0.005251220893114805,0.3551029562950134
1772467412387648300,4.421648193359375,0.6422649621963501,0.28223034739494324,0.4924059510231018
1772467412397621500,4.43162158203125,0.7658470869064331,0.549923837184906,0.5373420119285583
1772467412407593500,4.441593505859375,0.8402858972549438,0.5907335877418518,0.39329004287719727
1772467412417566200,4.451566162109375,0.8986424207687378,0.4175889790058136,0.06605038791894913
1772467412427539500,4.46153955078125,0.8931648135185242,0.12999634444713593,-0.35581934452056885
1772467412437511400,4.471511474609375,0.7799421548843384,-0.0952916294336319,-0.7335176467895508
1772467412447484400,4.481484375,0.6266812086105347,-0.19215185940265656,-0.9646137356758118
1772467412457457400,4.49145751953125,0.45469292998313904,-0.1741395741701126,-0.9803029298782349
1772467412467429400,4.501429443359375,0.3123866617679596,0.05732374265789986,-0.7646446824073792
1772467412477402400,4.51140234375,0.22838923335075378,0.5018056035041809,-0.39441680908203125
1772467412487375600,4.521375732421875,0.2537185549736023,0.9933958053588867,0.03483361378312111
1772467412497347300,4.531347412109375,0.3699335753917694,1.3412859439849854,0.39087027311325073
1772467412507320300,4.5413203125,0.4743169844150543,1.4393919706344604,0.5885064005851746
1772467412517293600,4.55129345703125,0.5442867279052734,1.2796976566314697,0.6222321391105652
1772467412527265300,4.561265380859375,0.5537023544311523,0.9758312106132507,0.5252768397331238
1772467412537238300,4.57123828125,0.5143064856529236,0.6003146171569824,0.34277331829071045
1772467412547211500,4.58121142578125,0.4309929311275482,0.23277758061885834,0.14540326595306396
1772467412557183500,4.59118359375,0.33477267622947693,-0.10340042412281036,-0.0102553004398942
1772467412567156200,4.60115625,0.232053741812706,-0.29749852418899536,-0.11233639717102051
1772467412577129500,4.61112939453125,0.13288427889347076,-0.34371182322502136,-0.14186792075634003
1772467412587101400,4.621101318359375,0.08221364766359329,-0.2795368432998657,-0.11018695682287216
1772467412597074400,4.631074462890625,0.07104115188121796,-0.16386324167251587,-0.06549245864152908
1772467412607047400,4.64104736328125,0.0699860081076622,-0.03045457787811756,-0.0067998492158949375
1772467412617020400,4.6510205078125,0.04959604889154434,0.11940495669841766,0.05434499680995941
1772467412626992400,4.660992431640625,0.0011502192355692387,0.23983150720596313,0.13220970332622528
1772467412636965600,4.670965576171875,-0.10958348214626312,0.36473801732063293,0.22156354784965515
1772467412646938400,4.6809384765625,-0.26225078105926514,0.44167008996009827,0.3472919166088104
1772467412656910300,4.690910400390625,-0.29987168312072754,0.3855370283126831,0.37414881587028503
1772467412666883600,4.700883544921875,-0.26418718695640564,0.2729271352291107,0.3001244068145752
1772467412676856600,4.710856689453125,-0.17924511432647705,0.19354043900966644,0.18084540963172913
1772467412686828300,4.720828369140625,-0.06688182801008224,0.12798459827899933,0.06467273831367493
1772467412696801500,4.730801513671875,0.03684163838624954,0.11517000198364258,-0.02852005884051323
1772467412706774500,4.7407744140625,0.12469825893640518,0.14010651409626007,-0.0891605019569397
1772467412716746200,4.750746337890625,0.19212204217910767,0.20337948203086853,-0.1200193464756012
1772467412726719500,4.760719482421875,0.2568261921405792,0.24717596173286438,-0.13793416321277618
1772467412736692500,4.7706923828125,0.2889156937599182,0.22657188773155212,-0.17743870615959167
1772467412746664200,4.780664306640625,0.28401440382003784,0.14546851813793182,-0.20596835017204285
1772467412756637400,4.790637451171875,0.26482340693473816,0.1228199303150177,-0.19296146929264069
1772467412766610400,4.8006103515625,0.2670351564884186,0.09826131910085678,-0.1479463279247284
1772467412776582400,4.81058251953125,0.27829980850219727,0.03362187743186951,-0.08671385794878006
1772467412786555400,4.820555419921875,0.2927993834018707,-0.04152560606598854,-0.004746285732835531
1772467412796528400,4.8305283203125,0.32116150856018066,-0.0898209661245346,0.11442217975854874
1772467412806500400,4.840500244140625,0.3477662205696106,-0.13310585916042328,0.23613104224205017
1772467412816473600,4.8504736328125,0.3573424220085144,-0.16749365627765656,0.33087724447250366
1772467412826446300,4.8604462890625,0.3287283480167389,-0.22395239770412445,0.3924497961997986
1772467412836418300,4.870418212890625,0.2625000774860382,-0.2891646921634674,0.42816439270973206
1772467412846391600,4.8803916015625,0.18092291057109833,-0.3601328730583191,0.4439838230609894
1772467412856364500,4.890364501953125,0.11308793723583221,-0.4208359122276306,0.45722585916519165
1772467412866336300,4.900336181640625,0.0643550232052803,-0.42732974886894226,0.4818694293498993
1772467412876309500,4.9103095703125,0.039750341325998306,-0.4023993909358978,0.4924539029598236
1772467412886282500,4.920282470703125,0.03521764278411865,-0.34805357456207275,0.4886777997016907
1772467412896255500,4.93025537109375,0.03086204268038273,-0.2914225161075592,0.47096219658851624
1772467412906227500,4.9402275390625,0.026211896911263466,-0.28154993057250977,0.4412700831890106
1772467412916200400,4.950200439453125,0.012781308963894844,-0.3439997136592865,0.4016265273094177
1772467412926173400,4.96017333984375,0.0008077367674559355,-0.36257392168045044,0.37860697507858276
1772467412936145400,4.9701455078125,0.03819825127720833,-0.2534772753715515,0.3986078202724457
1772467412946118400,4.980118408203125,0.08949393033981323,-0.07428594678640366,0.4343312084674835
1772467412956091400,4.99009130859375,0.06863711774349213,-0.009108809754252434,0.3816847801208496
1772467412966063600,5.000063720703125,0.01498081348836422,-0.05935253947973251,0.23375657200813293
1772467412976036400,5.010036376953125,-0.029641781002283096,-0.15070801973342896,0.0038722362369298935
1772467412986009300,5.02000927734375,-0.09333048015832901,-0.3121888041496277,-0.30783984065055847
1772467412995981600,5.029981689453125,-0.2044021338224411,-0.5700544118881226,-0.666254997253418
1772467413005954600,5.03995458984375,-0.31045666337013245,-0.8204410672187805,-0.9751521348953247
1772467413015927300,5.04992724609375,-0.32694774866104126,-0.9190379977226257,-1.1760636568069458
1772467413025899500,5.0598994140625,-0.22365252673625946,-0.8766151666641235,-1.2504550218582153
1772467413035872500,5.06987255859375,-0.016939302906394005,-0.6593248844146729,-1.2447534799575806
1772467413045845500,5.079845458984375,0.2433290332555771,-0.31449347734451294,-1.205659031867981
1772467413055817500,5.0898173828125,0.44314759969711304,0.031086813658475876,-1.1893682479858398
1772467413065790500,5.09979052734375,0.542827308177948,0.45122018456459045,-1.1432809829711914
1772467413075763500,5.109763427734375,0.5153688192367554,0.8955758213996887,-1.027048110961914
1772467413085735400,5.1197353515625,0.3847101330757141,1.0149784088134766,-0.7391475439071655
1772467413095708400,5.12970849609375,0.3422686755657196,0.7372764348983765,-0.31211769580841064
1772467413105681400,5.139681396484375,0.41840869188308716,0.6504994630813599,-0.12733718752861023
1772467413115653600,5.149653564453125,0.37505748867988586,0.7072184085845947,-0.07499194890260696
1772467413125626400,5.15962646484375,0.23769964277744293,0.519952118396759,-0.036856550723314285
1772467413135599400,5.169599365234375,0.13142353296279907,0.14314544200897217,0.02239239029586315
1772467413145571600,5.179571533203125,0.09079994261264801,-0.22817085683345795,0.07620874792337418
1772467413155544600,5.189544677734375,0.11481872946023941,-0.449392706155777,0.10709556192159653
1772467413165517300,5.199517333984375,0.19790136814117432,-0.5463120937347412,0.12618961930274963
1772467413175490300,5.209490234375,0.2871454954147339,-0.5860496163368225,0.18402789533138275
1772467413185462500,5.219462646484375,0.36089375615119934,-0.6012347340583801,0.30080243945121765
1772467413195435300,5.229435302734375,0.4015522301197052,-0.5642460584640503,0.454091340303421
1772467413205408300,5.239408203125,0.4114490747451782,-0.48539865016937256,0.6104303598403931
1772467413215380500,5.24938037109375,0.3674166202545166,-0.38570135831832886,0.7146480679512024
1772467413225353500,5.259353515625,0.23578110337257385,-0.21496689319610596,0.7654052972793579
1772467413235326200,5.269326171875,0.06443092226982117,0.03356355428695679,0.7920792102813721
1772467413245298400,5.27929833984375,-0.0776899978518486,0.2601229250431061,0.7770206332206726
1772467413255271400,5.289271484375,-0.16640202701091766,0.39956071972846985,0.6972448825836182
1772467413265244400,5.299244384765625,-0.23868048191070557,0.40644630789756775,0.585858941078186
1772467413275216400,5.30921630859375,-0.3197233974933624,0.34104812145233154,0.5036919116973877
1772467413285190100,5.319190185546875,-0.453386127948761,0.28477874398231506,0.45804452896118164
1772467413295163100,5.3291630859375,-0.6260141134262085,0.26068803668022156,0.46222808957099915
1772467413305136000,5.33913623046875,-0.8019015192985535,0.3293491303920746,0.5348519682884216
1772467413315108000,5.349108154296875,-0.9776999354362488,0.48715075850486755,0.6072651743888855
1772467413325081000,5.3590810546875,-1.1024773120880127,0.6422721743583679,0.6513668298721313
1772467413335054000,5.36905419921875,-1.0931352376937866,0.6938616037368774,0.6433600783348083
1772467413345026300,5.3790263671875,-1.0707523822784424,0.8447437882423401,0.7009817957878113
1772467413354999000,5.3889990234375,-0.87263023853302,0.9708290100097656,0.7688657641410828
1772467413364972000,5.398971923828125,-0.5434566140174866,0.8107149600982666,0.7393696904182434
1772467413374944300,5.4089443359375,-0.253365159034729,0.5707540512084961,0.6616448163986206
1772467413384917200,5.418917236328125,-0.06500882655382156,0.46574240922927856,0.5605610609054565
1772467413394890000,5.428889892578125,0.0393572598695755,0.34894201159477234,0.4354287087917328
1772467413404862200,5.4388623046875,0.08955997973680496,0.10251226276159286,0.32796376943588257
1772467413414835200,5.448835205078125,0.1147710531949997,-0.1962169110774994,0.3021928668022156
1772467413424808200,5.45880810546875,0.13133378326892853,-0.32141876220703125,0.3675212860107422
1772467413434780200,5.4687802734375,0.1413896232843399,-0.3181454837322235,0.49853548407554626
1772467413444753200,5.478753173828125,0.15288302302360535,-0.3533330261707306,0.631814181804657
1772467413454726100,5.48872607421875,0.20541547238826752,-0.3752348721027374,0.732153594493866
1772467413464699400,5.498699462890625,0.28585943579673767,-0.2661310136318207,0.7734682559967041
1772467413474671000,5.508671142578125,0.4031892716884613,-0.09591560810804367,0.7660478949546814
1772467413484644000,5.51864404296875,0.5712783932685852,0.16427282989025116,0.7739436626434326
1772467413494617300,5.528617431640625,0.8050088882446289,0.6981202363967896,0.882185161113739
1772467413504589000,5.538589111328125,1.1040589809417725,1.3093169927597046,1.027084231376648
1772467413514562000,5.54856201171875,1.3299791812896729,1.6034988164901733,1.04380202293396
1772467413524535300,5.558535400390625,1.4324605464935303,1.5735247135162354,0.8904523849487305
1772467413534507000,5.568507080078125,1.434426188468933,1.156691312789917,0.5490385890007019
1772467413544480000,5.57847998046875,1.3027746677398682,0.4524572193622589,0.07144621759653091
1772467413554453200,5.588453369140625,0.9898729920387268,-0.29067257046699524,-0.33565524220466614
1772467413564425200,5.59842529296875,0.5758899450302124,-0.8148340582847595,-0.5154423117637634
1772467413574398000,5.60839794921875,0.22765234112739563,-1.035356044769287,-0.43816909193992615
1772467413584371200,5.61837109375,-0.03404052555561066,-0.8570656776428223,-0.2365265190601349
1772467413594343200,5.62834326171875,-0.18273279070854187,-0.396862655878067,-0.01492542028427124
1772467413604316200,5.638316162109375,-0.02677861787378788,0.12931351363658905,0.259571373462677
1772467413614289200,5.6482890625,0.22901667654514313,0.6000213623046875,0.46524810791015625
1772467413624261000,5.65826123046875,0.41748592257499695,0.9142038226127625,0.4917825162410736
1772467413634234000,5.668234130859375,0.5520524978637695,1.0253047943115234,0.40534189343452454
1772467413644207400,5.678207275390625,0.5926151275634766,0.9818385243415833,0.27309200167655945
1772467413654180000,5.68818017578125,0.5216759443283081,0.7661522626876831,0.12830497324466705
1772467413664152000,5.698152099609375,0.38443076610565186,0.4243305027484894,0.023250726982951164
1772467413674125300,5.708125244140625,0.19620811939239502,0.08217929303646088,-0.006911169271916151
1772467413684098300,5.718098388671875,-0.01587989740073681,-0.19597803056240082,-0.021926337853074074
1772467413694070000,5.728070068359375,-0.23957450687885284,-0.37836888432502747,-0.15238182246685028
1772467413704043300,5.738043212890625,-0.27609869837760925,-0.5199547410011292,-0.20828182995319366
1772467413714016300,5.748016357421875,-0.25940680503845215,-0.505612850189209,-0.18976381421089172
1772467413723988000,5.757988037109375,-0.26120710372924805,-0.3355897068977356,-0.15162014961242676
1772467413733961200,5.767961181640625,-0.26419195532798767,-0.11636149883270264,-0.10208269208669662
1772467413743934200,5.777934326171875,-0.26431554555892944,0.0644460991024971,-0.04621463268995285
1772467413753906200,5.78790625,-0.2788151204586029,0.2477876991033554,0.02557247132062912
1772467413763879200,5.797879150390625,-0.2983059883117676,0.38886067271232605,0.09609697014093399
1772467413773852200,5.80785205078125,-0.33730053901672363,0.4671304225921631,0.13566328585147858
1772467413783824100,5.81782421875,-0.3778407573699951,0.45491743087768555,0.13343608379364014
1772467413793797400,5.82779736328125,-0.40411898493766785,0.36305198073387146,0.09411238133907318
1772467413803770000,5.83777001953125,-0.40136659145355225,0.21370722353458405,0.05597272142767906
1772467413813742000,5.8477421875,-0.36709943413734436,0.11600063741207123,0.04428437352180481
1772467413823715300,5.85771533203125,-0.29727694392204285,0.0853593721985817,0.05971526354551315
1772467413833688300,5.867688232421875,-0.2248421609401703,0.19094891846179962,0.133148193359375
1772467413843661000,5.8776611328125,-0.21153195202350616,0.39077040553092957,0.2809975743293762
1772467413853633300,5.88763330078125,-0.1492302268743515,0.41576045751571655,0.4123508036136627
1772467413863606300,5.897606201171875,-0.09431105852127075,0.370749831199646,0.5373287200927734
1772467413873579300,5.907579345703125,-0.08949952572584152,0.2710200548171997,0.6388878226280212
1772467413883551200,5.91755126953125,-0.12011202424764633,0.07627160102128983,0.6781164407730103
1772467413893524200,5.927524169921875,-0.19881296157836914,-0.12594541907310486,0.6870076656341553
1772467413903497200,5.937497314453125,-0.2649344503879547,-0.34519466757774353,0.6933239102363586
1772467413913470200,5.94747021484375,-0.3016085922718048,-0.4918808043003082,0.7094634175300598
1772467413923443200,5.957443115234375,-0.3696744441986084,-0.5641496777534485,0.6969345808029175
1772467413933416200,5.967416259765625,-0.45205748081207275,-0.6646501421928406,0.6430972218513489
1772467413943389200,5.97738916015625,-0.5028743147850037,-0.8362826704978943,0.570552408695221
1772467413953361200,5.987361083984375,-0.57045978307724,-0.921793520450592,0.5189821720123291
1772467413963334100,5.997334228515625,-0.6325502991676331,-0.9512587785720825,0.4623572528362274
1772467413973307100,6.00730712890625,-0.6474378705024719,-0.9129310846328735,0.3693370223045349
1772467413983279000,6.017279052734375,-0.6065330505371094,-0.8157669901847839,0.26128673553466797
1772467413993252000,6.027252197265625,-0.5109460949897766,-0.7044492363929749,0.17788051068782806
1772467414003225000,6.03722509765625,-0.3908601701259613,-0.6101555228233337,0.106630839407444
1772467414013197000,6.047197021484375,-0.284557968378067,-0.5733849406242371,0.0462372712790966
1772467414023170300,6.05717041015625,-0.23032668232917786,-0.5241004824638367,0.004601143300533295
1772467414033143000,6.06714306640625,-0.21621859073638916,-0.40699678659439087,-0.001588575541973114
1772467414043115300,6.077115234375,-0.18423961102962494,-0.20383888483047485,0.03868614137172699
1772467414053088300,6.087088134765625,-0.150085911154747,-0.15427398681640625,0.10875817388296127
1772467414063061200,6.097061279296875,-0.19714128971099854,-0.30344218015670776,0.12875798344612122
1772467414073033200,6.107033203125,-0.30346426367759705,-0.5186154842376709,0.04819895327091217
1772467414083006200,6.117006103515625,-0.3927970826625824,-0.6612301468849182,-0.12777820229530334
1772467414092979200,6.126979248046875,-0.4463873505592346,-0.723035991191864,-0.36718785762786865
1772467414102951200,6.136951171875,-0.4639226496219635,-0.7661879658699036,-0.5864690542221069
1772467414112924200,6.146924072265625,-0.4450317919254303,-0.6629502773284912,-0.7460755109786987
1772467414122897200,6.156897216796875,-0.4054867923259735,-0.29700690507888794,-0.815013587474823
1772467414132870100,6.1668701171875,-0.3693399727344513,-0.1905459761619568,-0.8415833711624146
1772467414142842000,6.176842041015625,-0.3082915246486664,-0.27670031785964966,-0.8074200749397278
1772467414152815000,6.186815185546875,-0.22301897406578064,-0.282278835773468,-0.6888663172721863
1772467414162788000,6.1967880859375,-0.11993066221475601,-0.17238055169582367,-0.5109817981719971
1772467414172760300,6.20676025390625,-0.032700423151254654,-0.08505284041166306,-0.3145792484283447
1772467414182733000,6.216733154296875,0.0038253646343946457,-0.048102546483278275,-0.15087953209877014
1772467414192706000,6.2267060546875,-0.018915900960564613,0.011110441759228706,-0.050337206572294235
1772467414202678300,6.23667822265625,-0.0632476806640625,0.12454964965581894,-0.012874785810709
1772467414212651300,6.2466513671875,-0.09834521263837814,0.22143438458442688,-0.04087499529123306
1772467414222624000,6.2566240234375,-0.10182010382413864,0.22052384912967682,-0.13703188300132751
1772467414232596200,6.26659619140625,-0.08044903725385666,0.11645843833684921,-0.26456668972969055
1772467414242569200,6.2765693359375,-0.03720196336507797,-0.030218621715903282,-0.40241456031799316
1772467414252542200,6.286542236328125,0.030007965862751007,-0.17510123550891876,-0.5442143082618713
1772467414262514200,6.29651416015625,0.10929453372955322,-0.3185417652130127,-0.6882044672966003
1772467414272487200,6.306487060546875,0.19686485826969147,-0.4286442995071411,-0.7894746661186218
1772467414282460000,6.3164599609375,0.2599719166755676,-0.44517001509666443,-0.8149776458740234
1772467414292433000,6.326432861328125,0.2828247845172882,-0.3655465543270111,-0.7479458451271057
1772467414302405000,6.336405029296875,0.26798856258392334,-0.23187637329101562,-0.6225059032440186
1772467414312378000,6.346378173828125,0.2102789431810379,-0.10236658155918121,-0.46228960156440735
1772467414322351000,6.35635107421875,0.1285254806280136,-0.007632886059582233,-0.28720539808273315
1772467414332323000,6.366322998046875,0.02203206531703472,0.016656208783388138,-0.15313202142715454
1772467414342296000,6.376296142578125,-0.08362352102994919,-0.04132799804210663,-0.07957738637924194
1772467414352269000,6.38626904296875,-0.17736172676086426,-0.13415594398975372,-0.05216706544160843
1772467414362241000,6.396240966796875,-0.2573945224285126,-0.18056870996952057,-0.06597475707530975
1772467414372214000,6.406214111328125,-0.30132177472114563,-0.1660132110118866,-0.10799863934516907
1772467414382187000,6.41618701171875,-0.2884991765022278,-0.1257352977991104,-0.16040165722370148
1772467414392159000,6.426158935546875,-0.2340167611837387,-0.06750873476266861,-0.2113974690437317
1772467414402132000,6.436132080078125,-0.16489920020103455,-0.005111405160278082,-0.26588067412376404
1772467414412105000,6.44610498046875,-0.09662747383117676,0.06709115207195282,-0.2928294837474823
1772467414422077200,6.4560771484375,-0.050508446991443634,0.17425568401813507,-0.2920728623867035
1772467414432050000,6.4660498046875,-0.04246623441576958,0.31128278374671936,-0.2543654441833496
1772467414442023000,6.47602294921875,-0.05874374136328697,0.4416431784629822,-0.19789071381092072
1772467414451995100,6.4859951171875,-0.08728697150945663,0.5512123107910156,-0.12325774878263474
1772467414461968100,6.495968017578125,-0.1146666631102562,0.6185351610183716,-0.05415564775466919
1772467414471941000,6.505941162109375,-0.1215599849820137,0.6100242137908936,0.015512647107243538
1772467414481913000,6.5159130859375,-0.10181131958961487,0.5379875898361206,0.08473885804414749
1772467414491886000,6.525885986328125,-0.05498149245977402,0.4323047995567322,0.14607252180576324
1772467414501859000,6.535859130859375,0.008447546511888504,0.3117317855358124,0.18886792659759521
1772467414511832000,6.54583203125,0.07067230343818665,0.19015556573867798,0.19184532761573792
1772467414521804000,6.555803955078125,0.14036136865615845,0.09526126831769943,0.16381555795669556
1772467414531777000,6.565777099609375,0.20403702557086945,0.060987718403339386,0.1327761560678482
1772467414541750000,6.57575,0.2672998905181885,0.0957329198718071,0.0914233922958374
1772467414551722000,6.585721923828125,0.3326280117034912,0.14939267933368683,0.05308638885617256
1772467414561695000,6.595695068359375,0.3858158588409424,0.16251248121261597,0.03741235285997391
1772467414571668200,6.605668212890625,0.4035266935825348,0.10326167196035385,0.03351668268442154
1772467414581640000,6.615639892578125,0.3971414864063263,-0.012983176857233047,0.030232204124331474
1772467414591613000,6.625613037109375,0.3649819493293762,-0.0992826446890831,0.017728131264448166
1772467414601586200,6.635586181640625,0.30300116539001465,-0.0884811282157898,0.0038043255917727947
1772467414611558000,6.645557861328125,0.23486417531967163,0.13538312911987305,0.030280141159892082
1772467414621531100,6.65553125,0.18425053358078003,0.6375381350517273,0.15260738134384155
1772467414631504100,6.665504150390625,0.17486634850502014,1.0306282043457031,0.32486197352409363
1772467414641476000,6.67547607421875,0.13948066532611847,0.949211835861206,0.41307333111763
1772467414651449000,6.685448974609375,0.042512305080890656,0.5183637738227844,0.328118234872818
1772467414661422000,6.695422119140625,-0.0478503480553627,-0.03182770311832428,0.0934700295329094
1772467414671394000,6.70539404296875,-0.12671001255512238,-0.6103355288505554,-0.27696502208709717
1772467414681367000,6.715366943359375,-0.2341800034046173,-1.100359559059143,-0.6516784429550171
1772467414691340000,6.725340087890625,-0.3750241994857788,-1.2632962465286255,-0.8699170351028442
1772467414701312000,6.73531201171875,-0.4795149266719818,-1.0680745840072632,-0.8300487399101257
1772467414711285000,6.745284912109375,-0.49873924255371094,-0.6670805811882019,-0.5860989093780518
1772467414721258200,6.75525830078125,-0.43539541959762573,-0.2622028589248657,-0.2564661502838135
1772467414731230000,6.76522998046875,-0.3565637171268463,0.027722440659999847,0.0781983956694603
1772467414741203000,6.775202880859375,-0.2721870541572571,0.23974521458148956,0.34736010432243347
1772467414751176200,6.78517626953125,-0.18255622684955597,0.3839212954044342,0.5252416729927063
1772467414761149200,6.795149169921875,-0.09420505911111832,0.39104846119880676,0.599685549736023
1772467414771121200,6.80512109375,-0.04820481315255165,0.2661992013454437,0.5742939114570618
1772467414781094100,6.81509423828125,-0.06613454222679138,0.04266756772994995,0.48157835006713867
1772467414791067100,6.825067138671875,-0.1230660080909729,-0.22464722394943237,0.3319963216781616
1772467414801039000,6.8350390625,-0.18385371565818787,-0.4464677572250366,0.15798430144786835
1772467414811012000,6.84501220703125,-0.23780830204486847,-0.5300111174583435,-0.021528994664549828
1772467414820985000,6.854985107421875,-0.2848660945892334,-0.4832207262516022,-0.17964673042297363
1772467414830957000,6.86495703125,-0.3382374346256256,-0.3123946487903595,-0.30436310172080994
1772467414840930000,6.874929931640625,-0.3750329911708832,-0.06419976055622101,-0.3930295705795288
1772467414850903000,6.884903076171875,-0.37594059109687805,0.21612218022346497,-0.43466275930404663
1772467414860875000,6.894875,-0.3256017863750458,0.46219852566719055,-0.39410069584846497
1772467414870848300,6.90484814453125,-0.2655717432498932,0.6693442463874817,-0.3063916265964508
1772467414880821000,6.914821044921875,-0.22280697524547577,0.7753159403800964,-0.21214048564434052
1772467414890793000,6.92479296875,-0.23039592802524567,0.7209853529930115,-0.15286411345005035
1772467414900766200,6.93476611328125,-0.25002527236938477,0.5462130308151245,-0.14411216974258423
1772467414910739200,6.9447392578125,-0.2518988251686096,0.32308298349380493,-0.15803037583827972
1772467414920711200,6.954711181640625,-0.23253284394741058,0.14618118107318878,-0.19199207425117493
1772467414930684200,6.96468408203125,-0.19955678284168243,0.06822992116212845,-0.23470331728458405
1772467414940657200,6.9746572265625,-0.15472114086151123,0.08390608429908752,-0.2817760109901428
1772467414950629000,6.984629150390625,-0.1013583093881607,0.16549628973007202,-0.2959674894809723
1772467414960602000,6.99460205078125,-0.037757232785224915,0.2522897720336914,-0.264089971780777
1772467414970575000,7.0045751953125,0.013983726501464844,0.34562769532203674,-0.17981983721256256
1772467414980547000,7.014547119140625,0.04518026113510132,0.3726380169391632,-0.07589609920978546
1772467414990520000,7.02452001953125,0.05223417654633522,0.3171457350254059,0.01991032436490059
1772467415000493000,7.0344931640625,0.059486497193574905,0.2431015968322754,0.10620180517435074
1772467415010465000,7.044465087890625,0.07287127524614334,0.16272340714931488,0.18883275985717773
1772467415020438000,7.05443798828125,0.0807904526591301,0.07839733362197876,0.26584872603416443
1772467415030411000,7.064410888671875,0.06089237704873085,-0.02732403203845024,0.3278103470802307
1772467415040383000,7.074383056640625,0.03867468982934952,-0.12963148951530457,0.38312768936157227
1772467415050356200,7.084356201171875,0.022250976413488388,-0.18886472284793854,0.43411949276924133
1772467415060329000,7.094328857421875,0.010392453521490097,-0.2155304253101349,0.4659043252468109
1772467415070301000,7.104301025390625,-0.002757703186944127,-0.2502031922340393,0.45734357833862305
1772467415080274200,7.114274169921875,-0.023563649505376816,-0.2830495536327362,0.4150741696357727
1772467415090247200,7.1242470703125,-0.042628418654203415,-0.287177711725235,0.34635129570961
1772467415100219100,7.13421923828125,-0.05043654143810272,-0.2692258656024933,0.2582707107067108
1772467415110192000,7.144192138671875,-0.07121185958385468,-0.25710049271583557,0.16991153359413147
1772467415120165000,7.1541650390625,-0.10622577369213104,-0.27116039395332336,0.0996626764535904
1772467415130137000,7.16413720703125,-0.14834019541740417,-0.3253248333930969,0.05802974849939346
1772467415140110000,7.174110107421875,-0.18284864723682404,-0.3893589377403259,0.05284563824534416
1772467415150083000,7.1840830078125,-0.21515785157680511,-0.4320118725299835,0.07168963551521301
1772467415160055000,7.194054931640625,-0.2441873699426651,-0.432462215423584,0.11228739470243454
1772467415170028000,7.204028076171875,-0.25803446769714355,-0.3245149552822113,0.17702192068099976
1772467415180001000,7.2140009765625,-0.2476622611284256,-0.09321276843547821,0.2881186008453369
1772467415189973000,7.223972900390625,-0.22313721477985382,0.004489823244512081,0.3938162624835968
1772467415199946200,7.2339462890625,-0.21850357949733734,-0.08933200687170029,0.4322872459888458
1772467415209919000,7.2439189453125,-0.2228914052248001,-0.22860334813594818,0.392448753118515
1772467415219891000,7.253890869140625,-0.21073433756828308,-0.36492231488227844,0.2681339681148529
1772467415229864200,7.2638642578125,-0.1833900660276413,-0.5026397109031677,0.05613677203655243
1772467415239837200,7.273837158203125,-0.15127074718475342,-0.5923346877098083,-0.18633711338043213
1772467415249809200,7.28380908203125,-0.13150103390216827,-0.5787480473518372,-0.3924974799156189
1772467415259782100,7.2937822265625,-0.13250158727169037,-0.47615161538124084,-0.5382517576217651
1772467415269755100,7.303755126953125,-0.11846273392438889,-0.32532963156700134,-0.5830762386322021
1772467415279727000,7.31372705078125,-0.09371317923069,-0.13088397681713104,-0.5471373796463013
1772467415289697000,7.323697021484375,-0.07978218048810959,0.03804671764373779,-0.4575180113315582
1772467415299670000,7.333669921875,-0.08616258203983307,0.16085785627365112,-0.3313281238079071
1772467415309641700,7.343641845703125,-0.0814565122127533,0.25119495391845703,-0.1693168580532074
1772467415319615000,7.353614990234375,-0.06792552024126053,0.28928905725479126,-0.013094230554997921
1772467415329588000,7.363587890625,-0.0633012056350708,0.2684367895126343,0.10975339263677597
1772467415339559700,7.3735595703125,-0.07780904322862625,0.1901659518480301,0.17249827086925507
1772467415349533000,7.383532958984375,-0.1055152416229248,0.06543333828449249,0.18518610298633575
1772467415359506000,7.393505859375,-0.12977823615074158,-0.11699772626161575,0.12459279596805573
1772467415369478000,7.403477783203125,-0.1311684101819992,-0.31698888540267944,-0.013337376527488232
1772467415379451000,7.413450927734375,-0.1037738025188446,-0.44080135226249695,-0.19378891587257385
1772467415389423900,7.423423828125,-0.04360872879624367,-0.46873846650123596,-0.37955769896507263
1772467415399395800,7.433395751953125,0.01769137941300869,-0.40899497270584106,-0.5331949591636658
1772467415409369000,7.443369140625,0.06004815548658371,-0.2625080645084381,-0.6192776560783386
1772467415419341800,7.453341796875,0.09324099868535995,-0.05290662497282028,-0.6312501430511475
1772467415429313800,7.463313720703125,0.10845936834812164,0.17808665335178375,-0.5710115432739258
1772467415439287000,7.473287109375,0.09935295581817627,0.3670424520969391,-0.4562165439128876
1772467415449260000,7.483260009765625,0.06805761158466339,0.47082823514938354,-0.3234022855758667
1772467415459231700,7.493231689453125,0.034861043095588684,0.4867667257785797,-0.19484245777130127
1772467415469205000,7.503205078125,-0.014031397178769112,0.4213152825832367,-0.0919184684753418
1772467415479178000,7.513177978515625,-0.07964929193258286,0.30563634634017944,0.008332764729857445
1772467415489149700,7.523149658203125,-0.1453862190246582,0.2017059624195099,0.09332941472530365
1772467415499123000,7.533123046875,-0.19822733104228973,0.11141786724328995,0.16186480224132538
1772467415509096000,7.543095947265625,-0.22195343673229218,0.04043850302696228,0.1939052939414978
1772467415519068000,7.55306787109375,-0.23237945139408112,-0.020897824317216873,0.19665713608264923
1772467415529041000,7.563041015625,-0.23174774646759033,-0.047741957008838654,0.16652560234069824
1772467415539014000,7.573013916015625,-0.21538741886615753,-0.03710822016000748,0.11758202314376831
1772467415548985900,7.58298583984375,-0.18552272021770477,0.0036599822342395782,0.05017049238085747
1772467415558959000,7.592958984375,-0.15079431235790253,0.03930985555052757,-0.016355004161596298
1772467415568931800,7.602931884765625,-0.11649145931005478,0.08693383634090424,-0.05303312465548515
1772467415578903800,7.61290380859375,-0.09160342067480087,0.15008510649204254,-0.05391063541173935
1772467415588877000,7.622876953125,-0.07711608707904816,0.2338646948337555,-0.03284476697444916
1772467415598850000,7.63285009765625,-0.060807157307863235,0.3312825858592987,-0.0012988236267119646
1772467415608821800,7.64282177734375,-0.040830254554748535,0.3972781300544739,0.01961551234126091
1772467415618795000,7.652794921875,-0.022129803895950317,0.42625996470451355,0.03099759668111801
1772467415628768000,7.66276806640625,0.0015108112711459398,0.41646885871887207,0.050577957183122635
1772467415638739700,7.67273974609375,0.016449280083179474,0.37463194131851196,0.06383410841226578
1772467415648713000,7.682712890625,0.02425873465836048,0.3226374387741089,0.08212017267942429
1772467415658685000,7.692684814453125,0.02171674743294716,0.2317000776529312,0.08605872094631195
1772467415668658000,7.702657958984375,0.014423946850001812,0.12102122604846954,0.07705377042293549
1772467415678631000,7.712630859375,0.01486123725771904,0.021581724286079407,0.06234326958656311
1772467415688603000,7.722602783203125,0.031807731837034225,-0.022782810032367706,0.03684110566973686
1772467415698576000,7.732575927734375,0.059066250920295715,-0.009147425182163715,0.007138869725167751
1772467415708548900,7.742548828125,0.10553308576345444,0.018865566700696945,-0.011640410870313644
1772467415718520800,7.752520751953125,0.15890683233737946,0.06132647395133972,-0.01022973470389843
1772467415728493800,7.762493896484375,0.21192370355129242,0.1429603546857834,-0.00047084689140319824
1772467415738467000,7.772467041015625,0.23581145703792572,0.4298251271247864,0.03455371409654617
1772467415748438800,7.782438720703125,0.26887354254722595,0.7852059006690979,0.16273298859596252
1772467415758411800,7.792411865234375,0.3091384172439575,0.8064469695091248,0.2944486737251282
1772467415768385000,7.802385009765625,0.2717646658420563,0.5193081498146057,0.30322006344795227
1772467415778356700,7.812356689453125,0.21851715445518494,0.15935742855072021,0.24727371335029602
1772467415788329700,7.822329833984375,0.20541414618492126,-0.228616401553154,0.12155785411596298
1772467415798303000,7.832302978515625,0.18623937666416168,-0.6359018683433533,-0.06898120045661926
1772467415808275000,7.84227490234375,0.12870605289936066,-0.9023162722587585,-0.23484046757221222
1772467415818247700,7.85224755859375,0.05578576773405075,-0.869781494140625,-0.3224683105945587
1772467415828221000,7.862220947265625,0.005335643421858549,-0.5261831283569336,-0.28796839714050293
1772467415838193000,7.87219287109375,0.01985359936952591,0.024174578487873077,-0.12785835564136505
1772467415848166000,7.882165771484375,0.0678861066699028,0.5895660519599915,0.07975555211305618
1772467415858139000,7.892138916015625,0.10364170372486115,0.9410921335220337,0.24847905337810516
1772467415868110800,7.90211083984375,0.11571035534143448,1.0310055017471313,0.35028743743896484
1772467415878083800,7.912083740234375,0.11502272635698318,0.9277486205101013,0.382402241230011
1772467415888055800,7.922055908203125,0.10977043956518173,0.6582950949668884,0.33867818117141724
1772467415898028800,7.93202880859375,0.10310481488704681,0.29147258400917053,0.26326438784599304
1772467415908001800,7.942001708984375,0.09465806186199188,-0.09330997616052628,0.1679205596446991
1772467415917974000,7.95197412109375,0.08410076051950455,-0.40090426802635193,0.05241766944527626
1772467415927946800,7.96194677734375,0.09127158671617508,-0.5627238154411316,-0.07836351543664932
1772467415937919700,7.971919677734375,0.08807073533535004,-0.5910207033157349,-0.2020612210035324
1772467415947892000,7.98189208984375,0.07669690996408463,-0.49254685640335083,-0.2746211886405945
1772467415957865000,7.991864990234375,0.03993942588567734,-0.2915162742137909,-0.310865193605423
1772467415967837700,8.001837646484375,-0.02087279036641121,-0.07456771284341812,-0.3190118074417114
1772467415977810000,8.011809814453125,-0.05451836809515953,0.1296277642250061,-0.3169401288032532
1772467415987783000,8.021782958984375,-0.05537857115268707,0.30652478337287903,-0.31474408507347107
1772467415997756000,8.031755859375,-0.04689773544669151,0.3930673897266388,-0.34232673048973083
1772467416007727900,8.041727783203125,-0.04220098257064819,0.3958972692489624,-0.3916287422180176
1772467416017700900,8.051700927734375,-0.04180976375937462,0.3757112920284271,-0.44122374057769775
1772467416027673000,8.061673095703124,-0.036918871104717255,0.3119240701198578,-0.49389439821243286
1772467416037645800,8.071645751953126,-0.02387816831469536,0.22678813338279724,-0.5238051414489746
1772467416047618800,8.081618896484375,-0.0003741741238627583,0.16436657309532166,-0.50441575050354
1772467416057591000,8.091591064453125,0.021251492202281952,0.13173219561576843,-0.449645459651947
1772467416067564000,8.10156396484375,0.03989415243268013,0.13158679008483887,-0.3656778335571289
1772467416077536800,8.111536865234376,0.05548856034874916,0.17096641659736633,-0.2584206461906433
1772467416087509000,8.121509033203125,0.06567088514566422,0.21836616098880768,-0.14434173703193665
1772467416097482000,8.13148193359375,0.07890520244836807,0.24657675623893738,-0.0356978103518486
1772467416107455000,8.141455078125,0.09710923582315445,0.22635483741760254,0.050207510590553284
1772467416117427000,8.151427001953126,0.11508291214704514,0.17638275027275085,0.10239747911691666
1772467416127400000,8.16139990234375,0.13010580837726593,0.15131601691246033,0.13949105143547058
1772467416137373000,8.171373046875,0.1344584822654724,0.13450241088867188,0.16791017353534698
1772467416147345000,8.181344970703124,0.12507270276546478,0.11648959666490555,0.1903369277715683
1772467416157318000,8.19131787109375,0.10601325333118439,0.11467784643173218,0.22045008838176727
1772467416167291000,8.201290771484375,0.0666530653834343,0.09842058271169662,0.26629000902175903
1772467416177262800,8.211262939453125,0.014916098676621914,0.05155054107308388,0.34444233775138855
1772467416187235800,8.22123583984375,-0.022607041522860527,-0.0012839100090786815,0.42257896065711975
1772467416197207800,8.231207763671875,-0.05541851744055748,-0.0194927416741848,0.48072320222854614
1772467416207181000,8.24118115234375,-0.0942026674747467,-0.029046831652522087,0.4926922619342804
1772467416217153800,8.25115380859375,-0.14767254889011383,-0.06910742819309235,0.4604102075099945
1772467416227125800,8.261125732421876,-0.20025986433029175,-0.13386058807373047,0.3879826068878174
1772467416237099000,8.27109912109375,-0.24837598204612732,-0.20690391957759857,0.2853257358074188
1772467416247072000,8.281072021484375,-0.2955738604068756,-0.27658525109291077,0.15636350214481354
1772467416257043700,8.291043701171875,-0.3385689854621887,-0.3160724639892578,0.036971867084503174
1772467416267017000,8.301016845703124,-0.36796629428863525,-0.319865345954895,-0.0429551899433136
1772467416276990000,8.310989990234376,-0.3624791204929352,-0.2818567156791687,-0.05984975025057793
1772467416286966000,8.320966064453126,-0.34016555547714233,-0.1189679354429245,-0.005021922755986452
1772467416296939000,8.33093896484375,-0.2987781763076782,0.11233266443014145,0.13406752049922943
1772467416306911000,8.340910888671875,-0.28543707728385925,0.13354606926441193,0.2514559328556061
1772467416316884000,8.350884033203124,-0.3318983018398285,-0.03271586820483208,0.2764204144477844
1772467416326857200,8.360857177734376,-0.378068745136261,-0.2206902951002121,0.2237127274274826
1772467416336829000,8.370828857421875,-0.3805508017539978,-0.42123112082481384,0.05476071685552597
1772467416346802000,8.380802001953125,-0.3483057916164398,-0.600948691368103,-0.23344923555850983
1772467416356775200,8.390775146484375,-0.317436546087265,-0.6401975750923157,-0.5588928461074829
1772467416366747100,8.4007470703125,-0.27962526679039,-0.513155460357666,-0.8299288749694824
1772467416376720000,8.410719970703125,-0.21678583323955536,-0.26284387707710266,-1.0037107467651367
1772467416386693000,8.420693115234375,-0.12682825326919556,0.059058260172605515,-1.0556246042251587
1772467416396665000,8.4306650390625,-0.05223177745938301,0.3815545439720154,-0.9865448474884033
1772467416406637800,8.440637939453126,-0.010995126329362392,0.6784919500350952,-0.8317217230796814
1772467416416610000,8.450610107421875,0.024933578446507454,0.9605364203453064,-0.6079842448234558
1772467416426583000,8.4605830078125,0.06347537785768509,1.1769376993179321,-0.3753112852573395
1772467416436556000,8.47055615234375,0.08123014122247696,1.2237966060638428,-0.09236934781074524
1772467416446528000,8.480528076171876,-0.04321511462330818,0.9347865581512451,0.34922003746032715
1772467416456501000,8.4905009765625,-0.24963699281215668,0.014940333552658558,0.5237711071968079
1772467416466474000,8.500473876953125,-0.34897929430007935,-0.9068716168403625,0.4987837076187134
1772467416476446000,8.510446044921874,-0.36559581756591797,-1.24808931350708,0.41548189520835876
1772467416486419000,8.5204189453125,-0.35590803623199463,-1.3067591190338135,0.24083924293518066
1772467416496392000,8.530391845703125,-0.33335718512535095,-1.2095848321914673,-0.025739451870322227
1772467416506364200,8.5403642578125,-0.2783690392971039,-0.9832771420478821,-0.29957154393196106
1772467416516337000,8.5503369140625,-0.19607336819171906,-0.703906238079071,-0.56942218542099
1772467416526309000,8.56030908203125,-0.08504964411258698,-0.3979564309120178,-0.7838636636734009
1772467416536282000,8.5702822265625,0.010319482535123825,-0.09450573474168777,-0.8699929118156433
1772467416546255000,8.580255126953125,0.03713618218898773,0.1346302479505539,-0.7677019834518433
1772467416556227000,8.59022705078125,0.04970443993806839,0.15738403797149658,-0.5699092745780945
